"success","ttype","start_time","trial_type","trial_index","time_elapsed","internal_node_id","warning","missed_checkup","PID","view_history","rt","responses","repeat_instructions","key_press","index","keypress_isi","keypress_S2","block","trial_num","phase","group_type","pair_type","S1_stim","S2_stim","S1_img","S2_img","S1_chosen","S1_higher","accuracy","keypress_iti","total_bonus_tally"
"true","full_screen","d07252022hr2039","fullscreen","0","2177","0.0-0.0","0","0","33107","","","","","","","","","","","","","","","","","","","","","",""
"","instructions","","instructions","1","4150","0.0-1.0-0.0-0.0","0","0","33107","[{""page_index"":0,""viewing_time"":1202},{""page_index"":1,""viewing_time"":219},{""page_index"":2,""viewing_time"":549}]","1971","","","","","","","","","","","","","","","","","","","",""
"","comprehension_check","","survey-multi-choice","2","11755","0.0-1.0-0.0-1.0","0","0","33107","","7599","{""Q0"":""True"",""Q1"":""True"",""Q2"":""When you see the prompt 'MAKE A CHOICE' after the second image was presented"",""Q3"":""Green mark"",""Q4"":""either D or K""}","0","","","","","","","","","","","","","","","","","",""
"","start_exp","","html-keyboard-response","3","13082","0.0-1.0-1.0","0","0","33107","","1324","","","32","","","","","","","","","","","","","","","","",""
"","S1","","html-keyboard-response","4","13337","0.0-1.0-2.0","0","0","33107","","null","","","null","0","","","","","","","","","","","","","","","",""
"","ISI","","html-keyboard-response","5","13442","0.0-1.0-3.0","0","0","33107","","null","","","null","0","NaN","","","","","","","","","","","","","","",""
"","S2","","html-keyboard-response","6","13697","0.0-1.0-4.0","0","0","33107","","null","","","null","0","","NaN","","","","","","","","","","","","","",""
"","response","","html-keyboard-response","7","13791","0.0-1.0-5.0","0","0","33107","","92","","","75","0","","","1","0","training","adjacent","FE","6","5","M.jpg","Q.jpg","1","0","0","",""
"","feedback","","html-keyboard-response","8","13898","0.0-1.0-6.0-0.0","0","0","33107","","null","","","null","0","","","","","","","","","","","","","","","",""
"","time_out","","html-keyboard-response","9","14003","0.0-1.0-8.0-0.0","0","0","33107","","null","","","null","0","","","","","","","","","","","","","","","",""
"","ITI","","html-keyboard-response","10","14509","0.0-1.0-9.0","0","0","33107","","169","","","75","0","","","","","","","","","","","","","","","k",""
"","S1","","html-keyboard-response","11","14763","0.0-1.0-11.0","0","0","33107","","null","","","null","1","","","","","","","","","","","","","","","",""
"","ISI","","html-keyboard-response","12","14864","0.0-1.0-12.0","0","0","33107","","null","","","null","1","NaN","","","","","","","","","","","","","","",""
"","S2","","html-keyboard-response","13","15119","0.0-1.0-13.0","0","0","33107","","19","","","75","1","","k","","","","","","","","","","","","","",""
"","response","","html-keyboard-response","14","15492","0.0-1.0-14.0","0","0","33107","","371","","","75","1","","","1","1","training","adjacent","BA","2","1","N.jpg","R.jpg","1","0","0","",""
"","feedback","","html-keyboard-response","15","15594","0.0-1.0-15.0-0.0","0","0","33107","","null","","","null","1","","","","","","","","","","","","","","","",""
"","time_out","","html-keyboard-response","16","15699","0.0-1.0-17.0-0.0","0","0","33107","","null","","","null","1","","","","","","","","","","","","","","","",""
"","ITI","","html-keyboard-response","17","16202","0.0-1.0-18.0","0","0","33107","","1","","","75","1","","","","","","","","","","","","","","","k",""
"","S1","","html-keyboard-response","18","16456","0.0-1.0-20.0","0","0","33107","","null","","","null","2","","","","","","","","","","","","","","","",""
"","ISI","","html-keyboard-response","19","16560","0.0-1.0-21.0","0","0","33107","","85","","","75","2","k","","","","","","","","","","","","","","",""
"","S2","","html-keyboard-response","20","16816","0.0-1.0-22.0","0","0","33107","","199","","","75","2","","k","","","","","","","","","","","","","",""
"","response","","html-keyboard-response","21","16971","0.0-1.0-23.0","0","0","33107","","154","","","75","2","","","1","2","training","adjacent","AB","1","2","R.jpg","N.jpg","1","1","1","",""
"","feedback","","html-keyboard-response","22","17073","0.0-1.0-24.0-0.0","0","0","33107","","null","","","null","2","","","","","","","","","","","","","","","",""
"","ITI","","html-keyboard-response","23","17575","0.0-1.0-27.0","0","0","33107","","396","","","75","2","","","","","","","","","","","","","","","k",""
"","S1","","html-keyboard-response","24","17828","0.0-1.0-29.0","0","0","33107","","null","","","null","3","","","","","","","","","","","","","","","",""
"","ISI","","html-keyboard-response","25","17934","0.0-1.0-30.0","0","0","33107","","null","","","null","3","NaN","","","","","","","","","","","","","","",""
"","S2","","html-keyboard-response","26","18189","0.0-1.0-31.0","0","0","33107","","224","","","75","3","","k","","","","","","","","","","","","","",""
"","response","","html-keyboard-response","27","18386","0.0-1.0-32.0","0","0","33107","","195","","","75","3","","","1","3","training","adjacent","FG","6","7","M.jpg","L.jpg","1","1","1","",""
"","feedback","","html-keyboard-response","28","18489","0.0-1.0-33.0-0.0","0","0","33107","","null","","","null","3","","","","","","","","","","","","","","","",""
"","ITI","","html-keyboard-response","29","18992","0.0-1.0-36.0","0","0","33107","","114","","","75","3","","","","","","","","","","","","","","","k",""
"","S1","","html-keyboard-response","30","19247","0.0-1.0-38.0","0","0","33107","","null","","","null","4","","","","","","","","","","","","","","","",""
"","ISI","","html-keyboard-response","31","19349","0.0-1.0-39.0","0","0","33107","","null","","","null","4","NaN","","","","","","","","","","","","","","",""
"","S2","","html-keyboard-response","32","19601","0.0-1.0-40.0","0","0","33107","","50","","","75","4","","k","","","","","","","","","","","","","",""
"","response","","html-keyboard-response","33","19607","0.0-1.0-41.0","0","0","33107","","5","","","75","4","","","1","4","training","adjacent","ED","5","4","Q.jpg","O.jpg","1","0","0","",""
"","feedback","","html-keyboard-response","34","19710","0.0-1.0-42.0-0.0","0","0","33107","","null","","","null","4","","","","","","","","","","","","","","","",""
"","time_out","","html-keyboard-response","35","19813","0.0-1.0-44.0-0.0","0","0","33107","","null","","","null","4","","","","","","","","","","","","","","","",""
"","ITI","","html-keyboard-response","36","20317","0.0-1.0-45.0","0","0","33107","","282","","","75","4","","","","","","","","","","","","","","","k",""
"","S1","","html-keyboard-response","37","20570","0.0-1.0-47.0","0","0","33107","","null","","","null","5","","","","","","","","","","","","","","","",""
"","ISI","","html-keyboard-response","38","20673","0.0-1.0-48.0","0","0","33107","","95","","","75","5","k","","","","","","","","","","","","","","",""
"","S2","","html-keyboard-response","39","20929","0.0-1.0-49.0","0","0","33107","","null","","","null","5","","NaN","","","","","","","","","","","","","",""
"","response","","html-keyboard-response","40","21011","0.0-1.0-50.0","0","0","33107","","81","","","75","5","","","1","5","training","adjacent","GF","7","6","L.jpg","M.jpg","1","0","0","",""
"","feedback","","html-keyboard-response","41","21115","0.0-1.0-51.0-0.0","0","0","33107","","null","","","null","5","","","","","","","","","","","","","","","",""
"","time_out","","html-keyboard-response","42","21218","0.0-1.0-53.0-0.0","0","0","33107","","null","","","null","5","","","","","","","","","","","","","","","",""
"","ITI","","html-keyboard-response","43","21720","0.0-1.0-54.0","0","0","33107","","408","","","75","5","","","","","","","","","","","","","","","k",""
"","S1","","html-keyboard-response","44","21973","0.0-1.0-56.0","0","0","33107","","null","","","null","6","","","","","","","","","","","","","","","",""
"","ISI","","html-keyboard-response","45","22078","0.0-1.0-57.0","0","0","33107","","78","","","75","6","k","","","","","","","","","","","","","","",""
"","S2","","html-keyboard-response","46","22335","0.0-1.0-58.0","0","0","33107","","null","","","null","6","","NaN","","","","","","","","","","","","","",""
"","response","","html-keyboard-response","47","22600","0.0-1.0-59.0","0","0","33107","","263","","","75","6","","","1","6","training","adjacent","CB","3","2","P.jpg","N.jpg","1","0","0","",""
"","feedback","","html-keyboard-response","48","22702","0.0-1.0-60.0-0.0","0","0","33107","","null","","","null","6","","","","","","","","","","","","","","","",""
"","time_out","","html-keyboard-response","49","22806","0.0-1.0-62.0-0.0","0","0","33107","","null","","","null","6","","","","","","","","","","","","","","","",""
"","ITI","","html-keyboard-response","50","23311","0.0-1.0-63.0","0","0","33107","","4","","","75","6","","","","","","","","","","","","","","","k",""
"","S1","","html-keyboard-response","51","23567","0.0-1.0-65.0","0","0","33107","","null","","","null","7","","","","","","","","","","","","","","","",""
"","ISI","","html-keyboard-response","52","23672","0.0-1.0-66.0","0","0","33107","","86","","","75","7","k","","","","","","","","","","","","","","",""
"","S2","","html-keyboard-response","53","23926","0.0-1.0-67.0","0","0","33107","","null","","","null","7","","NaN","","","","","","","","","","","","","",""
"","response","","html-keyboard-response","54","24111","0.0-1.0-68.0","0","0","33107","","183","","","75","7","","","1","7","training","adjacent","DE","4","5","O.jpg","Q.jpg","1","1","1","",""
"","feedback","","html-keyboard-response","55","24212","0.0-1.0-69.0-0.0","0","0","33107","","null","","","null","7","","","","","","","","","","","","","","","",""
"","ITI","","html-keyboard-response","56","24715","0.0-1.0-72.0","0","0","33107","","77","","","75","7","","","","","","","","","","","","","","","k",""
"","S1","","html-keyboard-response","57","24971","0.0-1.0-74.0","0","0","33107","","null","","","null","8","","","","","","","","","","","","","","","",""
"","ISI","","html-keyboard-response","58","25075","0.0-1.0-75.0","0","0","33107","","null","","","null","8","NaN","","","","","","","","","","","","","","",""
"","S2","","html-keyboard-response","59","25327","0.0-1.0-76.0","0","0","33107","","167","","","75","8","","k","","","","","","","","","","","","","",""
"","response","","html-keyboard-response","60","25811","0.0-1.0-77.0","0","0","33107","","482","","","75","8","","","1","8","training","adjacent","EF","5","6","Q.jpg","M.jpg","1","1","1","",""
"","feedback","","html-keyboard-response","61","25913","0.0-1.0-78.0-0.0","0","0","33107","","null","","","null","8","","","","","","","","","","","","","","","",""
"","ITI","","html-keyboard-response","62","26416","0.0-1.0-81.0","0","0","33107","","85","","","75","8","","","","","","","","","","","","","","","k",""
"","S1","","html-keyboard-response","63","26673","0.0-1.0-83.0","0","0","33107","","null","","","null","9","","","","","","","","","","","","","","","",""
"","ISI","","html-keyboard-response","64","26779","0.0-1.0-84.0","0","0","33107","","null","","","null","9","NaN","","","","","","","","","","","","","","",""
"","S2","","html-keyboard-response","65","27034","0.0-1.0-85.0","0","0","33107","","null","","","null","9","","NaN","","","","","","","","","","","","","",""
"","response","","html-keyboard-response","66","27039","0.0-1.0-86.0","0","0","33107","","4","","","75","9","","","1","9","training","adjacent","CD","3","4","P.jpg","O.jpg","1","1","1","",""
"","feedback","","html-keyboard-response","67","27141","0.0-1.0-87.0-0.0","0","0","33107","","null","","","null","9","","","","","","","","","","","","","","","",""
"","ITI","","html-keyboard-response","68","27643","0.0-1.0-90.0","0","0","33107","","98","","","75","9","","","","","","","","","","","","","","","k",""
"","S1","","html-keyboard-response","69","27895","0.0-1.0-92.0","0","0","33107","","null","","","null","10","","","","","","","","","","","","","","","",""
"","ISI","","html-keyboard-response","70","27997","0.0-1.0-93.0","0","0","33107","","14","","","75","10","k","","","","","","","","","","","","","","",""
"","S2","","html-keyboard-response","71","28249","0.0-1.0-94.0","0","0","33107","","115","","","75","10","","k","","","","","","","","","","","","","",""
"","response","","html-keyboard-response","72","28311","0.0-1.0-95.0","0","0","33107","","61","","","75","10","","","1","10","training","adjacent","DC","4","3","O.jpg","P.jpg","1","0","0","",""
"","feedback","","html-keyboard-response","73","28413","0.0-1.0-96.0-0.0","0","0","33107","","null","","","null","10","","","","","","","","","","","","","","","",""
"","time_out","","html-keyboard-response","74","28517","0.0-1.0-98.0-0.0","0","0","33107","","null","","","null","10","","","","","","","","","","","","","","","",""
"","ITI","","html-keyboard-response","75","29019","0.0-1.0-99.0","0","0","33107","","161","","","75","10","","","","","","","","","","","","","","","k",""
"","S1","","html-keyboard-response","76","29272","0.0-1.0-101.0","0","0","33107","","null","","","null","11","","","","","","","","","","","","","","","",""
"","ISI","","html-keyboard-response","77","29374","0.0-1.0-102.0","0","0","33107","","null","","","null","11","NaN","","","","","","","","","","","","","","",""
"","S2","","html-keyboard-response","78","29629","0.0-1.0-103.0","0","0","33107","","159","","","75","11","","k","","","","","","","","","","","","","",""
"","response","","html-keyboard-response","79","30107","0.0-1.0-104.0","0","0","33107","","477","","","75","11","","","1","11","training","adjacent","BC","2","3","N.jpg","P.jpg","1","1","1","",""
"","feedback","","html-keyboard-response","80","30209","0.0-1.0-105.0-0.0","0","0","33107","","null","","","null","11","","","","","","","","","","","","","","","",""
"","ITI","","html-keyboard-response","81","30712","0.0-1.0-108.0","0","0","33107","","124","","","75","11","","","","","","","","","","","","","","","k",""
"","block_over","","html-keyboard-response","82","35038","0.0-1.0-109.0-0.0","0","0","33107","","4324","","","32","11","","","","","","","","","","","","","","","",""
"","S1","","html-keyboard-response","83","35291","0.0-1.0-110.0","0","0","33107","","null","","","null","12","","","","","","","","","","","","","","","",""
"","ISI","","html-keyboard-response","84","35393","0.0-1.0-111.0","0","0","33107","","null","","","null","12","NaN","","","","","","","","","","","","","","",""
"","S2","","html-keyboard-response","85","35646","0.0-1.0-112.0","0","0","33107","","235","","","75","12","","k","","","","","","","","","","","","","",""
"","response","","html-keyboard-response","86","35875","0.0-1.0-113.0","0","0","33107","","229","","","75","12","","","2","12","training","adjacent","DE","4","5","O.jpg","Q.jpg","1","1","1","",""
"","feedback","","html-keyboard-response","87","35977","0.0-1.0-114.0-0.0","0","0","33107","","null","","","null","12","","","","","","","","","","","","","","","",""
"","ITI","","html-keyboard-response","88","36481","0.0-1.0-117.0","0","0","33107","","129","","","75","12","","","","","","","","","","","","","","","k",""
"","S1","","html-keyboard-response","89","36737","0.0-1.0-119.0","0","0","33107","","null","","","null","13","","","","","","","","","","","","","","","",""
"","ISI","","html-keyboard-response","90","36841","0.0-1.0-120.0","0","0","33107","","88","","","75","13","k","","","","","","","","","","","","","","",""
"","S2","","html-keyboard-response","91","37097","0.0-1.0-121.0","0","0","33107","","202","","","75","13","","k","","","","","","","","","","","","","",""
"","response","","html-keyboard-response","92","37248","0.0-1.0-122.0","0","0","33107","","150","","","75","13","","","2","13","training","adjacent","GF","7","6","L.jpg","M.jpg","1","0","0","",""
"","feedback","","html-keyboard-response","93","37351","0.0-1.0-123.0-0.0","0","0","33107","","null","","","null","13","","","","","","","","","","","","","","","",""
"","time_out","","html-keyboard-response","94","37456","0.0-1.0-125.0-0.0","0","0","33107","","null","","","null","13","","","","","","","","","","","","","","","",""
"","ITI","","html-keyboard-response","95","37961","0.0-1.0-126.0","0","0","33107","","3","","","75","13","","","","","","","","","","","","","","","k",""
"","S1","","html-keyboard-response","96","38213","0.0-1.0-128.0","0","0","33107","","null","","","null","14","","","","","","","","","","","","","","","",""
"","ISI","","html-keyboard-response","97","38314","0.0-1.0-129.0","0","0","33107","","99","","","75","14","k","","","","","","","","","","","","","","",""
"","S2","","html-keyboard-response","98","38569","0.0-1.0-130.0","0","0","33107","","222","","","75","14","","k","","","","","","","","","","","","","",""
"","response","","html-keyboard-response","99","38765","0.0-1.0-131.0","0","0","33107","","195","","","75","14","","","2","14","training","adjacent","AB","1","2","R.jpg","N.jpg","1","1","1","",""
"","feedback","","html-keyboard-response","100","38868","0.0-1.0-132.0-0.0","0","0","33107","","null","","","null","14","","","","","","","","","","","","","","","",""
"","ITI","","html-keyboard-response","101","39374","0.0-1.0-135.0","0","0","33107","","105","","","75","14","","","","","","","","","","","","","","","k",""
"","S1","","html-keyboard-response","102","39628","0.0-1.0-137.0","0","0","33107","","null","","","null","15","","","","","","","","","","","","","","","",""
"","ISI","","html-keyboard-response","103","39734","0.0-1.0-138.0","0","0","33107","","8","","","75","15","k","","","","","","","","","","","","","","",""
"","S2","","html-keyboard-response","104","39988","0.0-1.0-139.0","0","0","33107","","111","","","75","15","","k","","","","","","","","","","","","","",""
"","response","","html-keyboard-response","105","40053","0.0-1.0-140.0","0","0","33107","","64","","","75","15","","","2","15","training","adjacent","EF","5","6","Q.jpg","M.jpg","1","1","1","",""
"","feedback","","html-keyboard-response","106","40156","0.0-1.0-141.0-0.0","0","0","33107","","null","","","null","15","","","","","","","","","","","","","","","",""
"","ITI","","html-keyboard-response","107","40657","0.0-1.0-144.0","0","0","33107","","149","","","75","15","","","","","","","","","","","","","","","k",""
"","S1","","html-keyboard-response","108","40911","0.0-1.0-146.0","0","0","33107","","null","","","null","16","","","","","","","","","","","","","","","",""
"","ISI","","html-keyboard-response","109","41016","0.0-1.0-147.0","0","0","33107","","75","","","75","16","k","","","","","","","","","","","","","","",""
"","S2","","html-keyboard-response","110","41274","0.0-1.0-148.0","0","0","33107","","214","","","75","16","","k","","","","","","","","","","","","","",""
"","response","","html-keyboard-response","111","41538","0.0-1.0-149.0","0","0","33107","","263","","","75","16","","","2","16","training","adjacent","BC","2","3","N.jpg","P.jpg","1","1","1","",""
"","feedback","","html-keyboard-response","112","41642","0.0-1.0-150.0-0.0","0","0","33107","","null","","","null","16","","","","","","","","","","","","","","","",""
"","ITI","","html-keyboard-response","113","42143","0.0-1.0-153.0","0","0","33107","","330","","","75","16","","","","","","","","","","","","","","","k",""
"","S1","","html-keyboard-response","114","42396","0.0-1.0-155.0","0","0","33107","","null","","","null","17","","","","","","","","","","","","","","","",""
"","ISI","","html-keyboard-response","115","42500","0.0-1.0-156.0","0","0","33107","","null","","","null","17","NaN","","","","","","","","","","","","","","",""
"","S2","","html-keyboard-response","116","42754","0.0-1.0-157.0","0","0","33107","","10","","","75","17","","k","","","","","","","","","","","","","",""
"","response","","html-keyboard-response","117","42757","0.0-1.0-158.0","0","0","33107","","3","","","75","17","","","2","17","training","adjacent","CD","3","4","P.jpg","O.jpg","1","1","1","",""
"","feedback","","html-keyboard-response","118","42860","0.0-1.0-159.0-0.0","0","0","33107","","null","","","null","17","","","","","","","","","","","","","","","",""
"","ITI","","html-keyboard-response","119","43363","0.0-1.0-162.0","0","0","33107","","204","","","75","17","","","","","","","","","","","","","","","k",""
"","S1","","html-keyboard-response","120","43616","0.0-1.0-164.0","0","0","33107","","null","","","null","18","","","","","","","","","","","","","","","",""
"","ISI","","html-keyboard-response","121","43719","0.0-1.0-165.0","0","0","33107","","null","","","null","18","NaN","","","","","","","","","","","","","","",""
"","S2","","html-keyboard-response","122","43975","0.0-1.0-166.0","0","0","33107","","121","","","75","18","","k","","","","","","","","","","","","","",""
"","response","","html-keyboard-response","123","44092","0.0-1.0-167.0","0","0","33107","","116","","","75","18","","","2","18","training","adjacent","CB","3","2","P.jpg","N.jpg","1","0","0","",""
"","feedback","","html-keyboard-response","124","44194","0.0-1.0-168.0-0.0","0","0","33107","","null","","","null","18","","","","","","","","","","","","","","","",""
"","time_out","","html-keyboard-response","125","44296","0.0-1.0-170.0-0.0","0","0","33107","","null","","","null","18","","","","","","","","","","","","","","","",""
"","ITI","","html-keyboard-response","126","44802","0.0-1.0-171.0","0","0","33107","","27","","","75","18","","","","","","","","","","","","","","","k",""
"","S1","","html-keyboard-response","127","45054","0.0-1.0-173.0","0","0","33107","","null","","","null","19","","","","","","","","","","","","","","","",""
"","ISI","","html-keyboard-response","128","45156","0.0-1.0-174.0","0","0","33107","","null","","","null","19","NaN","","","","","","","","","","","","","","",""
"","S2","","html-keyboard-response","129","45408","0.0-1.0-175.0","0","0","33107","","118","","","75","19","","k","","","","","","","","","","","","","",""
"","response","","html-keyboard-response","130","45506","0.0-1.0-176.0","0","0","33107","","97","","","75","19","","","2","19","training","adjacent","ED","5","4","Q.jpg","O.jpg","1","0","0","",""
"","feedback","","html-keyboard-response","131","45612","0.0-1.0-177.0-0.0","0","0","33107","","null","","","null","19","","","","","","","","","","","","","","","",""
"","time_out","","html-keyboard-response","132","45714","0.0-1.0-179.0-0.0","0","0","33107","","null","","","null","19","","","","","","","","","","","","","","","",""
"","ITI","","html-keyboard-response","133","46220","0.0-1.0-180.0","0","0","33107","","36","","","75","19","","","","","","","","","","","","","","","k",""
"","S1","","html-keyboard-response","134","46476","0.0-1.0-182.0","0","0","33107","","null","","","null","20","","","","","","","","","","","","","","","",""
"","ISI","","html-keyboard-response","135","46579","0.0-1.0-183.0","0","0","33107","","46","","","75","20","k","","","","","","","","","","","","","","",""
"","S2","","html-keyboard-response","136","46834","0.0-1.0-184.0","0","0","33107","","195","","","75","20","","k","","","","","","","","","","","","","",""
"","response","","html-keyboard-response","137","47024","0.0-1.0-185.0","0","0","33107","","189","","","75","20","","","2","20","training","adjacent","FG","6","7","M.jpg","L.jpg","1","1","1","",""
"","feedback","","html-keyboard-response","138","47126","0.0-1.0-186.0-0.0","0","0","33107","","null","","","null","20","","","","","","","","","","","","","","","",""
"","ITI","","html-keyboard-response","139","47631","0.0-1.0-189.0","0","0","33107","","126","","","75","20","","","","","","","","","","","","","","","k",""
"","S1","","html-keyboard-response","140","47887","0.0-1.0-191.0","0","0","33107","","null","","","null","21","","","","","","","","","","","","","","","",""
"","ISI","","html-keyboard-response","141","47992","0.0-1.0-192.0","0","0","33107","","null","","","null","21","NaN","","","","","","","","","","","","","","",""
"","S2","","html-keyboard-response","142","48248","0.0-1.0-193.0","0","0","33107","","21","","","75","21","","k","","","","","","","","","","","","","",""
"","response","","html-keyboard-response","143","48303","0.0-1.0-194.0","0","0","33107","","53","","","75","21","","","2","21","training","adjacent","BA","2","1","N.jpg","R.jpg","1","0","0","",""
"","feedback","","html-keyboard-response","144","48405","0.0-1.0-195.0-0.0","0","0","33107","","null","","","null","21","","","","","","","","","","","","","","","",""
"","time_out","","html-keyboard-response","145","48510","0.0-1.0-197.0-0.0","0","0","33107","","null","","","null","21","","","","","","","","","","","","","","","",""
"","ITI","","html-keyboard-response","146","49011","0.0-1.0-198.0","0","0","33107","","23","","","75","21","","","","","","","","","","","","","","","k",""
"","S1","","html-keyboard-response","147","49268","0.0-1.0-200.0","0","0","33107","","null","","","null","22","","","","","","","","","","","","","","","",""
"","ISI","","html-keyboard-response","148","49371","0.0-1.0-201.0","0","0","33107","","0","","","75","22","k","","","","","","","","","","","","","","",""
"","S2","","html-keyboard-response","149","49624","0.0-1.0-202.0","0","0","33107","","141","","","75","22","","k","","","","","","","","","","","","","",""
"","response","","html-keyboard-response","150","49773","0.0-1.0-203.0","0","0","33107","","147","","","75","22","","","2","22","training","adjacent","DC","4","3","O.jpg","P.jpg","1","0","0","",""
"","feedback","","html-keyboard-response","151","49877","0.0-1.0-204.0-0.0","0","0","33107","","null","","","null","22","","","","","","","","","","","","","","","",""
"","time_out","","html-keyboard-response","152","49980","0.0-1.0-206.0-0.0","0","0","33107","","null","","","null","22","","","","","","","","","","","","","","","",""
"","ITI","","html-keyboard-response","153","50486","0.0-1.0-207.0","0","0","33107","","26","","","75","22","","","","","","","","","","","","","","","k",""
"","S1","","html-keyboard-response","154","50738","0.0-1.0-209.0","0","0","33107","","null","","","null","23","","","","","","","","","","","","","","","",""
"","ISI","","html-keyboard-response","155","50843","0.0-1.0-210.0","0","0","33107","","3","","","75","23","k","","","","","","","","","","","","","","",""
"","S2","","html-keyboard-response","156","51095","0.0-1.0-211.0","0","0","33107","","125","","","75","23","","k","","","","","","","","","","","","","",""
"","response","","html-keyboard-response","157","51223","0.0-1.0-212.0","0","0","33107","","126","","","75","23","","","2","23","training","adjacent","FE","6","5","M.jpg","Q.jpg","1","0","0","",""
"","feedback","","html-keyboard-response","158","51325","0.0-1.0-213.0-0.0","0","0","33107","","null","","","null","23","","","","","","","","","","","","","","","",""
"","time_out","","html-keyboard-response","159","51432","0.0-1.0-215.0-0.0","0","0","33107","","null","","","null","23","","","","","","","","","","","","","","","",""
"","ITI","","html-keyboard-response","160","51938","0.0-1.0-216.0","0","0","33107","","14","","","75","23","","","","","","","","","","","","","","","k",""
"","block_over","","html-keyboard-response","161","52861","0.0-1.0-217.0-0.0","0","0","33107","","921","","","32","23","","","","","","","","","","","","","","","",""
"","S1","","html-keyboard-response","162","53117","0.0-1.0-218.0","0","0","33107","","null","","","null","24","","","","","","","","","","","","","","","",""
"","ISI","","html-keyboard-response","163","53222","0.0-1.0-219.0","0","0","33107","","null","","","null","24","NaN","","","","","","","","","","","","","","",""
"","S2","","html-keyboard-response","164","53475","0.0-1.0-220.0","0","0","33107","","64","","","75","24","","k","","","","","","","","","","","","","",""
"","response","","html-keyboard-response","165","53498","0.0-1.0-221.0","0","0","33107","","21","","","75","24","","","3","24","training","adjacent","BC","2","3","N.jpg","P.jpg","1","1","1","",""
"","feedback","","html-keyboard-response","166","53600","0.0-1.0-222.0-0.0","0","0","33107","","null","","","null","24","","","","","","","","","","","","","","","",""
"","ITI","","html-keyboard-response","167","54103","0.0-1.0-225.0","0","0","33107","","123","","","75","24","","","","","","","","","","","","","","","k",""
"","S1","","html-keyboard-response","168","54359","0.0-1.0-227.0","0","0","33107","","null","","","null","25","","","","","","","","","","","","","","","",""
"","ISI","","html-keyboard-response","169","54464","0.0-1.0-228.0","0","0","33107","","32","","","75","25","k","","","","","","","","","","","","","","",""
"","S2","","html-keyboard-response","170","54721","0.0-1.0-229.0","0","0","33107","","164","","","75","25","","k","","","","","","","","","","","","","",""
"","response","","html-keyboard-response","171","54865","0.0-1.0-230.0","0","0","33107","","143","","","75","25","","","3","25","training","adjacent","FG","6","7","M.jpg","L.jpg","1","1","1","",""
"","feedback","","html-keyboard-response","172","54969","0.0-1.0-231.0-0.0","0","0","33107","","null","","","null","25","","","","","","","","","","","","","","","",""
"","ITI","","html-keyboard-response","173","55472","0.0-1.0-234.0","0","0","33107","","141","","","75","25","","","","","","","","","","","","","","","k",""
"","S1","","html-keyboard-response","174","55724","0.0-1.0-236.0","0","0","33107","","null","","","null","26","","","","","","","","","","","","","","","",""
"","ISI","","html-keyboard-response","175","55827","0.0-1.0-237.0","0","0","33107","","null","","","null","26","NaN","","","","","","","","","","","","","","",""
"","S2","","html-keyboard-response","176","56079","0.0-1.0-238.0","0","0","33107","","18","","","75","26","","k","","","","","","","","","","","","","",""
"","response","","html-keyboard-response","177","56099","0.0-1.0-239.0","0","0","33107","","20","","","75","26","","","3","26","training","adjacent","AB","1","2","R.jpg","N.jpg","1","1","1","",""
"","feedback","","html-keyboard-response","178","56202","0.0-1.0-240.0-0.0","0","0","33107","","null","","","null","26","","","","","","","","","","","","","","","",""
"","ITI","","html-keyboard-response","179","56709","0.0-1.0-243.0","0","0","33107","","112","","","75","26","","","","","","","","","","","","","","","k",""
"","S1","","html-keyboard-response","180","56961","0.0-1.0-245.0","0","0","33107","","null","","","null","27","","","","","","","","","","","","","","","",""
"","ISI","","html-keyboard-response","181","57064","0.0-1.0-246.0","0","0","33107","","98","","","75","27","k","","","","","","","","","","","","","","",""
"","S2","","html-keyboard-response","182","57317","0.0-1.0-247.0","0","0","33107","","245","","","75","27","","k","","","","","","","","","","","","","",""
"","response","","html-keyboard-response","183","57567","0.0-1.0-248.0","0","0","33107","","248","","","75","27","","","3","27","training","adjacent","CD","3","4","P.jpg","O.jpg","1","1","1","",""
"","feedback","","html-keyboard-response","184","57668","0.0-1.0-249.0-0.0","0","0","33107","","null","","","null","27","","","","","","","","","","","","","","","",""
"","ITI","","html-keyboard-response","185","58175","0.0-1.0-252.0","0","0","33107","","133","","","75","27","","","","","","","","","","","","","","","k",""
"","S1","","html-keyboard-response","186","58429","0.0-1.0-254.0","0","0","33107","","null","","","null","28","","","","","","","","","","","","","","","",""
"","ISI","","html-keyboard-response","187","58535","0.0-1.0-255.0","0","0","33107","","85","","","75","28","k","","","","","","","","","","","","","","",""
"","S2","","html-keyboard-response","188","58788","0.0-1.0-256.0","0","0","33107","","211","","","75","28","","k","","","","","","","","","","","","","",""
"","response","","html-keyboard-response","189","58972","0.0-1.0-257.0","0","0","33107","","182","","","75","28","","","3","28","training","adjacent","EF","5","6","Q.jpg","M.jpg","1","1","1","",""
"","feedback","","html-keyboard-response","190","59074","0.0-1.0-258.0-0.0","0","0","33107","","null","","","null","28","","","","","","","","","","","","","","","",""
"","ITI","","html-keyboard-response","191","59579","0.0-1.0-261.0","0","0","33107","","236","","","75","28","","","","","","","","","","","","","","","k",""
"","S1","","html-keyboard-response","192","59831","0.0-1.0-263.0","0","0","33107","","null","","","null","29","","","","","","","","","","","","","","","",""
"","ISI","","html-keyboard-response","193","59934","0.0-1.0-264.0","0","0","33107","","92","","","75","29","k","","","","","","","","","","","","","","",""
"","S2","","html-keyboard-response","194","60188","0.0-1.0-265.0","0","0","33107","","184","","","75","29","","k","","","","","","","","","","","","","",""
"","response","","html-keyboard-response","195","60322","0.0-1.0-266.0","0","0","33107","","132","","","75","29","","","3","29","training","adjacent","CB","3","2","P.jpg","N.jpg","1","0","0","",""
"","feedback","","html-keyboard-response","196","60423","0.0-1.0-267.0-0.0","0","0","33107","","null","","","null","29","","","","","","","","","","","","","","","",""
"","time_out","","html-keyboard-response","197","60529","0.0-1.0-269.0-0.0","0","0","33107","","null","","","null","29","","","","","","","","","","","","","","","",""
"","ITI","","html-keyboard-response","198","61035","0.0-1.0-270.0","0","0","33107","","26","","","75","29","","","","","","","","","","","","","","","k",""
"","S1","","html-keyboard-response","199","61288","0.0-1.0-272.0","0","0","33107","","null","","","null","30","","","","","","","","","","","","","","","",""
"","ISI","","html-keyboard-response","200","61390","0.0-1.0-273.0","0","0","33107","","null","","","null","30","NaN","","","","","","","","","","","","","","",""
"","S2","","html-keyboard-response","201","61645","0.0-1.0-274.0","0","0","33107","","21","","","75","30","","k","","","","","","","","","","","","","",""
"","response","","html-keyboard-response","202","61844","0.0-1.0-275.0","0","0","33107","","199","","","75","30","","","3","30","training","adjacent","ED","5","4","Q.jpg","O.jpg","1","0","0","",""
"","feedback","","html-keyboard-response","203","61949","0.0-1.0-276.0-0.0","0","0","33107","","null","","","null","30","","","","","","","","","","","","","","","",""
"","time_out","","html-keyboard-response","204","62051","0.0-1.0-278.0-0.0","0","0","33107","","null","","","null","30","","","","","","","","","","","","","","","",""
"","ITI","","html-keyboard-response","205","62555","0.0-1.0-279.0","0","0","33107","","12","","","75","30","","","","","","","","","","","","","","","k",""
"","S1","","html-keyboard-response","206","62808","0.0-1.0-281.0","0","0","33107","","null","","","null","31","","","","","","","","","","","","","","","",""
"","ISI","","html-keyboard-response","207","62914","0.0-1.0-282.0","0","0","33107","","null","","","null","31","NaN","","","","","","","","","","","","","","",""
"","S2","","html-keyboard-response","208","63171","0.0-1.0-283.0","0","0","33107","","6","","","75","31","","k","","","","","","","","","","","","","",""
"","response","","html-keyboard-response","209","63368","0.0-1.0-284.0","0","0","33107","","197","","","75","31","","","3","31","training","adjacent","BA","2","1","N.jpg","R.jpg","1","0","0","",""
"","feedback","","html-keyboard-response","210","63471","0.0-1.0-285.0-0.0","0","0","33107","","null","","","null","31","","","","","","","","","","","","","","","",""
"","time_out","","html-keyboard-response","211","63578","0.0-1.0-287.0-0.0","0","0","33107","","null","","","null","31","","","","","","","","","","","","","","","",""
"","ITI","","html-keyboard-response","212","64080","0.0-1.0-288.0","0","0","33107","","8","","","75","31","","","","","","","","","","","","","","","k",""
"","S1","","html-keyboard-response","213","64334","0.0-1.0-290.0","0","0","33107","","null","","","null","32","","","","","","","","","","","","","","","",""
"","ISI","","html-keyboard-response","214","64438","0.0-1.0-291.0","0","0","33107","","14","","","75","32","k","","","","","","","","","","","","","","",""
"","S2","","html-keyboard-response","215","64692","0.0-1.0-292.0","0","0","33107","","158","","","75","32","","k","","","","","","","","","","","","","",""
"","response","","html-keyboard-response","216","64874","0.0-1.0-293.0","0","0","33107","","180","","","75","32","","","3","32","training","adjacent","DE","4","5","O.jpg","Q.jpg","1","1","1","",""
"","feedback","","html-keyboard-response","217","64978","0.0-1.0-294.0-0.0","0","0","33107","","null","","","null","32","","","","","","","","","","","","","","","",""
"","ITI","","html-keyboard-response","218","65483","0.0-1.0-297.0","0","0","33107","","152","","","75","32","","","","","","","","","","","","","","","k",""
"","S1","","html-keyboard-response","219","65736","0.0-1.0-299.0","0","0","33107","","null","","","null","33","","","","","","","","","","","","","","","",""
"","ISI","","html-keyboard-response","220","65842","0.0-1.0-300.0","0","0","33107","","null","","","null","33","NaN","","","","","","","","","","","","","","",""
"","S2","","html-keyboard-response","221","66099","0.0-1.0-301.0","0","0","33107","","133","","","75","33","","k","","","","","","","","","","","","","",""
"","response","","html-keyboard-response","222","66234","0.0-1.0-302.0","0","0","33107","","133","","","75","33","","","3","33","training","adjacent","FE","6","5","M.jpg","Q.jpg","1","0","0","",""
"","feedback","","html-keyboard-response","223","66338","0.0-1.0-303.0-0.0","0","0","33107","","null","","","null","33","","","","","","","","","","","","","","","",""
"","time_out","","html-keyboard-response","224","66442","0.0-1.0-305.0-0.0","0","0","33107","","null","","","null","33","","","","","","","","","","","","","","","",""
"","ITI","","html-keyboard-response","225","66949","0.0-1.0-306.0","0","0","33107","","6","","","75","33","","","","","","","","","","","","","","","k",""
"","S1","","html-keyboard-response","226","67204","0.0-1.0-308.0","0","0","33107","","null","","","null","34","","","","","","","","","","","","","","","",""
"","ISI","","html-keyboard-response","227","67308","0.0-1.0-309.0","0","0","33107","","null","","","null","34","NaN","","","","","","","","","","","","","","",""
"","S2","","html-keyboard-response","228","67563","0.0-1.0-310.0","0","0","33107","","null","","","null","34","","NaN","","","","","","","","","","","","","",""
"","response","","html-keyboard-response","229","67672","0.0-1.0-311.0","0","0","33107","","107","","","75","34","","","3","34","training","adjacent","DC","4","3","O.jpg","P.jpg","1","0","0","",""
"","feedback","","html-keyboard-response","230","67778","0.0-1.0-312.0-0.0","0","0","33107","","null","","","null","34","","","","","","","","","","","","","","","",""
"","time_out","","html-keyboard-response","231","67883","0.0-1.0-314.0-0.0","0","0","33107","","null","","","null","34","","","","","","","","","","","","","","","",""
"","ITI","","html-keyboard-response","232","68388","0.0-1.0-315.0","0","0","33107","","88","","","75","34","","","","","","","","","","","","","","","k",""
"","S1","","html-keyboard-response","233","68641","0.0-1.0-317.0","0","0","33107","","null","","","null","35","","","","","","","","","","","","","","","",""
"","ISI","","html-keyboard-response","234","68744","0.0-1.0-318.0","0","0","33107","","null","","","null","35","NaN","","","","","","","","","","","","","","",""
"","S2","","html-keyboard-response","235","68999","0.0-1.0-319.0","0","0","33107","","159","","","75","35","","k","","","","","","","","","","","","","",""
"","response","","html-keyboard-response","236","69125","0.0-1.0-320.0","0","0","33107","","125","","","75","35","","","3","35","training","adjacent","GF","7","6","L.jpg","M.jpg","1","0","0","",""
"","feedback","","html-keyboard-response","237","69229","0.0-1.0-321.0-0.0","0","0","33107","","null","","","null","35","","","","","","","","","","","","","","","",""
"","time_out","","html-keyboard-response","238","69335","0.0-1.0-323.0-0.0","0","0","33107","","null","","","null","35","","","","","","","","","","","","","","","",""
"","ITI","","html-keyboard-response","239","69838","0.0-1.0-324.0","0","0","33107","","15","","","75","35","","","","","","","","","","","","","","","k",""
"","block_over","","html-keyboard-response","240","73680","0.0-1.0-325.0-0.0","0","0","33107","","3840","","","32","35","","","","","","","","","","","","","","","",""
"","S1","","html-keyboard-response","241","73933","0.0-1.0-326.0","0","0","33107","","null","","","null","36","","","","","","","","","","","","","","","",""
"","ISI","","html-keyboard-response","242","74038","0.0-1.0-327.0","0","0","33107","","null","","","null","36","NaN","","","","","","","","","","","","","","",""
"","S2","","html-keyboard-response","243","74292","0.0-1.0-328.0","0","0","33107","","72","","","75","36","","k","","","","","","","","","","","","","",""
"","response","","html-keyboard-response","244","74339","0.0-1.0-329.0","0","0","33107","","46","","","75","36","","","4","36","test","adjacent","CB","3","2","P.jpg","N.jpg","1","0","0","",""
"","feedback","","html-keyboard-response","245","74443","0.0-1.0-330.0-0.0","0","0","33107","","null","","","null","36","","","","","","","","","","","","","","","",""
"","time_out","","html-keyboard-response","246","74547","0.0-1.0-332.0-0.0","0","0","33107","","null","","","null","36","","","","","","","","","","","","","","","",""
"","ITI","","html-keyboard-response","247","75048","0.0-1.0-333.0","0","0","33107","","474","","","68","36","","","","","","","","","","","","","","","d",""
"","S1","","html-keyboard-response","248","75305","0.0-1.0-335.0","0","0","33107","","null","","","null","37","","","","","","","","","","","","","","","",""
"","ISI","","html-keyboard-response","249","75408","0.0-1.0-336.0","0","0","33107","","null","","","null","37","NaN","","","","","","","","","","","","","","",""
"","S2","","html-keyboard-response","250","75663","0.0-1.0-337.0","0","0","33107","","58","","","68","37","","d","","","","","","","","","","","","","",""
"","response","","html-keyboard-response","251","75700","0.0-1.0-338.0","0","0","33107","","35","","","68","37","","","4","37","test","non_adjacent","BD","2","4","N.jpg","O.jpg","0","1","0","",""
"","feedback","","html-keyboard-response","252","75802","0.0-1.0-339.0-0.0","0","0","33107","","null","","","null","37","","","","","","","","","","","","","","","",""
"","time_out","","html-keyboard-response","253","75907","0.0-1.0-341.0-0.0","0","0","33107","","null","","","null","37","","","","","","","","","","","","","","","",""
"","ITI","","html-keyboard-response","254","76409","0.0-1.0-342.0","0","0","33107","","12","","","68","37","","","","","","","","","","","","","","","d",""
"","S1","","html-keyboard-response","255","76660","0.0-1.0-344.0","0","0","33107","","null","","","null","38","","","","","","","","","","","","","","","",""
"","ISI","","html-keyboard-response","256","76764","0.0-1.0-345.0","0","0","33107","","null","","","null","38","NaN","","","","","","","","","","","","","","",""
"","S2","","html-keyboard-response","257","77017","0.0-1.0-346.0","0","0","33107","","19","","","68","38","","d","","","","","","","","","","","","","",""
"","response","","html-keyboard-response","258","77021","0.0-1.0-347.0","0","0","33107","","3","","","68","38","","","4","38","test","non_adjacent","GC","7","3","L.jpg","P.jpg","0","0","1","",""
"","feedback","","html-keyboard-response","259","77123","0.0-1.0-348.0-0.0","0","0","33107","","null","","","null","38","","","","","","","","","","","","","","","",""
"","ITI","","html-keyboard-response","260","77625","0.0-1.0-351.0","0","0","33107","","149","","","68","38","","","","","","","","","","","","","","","d",""
"","S1","","html-keyboard-response","261","77880","0.0-1.0-353.0","0","0","33107","","null","","","null","39","","","","","","","","","","","","","","","",""
"","ISI","","html-keyboard-response","262","77987","0.0-1.0-354.0","0","0","33107","","null","","","null","39","NaN","","","","","","","","","","","","","","",""
"","S2","","html-keyboard-response","263","78243","0.0-1.0-355.0","0","0","33107","","60","","","68","39","","d","","","","","","","","","","","","","",""
"","response","","html-keyboard-response","264","78292","0.0-1.0-356.0","0","0","33107","","48","","","68","39","","","4","39","test","non_adjacent","EC","5","3","Q.jpg","P.jpg","0","0","1","",""
"","feedback","","html-keyboard-response","265","78396","0.0-1.0-357.0-0.0","0","0","33107","","null","","","null","39","","","","","","","","","","","","","","","",""
"","ITI","","html-keyboard-response","266","78901","0.0-1.0-360.0","0","0","33107","","159","","","68","39","","","","","","","","","","","","","","","d",""
"","S1","","html-keyboard-response","267","79154","0.0-1.0-362.0","0","0","33107","","null","","","null","40","","","","","","","","","","","","","","","",""
"","ISI","","html-keyboard-response","268","79257","0.0-1.0-363.0","0","0","33107","","null","","","null","40","NaN","","","","","","","","","","","","","","",""
"","S2","","html-keyboard-response","269","79513","0.0-1.0-364.0","0","0","33107","","40","","","68","40","","d","","","","","","","","","","","","","",""
"","response","","html-keyboard-response","270","79530","0.0-1.0-365.0","0","0","33107","","15","","","68","40","","","4","40","test","non_adjacent","FC","6","3","M.jpg","P.jpg","0","0","1","",""
"","feedback","","html-keyboard-response","271","79632","0.0-1.0-366.0-0.0","0","0","33107","","null","","","null","40","","","","","","","","","","","","","","","",""
"","ITI","","html-keyboard-response","272","80138","0.0-1.0-369.0","0","0","33107","","103","","","68","40","","","","","","","","","","","","","","","d",""
"","S1","","html-keyboard-response","273","80393","0.0-1.0-371.0","0","0","33107","","null","","","null","41","","","","","","","","","","","","","","","",""
"","ISI","","html-keyboard-response","274","80497","0.0-1.0-372.0","0","0","33107","","32","","","68","41","d","","","","","","","","","","","","","","",""
"","S2","","html-keyboard-response","275","80751","0.0-1.0-373.0","0","0","33107","","199","","","68","41","","d","","","","","","","","","","","","","",""
"","response","","html-keyboard-response","276","80927","0.0-1.0-374.0","0","0","33107","","174","","","68","41","","","4","41","test","non_adjacent","GB","7","2","L.jpg","N.jpg","0","0","1","",""
"","feedback","","html-keyboard-response","277","81033","0.0-1.0-375.0-0.0","0","0","33107","","null","","","null","41","","","","","","","","","","","","","","","",""
"","ITI","","html-keyboard-response","278","81535","0.0-1.0-378.0","0","0","33107","","145","","","68","41","","","","","","","","","","","","","","","d",""
"","S1","","html-keyboard-response","279","81788","0.0-1.0-380.0","0","0","33107","","null","","","null","42","","","","","","","","","","","","","","","",""
"","ISI","","html-keyboard-response","280","81892","0.0-1.0-381.0","0","0","33107","","71","","","68","42","d","","","","","","","","","","","","","","",""
"","S2","","html-keyboard-response","281","82148","0.0-1.0-382.0","0","0","33107","","206","","","68","42","","d","","","","","","","","","","","","","",""
"","response","","html-keyboard-response","282","82335","0.0-1.0-383.0","0","0","33107","","185","","","68","42","","","4","42","test","non_adjacent","CA","3","1","P.jpg","R.jpg","0","0","1","",""
"","feedback","","html-keyboard-response","283","82438","0.0-1.0-384.0-0.0","0","0","33107","","null","","","null","42","","","","","","","","","","","","","","","",""
"","ITI","","html-keyboard-response","284","82940","0.0-1.0-387.0","0","0","33107","","152","","","68","42","","","","","","","","","","","","","","","d",""
"","S1","","html-keyboard-response","285","83192","0.0-1.0-389.0","0","0","33107","","null","","","null","43","","","","","","","","","","","","","","","",""
"","ISI","","html-keyboard-response","286","83296","0.0-1.0-390.0","0","0","33107","","92","","","68","43","d","","","","","","","","","","","","","","",""
"","S2","","html-keyboard-response","287","83553","0.0-1.0-391.0","0","0","33107","","204","","","68","43","","d","","","","","","","","","","","","","",""
"","response","","html-keyboard-response","288","83792","0.0-1.0-392.0","0","0","33107","","237","","","68","43","","","4","43","test","non_adjacent","DA","4","1","O.jpg","R.jpg","0","0","1","",""
"","feedback","","html-keyboard-response","289","83894","0.0-1.0-393.0-0.0","0","0","33107","","null","","","null","43","","","","","","","","","","","","","","","",""
"","ITI","","html-keyboard-response","290","84396","0.0-1.0-396.0","0","0","33107","","191","","","68","43","","","","","","","","","","","","","","","d",""
"","S1","","html-keyboard-response","291","84647","0.0-1.0-398.0","0","0","33107","","null","","","null","44","","","","","","","","","","","","","","","",""
"","ISI","","html-keyboard-response","292","84751","0.0-1.0-399.0","0","0","33107","","6","","","68","44","d","","","","","","","","","","","","","","",""
"","S2","","html-keyboard-response","293","85004","0.0-1.0-400.0","0","0","33107","","214","","","68","44","","d","","","","","","","","","","","","","",""
"","response","","html-keyboard-response","294","85239","0.0-1.0-401.0","0","0","33107","","234","","","68","44","","","4","44","test","non_adjacent","EB","5","2","Q.jpg","N.jpg","0","0","1","",""
"","feedback","","html-keyboard-response","295","85342","0.0-1.0-402.0-0.0","0","0","33107","","null","","","null","44","","","","","","","","","","","","","","","",""
"","ITI","","html-keyboard-response","296","85848","0.0-1.0-405.0","0","0","33107","","178","","","68","44","","","","","","","","","","","","","","","d",""
"","S1","","html-keyboard-response","297","86103","0.0-1.0-407.0","0","0","33107","","null","","","null","45","","","","","","","","","","","","","","","",""
"","ISI","","html-keyboard-response","298","86209","0.0-1.0-408.0","0","0","33107","","null","","","null","45","NaN","","","","","","","","","","","","","","",""
"","S2","","html-keyboard-response","299","86461","0.0-1.0-409.0","0","0","33107","","89","","","68","45","","d","","","","","","","","","","","","","",""
"","response","","html-keyboard-response","300","86620","0.0-1.0-410.0","0","0","33107","","157","","","68","45","","","4","45","test","non_adjacent","GA","7","1","L.jpg","R.jpg","0","0","1","",""
"","feedback","","html-keyboard-response","301","86725","0.0-1.0-411.0-0.0","0","0","33107","","null","","","null","45","","","","","","","","","","","","","","","",""
"","ITI","","html-keyboard-response","302","87229","0.0-1.0-414.0","0","0","33107","","166","","","68","45","","","","","","","","","","","","","","","d",""
"","S1","","html-keyboard-response","303","87482","0.0-1.0-416.0","0","0","33107","","null","","","null","46","","","","","","","","","","","","","","","",""
"","ISI","","html-keyboard-response","304","87588","0.0-1.0-417.0","0","0","33107","","null","","","null","46","NaN","","","","","","","","","","","","","","",""
"","S2","","html-keyboard-response","305","87841","0.0-1.0-418.0","0","0","33107","","16","","","68","46","","d","","","","","","","","","","","","","",""
"","response","","html-keyboard-response","306","87844","0.0-1.0-419.0","0","0","33107","","2","","","68","46","","","4","46","test","non_adjacent","AC","1","3","R.jpg","P.jpg","0","1","0","",""
"","feedback","","html-keyboard-response","307","87948","0.0-1.0-420.0-0.0","0","0","33107","","null","","","null","46","","","","","","","","","","","","","","","",""
"","time_out","","html-keyboard-response","308","88053","0.0-1.0-422.0-0.0","0","0","33107","","null","","","null","46","","","","","","","","","","","","","","","",""
"","ITI","","html-keyboard-response","309","88558","0.0-1.0-423.0","0","0","33107","","59","","","68","46","","","","","","","","","","","","","","","d",""
"","S1","","html-keyboard-response","310","88812","0.0-1.0-425.0","0","0","33107","","null","","","null","47","","","","","","","","","","","","","","","",""
"","ISI","","html-keyboard-response","311","88918","0.0-1.0-426.0","0","0","33107","","6","","","68","47","d","","","","","","","","","","","","","","",""
"","S2","","html-keyboard-response","312","89172","0.0-1.0-427.0","0","0","33107","","168","","","68","47","","d","","","","","","","","","","","","","",""
"","response","","html-keyboard-response","313","89307","0.0-1.0-428.0","0","0","33107","","134","","","68","47","","","4","47","test","adjacent","DC","4","3","O.jpg","P.jpg","0","0","1","",""
"","feedback","","html-keyboard-response","314","89413","0.0-1.0-429.0-0.0","0","0","33107","","null","","","null","47","","","","","","","","","","","","","","","",""
"","ITI","","html-keyboard-response","315","89915","0.0-1.0-432.0","0","0","33107","","122","","","68","47","","","","","","","","","","","","","","","d",""
"","S1","","html-keyboard-response","316","90173","0.0-1.0-434.0","0","0","33107","","null","","","null","48","","","","","","","","","","","","","","","",""
"","ISI","","html-keyboard-response","317","90277","0.0-1.0-435.0","0","0","33107","","55","","","68","48","d","","","","","","","","","","","","","","",""
"","S2","","html-keyboard-response","318","90532","0.0-1.0-436.0","0","0","33107","","159","","","68","48","","d","","","","","","","","","","","","","",""
"","response","","html-keyboard-response","319","90651","0.0-1.0-437.0","0","0","33107","","117","","","68","48","","","4","48","test","non_adjacent","EA","5","1","Q.jpg","R.jpg","0","0","1","",""
"","feedback","","html-keyboard-response","320","90755","0.0-1.0-438.0-0.0","0","0","33107","","null","","","null","48","","","","","","","","","","","","","","","",""
"","ITI","","html-keyboard-response","321","91259","0.0-1.0-441.0","0","0","33107","","101","","","68","48","","","","","","","","","","","","","","","d",""
"","S1","","html-keyboard-response","322","91513","0.0-1.0-443.0","0","0","33107","","null","","","null","49","","","","","","","","","","","","","","","",""
"","ISI","","html-keyboard-response","323","91614","0.0-1.0-444.0","0","0","33107","","null","","","null","49","NaN","","","","","","","","","","","","","","",""
"","S2","","html-keyboard-response","324","91869","0.0-1.0-445.0","0","0","33107","","125","","","68","49","","d","","","","","","","","","","","","","",""
"","response","","html-keyboard-response","325","91959","0.0-1.0-446.0","0","0","33107","","89","","","68","49","","","4","49","test","adjacent","BC","2","3","N.jpg","P.jpg","0","1","0","",""
"","feedback","","html-keyboard-response","326","92063","0.0-1.0-447.0-0.0","0","0","33107","","null","","","null","49","","","","","","","","","","","","","","","",""
"","time_out","","html-keyboard-response","327","92169","0.0-1.0-449.0-0.0","0","0","33107","","null","","","null","49","","","","","","","","","","","","","","","",""
"","ITI","","html-keyboard-response","328","92672","0.0-1.0-450.0","0","0","33107","","18","","","68","49","","","","","","","","","","","","","","","d",""
"","S1","","html-keyboard-response","329","92927","0.0-1.0-452.0","0","0","33107","","null","","","null","50","","","","","","","","","","","","","","","",""
"","ISI","","html-keyboard-response","330","93029","0.0-1.0-453.0","0","0","33107","","14","","","68","50","d","","","","","","","","","","","","","","",""
"","S2","","html-keyboard-response","331","93283","0.0-1.0-454.0","0","0","33107","","130","","","68","50","","d","","","","","","","","","","","","","",""
"","response","","html-keyboard-response","332","93382","0.0-1.0-455.0","0","0","33107","","99","","","68","50","","","4","50","test","non_adjacent","AD","1","4","R.jpg","O.jpg","0","1","0","",""
"","feedback","","html-keyboard-response","333","93488","0.0-1.0-456.0-0.0","0","0","33107","","null","","","null","50","","","","","","","","","","","","","","","",""
"","time_out","","html-keyboard-response","334","93590","0.0-1.0-458.0-0.0","0","0","33107","","null","","","null","50","","","","","","","","","","","","","","","",""
"","ITI","","html-keyboard-response","335","94092","0.0-1.0-459.0","0","0","33107","","null","","","null","50","","","","","","","","","","","","","","","NaN",""
"","S1","","html-keyboard-response","336","94348","0.0-1.0-461.0","0","0","33107","","null","","","null","51","","","","","","","","","","","","","","","",""
"","ISI","","html-keyboard-response","337","94455","0.0-1.0-462.0","0","0","33107","","null","","","null","51","NaN","","","","","","","","","","","","","","",""
"","S2","","html-keyboard-response","338","94707","0.0-1.0-463.0","0","0","33107","","18","","","75","51","","k","","","","","","","","","","","","","",""
"","response","","html-keyboard-response","339","94934","0.0-1.0-464.0","0","0","33107","","225","","","75","51","","","4","51","test","non_adjacent","FB","6","2","M.jpg","N.jpg","1","0","0","",""
"","feedback","","html-keyboard-response","340","95038","0.0-1.0-465.0-0.0","0","0","33107","","null","","","null","51","","","","","","","","","","","","","","","",""
"","time_out","","html-keyboard-response","341","95142","0.0-1.0-467.0-0.0","0","0","33107","","null","","","null","51","","","","","","","","","","","","","","","",""
"","ITI","","html-keyboard-response","342","95645","0.0-1.0-468.0","0","0","33107","","7","","","75","51","","","","","","","","","","","","","","","k",""
"","S1","","html-keyboard-response","343","95898","0.0-1.0-470.0","0","0","33107","","null","","","null","52","","","","","","","","","","","","","","","",""
"","ISI","","html-keyboard-response","344","96004","0.0-1.0-471.0","0","0","33107","","null","","","null","52","NaN","","","","","","","","","","","","","","",""
"","S2","","html-keyboard-response","345","96260","0.0-1.0-472.0","0","0","33107","","37","","","75","52","","k","","","","","","","","","","","","","",""
"","response","","html-keyboard-response","346","96472","0.0-1.0-473.0","0","0","33107","","212","","","75","52","","","4","52","test","non_adjacent","FA","6","1","M.jpg","R.jpg","1","0","0","",""
"","feedback","","html-keyboard-response","347","96574","0.0-1.0-474.0-0.0","0","0","33107","","null","","","null","52","","","","","","","","","","","","","","","",""
"","time_out","","html-keyboard-response","348","96681","0.0-1.0-476.0-0.0","0","0","33107","","null","","","null","52","","","","","","","","","","","","","","","",""
"","ITI","","html-keyboard-response","349","97183","0.0-1.0-477.0","0","0","33107","","28","","","75","52","","","","","","","","","","","","","","","k",""
"","S1","","html-keyboard-response","350","97438","0.0-1.0-479.0","0","0","33107","","null","","","null","53","","","","","","","","","","","","","","","",""
"","ISI","","html-keyboard-response","351","97542","0.0-1.0-480.0","0","0","33107","","null","","","null","53","NaN","","","","","","","","","","","","","","",""
"","S2","","html-keyboard-response","352","97795","0.0-1.0-481.0","0","0","33107","","34","","","75","53","","k","","","","","","","","","","","","","",""
"","response","","html-keyboard-response","353","98034","0.0-1.0-482.0","0","0","33107","","237","","","75","53","","","4","53","test","adjacent","BA","2","1","N.jpg","R.jpg","1","0","0","",""
"","feedback","","html-keyboard-response","354","98136","0.0-1.0-483.0-0.0","0","0","33107","","null","","","null","53","","","","","","","","","","","","","","","",""
"","time_out","","html-keyboard-response","355","98241","0.0-1.0-485.0-0.0","0","0","33107","","null","","","null","53","","","","","","","","","","","","","","","",""
"","ITI","","html-keyboard-response","356","98747","0.0-1.0-486.0","0","0","33107","","4","","","75","53","","","","","","","","","","","","","","","k",""
"","S1","","html-keyboard-response","357","99001","0.0-1.0-488.0","0","0","33107","","null","","","null","54","","","","","","","","","","","","","","","",""
"","ISI","","html-keyboard-response","358","99106","0.0-1.0-489.0","0","0","33107","","null","","","null","54","NaN","","","","","","","","","","","","","","",""
"","S2","","html-keyboard-response","359","99362","0.0-1.0-490.0","0","0","33107","","12","","","75","54","","k","","","","","","","","","","","","","",""
"","response","","html-keyboard-response","360","99387","0.0-1.0-491.0","0","0","33107","","22","","","75","54","","","4","54","test","adjacent","AB","1","2","R.jpg","N.jpg","1","1","1","",""
"","feedback","","html-keyboard-response","361","99492","0.0-1.0-492.0-0.0","0","0","33107","","null","","","null","54","","","","","","","","","","","","","","","",""
"","ITI","","html-keyboard-response","362","99994","0.0-1.0-495.0","0","0","33107","","139","","","75","54","","","","","","","","","","","","","","","k",""
"","S1","","html-keyboard-response","363","100250","0.0-1.0-497.0","0","0","33107","","null","","","null","55","","","","","","","","","","","","","","","",""
"","ISI","","html-keyboard-response","364","100353","0.0-1.0-498.0","0","0","33107","","null","","","null","55","NaN","","","","","","","","","","","","","","",""
"","S2","","html-keyboard-response","365","100607","0.0-1.0-499.0","0","0","33107","","235","","","75","55","","k","","","","","","","","","","","","","",""
"","response","","html-keyboard-response","366","100827","0.0-1.0-500.0","0","0","33107","","219","","","75","55","","","4","55","test","non_adjacent","DB","4","2","O.jpg","N.jpg","1","0","0","",""
"","feedback","","html-keyboard-response","367","100929","0.0-1.0-501.0-0.0","0","0","33107","","null","","","null","55","","","","","","","","","","","","","","","",""
"","time_out","","html-keyboard-response","368","101032","0.0-1.0-503.0-0.0","0","0","33107","","null","","","null","55","","","","","","","","","","","","","","","",""
"","ITI","","html-keyboard-response","369","101538","0.0-1.0-504.0","0","0","33107","","86","","","75","55","","","","","","","","","","","","","","","k",""
"","S1","","html-keyboard-response","370","101791","0.0-1.0-506.0","0","0","33107","","null","","","null","56","","","","","","","","","","","","","","","",""
"","ISI","","html-keyboard-response","371","101893","0.0-1.0-507.0","0","0","33107","","98","","","75","56","k","","","","","","","","","","","","","","",""
"","S2","","html-keyboard-response","372","102149","0.0-1.0-508.0","0","0","33107","","null","","","null","56","","NaN","","","","","","","","","","","","","",""
"","response","","html-keyboard-response","373","102333","0.0-1.0-509.0","0","0","33107","","182","","","75","56","","","4","56","test","adjacent","CD","3","4","P.jpg","O.jpg","1","1","1","",""
"","feedback","","html-keyboard-response","374","102438","0.0-1.0-510.0-0.0","0","0","33107","","null","","","null","56","","","","","","","","","","","","","","","",""
"","ITI","","html-keyboard-response","375","102942","0.0-1.0-513.0","0","0","33107","","86","","","75","56","","","","","","","","","","","","","","","k",""
"","block_over","","html-keyboard-response","376","104763","0.0-1.0-514.0-0.0","0","0","33107","","1819","","","32","56","","","","","","","","","","","","","","","",""
"","S1","","html-keyboard-response","377","105016","0.0-1.0-515.0","0","0","33107","","null","","","null","57","","","","","","","","","","","","","","","",""
"","ISI","","html-keyboard-response","378","105117","0.0-1.0-516.0","0","0","33107","","5","","","75","57","k","","","","","","","","","","","","","","",""
"","S2","","html-keyboard-response","379","105372","0.0-1.0-517.0","0","0","33107","","129","","","75","57","","k","","","","","","","","","","","","","",""
"","response","","html-keyboard-response","380","105569","0.0-1.0-518.0","0","0","33107","","196","","","75","57","","","5","57","test","adjacent","GF","7","6","L.jpg","M.jpg","1","0","0","",""
"","feedback","","html-keyboard-response","381","105672","0.0-1.0-519.0-0.0","0","0","33107","","null","","","null","57","","","","","","","","","","","","","","","",""
"","time_out","","html-keyboard-response","382","105779","0.0-1.0-521.0-0.0","0","0","33107","","null","","","null","57","","","","","","","","","","","","","","","",""
"","ITI","","html-keyboard-response","383","106281","0.0-1.0-522.0","0","0","33107","","44","","","75","57","","","","","","","","","","","","","","","k",""
"","S1","","html-keyboard-response","384","106536","0.0-1.0-524.0","0","0","33107","","null","","","null","58","","","","","","","","","","","","","","","",""
"","ISI","","html-keyboard-response","385","106641","0.0-1.0-525.0","0","0","33107","","47","","","75","58","k","","","","","","","","","","","","","","",""
"","S2","","html-keyboard-response","386","106893","0.0-1.0-526.0","0","0","33107","","193","","","75","58","","k","","","","","","","","","","","","","",""
"","response","","html-keyboard-response","387","107123","0.0-1.0-527.0","0","0","33107","","228","","","75","58","","","5","58","test","non_adjacent","GD","7","4","L.jpg","O.jpg","1","0","0","",""
"","feedback","","html-keyboard-response","388","107225","0.0-1.0-528.0-0.0","0","0","33107","","null","","","null","58","","","","","","","","","","","","","","","",""
"","time_out","","html-keyboard-response","389","107331","0.0-1.0-530.0-0.0","0","0","33107","","null","","","null","58","","","","","","","","","","","","","","","",""
"","ITI","","html-keyboard-response","390","107834","0.0-1.0-531.0","0","0","33107","","41","","","75","58","","","","","","","","","","","","","","","k",""
"","S1","","html-keyboard-response","391","108087","0.0-1.0-533.0","0","0","33107","","null","","","null","59","","","","","","","","","","","","","","","",""
"","ISI","","html-keyboard-response","392","108192","0.0-1.0-534.0","0","0","33107","","null","","","null","59","NaN","","","","","","","","","","","","","","",""
"","S2","","html-keyboard-response","393","108444","0.0-1.0-535.0","0","0","33107","","146","","","75","59","","k","","","","","","","","","","","","","",""
"","response","","html-keyboard-response","394","108562","0.0-1.0-536.0","0","0","33107","","116","","","75","59","","","5","59","test","adjacent","FG","6","7","M.jpg","L.jpg","1","1","1","",""
"","feedback","","html-keyboard-response","395","108664","0.0-1.0-537.0-0.0","0","0","33107","","null","","","null","59","","","","","","","","","","","","","","","",""
"","ITI","","html-keyboard-response","396","109169","0.0-1.0-540.0","0","0","33107","","340","","","75","59","","","","","","","","","","","","","","","k",""
"","S1","","html-keyboard-response","397","109422","0.0-1.0-542.0","0","0","33107","","null","","","null","60","","","","","","","","","","","","","","","",""
"","ISI","","html-keyboard-response","398","109524","0.0-1.0-543.0","0","0","33107","","18","","","75","60","k","","","","","","","","","","","","","","",""
"","S2","","html-keyboard-response","399","109779","0.0-1.0-544.0","0","0","33107","","null","","","null","60","","NaN","","","","","","","","","","","","","",""
"","response","","html-keyboard-response","400","110014","0.0-1.0-545.0","0","0","33107","","233","","","75","60","","","5","60","test","non_adjacent","AE","1","5","R.jpg","Q.jpg","1","1","1","",""
"","feedback","","html-keyboard-response","401","110116","0.0-1.0-546.0-0.0","0","0","33107","","null","","","null","60","","","","","","","","","","","","","","","",""
"","ITI","","html-keyboard-response","402","110619","0.0-1.0-549.0","0","0","33107","","94","","","75","60","","","","","","","","","","","","","","","k",""
"","S1","","html-keyboard-response","403","110873","0.0-1.0-551.0","0","0","33107","","null","","","null","61","","","","","","","","","","","","","","","",""
"","ISI","","html-keyboard-response","404","110975","0.0-1.0-552.0","0","0","33107","","null","","","null","61","NaN","","","","","","","","","","","","","","",""
"","S2","","html-keyboard-response","405","111228","0.0-1.0-553.0","0","0","33107","","null","","","null","61","","NaN","","","","","","","","","","","","","",""
"","response","","html-keyboard-response","406","111231","0.0-1.0-554.0","0","0","33107","","1","","","75","61","","","5","61","test","non_adjacent","BG","2","7","N.jpg","L.jpg","1","1","1","",""
"","feedback","","html-keyboard-response","407","111333","0.0-1.0-555.0-0.0","0","0","33107","","null","","","null","61","","","","","","","","","","","","","","","",""
"","ITI","","html-keyboard-response","408","111838","0.0-1.0-558.0","0","0","33107","","195","","","75","61","","","","","","","","","","","","","","","k",""
"","S1","","html-keyboard-response","409","112092","0.0-1.0-560.0","0","0","33107","","null","","","null","62","","","","","","","","","","","","","","","",""
"","ISI","","html-keyboard-response","410","112194","0.0-1.0-561.0","0","0","33107","","null","","","null","62","NaN","","","","","","","","","","","","","","",""
"","S2","","html-keyboard-response","411","112446","0.0-1.0-562.0","0","0","33107","","null","","","null","62","","NaN","","","","","","","","","","","","","",""
"","response","","html-keyboard-response","412","112657","0.0-1.0-563.0","0","0","33107","","209","","","75","62","","","5","62","test","non_adjacent","EG","5","7","Q.jpg","L.jpg","1","1","1","",""
"","feedback","","html-keyboard-response","413","112759","0.0-1.0-564.0-0.0","0","0","33107","","null","","","null","62","","","","","","","","","","","","","","","",""
"","ITI","","html-keyboard-response","414","113265","0.0-1.0-567.0","0","0","33107","","null","","","null","62","","","","","","","","","","","","","","","NaN",""
"","S1","","html-keyboard-response","415","113521","0.0-1.0-569.0","0","0","33107","","null","","","null","63","","","","","","","","","","","","","","","",""
"","ISI","","html-keyboard-response","416","113623","0.0-1.0-570.0","0","0","33107","","null","","","null","63","NaN","","","","","","","","","","","","","","",""
"","S2","","html-keyboard-response","417","113876","0.0-1.0-571.0","0","0","33107","","34","","","75","63","","k","","","","","","","","","","","","","",""
"","response","","html-keyboard-response","418","113920","0.0-1.0-572.0","0","0","33107","","43","","","75","63","","","5","63","test","non_adjacent","DF","4","6","O.jpg","M.jpg","1","1","1","",""
"","feedback","","html-keyboard-response","419","114024","0.0-1.0-573.0-0.0","0","0","33107","","null","","","null","63","","","","","","","","","","","","","","","",""
"","ITI","","html-keyboard-response","420","114529","0.0-1.0-576.0","0","0","33107","","133","","","75","63","","","","","","","","","","","","","","","k",""
"","S1","","html-keyboard-response","421","114784","0.0-1.0-578.0","0","0","33107","","null","","","null","64","","","","","","","","","","","","","","","",""
"","ISI","","html-keyboard-response","422","114889","0.0-1.0-579.0","0","0","33107","","null","","","null","64","NaN","","","","","","","","","","","","","","",""
"","S2","","html-keyboard-response","423","115143","0.0-1.0-580.0","0","0","33107","","null","","","null","64","","NaN","","","","","","","","","","","","","",""
"","response","","html-keyboard-response","424","115648","0.0-1.0-581.0","0","0","33107","","null","","","null","64","","","5","64","test","non_adjacent","GE","7","5","L.jpg","Q.jpg","NaN","0","0","",""
"","too_slow_prompt","","html-keyboard-response","425","116651","0.0-1.0-583.0-0.0","1","0","33107","","null","","","null","","","","","","","","","","","","","","","","",""
"","time_out","","html-keyboard-response","426","116755","0.0-1.0-584.0-0.0","0","0","33107","","null","","","null","64","","","","","","","","","","","","","","","",""
"","ITI","","html-keyboard-response","427","117259","0.0-1.0-585.0","0","0","33107","","336","","","75","64","","","","","","","","","","","","","","","k",""
"","S1","","html-keyboard-response","428","117513","0.0-1.0-587.0","0","0","33107","","null","","","null","65","","","","","","","","","","","","","","","",""
"","ISI","","html-keyboard-response","429","117617","0.0-1.0-588.0","0","0","33107","","null","","","null","65","NaN","","","","","","","","","","","","","","",""
"","S2","","html-keyboard-response","430","117873","0.0-1.0-589.0","0","0","33107","","115","","","75","65","","k","","","","","","","","","","","","","",""
"","response","","html-keyboard-response","431","117963","0.0-1.0-590.0","0","0","33107","","90","","","75","65","","","5","65","test","adjacent","EF","5","6","Q.jpg","M.jpg","1","1","1","",""
"","feedback","","html-keyboard-response","432","118066","0.0-1.0-591.0-0.0","0","0","33107","","null","","","null","65","","","","","","","","","","","","","","","",""
"","ITI","","html-keyboard-response","433","118569","0.0-1.0-594.0","0","0","33107","","151","","","75","65","","","","","","","","","","","","","","","k",""
"","S1","","html-keyboard-response","434","118826","0.0-1.0-596.0","0","0","33107","","null","","","null","66","","","","","","","","","","","","","","","",""
"","ISI","","html-keyboard-response","435","118930","0.0-1.0-597.0","0","0","33107","","92","","","75","66","k","","","","","","","","","","","","","","",""
"","S2","","html-keyboard-response","436","119185","0.0-1.0-598.0","0","0","33107","","217","","","75","66","","k","","","","","","","","","","","","","",""
"","response","","html-keyboard-response","437","119369","0.0-1.0-599.0","0","0","33107","","183","","","75","66","","","5","66","test","non_adjacent","CE","3","5","P.jpg","Q.jpg","1","1","1","",""
"","feedback","","html-keyboard-response","438","119470","0.0-1.0-600.0-0.0","0","0","33107","","null","","","null","66","","","","","","","","","","","","","","","",""
"","ITI","","html-keyboard-response","439","119974","0.0-1.0-603.0","0","0","33107","","128","","","75","66","","","","","","","","","","","","","","","k",""
"","S1","","html-keyboard-response","440","120226","0.0-1.0-605.0","0","0","33107","","null","","","null","67","","","","","","","","","","","","","","","",""
"","ISI","","html-keyboard-response","441","120330","0.0-1.0-606.0","0","0","33107","","null","","","null","67","NaN","","","","","","","","","","","","","","",""
"","S2","","html-keyboard-response","442","120585","0.0-1.0-607.0","0","0","33107","","22","","","75","67","","k","","","","","","","","","","","","","",""
"","response","","html-keyboard-response","443","120989","0.0-1.0-608.0","0","0","33107","","403","","","75","67","","","5","67","test","non_adjacent","BE","2","5","N.jpg","Q.jpg","1","1","1","",""
"","feedback","","html-keyboard-response","444","121092","0.0-1.0-609.0-0.0","0","0","33107","","null","","","null","67","","","","","","","","","","","","","","","",""
"","ITI","","html-keyboard-response","445","121598","0.0-1.0-612.0","0","0","33107","","129","","","75","67","","","","","","","","","","","","","","","k",""
"","S1","","html-keyboard-response","446","121854","0.0-1.0-614.0","0","0","33107","","null","","","null","68","","","","","","","","","","","","","","","",""
"","ISI","","html-keyboard-response","447","121955","0.0-1.0-615.0","0","0","33107","","null","","","null","68","NaN","","","","","","","","","","","","","","",""
"","S2","","html-keyboard-response","448","122207","0.0-1.0-616.0","0","0","33107","","6","","","75","68","","k","","","","","","","","","","","","","",""
"","response","","html-keyboard-response","449","122407","0.0-1.0-617.0","0","0","33107","","198","","","75","68","","","5","68","test","adjacent","FE","6","5","M.jpg","Q.jpg","1","0","0","",""
"","feedback","","html-keyboard-response","450","122511","0.0-1.0-618.0-0.0","0","0","33107","","null","","","null","68","","","","","","","","","","","","","","","",""
"","time_out","","html-keyboard-response","451","122616","0.0-1.0-620.0-0.0","0","0","33107","","null","","","null","68","","","","","","","","","","","","","","","",""
"","ITI","","html-keyboard-response","452","123119","0.0-1.0-621.0","0","0","33107","","29","","","75","68","","","","","","","","","","","","","","","k",""
"","S1","","html-keyboard-response","453","123372","0.0-1.0-623.0","0","0","33107","","null","","","null","69","","","","","","","","","","","","","","","",""
"","ISI","","html-keyboard-response","454","123476","0.0-1.0-624.0","0","0","33107","","3","","","75","69","k","","","","","","","","","","","","","","",""
"","S2","","html-keyboard-response","455","123728","0.0-1.0-625.0","0","0","33107","","null","","","null","69","","NaN","","","","","","","","","","","","","",""
"","response","","html-keyboard-response","456","123917","0.0-1.0-626.0","0","0","33107","","188","","","75","69","","","5","69","test","non_adjacent","AF","1","6","R.jpg","M.jpg","1","1","1","",""
"","feedback","","html-keyboard-response","457","124019","0.0-1.0-627.0-0.0","0","0","33107","","null","","","null","69","","","","","","","","","","","","","","","",""
"","ITI","","html-keyboard-response","458","124525","0.0-1.0-630.0","0","0","33107","","124","","","75","69","","","","","","","","","","","","","","","k",""
"","S1","","html-keyboard-response","459","124782","0.0-1.0-632.0","0","0","33107","","null","","","null","70","","","","","","","","","","","","","","","",""
"","ISI","","html-keyboard-response","460","124885","0.0-1.0-633.0","0","0","33107","","null","","","null","70","NaN","","","","","","","","","","","","","","",""
"","S2","","html-keyboard-response","461","125138","0.0-1.0-634.0","0","0","33107","","null","","","null","70","","NaN","","","","","","","","","","","","","",""
"","response","","html-keyboard-response","462","125333","0.0-1.0-635.0","0","0","33107","","194","","","75","70","","","5","70","test","adjacent","ED","5","4","Q.jpg","O.jpg","1","0","0","",""
"","feedback","","html-keyboard-response","463","125435","0.0-1.0-636.0-0.0","0","0","33107","","null","","","null","70","","","","","","","","","","","","","","","",""
"","time_out","","html-keyboard-response","464","125538","0.0-1.0-638.0-0.0","0","0","33107","","null","","","null","70","","","","","","","","","","","","","","","",""
"","ITI","","html-keyboard-response","465","126044","0.0-1.0-639.0","0","0","33107","","7","","","75","70","","","","","","","","","","","","","","","k",""
"","S1","","html-keyboard-response","466","126299","0.0-1.0-641.0","0","0","33107","","null","","","null","71","","","","","","","","","","","","","","","",""
"","ISI","","html-keyboard-response","467","126403","0.0-1.0-642.0","0","0","33107","","null","","","null","71","NaN","","","","","","","","","","","","","","",""
"","S2","","html-keyboard-response","468","126655","0.0-1.0-643.0","0","0","33107","","202","","","75","71","","k","","","","","","","","","","","","","",""
"","response","","html-keyboard-response","469","127157","0.0-1.0-644.0","0","0","33107","","null","","","null","71","","","5","71","test","non_adjacent","CG","3","7","P.jpg","L.jpg","NaN","1","0","",""
"","too_slow_prompt","","html-keyboard-response","470","128163","0.0-1.0-646.0-0.0","1","0","33107","","null","","","null","","","","","","","","","","","","","","","","",""
"","time_out","","html-keyboard-response","471","128267","0.0-1.0-647.0-0.0","0","0","33107","","null","","","null","71","","","","","","","","","","","","","","","",""
"","ITI","","html-keyboard-response","472","128773","0.0-1.0-648.0","0","0","33107","","null","","","null","71","","","","","","","","","","","","","","","NaN",""
"","S1","","html-keyboard-response","473","129025","0.0-1.0-650.0","0","0","33107","","null","","","null","72","","","","","","","","","","","","","","","",""
"","ISI","","html-keyboard-response","474","129131","0.0-1.0-651.0","0","0","33107","","null","","","null","72","NaN","","","","","","","","","","","","","","",""
"","S2","","html-keyboard-response","475","129385","0.0-1.0-652.0","0","0","33107","","34","","","75","72","","k","","","","","","","","","","","","","",""
"","response","","html-keyboard-response","476","129546","0.0-1.0-653.0","0","0","33107","","159","","","75","72","","","5","72","test","non_adjacent","CF","3","6","P.jpg","M.jpg","1","1","1","",""
"","feedback","","html-keyboard-response","477","129648","0.0-1.0-654.0-0.0","0","0","33107","","null","","","null","72","","","","","","","","","","","","","","","",""
"","ITI","","html-keyboard-response","478","130149","0.0-1.0-657.0","0","0","33107","","116","","","75","72","","","","","","","","","","","","","","","k",""
"","S1","","html-keyboard-response","479","130402","0.0-1.0-659.0","0","0","33107","","null","","","null","73","","","","","","","","","","","","","","","",""
"","ISI","","html-keyboard-response","480","130505","0.0-1.0-660.0","0","0","33107","","68","","","75","73","k","","","","","","","","","","","","","","",""
"","S2","","html-keyboard-response","481","130762","0.0-1.0-661.0","0","0","33107","","null","","","null","73","","NaN","","","","","","","","","","","","","",""
"","response","","html-keyboard-response","482","131267","0.0-1.0-662.0","0","0","33107","","null","","","null","73","","","5","73","test","non_adjacent","AG","1","7","R.jpg","L.jpg","NaN","1","0","",""
"","too_slow_prompt","","html-keyboard-response","483","132273","0.0-1.0-664.0-0.0","1","0","33107","","null","","","null","","","","","","","","","","","","","","","","",""
"","time_out","","html-keyboard-response","484","132375","0.0-1.0-665.0-0.0","0","0","33107","","null","","","null","73","","","","","","","","","","","","","","","",""
"","ITI","","html-keyboard-response","485","132877","0.0-1.0-666.0","0","0","33107","","158","","","75","73","","","","","","","","","","","","","","","k",""
"","S1","","html-keyboard-response","486","133130","0.0-1.0-668.0","0","0","33107","","null","","","null","74","","","","","","","","","","","","","","","",""
"","ISI","","html-keyboard-response","487","133232","0.0-1.0-669.0","0","0","33107","","null","","","null","74","NaN","","","","","","","","","","","","","","",""
"","S2","","html-keyboard-response","488","133488","0.0-1.0-670.0","0","0","33107","","null","","","null","74","","NaN","","","","","","","","","","","","","",""
"","response","","html-keyboard-response","489","133993","0.0-1.0-671.0","0","0","33107","","null","","","null","74","","","5","74","test","non_adjacent","FD","6","4","M.jpg","O.jpg","NaN","0","0","",""
"","too_slow_prompt","","html-keyboard-response","490","134998","0.0-1.0-673.0-0.0","1","0","33107","","null","","","null","","","","","","","","","","","","","","","","",""
"","time_out","","html-keyboard-response","491","135101","0.0-1.0-674.0-0.0","0","0","33107","","null","","","null","74","","","","","","","","","","","","","","","",""
"","ITI","","html-keyboard-response","492","135605","0.0-1.0-675.0","0","0","33107","","320","","","75","74","","","","","","","","","","","","","","","k",""
"","S1","","html-keyboard-response","493","135860","0.0-1.0-677.0","0","0","33107","","null","","","null","75","","","","","","","","","","","","","","","",""
"","ISI","","html-keyboard-response","494","135965","0.0-1.0-678.0","0","0","33107","","37","","","75","75","k","","","","","","","","","","","","","","",""
"","S2","","html-keyboard-response","495","136218","0.0-1.0-679.0","0","0","33107","","null","","","null","75","","NaN","","","","","","","","","","","","","",""
"","response","","html-keyboard-response","496","136266","0.0-1.0-680.0","0","0","33107","","46","","","75","75","","","5","75","test","adjacent","DE","4","5","O.jpg","Q.jpg","1","1","1","",""
"","feedback","","html-keyboard-response","497","136370","0.0-1.0-681.0-0.0","0","0","33107","","null","","","null","75","","","","","","","","","","","","","","","",""
"","ITI","","html-keyboard-response","498","136873","0.0-1.0-684.0","0","0","33107","","150","","","75","75","","","","","","","","","","","","","","","k",""
"","S1","","html-keyboard-response","499","137125","0.0-1.0-686.0","0","0","33107","","null","","","null","76","","","","","","","","","","","","","","","",""
"","ISI","","html-keyboard-response","500","137230","0.0-1.0-687.0","0","0","33107","","null","","","null","76","NaN","","","","","","","","","","","","","","",""
"","S2","","html-keyboard-response","501","137487","0.0-1.0-688.0","0","0","33107","","7","","","75","76","","k","","","","","","","","","","","","","",""
"","response","","html-keyboard-response","502","137659","0.0-1.0-689.0","0","0","33107","","171","","","75","76","","","5","76","test","non_adjacent","BF","2","6","N.jpg","M.jpg","1","1","1","",""
"","feedback","","html-keyboard-response","503","137761","0.0-1.0-690.0-0.0","0","0","33107","","null","","","null","76","","","","","","","","","","","","","","","",""
"","ITI","","html-keyboard-response","504","138267","0.0-1.0-693.0","0","0","33107","","106","","","75","76","","","","","","","","","","","","","","","k",""
"","S1","","html-keyboard-response","505","138521","0.0-1.0-695.0","0","0","33107","","null","","","null","77","","","","","","","","","","","","","","","",""
"","ISI","","html-keyboard-response","506","138622","0.0-1.0-696.0","0","0","33107","","null","","","null","77","NaN","","","","","","","","","","","","","","",""
"","S2","","html-keyboard-response","507","138873","0.0-1.0-697.0","0","0","33107","","25","","","75","77","","k","","","","","","","","","","","","","",""
"","response","","html-keyboard-response","508","139031","0.0-1.0-698.0","0","0","33107","","156","","","75","77","","","5","77","test","non_adjacent","DG","4","7","O.jpg","L.jpg","1","1","1","",""
"","feedback","","html-keyboard-response","509","139133","0.0-1.0-699.0-0.0","0","0","33107","","null","","","null","77","","","","","","","","","","","","","","","",""
"","ITI","","html-keyboard-response","510","139639","0.0-1.0-702.0","0","0","33107","","81","","","75","77","","","","","","","","","","","","","","","k",""
"","block_over","","html-keyboard-response","511","149998","0.0-1.0-703.0-0.0","0","0","33107","","10357","","","32","77","","","","","","","","","","","","","","","",""
"","S1","","html-keyboard-response","512","150250","0.0-1.0-704.0","0","0","33107","","null","","","null","78","","","","","","","","","","","","","","","",""
"","ISI","","html-keyboard-response","513","150355","0.0-1.0-705.0","0","0","33107","","null","","","null","78","NaN","","","","","","","","","","","","","","",""
"","S2","","html-keyboard-response","514","150610","0.0-1.0-706.0","0","0","33107","","null","","","null","78","","NaN","","","","","","","","","","","","","",""
"","response","","html-keyboard-response","515","151114","0.0-1.0-707.0","0","0","33107","","null","","","null","78","","","6","78","test","non_adjacent","FB","6","2","M.jpg","N.jpg","NaN","0","0","",""
"","too_slow_prompt","","html-keyboard-response","516","152116","0.0-1.0-709.0-0.0","1","0","33107","","null","","","null","","","","","","","","","","","","","","","","",""
"","time_out","","html-keyboard-response","517","152221","0.0-1.0-710.0-0.0","0","0","33107","","null","","","null","78","","","","","","","","","","","","","","","",""
"","ITI","","html-keyboard-response","518","152724","0.0-1.0-711.0","0","0","33107","","null","","","null","78","","","","","","","","","","","","","","","NaN",""
"","S1","","html-keyboard-response","519","152976","0.0-1.0-713.0","0","0","33107","","null","","","null","79","","","","","","","","","","","","","","","",""
"","ISI","","html-keyboard-response","520","153078","0.0-1.0-714.0","0","0","33107","","null","","","null","79","NaN","","","","","","","","","","","","","","",""
"","S2","","html-keyboard-response","521","153335","0.0-1.0-715.0","0","0","33107","","null","","","null","79","","NaN","","","","","","","","","","","","","",""
"","response","","html-keyboard-response","522","153838","0.0-1.0-716.0","0","0","33107","","null","","","null","79","","","6","79","test","non_adjacent","FA","6","1","M.jpg","R.jpg","NaN","0","0","",""
"","too_slow_prompt","","html-keyboard-response","523","154843","0.0-1.0-718.0-0.0","1","0","33107","","null","","","null","","","","","","","","","","","","","","","","",""
"","time_out","","html-keyboard-response","524","154950","0.0-1.0-719.0-0.0","0","0","33107","","null","","","null","79","","","","","","","","","","","","","","","",""
"","ITI","","html-keyboard-response","525","155456","0.0-1.0-720.0","0","0","33107","","null","","","null","79","","","","","","","","","","","","","","","NaN",""
"","S1","","html-keyboard-response","526","155710","0.0-1.0-722.0","0","0","33107","","null","","","null","80","","","","","","","","","","","","","","","",""
"","ISI","","html-keyboard-response","527","155812","0.0-1.0-723.0","0","0","33107","","null","","","null","80","NaN","","","","","","","","","","","","","","",""
"","S2","","html-keyboard-response","528","156067","0.0-1.0-724.0","0","0","33107","","null","","","null","80","","NaN","","","","","","","","","","","","","",""
"","response","","html-keyboard-response","529","156569","0.0-1.0-725.0","0","0","33107","","null","","","null","80","","","6","80","test","non_adjacent","DB","4","2","O.jpg","N.jpg","NaN","0","0","",""
"","too_slow_prompt","","html-keyboard-response","530","157574","0.0-1.0-727.0-0.0","1","0","33107","","null","","","null","","","","","","","","","","","","","","","","",""
"","time_out","","html-keyboard-response","531","157678","0.0-1.0-728.0-0.0","0","0","33107","","null","","","null","80","","","","","","","","","","","","","","","",""
"","ITI","","html-keyboard-response","532","158182","0.0-1.0-729.0","0","0","33107","","null","","","null","80","","","","","","","","","","","","","","","NaN",""
"","S1","","html-keyboard-response","533","158439","0.0-1.0-731.0","0","0","33107","","null","","","null","81","","","","","","","","","","","","","","","",""
"","ISI","","html-keyboard-response","534","158544","0.0-1.0-732.0","0","0","33107","","null","","","null","81","NaN","","","","","","","","","","","","","","",""
"","S2","","html-keyboard-response","535","158798","0.0-1.0-733.0","0","0","33107","","null","","","null","81","","NaN","","","","","","","","","","","","","",""
"","response","","html-keyboard-response","536","159300","0.0-1.0-734.0","0","0","33107","","null","","","null","81","","","6","81","test","non_adjacent","GA","7","1","L.jpg","R.jpg","NaN","0","0","",""
"","too_slow_prompt","","html-keyboard-response","537","160304","0.0-1.0-736.0-0.0","1","0","33107","","null","","","null","","","","","","","","","","","","","","","","",""
"","time_out","","html-keyboard-response","538","160411","0.0-1.0-737.0-0.0","0","0","33107","","null","","","null","81","","","","","","","","","","","","","","","",""
"","ITI","","html-keyboard-response","539","160916","0.0-1.0-738.0","0","0","33107","","null","","","null","81","","","","","","","","","","","","","","","NaN",""
"","S1","","html-keyboard-response","540","161170","0.0-1.0-740.0","0","0","33107","","null","","","null","82","","","","","","","","","","","","","","","",""
"","ISI","","html-keyboard-response","541","161274","0.0-1.0-741.0","0","0","33107","","null","","","null","82","NaN","","","","","","","","","","","","","","",""
"","S2","","html-keyboard-response","542","161527","0.0-1.0-742.0","0","0","33107","","null","","","null","82","","NaN","","","","","","","","","","","","","",""
"","response","","html-keyboard-response","543","162031","0.0-1.0-743.0","0","0","33107","","null","","","null","82","","","6","82","test","adjacent","CB","3","2","P.jpg","N.jpg","NaN","0","0","",""
"","too_slow_prompt","","html-keyboard-response","544","163036","0.0-1.0-745.0-0.0","1","0","33107","","null","","","null","","","","","","","","","","","","","","","","",""
"","time_out","","html-keyboard-response","545","163140","0.0-1.0-746.0-0.0","0","0","33107","","null","","","null","82","","","","","","","","","","","","","","","",""
"","ITI","","html-keyboard-response","546","163642","0.0-1.0-747.0","0","0","33107","","null","","","null","82","","","","","","","","","","","","","","","NaN",""
"","S1","","html-keyboard-response","547","163895","0.0-1.0-749.0","0","0","33107","","null","","","null","83","","","","","","","","","","","","","","","",""
"","ISI","","html-keyboard-response","548","163997","0.0-1.0-750.0","0","0","33107","","null","","","null","83","NaN","","","","","","","","","","","","","","",""
"","S2","","html-keyboard-response","549","164250","0.0-1.0-751.0","0","0","33107","","null","","","null","83","","NaN","","","","","","","","","","","","","",""
"","response","","html-keyboard-response","550","164752","0.0-1.0-752.0","0","0","33107","","null","","","null","83","","","6","83","test","adjacent","CD","3","4","P.jpg","O.jpg","NaN","1","0","",""
"","too_slow_prompt","","html-keyboard-response","551","165758","0.0-1.0-754.0-0.0","1","0","33107","","null","","","null","","","","","","","","","","","","","","","","",""
"","time_out","","html-keyboard-response","552","165863","0.0-1.0-755.0-0.0","0","0","33107","","null","","","null","83","","","","","","","","","","","","","","","",""
"","ITI","","html-keyboard-response","553","166370","0.0-1.0-756.0","0","0","33107","","null","","","null","83","","","","","","","","","","","","","","","NaN",""
"","S1","","html-keyboard-response","554","166625","0.0-1.0-758.0","0","0","33107","","null","","","null","84","","","","","","","","","","","","","","","",""
"","ISI","","html-keyboard-response","555","166729","0.0-1.0-759.0","0","0","33107","","null","","","null","84","NaN","","","","","","","","","","","","","","",""
"","S2","","html-keyboard-response","556","166984","0.0-1.0-760.0","0","0","33107","","null","","","null","84","","NaN","","","","","","","","","","","","","",""
"","response","","html-keyboard-response","557","167488","0.0-1.0-761.0","0","0","33107","","null","","","null","84","","","6","84","test","non_adjacent","EC","5","3","Q.jpg","P.jpg","NaN","0","0","",""
"","too_slow_prompt","","html-keyboard-response","558","168493","0.0-1.0-763.0-0.0","1","0","33107","","null","","","null","","","","","","","","","","","","","","","","",""
"","time_out","","html-keyboard-response","559","168600","0.0-1.0-764.0-0.0","0","0","33107","","null","","","null","84","","","","","","","","","","","","","","","",""
"","ITI","","html-keyboard-response","560","169102","0.0-1.0-765.0","0","0","33107","","null","","","null","84","","","","","","","","","","","","","","","NaN",""
"","S1","","html-keyboard-response","561","169358","0.0-1.0-767.0","0","0","33107","","null","","","null","85","","","","","","","","","","","","","","","",""
"","ISI","","html-keyboard-response","562","169460","0.0-1.0-768.0","0","0","33107","","null","","","null","85","NaN","","","","","","","","","","","","","","",""
"","S2","","html-keyboard-response","563","169715","0.0-1.0-769.0","0","0","33107","","null","","","null","85","","NaN","","","","","","","","","","","","","",""
"","response","","html-keyboard-response","564","170222","0.0-1.0-770.0","0","0","33107","","null","","","null","85","","","6","85","test","non_adjacent","AD","1","4","R.jpg","O.jpg","NaN","1","0","",""
"","too_slow_prompt","","html-keyboard-response","565","171228","0.0-1.0-772.0-0.0","1","0","33107","","null","","","null","","","","","","","","","","","","","","","","",""
"","time_out","","html-keyboard-response","566","171330","0.0-1.0-773.0-0.0","0","0","33107","","null","","","null","85","","","","","","","","","","","","","","","",""
"","ITI","","html-keyboard-response","567","171836","0.0-1.0-774.0","0","0","33107","","null","","","null","85","","","","","","","","","","","","","","","NaN",""
"","S1","","html-keyboard-response","568","172093","0.0-1.0-776.0","0","0","33107","","null","","","null","86","","","","","","","","","","","","","","","",""
"","ISI","","html-keyboard-response","569","172200","0.0-1.0-777.0","0","0","33107","","null","","","null","86","NaN","","","","","","","","","","","","","","",""
"","S2","","html-keyboard-response","570","172455","0.0-1.0-778.0","0","0","33107","","null","","","null","86","","NaN","","","","","","","","","","","","","",""
"","response","","html-keyboard-response","571","172960","0.0-1.0-779.0","0","0","33107","","null","","","null","86","","","6","86","test","non_adjacent","DA","4","1","O.jpg","R.jpg","NaN","0","0","",""
"","too_slow_prompt","","html-keyboard-response","572","173966","0.0-1.0-781.0-0.0","1","0","33107","","null","","","null","","","","","","","","","","","","","","","","",""
"","time_out","","html-keyboard-response","573","174070","0.0-1.0-782.0-0.0","0","0","33107","","null","","","null","86","","","","","","","","","","","","","","","",""
"","ITI","","html-keyboard-response","574","174573","0.0-1.0-783.0","0","0","33107","","null","","","null","86","","","","","","","","","","","","","","","NaN",""
"","S1","","html-keyboard-response","575","174830","0.0-1.0-785.0","0","0","33107","","null","","","null","87","","","","","","","","","","","","","","","",""
"","ISI","","html-keyboard-response","576","174933","0.0-1.0-786.0","0","0","33107","","null","","","null","87","NaN","","","","","","","","","","","","","","",""
"","S2","","html-keyboard-response","577","175189","0.0-1.0-787.0","0","0","33107","","null","","","null","87","","NaN","","","","","","","","","","","","","",""
"","response","","html-keyboard-response","578","175693","0.0-1.0-788.0","0","0","33107","","null","","","null","87","","","6","87","test","non_adjacent","GB","7","2","L.jpg","N.jpg","NaN","0","0","",""
"","too_slow_prompt","","html-keyboard-response","579","176698","0.0-1.0-790.0-0.0","1","0","33107","","null","","","null","","","","","","","","","","","","","","","","",""
"","time_out","","html-keyboard-response","580","176801","0.0-1.0-791.0-0.0","0","0","33107","","null","","","null","87","","","","","","","","","","","","","","","",""
"","ITI","","html-keyboard-response","581","177304","0.0-1.0-792.0","0","0","33107","","null","","","null","87","","","","","","","","","","","","","","","NaN",""
"","S1","","html-keyboard-response","582","177560","0.0-1.0-794.0","0","0","33107","","null","","","null","88","","","","","","","","","","","","","","","",""
"","ISI","","html-keyboard-response","583","177664","0.0-1.0-795.0","0","0","33107","","null","","","null","88","NaN","","","","","","","","","","","","","","",""
"","S2","","html-keyboard-response","584","177921","0.0-1.0-796.0","0","0","33107","","null","","","null","88","","NaN","","","","","","","","","","","","","",""
"","response","","html-keyboard-response","585","178428","0.0-1.0-797.0","0","0","33107","","null","","","null","88","","","6","88","test","non_adjacent","AC","1","3","R.jpg","P.jpg","NaN","1","0","",""
"","too_slow_prompt","","html-keyboard-response","586","179434","0.0-1.0-799.0-0.0","1","0","33107","","null","","","null","","","","","","","","","","","","","","","","",""
"","time_out","","html-keyboard-response","587","179540","0.0-1.0-800.0-0.0","0","0","33107","","null","","","null","88","","","","","","","","","","","","","","","",""
"","ITI","","html-keyboard-response","588","180043","0.0-1.0-801.0","0","0","33107","","null","","","null","88","","","","","","","","","","","","","","","NaN",""
"","S1","","html-keyboard-response","589","180298","0.0-1.0-803.0","0","0","33107","","null","","","null","89","","","","","","","","","","","","","","","",""
"","ISI","","html-keyboard-response","590","180403","0.0-1.0-804.0","0","0","33107","","null","","","null","89","NaN","","","","","","","","","","","","","","",""
"","S2","","html-keyboard-response","591","180656","0.0-1.0-805.0","0","0","33107","","56","","","68","89","","d","","","","","","","","","","","","","",""
"","response","","html-keyboard-response","592","180794","0.0-1.0-806.0","0","0","33107","","136","","","68","89","","","6","89","test","non_adjacent","EB","5","2","Q.jpg","N.jpg","0","0","1","",""
