"success","ttype","start_time","trial_type","trial_index","time_elapsed","internal_node_id","warning","missed_checkup","PID","view_history","rt","responses","repeat_instructions","key_press","index","keypress_isi","keypress_S2","block","trial_num","phase","group_type","pair_type","S1_stim","S2_stim","S1_img","S2_img","S1_chosen","S1_higher","accuracy","keypress_iti","total_bonus_tally"
"true","full_screen","d07252022hr2033","fullscreen","0","2318","0.0-0.0","0","0","20696","","","","","","","","","","","","","","","","","","","","","",""
"","instructions","","instructions","1","4008","0.0-1.0-0.0-0.0","0","0","20696","[{""page_index"":0,""viewing_time"":1267},{""page_index"":1,""viewing_time"":232},{""page_index"":2,""viewing_time"":189}]","1688","","","","","","","","","","","","","","","","","","","",""
"","comprehension_check","","survey-multi-choice","2","10943","0.0-1.0-0.0-1.0","0","0","20696","","6931","{""Q0"":""True"",""Q1"":""True"",""Q2"":""When you see the prompt 'MAKE A CHOICE' after the second image was presented"",""Q3"":""Green mark"",""Q4"":""either D or K""}","0","","","","","","","","","","","","","","","","","",""
"","start_exp","","html-keyboard-response","3","12808","0.0-1.0-1.0","0","0","20696","","1863","","","32","","","","","","","","","","","","","","","","",""
"","S1","","html-keyboard-response","4","13064","0.0-1.0-2.0","0","0","20696","","null","","","null","0","","","","","","","","","","","","","","","",""
"","ISI","","html-keyboard-response","5","13170","0.0-1.0-3.0","0","0","20696","","null","","","null","0","NaN","","","","","","","","","","","","","","",""
"","S2","","html-keyboard-response","6","13426","0.0-1.0-4.0","0","0","20696","","null","","","null","0","","NaN","","","","","","","","","","","","","",""
"","response","","html-keyboard-response","7","13616","0.0-1.0-5.0","0","0","20696","","189","","","68","0","","","1","0","training","adjacent","BA","2","1","L.jpg","R.jpg","1","0","0","",""
"","feedback","","html-keyboard-response","8","13722","0.0-1.0-6.0-0.0","0","0","20696","","null","","","null","0","","","","","","","","","","","","","","","",""
"","time_out","","html-keyboard-response","9","13824","0.0-1.0-8.0-0.0","0","0","20696","","null","","","null","0","","","","","","","","","","","","","","","",""
"","ITI","","html-keyboard-response","10","14329","0.0-1.0-9.0","0","0","20696","","4","","","68","0","","","","","","","","","","","","","","","d",""
"","S1","","html-keyboard-response","11","14585","0.0-1.0-11.0","0","0","20696","","null","","","null","1","","","","","","","","","","","","","","","",""
"","ISI","","html-keyboard-response","12","14687","0.0-1.0-12.0","0","0","20696","","97","","","75","1","k","","","","","","","","","","","","","","",""
"","S2","","html-keyboard-response","13","14942","0.0-1.0-13.0","0","0","20696","","151","","","75","1","","k","","","","","","","","","","","","","",""
"","response","","html-keyboard-response","14","14993","0.0-1.0-14.0","0","0","20696","","51","","","75","1","","","1","1","training","adjacent","DC","4","3","M.jpg","N.jpg","0","0","1","",""
"","feedback","","html-keyboard-response","15","15096","0.0-1.0-15.0-0.0","0","0","20696","","null","","","null","1","","","","","","","","","","","","","","","",""
"","ITI","","html-keyboard-response","16","15599","0.0-1.0-18.0","0","0","20696","","59","","","75","1","","","","","","","","","","","","","","","k",""
"","S1","","html-keyboard-response","17","15854","0.0-1.0-20.0","0","0","20696","","null","","","null","2","","","","","","","","","","","","","","","",""
"","ISI","","html-keyboard-response","18","15958","0.0-1.0-21.0","0","0","20696","","null","","","null","2","NaN","","","","","","","","","","","","","","",""
"","S2","","html-keyboard-response","19","16213","0.0-1.0-22.0","0","0","20696","","26","","","75","2","","k","","","","","","","","","","","","","",""
"","response","","html-keyboard-response","20","16324","0.0-1.0-23.0","0","0","20696","","109","","","75","2","","","1","2","training","adjacent","ED","5","4","Q.jpg","M.jpg","0","0","1","",""
"","feedback","","html-keyboard-response","21","16426","0.0-1.0-24.0-0.0","0","0","20696","","null","","","null","2","","","","","","","","","","","","","","","",""
"","ITI","","html-keyboard-response","22","16929","0.0-1.0-27.0","0","0","20696","","86","","","75","2","","","","","","","","","","","","","","","k",""
"","S1","","html-keyboard-response","23","17186","0.0-1.0-29.0","0","0","20696","","null","","","null","3","","","","","","","","","","","","","","","",""
"","ISI","","html-keyboard-response","24","17288","0.0-1.0-30.0","0","0","20696","","null","","","null","3","NaN","","","","","","","","","","","","","","",""
"","S2","","html-keyboard-response","25","17541","0.0-1.0-31.0","0","0","20696","","14","","","75","3","","k","","","","","","","","","","","","","",""
"","response","","html-keyboard-response","26","17714","0.0-1.0-32.0","0","0","20696","","173","","","75","3","","","1","3","training","adjacent","GF","7","6","P.jpg","O.jpg","0","0","1","",""
"","feedback","","html-keyboard-response","27","17816","0.0-1.0-33.0-0.0","0","0","20696","","null","","","null","3","","","","","","","","","","","","","","","",""
"","ITI","","html-keyboard-response","28","18319","0.0-1.0-36.0","0","0","20696","","105","","","75","3","","","","","","","","","","","","","","","k",""
"","S1","","html-keyboard-response","29","18576","0.0-1.0-38.0","0","0","20696","","null","","","null","4","","","","","","","","","","","","","","","",""
"","ISI","","html-keyboard-response","30","18680","0.0-1.0-39.0","0","0","20696","","null","","","null","4","NaN","","","","","","","","","","","","","","",""
"","S2","","html-keyboard-response","31","18933","0.0-1.0-40.0","0","0","20696","","30","","","75","4","","k","","","","","","","","","","","","","",""
"","response","","html-keyboard-response","32","19137","0.0-1.0-41.0","0","0","20696","","203","","","75","4","","","1","4","training","adjacent","DE","4","5","M.jpg","Q.jpg","0","1","0","",""
"","feedback","","html-keyboard-response","33","19239","0.0-1.0-42.0-0.0","0","0","20696","","null","","","null","4","","","","","","","","","","","","","","","",""
"","time_out","","html-keyboard-response","34","19343","0.0-1.0-44.0-0.0","0","0","20696","","null","","","null","4","","","","","","","","","","","","","","","",""
"","ITI","","html-keyboard-response","35","19849","0.0-1.0-45.0","0","0","20696","","11","","","75","4","","","","","","","","","","","","","","","k",""
"","S1","","html-keyboard-response","36","20105","0.0-1.0-47.0","0","0","20696","","null","","","null","5","","","","","","","","","","","","","","","",""
"","ISI","","html-keyboard-response","37","20210","0.0-1.0-48.0","0","0","20696","","54","","","75","5","k","","","","","","","","","","","","","","",""
"","S2","","html-keyboard-response","38","20463","0.0-1.0-49.0","0","0","20696","","143","","","75","5","","k","","","","","","","","","","","","","",""
"","response","","html-keyboard-response","39","20546","0.0-1.0-50.0","0","0","20696","","83","","","75","5","","","1","5","training","adjacent","EF","5","6","Q.jpg","O.jpg","0","1","0","",""
"","feedback","","html-keyboard-response","40","20648","0.0-1.0-51.0-0.0","0","0","20696","","null","","","null","5","","","","","","","","","","","","","","","",""
"","time_out","","html-keyboard-response","41","20752","0.0-1.0-53.0-0.0","0","0","20696","","null","","","null","5","","","","","","","","","","","","","","","",""
"","ITI","","html-keyboard-response","42","21258","0.0-1.0-54.0","0","0","20696","","159","","","75","5","","","","","","","","","","","","","","","k",""
"","S1","","html-keyboard-response","43","21510","0.0-1.0-56.0","0","0","20696","","null","","","null","6","","","","","","","","","","","","","","","",""
"","ISI","","html-keyboard-response","44","21617","0.0-1.0-57.0","0","0","20696","","null","","","null","6","NaN","","","","","","","","","","","","","","",""
"","S2","","html-keyboard-response","45","21872","0.0-1.0-58.0","0","0","20696","","76","","","75","6","","k","","","","","","","","","","","","","",""
"","response","","html-keyboard-response","46","21910","0.0-1.0-59.0","0","0","20696","","36","","","75","6","","","1","6","training","adjacent","FE","6","5","O.jpg","Q.jpg","0","0","1","",""
"","feedback","","html-keyboard-response","47","22011","0.0-1.0-60.0-0.0","0","0","20696","","null","","","null","6","","","","","","","","","","","","","","","",""
"","ITI","","html-keyboard-response","48","22518","0.0-1.0-63.0","0","0","20696","","68","","","75","6","","","","","","","","","","","","","","","k",""
"","S1","","html-keyboard-response","49","22770","0.0-1.0-65.0","0","0","20696","","null","","","null","7","","","","","","","","","","","","","","","",""
"","ISI","","html-keyboard-response","50","22876","0.0-1.0-66.0","0","0","20696","","null","","","null","7","NaN","","","","","","","","","","","","","","",""
"","S2","","html-keyboard-response","51","23128","0.0-1.0-67.0","0","0","20696","","12","","","75","7","","k","","","","","","","","","","","","","",""
"","response","","html-keyboard-response","52","23263","0.0-1.0-68.0","0","0","20696","","133","","","75","7","","","1","7","training","adjacent","AB","1","2","R.jpg","L.jpg","0","1","0","",""
"","feedback","","html-keyboard-response","53","23367","0.0-1.0-69.0-0.0","0","0","20696","","null","","","null","7","","","","","","","","","","","","","","","",""
"","time_out","","html-keyboard-response","54","23471","0.0-1.0-71.0-0.0","0","0","20696","","null","","","null","7","","","","","","","","","","","","","","","",""
"","ITI","","html-keyboard-response","55","23977","0.0-1.0-72.0","0","0","20696","","25","","","75","7","","","","","","","","","","","","","","","k",""
"","S1","","html-keyboard-response","56","24229","0.0-1.0-74.0","0","0","20696","","null","","","null","8","","","","","","","","","","","","","","","",""
"","ISI","","html-keyboard-response","57","24331","0.0-1.0-75.0","0","0","20696","","null","","","null","8","NaN","","","","","","","","","","","","","","",""
"","S2","","html-keyboard-response","58","24583","0.0-1.0-76.0","0","0","20696","","132","","","75","8","","k","","","","","","","","","","","","","",""
"","response","","html-keyboard-response","59","24781","0.0-1.0-77.0","0","0","20696","","197","","","75","8","","","1","8","training","adjacent","CB","3","2","N.jpg","L.jpg","0","0","1","",""
"","feedback","","html-keyboard-response","60","24885","0.0-1.0-78.0-0.0","0","0","20696","","null","","","null","8","","","","","","","","","","","","","","","",""
"","ITI","","html-keyboard-response","61","25389","0.0-1.0-81.0","0","0","20696","","64","","","75","8","","","","","","","","","","","","","","","k",""
"","S1","","html-keyboard-response","62","25646","0.0-1.0-83.0","0","0","20696","","null","","","null","9","","","","","","","","","","","","","","","",""
"","ISI","","html-keyboard-response","63","25750","0.0-1.0-84.0","0","0","20696","","null","","","null","9","NaN","","","","","","","","","","","","","","",""
"","S2","","html-keyboard-response","64","26006","0.0-1.0-85.0","0","0","20696","","43","","","75","9","","k","","","","","","","","","","","","","",""
"","response","","html-keyboard-response","65","26178","0.0-1.0-86.0","0","0","20696","","170","","","75","9","","","1","9","training","adjacent","CD","3","4","N.jpg","M.jpg","0","1","0","",""
"","feedback","","html-keyboard-response","66","26280","0.0-1.0-87.0-0.0","0","0","20696","","null","","","null","9","","","","","","","","","","","","","","","",""
"","time_out","","html-keyboard-response","67","26383","0.0-1.0-89.0-0.0","0","0","20696","","null","","","null","9","","","","","","","","","","","","","","","",""
"","ITI","","html-keyboard-response","68","26888","0.0-1.0-90.0","0","0","20696","","175","","","75","9","","","","","","","","","","","","","","","k",""
"","S1","","html-keyboard-response","69","27145","0.0-1.0-92.0","0","0","20696","","null","","","null","10","","","","","","","","","","","","","","","",""
"","ISI","","html-keyboard-response","70","27247","0.0-1.0-93.0","0","0","20696","","42","","","75","10","k","","","","","","","","","","","","","","",""
"","S2","","html-keyboard-response","71","27500","0.0-1.0-94.0","0","0","20696","","155","","","75","10","","k","","","","","","","","","","","","","",""
"","response","","html-keyboard-response","72","27667","0.0-1.0-95.0","0","0","20696","","166","","","75","10","","","1","10","training","adjacent","BC","2","3","L.jpg","N.jpg","0","1","0","",""
"","feedback","","html-keyboard-response","73","27769","0.0-1.0-96.0-0.0","0","0","20696","","null","","","null","10","","","","","","","","","","","","","","","",""
"","time_out","","html-keyboard-response","74","27875","0.0-1.0-98.0-0.0","0","0","20696","","null","","","null","10","","","","","","","","","","","","","","","",""
"","ITI","","html-keyboard-response","75","28379","0.0-1.0-99.0","0","0","20696","","166","","","75","10","","","","","","","","","","","","","","","k",""
"","S1","","html-keyboard-response","76","28635","0.0-1.0-101.0","0","0","20696","","null","","","null","11","","","","","","","","","","","","","","","",""
"","ISI","","html-keyboard-response","77","28741","0.0-1.0-102.0","0","0","20696","","6","","","75","11","k","","","","","","","","","","","","","","",""
"","S2","","html-keyboard-response","78","28999","0.0-1.0-103.0","0","0","20696","","125","","","75","11","","k","","","","","","","","","","","","","",""
"","response","","html-keyboard-response","79","29327","0.0-1.0-104.0","0","0","20696","","327","","","75","11","","","1","11","training","adjacent","FG","6","7","O.jpg","P.jpg","0","1","0","",""
"","feedback","","html-keyboard-response","80","29430","0.0-1.0-105.0-0.0","0","0","20696","","null","","","null","11","","","","","","","","","","","","","","","",""
"","time_out","","html-keyboard-response","81","29531","0.0-1.0-107.0-0.0","0","0","20696","","null","","","null","11","","","","","","","","","","","","","","","",""
"","ITI","","html-keyboard-response","82","30033","0.0-1.0-108.0","0","0","20696","","15","","","75","11","","","","","","","","","","","","","","","k",""
"","block_over","","html-keyboard-response","83","31001","0.0-1.0-109.0-0.0","0","0","20696","","966","","","32","11","","","","","","","","","","","","","","","",""
"","S1","","html-keyboard-response","84","31256","0.0-1.0-110.0","0","0","20696","","null","","","null","12","","","","","","","","","","","","","","","",""
"","ISI","","html-keyboard-response","85","31360","0.0-1.0-111.0","0","0","20696","","null","","","null","12","NaN","","","","","","","","","","","","","","",""
"","S2","","html-keyboard-response","86","31617","0.0-1.0-112.0","0","0","20696","","72","","","75","12","","k","","","","","","","","","","","","","",""
"","response","","html-keyboard-response","87","31651","0.0-1.0-113.0","0","0","20696","","33","","","75","12","","","2","12","training","adjacent","BC","2","3","L.jpg","N.jpg","0","1","0","",""
"","feedback","","html-keyboard-response","88","31757","0.0-1.0-114.0-0.0","0","0","20696","","null","","","null","12","","","","","","","","","","","","","","","",""
"","time_out","","html-keyboard-response","89","31860","0.0-1.0-116.0-0.0","0","0","20696","","null","","","null","12","","","","","","","","","","","","","","","",""
"","ITI","","html-keyboard-response","90","32364","0.0-1.0-117.0","0","0","20696","","191","","","75","12","","","","","","","","","","","","","","","k",""
"","S1","","html-keyboard-response","91","32617","0.0-1.0-119.0","0","0","20696","","null","","","null","13","","","","","","","","","","","","","","","",""
"","ISI","","html-keyboard-response","92","32721","0.0-1.0-120.0","0","0","20696","","77","","","75","13","k","","","","","","","","","","","","","","",""
"","S2","","html-keyboard-response","93","32976","0.0-1.0-121.0","0","0","20696","","null","","","null","13","","NaN","","","","","","","","","","","","","",""
"","response","","html-keyboard-response","94","32981","0.0-1.0-122.0","0","0","20696","","4","","","75","13","","","2","13","training","adjacent","EF","5","6","Q.jpg","O.jpg","0","1","0","",""
"","feedback","","html-keyboard-response","95","33084","0.0-1.0-123.0-0.0","0","0","20696","","null","","","null","13","","","","","","","","","","","","","","","",""
"","time_out","","html-keyboard-response","96","33191","0.0-1.0-125.0-0.0","0","0","20696","","null","","","null","13","","","","","","","","","","","","","","","",""
"","ITI","","html-keyboard-response","97","33694","0.0-1.0-126.0","0","0","20696","","45","","","75","13","","","","","","","","","","","","","","","k",""
"","S1","","html-keyboard-response","98","33948","0.0-1.0-128.0","0","0","20696","","null","","","null","14","","","","","","","","","","","","","","","",""
"","ISI","","html-keyboard-response","99","34051","0.0-1.0-129.0","0","0","20696","","null","","","null","14","NaN","","","","","","","","","","","","","","",""
"","S2","","html-keyboard-response","100","34303","0.0-1.0-130.0","0","0","20696","","27","","","75","14","","k","","","","","","","","","","","","","",""
"","response","","html-keyboard-response","101","34517","0.0-1.0-131.0","0","0","20696","","212","","","75","14","","","2","14","training","adjacent","AB","1","2","R.jpg","L.jpg","0","1","0","",""
"","feedback","","html-keyboard-response","102","34619","0.0-1.0-132.0-0.0","0","0","20696","","null","","","null","14","","","","","","","","","","","","","","","",""
"","time_out","","html-keyboard-response","103","34724","0.0-1.0-134.0-0.0","0","0","20696","","null","","","null","14","","","","","","","","","","","","","","","",""
"","ITI","","html-keyboard-response","104","35229","0.0-1.0-135.0","0","0","20696","","17","","","75","14","","","","","","","","","","","","","","","k",""
"","S1","","html-keyboard-response","105","35486","0.0-1.0-137.0","0","0","20696","","null","","","null","15","","","","","","","","","","","","","","","",""
"","ISI","","html-keyboard-response","106","35592","0.0-1.0-138.0","0","0","20696","","null","","","null","15","NaN","","","","","","","","","","","","","","",""
"","S2","","html-keyboard-response","107","35845","0.0-1.0-139.0","0","0","20696","","141","","","75","15","","k","","","","","","","","","","","","","",""
"","response","","html-keyboard-response","108","35949","0.0-1.0-140.0","0","0","20696","","103","","","75","15","","","2","15","training","adjacent","FG","6","7","O.jpg","P.jpg","0","1","0","",""
"","feedback","","html-keyboard-response","109","36052","0.0-1.0-141.0-0.0","0","0","20696","","null","","","null","15","","","","","","","","","","","","","","","",""
"","time_out","","html-keyboard-response","110","36156","0.0-1.0-143.0-0.0","0","0","20696","","null","","","null","15","","","","","","","","","","","","","","","",""
"","ITI","","html-keyboard-response","111","36658","0.0-1.0-144.0","0","0","20696","","33","","","75","15","","","","","","","","","","","","","","","k",""
"","S1","","html-keyboard-response","112","36913","0.0-1.0-146.0","0","0","20696","","null","","","null","16","","","","","","","","","","","","","","","",""
"","ISI","","html-keyboard-response","113","37018","0.0-1.0-147.0","0","0","20696","","81","","","75","16","k","","","","","","","","","","","","","","",""
"","S2","","html-keyboard-response","114","37271","0.0-1.0-148.0","0","0","20696","","235","","","75","16","","k","","","","","","","","","","","","","",""
"","response","","html-keyboard-response","115","37507","0.0-1.0-149.0","0","0","20696","","234","","","75","16","","","2","16","training","adjacent","DE","4","5","M.jpg","Q.jpg","0","1","0","",""
"","feedback","","html-keyboard-response","116","37609","0.0-1.0-150.0-0.0","0","0","20696","","null","","","null","16","","","","","","","","","","","","","","","",""
"","time_out","","html-keyboard-response","117","37712","0.0-1.0-152.0-0.0","0","0","20696","","null","","","null","16","","","","","","","","","","","","","","","",""
"","ITI","","html-keyboard-response","118","38215","0.0-1.0-153.0","0","0","20696","","25","","","75","16","","","","","","","","","","","","","","","k",""
"","S1","","html-keyboard-response","119","38470","0.0-1.0-155.0","0","0","20696","","null","","","null","17","","","","","","","","","","","","","","","",""
"","ISI","","html-keyboard-response","120","38575","0.0-1.0-156.0","0","0","20696","","null","","","null","17","NaN","","","","","","","","","","","","","","",""
"","S2","","html-keyboard-response","121","38830","0.0-1.0-157.0","0","0","20696","","90","","","75","17","","k","","","","","","","","","","","","","",""
"","response","","html-keyboard-response","122","38852","0.0-1.0-158.0","0","0","20696","","20","","","75","17","","","2","17","training","adjacent","BA","2","1","L.jpg","R.jpg","0","0","1","",""
"","feedback","","html-keyboard-response","123","38955","0.0-1.0-159.0-0.0","0","0","20696","","null","","","null","17","","","","","","","","","","","","","","","",""
"","ITI","","html-keyboard-response","124","39457","0.0-1.0-162.0","0","0","20696","","126","","","75","17","","","","","","","","","","","","","","","k",""
"","S1","","html-keyboard-response","125","39709","0.0-1.0-164.0","0","0","20696","","null","","","null","18","","","","","","","","","","","","","","","",""
"","ISI","","html-keyboard-response","126","39813","0.0-1.0-165.0","0","0","20696","","1","","","75","18","k","","","","","","","","","","","","","","",""
"","S2","","html-keyboard-response","127","40070","0.0-1.0-166.0","0","0","20696","","108","","","75","18","","k","","","","","","","","","","","","","",""
"","response","","html-keyboard-response","128","40117","0.0-1.0-167.0","0","0","20696","","46","","","75","18","","","2","18","training","adjacent","FE","6","5","O.jpg","Q.jpg","0","0","1","",""
"","feedback","","html-keyboard-response","129","40220","0.0-1.0-168.0-0.0","0","0","20696","","null","","","null","18","","","","","","","","","","","","","","","",""
"","ITI","","html-keyboard-response","130","40724","0.0-1.0-171.0","0","0","20696","","95","","","75","18","","","","","","","","","","","","","","","k",""
"","S1","","html-keyboard-response","131","40979","0.0-1.0-173.0","0","0","20696","","null","","","null","19","","","","","","","","","","","","","","","",""
"","ISI","","html-keyboard-response","132","41082","0.0-1.0-174.0","0","0","20696","","null","","","null","19","NaN","","","","","","","","","","","","","","",""
"","S2","","html-keyboard-response","133","41334","0.0-1.0-175.0","0","0","20696","","44","","","75","19","","k","","","","","","","","","","","","","",""
"","response","","html-keyboard-response","134","41534","0.0-1.0-176.0","0","0","20696","","200","","","75","19","","","2","19","training","adjacent","CD","3","4","N.jpg","M.jpg","0","1","0","",""
"","feedback","","html-keyboard-response","135","41636","0.0-1.0-177.0-0.0","0","0","20696","","null","","","null","19","","","","","","","","","","","","","","","",""
"","time_out","","html-keyboard-response","136","41737","0.0-1.0-179.0-0.0","0","0","20696","","null","","","null","19","","","","","","","","","","","","","","","",""
"","ITI","","html-keyboard-response","137","42239","0.0-1.0-180.0","0","0","20696","","231","","","75","19","","","","","","","","","","","","","","","k",""
"","S1","","html-keyboard-response","138","42495","0.0-1.0-182.0","0","0","20696","","null","","","null","20","","","","","","","","","","","","","","","",""
"","ISI","","html-keyboard-response","139","42601","0.0-1.0-183.0","0","0","20696","","null","","","null","20","NaN","","","","","","","","","","","","","","",""
"","S2","","html-keyboard-response","140","42853","0.0-1.0-184.0","0","0","20696","","28","","","75","20","","k","","","","","","","","","","","","","",""
"","response","","html-keyboard-response","141","43034","0.0-1.0-185.0","0","0","20696","","179","","","75","20","","","2","20","training","adjacent","CB","3","2","N.jpg","L.jpg","0","0","1","",""
"","feedback","","html-keyboard-response","142","43135","0.0-1.0-186.0-0.0","0","0","20696","","null","","","null","20","","","","","","","","","","","","","","","",""
"","ITI","","html-keyboard-response","143","43638","0.0-1.0-189.0","0","0","20696","","148","","","75","20","","","","","","","","","","","","","","","k",""
"","S1","","html-keyboard-response","144","43891","0.0-1.0-191.0","0","0","20696","","null","","","null","21","","","","","","","","","","","","","","","",""
"","ISI","","html-keyboard-response","145","43998","0.0-1.0-192.0","0","0","20696","","null","","","null","21","NaN","","","","","","","","","","","","","","",""
"","S2","","html-keyboard-response","146","44250","0.0-1.0-193.0","0","0","20696","","59","","","75","21","","k","","","","","","","","","","","","","",""
"","response","","html-keyboard-response","147","44406","0.0-1.0-194.0","0","0","20696","","155","","","75","21","","","2","21","training","adjacent","GF","7","6","P.jpg","O.jpg","0","0","1","",""
"","feedback","","html-keyboard-response","148","44510","0.0-1.0-195.0-0.0","0","0","20696","","null","","","null","21","","","","","","","","","","","","","","","",""
"","ITI","","html-keyboard-response","149","45015","0.0-1.0-198.0","0","0","20696","","91","","","75","21","","","","","","","","","","","","","","","k",""
"","S1","","html-keyboard-response","150","45267","0.0-1.0-200.0","0","0","20696","","null","","","null","22","","","","","","","","","","","","","","","",""
"","ISI","","html-keyboard-response","151","45370","0.0-1.0-201.0","0","0","20696","","null","","","null","22","NaN","","","","","","","","","","","","","","",""
"","S2","","html-keyboard-response","152","45628","0.0-1.0-202.0","0","0","20696","","24","","","75","22","","k","","","","","","","","","","","","","",""
"","response","","html-keyboard-response","153","45686","0.0-1.0-203.0","0","0","20696","","57","","","75","22","","","2","22","training","adjacent","ED","5","4","Q.jpg","M.jpg","0","0","1","",""
"","feedback","","html-keyboard-response","154","45791","0.0-1.0-204.0-0.0","0","0","20696","","null","","","null","22","","","","","","","","","","","","","","","",""
"","ITI","","html-keyboard-response","155","46298","0.0-1.0-207.0","0","0","20696","","130","","","75","22","","","","","","","","","","","","","","","k",""
"","S1","","html-keyboard-response","156","46556","0.0-1.0-209.0","0","0","20696","","null","","","null","23","","","","","","","","","","","","","","","",""
"","ISI","","html-keyboard-response","157","46659","0.0-1.0-210.0","0","0","20696","","87","","","75","23","k","","","","","","","","","","","","","","",""
"","S2","","html-keyboard-response","158","46915","0.0-1.0-211.0","0","0","20696","","238","","","75","23","","k","","","","","","","","","","","","","",""
"","response","","html-keyboard-response","159","47129","0.0-1.0-212.0","0","0","20696","","213","","","75","23","","","2","23","training","adjacent","DC","4","3","M.jpg","N.jpg","0","0","1","",""
"","feedback","","html-keyboard-response","160","47231","0.0-1.0-213.0-0.0","0","0","20696","","null","","","null","23","","","","","","","","","","","","","","","",""
"","ITI","","html-keyboard-response","161","47736","0.0-1.0-216.0","0","0","20696","","204","","","75","23","","","","","","","","","","","","","","","k",""
"","block_over","","html-keyboard-response","162","48918","0.0-1.0-217.0-0.0","0","0","20696","","1181","","","32","23","","","","","","","","","","","","","","","",""
"","S1","","html-keyboard-response","163","49170","0.0-1.0-218.0","0","0","20696","","null","","","null","24","","","","","","","","","","","","","","","",""
"","ISI","","html-keyboard-response","164","49275","0.0-1.0-219.0","0","0","20696","","71","","","32","24","space","","","","","","","","","","","","","","",""
"","S2","","html-keyboard-response","165","49529","0.0-1.0-220.0","0","0","20696","","29","","","75","24","","k","","","","","","","","","","","","","",""
"","response","","html-keyboard-response","166","49667","0.0-1.0-221.0","0","0","20696","","137","","","75","24","","","3","24","training","adjacent","EF","5","6","Q.jpg","O.jpg","0","1","0","",""
"","feedback","","html-keyboard-response","167","49770","0.0-1.0-222.0-0.0","0","0","20696","","null","","","null","24","","","","","","","","","","","","","","","",""
"","time_out","","html-keyboard-response","168","49875","0.0-1.0-224.0-0.0","0","0","20696","","null","","","null","24","","","","","","","","","","","","","","","",""
"","ITI","","html-keyboard-response","169","50379","0.0-1.0-225.0","0","0","20696","","2","","","75","24","","","","","","","","","","","","","","","k",""
"","S1","","html-keyboard-response","170","50635","0.0-1.0-227.0","0","0","20696","","null","","","null","25","","","","","","","","","","","","","","","",""
"","ISI","","html-keyboard-response","171","50740","0.0-1.0-228.0","0","0","20696","","null","","","null","25","NaN","","","","","","","","","","","","","","",""
"","S2","","html-keyboard-response","172","50995","0.0-1.0-229.0","0","0","20696","","30","","","75","25","","k","","","","","","","","","","","","","",""
"","response","","html-keyboard-response","173","51111","0.0-1.0-230.0","0","0","20696","","114","","","75","25","","","3","25","training","adjacent","GF","7","6","P.jpg","O.jpg","0","0","1","",""
"","feedback","","html-keyboard-response","174","51213","0.0-1.0-231.0-0.0","0","0","20696","","null","","","null","25","","","","","","","","","","","","","","","",""
"","ITI","","html-keyboard-response","175","51715","0.0-1.0-234.0","0","0","20696","","121","","","75","25","","","","","","","","","","","","","","","k",""
"","S1","","html-keyboard-response","176","51968","0.0-1.0-236.0","0","0","20696","","null","","","null","26","","","","","","","","","","","","","","","",""
"","ISI","","html-keyboard-response","177","52070","0.0-1.0-237.0","0","0","20696","","79","","","75","26","k","","","","","","","","","","","","","","",""
"","S2","","html-keyboard-response","178","52325","0.0-1.0-238.0","0","0","20696","","209","","","75","26","","k","","","","","","","","","","","","","",""
"","response","","html-keyboard-response","179","52491","0.0-1.0-239.0","0","0","20696","","165","","","75","26","","","3","26","training","adjacent","DC","4","3","M.jpg","N.jpg","0","0","1","",""
"","feedback","","html-keyboard-response","180","52596","0.0-1.0-240.0-0.0","0","0","20696","","null","","","null","26","","","","","","","","","","","","","","","",""
"","ITI","","html-keyboard-response","181","53099","0.0-1.0-243.0","0","0","20696","","113","","","75","26","","","","","","","","","","","","","","","k",""
"","S1","","html-keyboard-response","182","53356","0.0-1.0-245.0","0","0","20696","","null","","","null","27","","","","","","","","","","","","","","","",""
"","ISI","","html-keyboard-response","183","53461","0.0-1.0-246.0","0","0","20696","","44","","","75","27","k","","","","","","","","","","","","","","",""
"","S2","","html-keyboard-response","184","53716","0.0-1.0-247.0","0","0","20696","","152","","","75","27","","k","","","","","","","","","","","","","",""
"","response","","html-keyboard-response","185","53823","0.0-1.0-248.0","0","0","20696","","106","","","75","27","","","3","27","training","adjacent","CD","3","4","N.jpg","M.jpg","0","1","0","",""
"","feedback","","html-keyboard-response","186","53924","0.0-1.0-249.0-0.0","0","0","20696","","null","","","null","27","","","","","","","","","","","","","","","",""
"","time_out","","html-keyboard-response","187","54027","0.0-1.0-251.0-0.0","0","0","20696","","null","","","null","27","","","","","","","","","","","","","","","",""
"","ITI","","html-keyboard-response","188","54529","0.0-1.0-252.0","0","0","20696","","26","","","75","27","","","","","","","","","","","","","","","k",""
"","S1","","html-keyboard-response","189","54783","0.0-1.0-254.0","0","0","20696","","null","","","null","28","","","","","","","","","","","","","","","",""
"","ISI","","html-keyboard-response","190","54887","0.0-1.0-255.0","0","0","20696","","null","","","null","28","NaN","","","","","","","","","","","","","","",""
"","S2","","html-keyboard-response","191","55142","0.0-1.0-256.0","0","0","20696","","null","","","null","28","","NaN","","","","","","","","","","","","","",""
"","response","","html-keyboard-response","192","55645","0.0-1.0-257.0","0","0","20696","","null","","","null","28","","","3","28","training","adjacent","BA","2","1","L.jpg","R.jpg","NaN","0","0","",""
"","too_slow_prompt","","html-keyboard-response","193","56651","0.0-1.0-259.0-0.0","1","0","20696","","null","","","null","","","","","","","","","","","","","","","","",""
"","time_out","","html-keyboard-response","194","56758","0.0-1.0-260.0-0.0","0","0","20696","","null","","","null","28","","","","","","","","","","","","","","","",""
"","ITI","","html-keyboard-response","195","57264","0.0-1.0-261.0","0","0","20696","","null","","","null","28","","","","","","","","","","","","","","","NaN",""
"","S1","","html-keyboard-response","196","57518","0.0-1.0-263.0","0","0","20696","","null","","","null","29","","","","","","","","","","","","","","","",""
"","ISI","","html-keyboard-response","197","57621","0.0-1.0-264.0","0","0","20696","","null","","","null","29","NaN","","","","","","","","","","","","","","",""
"","S2","","html-keyboard-response","198","57875","0.0-1.0-265.0","0","0","20696","","null","","","null","29","","NaN","","","","","","","","","","","","","",""
"","response","","html-keyboard-response","199","58137","0.0-1.0-266.0","0","0","20696","","260","","","75","29","","","3","29","training","adjacent","FG","6","7","O.jpg","P.jpg","0","1","0","",""
"","feedback","","html-keyboard-response","200","58239","0.0-1.0-267.0-0.0","0","0","20696","","null","","","null","29","","","","","","","","","","","","","","","",""
"","time_out","","html-keyboard-response","201","58342","0.0-1.0-269.0-0.0","0","0","20696","","null","","","null","29","","","","","","","","","","","","","","","",""
"","ITI","","html-keyboard-response","202","58846","0.0-1.0-270.0","0","0","20696","","27","","","75","29","","","","","","","","","","","","","","","k",""
"","S1","","html-keyboard-response","203","59100","0.0-1.0-272.0","0","0","20696","","null","","","null","30","","","","","","","","","","","","","","","",""
"","ISI","","html-keyboard-response","204","59203","0.0-1.0-273.0","0","0","20696","","null","","","null","30","NaN","","","","","","","","","","","","","","",""
"","S2","","html-keyboard-response","205","59459","0.0-1.0-274.0","0","0","20696","","117","","","75","30","","k","","","","","","","","","","","","","",""
"","response","","html-keyboard-response","206","59517","0.0-1.0-275.0","0","0","20696","","57","","","75","30","","","3","30","training","adjacent","AB","1","2","R.jpg","L.jpg","0","1","0","",""
"","feedback","","html-keyboard-response","207","59620","0.0-1.0-276.0-0.0","0","0","20696","","null","","","null","30","","","","","","","","","","","","","","","",""
"","time_out","","html-keyboard-response","208","59724","0.0-1.0-278.0-0.0","0","0","20696","","null","","","null","30","","","","","","","","","","","","","","","",""
"","ITI","","html-keyboard-response","209","60229","0.0-1.0-279.0","0","0","20696","","150","","","75","30","","","","","","","","","","","","","","","k",""
"","S1","","html-keyboard-response","210","60487","0.0-1.0-281.0","0","0","20696","","null","","","null","31","","","","","","","","","","","","","","","",""
"","ISI","","html-keyboard-response","211","60594","0.0-1.0-282.0","0","0","20696","","79","","","75","31","k","","","","","","","","","","","","","","",""
"","S2","","html-keyboard-response","212","60848","0.0-1.0-283.0","0","0","20696","","210","","","75","31","","k","","","","","","","","","","","","","",""
"","response","","html-keyboard-response","213","61004","0.0-1.0-284.0","0","0","20696","","155","","","75","31","","","3","31","training","adjacent","CB","3","2","N.jpg","L.jpg","0","0","1","",""
"","feedback","","html-keyboard-response","214","61109","0.0-1.0-285.0-0.0","0","0","20696","","null","","","null","31","","","","","","","","","","","","","","","",""
"","ITI","","html-keyboard-response","215","61611","0.0-1.0-288.0","0","0","20696","","96","","","75","31","","","","","","","","","","","","","","","k",""
"","S1","","html-keyboard-response","216","61866","0.0-1.0-290.0","0","0","20696","","null","","","null","32","","","","","","","","","","","","","","","",""
"","ISI","","html-keyboard-response","217","61971","0.0-1.0-291.0","0","0","20696","","null","","","null","32","NaN","","","","","","","","","","","","","","",""
"","S2","","html-keyboard-response","218","62225","0.0-1.0-292.0","0","0","20696","","12","","","78","32","","n","","","","","","","","","","","","","",""
"","response","","html-keyboard-response","219","62729","0.0-1.0-293.0","0","0","20696","","null","","","null","32","","","3","32","training","adjacent","ED","5","4","Q.jpg","M.jpg","NaN","0","0","",""
"","too_slow_prompt","","html-keyboard-response","220","63734","0.0-1.0-295.0-0.0","1","0","20696","","null","","","null","","","","","","","","","","","","","","","","",""
"","time_out","","html-keyboard-response","221","63836","0.0-1.0-296.0-0.0","0","0","20696","","null","","","null","32","","","","","","","","","","","","","","","",""
"","ITI","","html-keyboard-response","222","64342","0.0-1.0-297.0","0","0","20696","","166","","","75","32","","","","","","","","","","","","","","","k",""
"","S1","","html-keyboard-response","223","64597","0.0-1.0-299.0","0","0","20696","","null","","","null","33","","","","","","","","","","","","","","","",""
"","ISI","","html-keyboard-response","224","64703","0.0-1.0-300.0","0","0","20696","","null","","","null","33","NaN","","","","","","","","","","","","","","",""
"","S2","","html-keyboard-response","225","64956","0.0-1.0-301.0","0","0","20696","","208","","","75","33","","k","","","","","","","","","","","","","",""
"","response","","html-keyboard-response","226","65161","0.0-1.0-302.0","0","0","20696","","203","","","75","33","","","3","33","training","adjacent","DE","4","5","M.jpg","Q.jpg","0","1","0","",""
"","feedback","","html-keyboard-response","227","65263","0.0-1.0-303.0-0.0","0","0","20696","","null","","","null","33","","","","","","","","","","","","","","","",""
"","time_out","","html-keyboard-response","228","65366","0.0-1.0-305.0-0.0","0","0","20696","","null","","","null","33","","","","","","","","","","","","","","","",""
"","ITI","","html-keyboard-response","229","65869","0.0-1.0-306.0","0","0","20696","","211","","","75","33","","","","","","","","","","","","","","","k",""
"","S1","","html-keyboard-response","230","66125","0.0-1.0-308.0","0","0","20696","","null","","","null","34","","","","","","","","","","","","","","","",""
"","ISI","","html-keyboard-response","231","66228","0.0-1.0-309.0","0","0","20696","","34","","","75","34","k","","","","","","","","","","","","","","",""
"","S2","","html-keyboard-response","232","66480","0.0-1.0-310.0","0","0","20696","","143","","","75","34","","k","","","","","","","","","","","","","",""
"","response","","html-keyboard-response","233","66984","0.0-1.0-311.0","0","0","20696","","null","","","null","34","","","3","34","training","adjacent","BC","2","3","L.jpg","N.jpg","NaN","1","0","",""
"","too_slow_prompt","","html-keyboard-response","234","67990","0.0-1.0-313.0-0.0","1","0","20696","","null","","","null","","","","","","","","","","","","","","","","",""
"","time_out","","html-keyboard-response","235","68095","0.0-1.0-314.0-0.0","0","0","20696","","null","","","null","34","","","","","","","","","","","","","","","",""
"","ITI","","html-keyboard-response","236","68601","0.0-1.0-315.0","0","0","20696","","139","","","68","34","","","","","","","","","","","","","","","d",""
"","S1","","html-keyboard-response","237","68857","0.0-1.0-317.0","0","0","20696","","null","","","null","35","","","","","","","","","","","","","","","",""
"","ISI","","html-keyboard-response","238","68960","0.0-1.0-318.0","0","0","20696","","null","","","null","35","NaN","","","","","","","","","","","","","","",""
"","S2","","html-keyboard-response","239","69214","0.0-1.0-319.0","0","0","20696","","19","","","68","35","","d","","","","","","","","","","","","","",""
"","response","","html-keyboard-response","240","69500","0.0-1.0-320.0","0","0","20696","","284","","","68","35","","","3","35","training","adjacent","FE","6","5","O.jpg","Q.jpg","1","0","0","",""
"","feedback","","html-keyboard-response","241","69604","0.0-1.0-321.0-0.0","0","0","20696","","null","","","null","35","","","","","","","","","","","","","","","",""
"","time_out","","html-keyboard-response","242","69706","0.0-1.0-323.0-0.0","0","0","20696","","null","","","null","35","","","","","","","","","","","","","","","",""
"","ITI","","html-keyboard-response","243","70212","0.0-1.0-324.0","0","0","20696","","205","","","68","35","","","","","","","","","","","","","","","d",""
"","block_over","","html-keyboard-response","244","73637","0.0-1.0-325.0-0.0","0","0","20696","","3423","","","32","35","","","","","","","","","","","","","","","",""
"","S1","","html-keyboard-response","245","73894","0.0-1.0-326.0","0","0","20696","","null","","","null","36","","","","","","","","","","","","","","","",""
"","ISI","","html-keyboard-response","246","73997","0.0-1.0-327.0","0","0","20696","","null","","","null","36","NaN","","","","","","","","","","","","","","",""
"","S2","","html-keyboard-response","247","74250","0.0-1.0-328.0","0","0","20696","","124","","","74","36","","j","","","","","","","","","","","","","",""
"","response","","html-keyboard-response","248","74757","0.0-1.0-329.0","0","0","20696","","null","","","null","36","","","4","36","test","non_adjacent","FA","6","1","O.jpg","R.jpg","NaN","0","0","",""
"","too_slow_prompt","","html-keyboard-response","249","75762","0.0-1.0-331.0-0.0","1","0","20696","","null","","","null","","","","","","","","","","","","","","","","",""
"","time_out","","html-keyboard-response","250","75864","0.0-1.0-332.0-0.0","0","0","20696","","null","","","null","36","","","","","","","","","","","","","","","",""
"","ITI","","html-keyboard-response","251","76370","0.0-1.0-333.0","0","0","20696","","145","","","74","36","","","","","","","","","","","","","","","j",""
"","S1","","html-keyboard-response","252","76624","0.0-1.0-335.0","0","0","20696","","null","","","null","37","","","","","","","","","","","","","","","",""
"","ISI","","html-keyboard-response","253","76727","0.0-1.0-336.0","0","0","20696","","0","","","74","37","j","","","","","","","","","","","","","","",""
"","S2","","html-keyboard-response","254","76981","0.0-1.0-337.0","0","0","20696","","123","","","74","37","","j","","","","","","","","","","","","","",""
"","response","","html-keyboard-response","255","77485","0.0-1.0-338.0","0","0","20696","","null","","","null","37","","","4","37","test","non_adjacent","AC","1","3","R.jpg","N.jpg","NaN","1","0","",""
"","too_slow_prompt","","html-keyboard-response","256","78487","0.0-1.0-340.0-0.0","1","0","20696","","null","","","null","","","","","","","","","","","","","","","","",""
"","time_out","","html-keyboard-response","257","78593","0.0-1.0-341.0-0.0","0","0","20696","","null","","","null","37","","","","","","","","","","","","","","","",""
"","ITI","","html-keyboard-response","258","79099","0.0-1.0-342.0","0","0","20696","","7","","","32","37","","","","","","","","","","","","","","","space",""
"","S1","","html-keyboard-response","259","79351","0.0-1.0-344.0","0","0","20696","","null","","","null","38","","","","","","","","","","","","","","","",""
"","ISI","","html-keyboard-response","260","79456","0.0-1.0-345.0","0","0","20696","","null","","","null","38","NaN","","","","","","","","","","","","","","",""
"","S2","","html-keyboard-response","261","79710","0.0-1.0-346.0","0","0","20696","","202","","","75","38","","k","","","","","","","","","","","","","",""
"","response","","html-keyboard-response","262","79866","0.0-1.0-347.0","0","0","20696","","155","","","75","38","","","4","38","test","adjacent","CB","3","2","N.jpg","L.jpg","0","0","1","",""
"","feedback","","html-keyboard-response","263","79968","0.0-1.0-348.0-0.0","0","0","20696","","null","","","null","38","","","","","","","","","","","","","","","",""
"","ITI","","html-keyboard-response","264","80473","0.0-1.0-351.0","0","0","20696","","72","","","75","38","","","","","","","","","","","","","","","k",""
"","S1","","html-keyboard-response","265","80730","0.0-1.0-353.0","0","0","20696","","null","","","null","39","","","","","","","","","","","","","","","",""
"","ISI","","html-keyboard-response","266","80835","0.0-1.0-354.0","0","0","20696","","null","","","null","39","NaN","","","","","","","","","","","","","","",""
"","S2","","html-keyboard-response","267","81088","0.0-1.0-355.0","0","0","20696","","16","","","75","39","","k","","","","","","","","","","","","","",""
"","response","","html-keyboard-response","268","81165","0.0-1.0-356.0","0","0","20696","","76","","","75","39","","","4","39","test","non_adjacent","BD","2","4","L.jpg","M.jpg","0","1","0","",""
"","feedback","","html-keyboard-response","269","81271","0.0-1.0-357.0-0.0","0","0","20696","","null","","","null","39","","","","","","","","","","","","","","","",""
"","time_out","","html-keyboard-response","270","81372","0.0-1.0-359.0-0.0","0","0","20696","","null","","","null","39","","","","","","","","","","","","","","","",""
"","ITI","","html-keyboard-response","271","81879","0.0-1.0-360.0","0","0","20696","","196","","","75","39","","","","","","","","","","","","","","","k",""
"","S1","","html-keyboard-response","272","82136","0.0-1.0-362.0","0","0","20696","","null","","","null","40","","","","","","","","","","","","","","","",""
"","ISI","","html-keyboard-response","273","82242","0.0-1.0-363.0","0","0","20696","","74","","","75","40","k","","","","","","","","","","","","","","",""
"","S2","","html-keyboard-response","274","82496","0.0-1.0-364.0","0","0","20696","","201","","","75","40","","k","","","","","","","","","","","","","",""
"","response","","html-keyboard-response","275","82654","0.0-1.0-365.0","0","0","20696","","156","","","75","40","","","4","40","test","non_adjacent","GA","7","1","P.jpg","R.jpg","0","0","1","",""
"","feedback","","html-keyboard-response","276","82757","0.0-1.0-366.0-0.0","0","0","20696","","null","","","null","40","","","","","","","","","","","","","","","",""
"","ITI","","html-keyboard-response","277","83263","0.0-1.0-369.0","0","0","20696","","111","","","75","40","","","","","","","","","","","","","","","k",""
"","S1","","html-keyboard-response","278","83515","0.0-1.0-371.0","0","0","20696","","null","","","null","41","","","","","","","","","","","","","","","",""
"","ISI","","html-keyboard-response","279","83620","0.0-1.0-372.0","0","0","20696","","2","","","75","41","k","","","","","","","","","","","","","","",""
"","S2","","html-keyboard-response","280","83876","0.0-1.0-373.0","0","0","20696","","132","","","75","41","","k","","","","","","","","","","","","","",""
"","response","","html-keyboard-response","281","83973","0.0-1.0-374.0","0","0","20696","","96","","","75","41","","","4","41","test","non_adjacent","FC","6","3","O.jpg","N.jpg","0","0","1","",""
"","feedback","","html-keyboard-response","282","84075","0.0-1.0-375.0-0.0","0","0","20696","","null","","","null","41","","","","","","","","","","","","","","","",""
"","ITI","","html-keyboard-response","283","84579","0.0-1.0-378.0","0","0","20696","","119","","","75","41","","","","","","","","","","","","","","","k",""
"","S1","","html-keyboard-response","284","84833","0.0-1.0-380.0","0","0","20696","","null","","","null","42","","","","","","","","","","","","","","","",""
"","ISI","","html-keyboard-response","285","84936","0.0-1.0-381.0","0","0","20696","","6","","","75","42","k","","","","","","","","","","","","","","",""
"","S2","","html-keyboard-response","286","85192","0.0-1.0-382.0","0","0","20696","","130","","","75","42","","k","","","","","","","","","","","","","",""
"","response","","html-keyboard-response","287","85282","0.0-1.0-383.0","0","0","20696","","89","","","75","42","","","4","42","test","non_adjacent","DA","4","1","M.jpg","R.jpg","0","0","1","",""
"","feedback","","html-keyboard-response","288","85388","0.0-1.0-384.0-0.0","0","0","20696","","null","","","null","42","","","","","","","","","","","","","","","",""
"","ITI","","html-keyboard-response","289","85892","0.0-1.0-387.0","0","0","20696","","97","","","75","42","","","","","","","","","","","","","","","k",""
"","S1","","html-keyboard-response","290","86149","0.0-1.0-389.0","0","0","20696","","null","","","null","43","","","","","","","","","","","","","","","",""
"","ISI","","html-keyboard-response","291","86251","0.0-1.0-390.0","0","0","20696","","null","","","null","43","NaN","","","","","","","","","","","","","","",""
"","S2","","html-keyboard-response","292","86506","0.0-1.0-391.0","0","0","20696","","158","","","75","43","","k","","","","","","","","","","","","","",""
"","response","","html-keyboard-response","293","86648","0.0-1.0-392.0","0","0","20696","","142","","","75","43","","","4","43","test","adjacent","BC","2","3","L.jpg","N.jpg","0","1","0","",""
"","feedback","","html-keyboard-response","294","86750","0.0-1.0-393.0-0.0","0","0","20696","","null","","","null","43","","","","","","","","","","","","","","","",""
"","time_out","","html-keyboard-response","295","86853","0.0-1.0-395.0-0.0","0","0","20696","","null","","","null","43","","","","","","","","","","","","","","","",""
"","ITI","","html-keyboard-response","296","87358","0.0-1.0-396.0","0","0","20696","","21","","","75","43","","","","","","","","","","","","","","","k",""
"","S1","","html-keyboard-response","297","87613","0.0-1.0-398.0","0","0","20696","","null","","","null","44","","","","","","","","","","","","","","","",""
"","ISI","","html-keyboard-response","298","87717","0.0-1.0-399.0","0","0","20696","","null","","","null","44","NaN","","","","","","","","","","","","","","",""
"","S2","","html-keyboard-response","299","87973","0.0-1.0-400.0","0","0","20696","","60","","","75","44","","k","","","","","","","","","","","","","",""
"","response","","html-keyboard-response","300","88187","0.0-1.0-401.0","0","0","20696","","212","","","75","44","","","4","44","test","non_adjacent","FB","6","2","O.jpg","L.jpg","0","0","1","",""
"","feedback","","html-keyboard-response","301","88289","0.0-1.0-402.0-0.0","0","0","20696","","null","","","null","44","","","","","","","","","","","","","","","",""
"","ITI","","html-keyboard-response","302","88792","0.0-1.0-405.0","0","0","20696","","444","","","75","44","","","","","","","","","","","","","","","k",""
"","S1","","html-keyboard-response","303","89045","0.0-1.0-407.0","0","0","20696","","null","","","null","45","","","","","","","","","","","","","","","",""
"","ISI","","html-keyboard-response","304","89147","0.0-1.0-408.0","0","0","20696","","96","","","75","45","k","","","","","","","","","","","","","","",""
"","S2","","html-keyboard-response","305","89403","0.0-1.0-409.0","0","0","20696","","220","","","75","45","","k","","","","","","","","","","","","","",""
"","response","","html-keyboard-response","306","89600","0.0-1.0-410.0","0","0","20696","","195","","","75","45","","","4","45","test","adjacent","AB","1","2","R.jpg","L.jpg","0","1","0","",""
"","feedback","","html-keyboard-response","307","89701","0.0-1.0-411.0-0.0","0","0","20696","","null","","","null","45","","","","","","","","","","","","","","","",""
"","time_out","","html-keyboard-response","308","89804","0.0-1.0-413.0-0.0","0","0","20696","","null","","","null","45","","","","","","","","","","","","","","","",""
"","ITI","","html-keyboard-response","309","90308","0.0-1.0-414.0","0","0","20696","","23","","","75","45","","","","","","","","","","","","","","","k",""
"","S1","","html-keyboard-response","310","90560","0.0-1.0-416.0","0","0","20696","","null","","","null","46","","","","","","","","","","","","","","","",""
"","ISI","","html-keyboard-response","311","90667","0.0-1.0-417.0","0","0","20696","","null","","","null","46","NaN","","","","","","","","","","","","","","",""
"","S2","","html-keyboard-response","312","90924","0.0-1.0-418.0","0","0","20696","","102","","","75","46","","k","","","","","","","","","","","","","",""
"","response","","html-keyboard-response","313","90993","0.0-1.0-419.0","0","0","20696","","68","","","75","46","","","4","46","test","non_adjacent","EC","5","3","Q.jpg","N.jpg","0","0","1","",""
"","feedback","","html-keyboard-response","314","91096","0.0-1.0-420.0-0.0","0","0","20696","","null","","","null","46","","","","","","","","","","","","","","","",""
"","ITI","","html-keyboard-response","315","91600","0.0-1.0-423.0","0","0","20696","","123","","","75","46","","","","","","","","","","","","","","","k",""
"","S1","","html-keyboard-response","316","91855","0.0-1.0-425.0","0","0","20696","","null","","","null","47","","","","","","","","","","","","","","","",""
"","ISI","","html-keyboard-response","317","91956","0.0-1.0-426.0","0","0","20696","","18","","","75","47","k","","","","","","","","","","","","","","",""
"","S2","","html-keyboard-response","318","92213","0.0-1.0-427.0","0","0","20696","","128","","","75","47","","k","","","","","","","","","","","","","",""
"","response","","html-keyboard-response","319","92335","0.0-1.0-428.0","0","0","20696","","120","","","75","47","","","4","47","test","non_adjacent","EA","5","1","Q.jpg","R.jpg","0","0","1","",""
"","feedback","","html-keyboard-response","320","92441","0.0-1.0-429.0-0.0","0","0","20696","","null","","","null","47","","","","","","","","","","","","","","","",""
"","ITI","","html-keyboard-response","321","92946","0.0-1.0-432.0","0","0","20696","","153","","","75","47","","","","","","","","","","","","","","","k",""
"","S1","","html-keyboard-response","322","93200","0.0-1.0-434.0","0","0","20696","","null","","","null","48","","","","","","","","","","","","","","","",""
"","ISI","","html-keyboard-response","323","93304","0.0-1.0-435.0","0","0","20696","","null","","","null","48","NaN","","","","","","","","","","","","","","",""
"","S2","","html-keyboard-response","324","93557","0.0-1.0-436.0","0","0","20696","","7","","","75","48","","k","","","","","","","","","","","","","",""
"","response","","html-keyboard-response","325","93809","0.0-1.0-437.0","0","0","20696","","250","","","75","48","","","4","48","test","non_adjacent","GC","7","3","P.jpg","N.jpg","0","0","1","",""
"","feedback","","html-keyboard-response","326","93912","0.0-1.0-438.0-0.0","0","0","20696","","null","","","null","48","","","","","","","","","","","","","","","",""
"","ITI","","html-keyboard-response","327","94420","0.0-1.0-441.0","0","0","20696","","198","","","75","48","","","","","","","","","","","","","","","k",""
"","S1","","html-keyboard-response","328","94675","0.0-1.0-443.0","0","0","20696","","null","","","null","49","","","","","","","","","","","","","","","",""
"","ISI","","html-keyboard-response","329","94779","0.0-1.0-444.0","0","0","20696","","null","","","null","49","NaN","","","","","","","","","","","","","","",""
"","S2","","html-keyboard-response","330","95032","0.0-1.0-445.0","0","0","20696","","98","","","32","49","","space","","","","","","","","","","","","","",""
"","response","","html-keyboard-response","331","95371","0.0-1.0-446.0","0","0","20696","","337","","","75","49","","","4","49","test","non_adjacent","GB","7","2","P.jpg","L.jpg","0","0","1","",""
"","feedback","","html-keyboard-response","332","95475","0.0-1.0-447.0-0.0","0","0","20696","","null","","","null","49","","","","","","","","","","","","","","","",""
"","ITI","","html-keyboard-response","333","95978","0.0-1.0-450.0","0","0","20696","","119","","","75","49","","","","","","","","","","","","","","","k",""
"","S1","","html-keyboard-response","334","96233","0.0-1.0-452.0","0","0","20696","","null","","","null","50","","","","","","","","","","","","","","","",""
"","ISI","","html-keyboard-response","335","96335","0.0-1.0-453.0","0","0","20696","","13","","","75","50","k","","","","","","","","","","","","","","",""
"","S2","","html-keyboard-response","336","96590","0.0-1.0-454.0","0","0","20696","","153","","","75","50","","k","","","","","","","","","","","","","",""
"","response","","html-keyboard-response","337","96700","0.0-1.0-455.0","0","0","20696","","108","","","75","50","","","4","50","test","non_adjacent","CA","3","1","N.jpg","R.jpg","0","0","1","",""
"","feedback","","html-keyboard-response","338","96801","0.0-1.0-456.0-0.0","0","0","20696","","null","","","null","50","","","","","","","","","","","","","","","",""
"","ITI","","html-keyboard-response","339","97304","0.0-1.0-459.0","0","0","20696","","122","","","75","50","","","","","","","","","","","","","","","k",""
"","S1","","html-keyboard-response","340","97558","0.0-1.0-461.0","0","0","20696","","null","","","null","51","","","","","","","","","","","","","","","",""
"","ISI","","html-keyboard-response","341","97663","0.0-1.0-462.0","0","0","20696","","null","","","null","51","NaN","","","","","","","","","","","","","","",""
"","S2","","html-keyboard-response","342","97918","0.0-1.0-463.0","0","0","20696","","24","","","75","51","","k","","","","","","","","","","","","","",""
"","response","","html-keyboard-response","343","97930","0.0-1.0-464.0","0","0","20696","","10","","","75","51","","","4","51","test","non_adjacent","DB","4","2","M.jpg","L.jpg","0","0","1","",""
"","feedback","","html-keyboard-response","344","98032","0.0-1.0-465.0-0.0","0","0","20696","","null","","","null","51","","","","","","","","","","","","","","","",""
"","ITI","","html-keyboard-response","345","98534","0.0-1.0-468.0","0","0","20696","","117","","","75","51","","","","","","","","","","","","","","","k",""
"","S1","","html-keyboard-response","346","98791","0.0-1.0-470.0","0","0","20696","","null","","","null","52","","","","","","","","","","","","","","","",""
"","ISI","","html-keyboard-response","347","98893","0.0-1.0-471.0","0","0","20696","","null","","","null","52","NaN","","","","","","","","","","","","","","",""
"","S2","","html-keyboard-response","348","99148","0.0-1.0-472.0","0","0","20696","","2","","","75","52","","k","","","","","","","","","","","","","",""
"","response","","html-keyboard-response","349","99204","0.0-1.0-473.0","0","0","20696","","55","","","75","52","","","4","52","test","adjacent","CD","3","4","N.jpg","M.jpg","0","1","0","",""
"","feedback","","html-keyboard-response","350","99307","0.0-1.0-474.0-0.0","0","0","20696","","null","","","null","52","","","","","","","","","","","","","","","",""
"","time_out","","html-keyboard-response","351","99410","0.0-1.0-476.0-0.0","0","0","20696","","null","","","null","52","","","","","","","","","","","","","","","",""
"","ITI","","html-keyboard-response","352","99914","0.0-1.0-477.0","0","0","20696","","51","","","75","52","","","","","","","","","","","","","","","k",""
"","S1","","html-keyboard-response","353","100168","0.0-1.0-479.0","0","0","20696","","null","","","null","53","","","","","","","","","","","","","","","",""
"","ISI","","html-keyboard-response","354","100270","0.0-1.0-480.0","0","0","20696","","67","","","75","53","k","","","","","","","","","","","","","","",""
"","S2","","html-keyboard-response","355","100525","0.0-1.0-481.0","0","0","20696","","213","","","75","53","","k","","","","","","","","","","","","","",""
"","response","","html-keyboard-response","356","100723","0.0-1.0-482.0","0","0","20696","","198","","","75","53","","","4","53","test","non_adjacent","AD","1","4","R.jpg","M.jpg","0","1","0","",""
"","feedback","","html-keyboard-response","357","100825","0.0-1.0-483.0-0.0","0","0","20696","","null","","","null","53","","","","","","","","","","","","","","","",""
"","time_out","","html-keyboard-response","358","100928","0.0-1.0-485.0-0.0","0","0","20696","","null","","","null","53","","","","","","","","","","","","","","","",""
"","ITI","","html-keyboard-response","359","101435","0.0-1.0-486.0","0","0","20696","","20","","","75","53","","","","","","","","","","","","","","","k",""
"","S1","","html-keyboard-response","360","101691","0.0-1.0-488.0","0","0","20696","","null","","","null","54","","","","","","","","","","","","","","","",""
"","ISI","","html-keyboard-response","361","101796","0.0-1.0-489.0","0","0","20696","","null","","","null","54","NaN","","","","","","","","","","","","","","",""
"","S2","","html-keyboard-response","362","102054","0.0-1.0-490.0","0","0","20696","","64","","","75","54","","k","","","","","","","","","","","","","",""
"","response","","html-keyboard-response","363","102116","0.0-1.0-491.0","0","0","20696","","60","","","75","54","","","4","54","test","adjacent","DC","4","3","M.jpg","N.jpg","0","0","1","",""
"","feedback","","html-keyboard-response","364","102219","0.0-1.0-492.0-0.0","0","0","20696","","null","","","null","54","","","","","","","","","","","","","","","",""
"","ITI","","html-keyboard-response","365","102722","0.0-1.0-495.0","0","0","20696","","178","","","75","54","","","","","","","","","","","","","","","k",""
"","S1","","html-keyboard-response","366","102980","0.0-1.0-497.0","0","0","20696","","null","","","null","55","","","","","","","","","","","","","","","",""
"","ISI","","html-keyboard-response","367","103081","0.0-1.0-498.0","0","0","20696","","null","","","null","55","NaN","","","","","","","","","","","","","","",""
"","S2","","html-keyboard-response","368","103337","0.0-1.0-499.0","0","0","20696","","0","","","75","55","","k","","","","","","","","","","","","","",""
"","response","","html-keyboard-response","369","103667","0.0-1.0-500.0","0","0","20696","","328","","","75","55","","","4","55","test","adjacent","BA","2","1","L.jpg","R.jpg","0","0","1","",""
"","feedback","","html-keyboard-response","370","103772","0.0-1.0-501.0-0.0","0","0","20696","","null","","","null","55","","","","","","","","","","","","","","","",""
"","ITI","","html-keyboard-response","371","104278","0.0-1.0-504.0","0","0","20696","","173","","","75","55","","","","","","","","","","","","","","","k",""
"","S1","","html-keyboard-response","372","104532","0.0-1.0-506.0","0","0","20696","","null","","","null","56","","","","","","","","","","","","","","","",""
"","ISI","","html-keyboard-response","373","104634","0.0-1.0-507.0","0","0","20696","","95","","","75","56","k","","","","","","","","","","","","","","",""
"","S2","","html-keyboard-response","374","104887","0.0-1.0-508.0","0","0","20696","","null","","","null","56","","NaN","","","","","","","","","","","","","",""
"","response","","html-keyboard-response","375","104893","0.0-1.0-509.0","0","0","20696","","5","","","75","56","","","4","56","test","non_adjacent","EB","5","2","Q.jpg","L.jpg","0","0","1","",""
"","feedback","","html-keyboard-response","376","104995","0.0-1.0-510.0-0.0","0","0","20696","","null","","","null","56","","","","","","","","","","","","","","","",""
"","ITI","","html-keyboard-response","377","105501","0.0-1.0-513.0","0","0","20696","","242","","","75","56","","","","","","","","","","","","","","","k",""
"","block_over","","html-keyboard-response","378","106228","0.0-1.0-514.0-0.0","0","0","20696","","725","","","32","56","","","","","","","","","","","","","","","",""
"","S1","","html-keyboard-response","379","106483","0.0-1.0-515.0","0","0","20696","","null","","","null","57","","","","","","","","","","","","","","","",""
"","ISI","","html-keyboard-response","380","106588","0.0-1.0-516.0","0","0","20696","","0","","","75","57","k","","","","","","","","","","","","","","",""
"","S2","","html-keyboard-response","381","106841","0.0-1.0-517.0","0","0","20696","","113","","","75","57","","k","","","","","","","","","","","","","",""
"","response","","html-keyboard-response","382","107152","0.0-1.0-518.0","0","0","20696","","310","","","75","57","","","5","57","test","non_adjacent","CE","3","5","N.jpg","Q.jpg","0","1","0","",""
"","feedback","","html-keyboard-response","383","107254","0.0-1.0-519.0-0.0","0","0","20696","","null","","","null","57","","","","","","","","","","","","","","","",""
"","time_out","","html-keyboard-response","384","107357","0.0-1.0-521.0-0.0","0","0","20696","","null","","","null","57","","","","","","","","","","","","","","","",""
"","ITI","","html-keyboard-response","385","107863","0.0-1.0-522.0","0","0","20696","","4","","","75","57","","","","","","","","","","","","","","","k",""
"","S1","","html-keyboard-response","386","108118","0.0-1.0-524.0","0","0","20696","","null","","","null","58","","","","","","","","","","","","","","","",""
"","ISI","","html-keyboard-response","387","108225","0.0-1.0-525.0","0","0","20696","","null","","","null","58","NaN","","","","","","","","","","","","","","",""
"","S2","","html-keyboard-response","388","108478","0.0-1.0-526.0","0","0","20696","","119","","","75","58","","k","","","","","","","","","","","","","",""
"","response","","html-keyboard-response","389","108591","0.0-1.0-527.0","0","0","20696","","111","","","75","58","","","5","58","test","non_adjacent","BF","2","6","L.jpg","O.jpg","0","1","0","",""
"","feedback","","html-keyboard-response","390","108693","0.0-1.0-528.0-0.0","0","0","20696","","null","","","null","58","","","","","","","","","","","","","","","",""
"","time_out","","html-keyboard-response","391","108796","0.0-1.0-530.0-0.0","0","0","20696","","null","","","null","58","","","","","","","","","","","","","","","",""
"","ITI","","html-keyboard-response","392","109299","0.0-1.0-531.0","0","0","20696","","219","","","75","58","","","","","","","","","","","","","","","k",""
"","S1","","html-keyboard-response","393","109554","0.0-1.0-533.0","0","0","20696","","null","","","null","59","","","","","","","","","","","","","","","",""
"","ISI","","html-keyboard-response","394","109661","0.0-1.0-534.0","0","0","20696","","56","","","75","59","k","","","","","","","","","","","","","","",""
"","S2","","html-keyboard-response","395","109915","0.0-1.0-535.0","0","0","20696","","137","","","75","59","","k","","","","","","","","","","","","","",""
"","response","","html-keyboard-response","396","110078","0.0-1.0-536.0","0","0","20696","","161","","","75","59","","","5","59","test","adjacent","GF","7","6","P.jpg","O.jpg","0","0","1","",""
"","feedback","","html-keyboard-response","397","110180","0.0-1.0-537.0-0.0","0","0","20696","","null","","","null","59","","","","","","","","","","","","","","","",""
"","ITI","","html-keyboard-response","398","110683","0.0-1.0-540.0","0","0","20696","","73","","","75","59","","","","","","","","","","","","","","","k",""
"","S1","","html-keyboard-response","399","110935","0.0-1.0-542.0","0","0","20696","","null","","","null","60","","","","","","","","","","","","","","","",""
"","ISI","","html-keyboard-response","400","111037","0.0-1.0-543.0","0","0","20696","","null","","","null","60","NaN","","","","","","","","","","","","","","",""
"","S2","","html-keyboard-response","401","111292","0.0-1.0-544.0","0","0","20696","","151","","","75","60","","k","","","","","","","","","","","","","",""
"","response","","html-keyboard-response","402","111645","0.0-1.0-545.0","0","0","20696","","351","","","75","60","","","5","60","test","non_adjacent","BE","2","5","L.jpg","Q.jpg","0","1","0","",""
"","feedback","","html-keyboard-response","403","111747","0.0-1.0-546.0-0.0","0","0","20696","","null","","","null","60","","","","","","","","","","","","","","","",""
"","time_out","","html-keyboard-response","404","111851","0.0-1.0-548.0-0.0","0","0","20696","","null","","","null","60","","","","","","","","","","","","","","","",""
"","ITI","","html-keyboard-response","405","112352","0.0-1.0-549.0","0","0","20696","","206","","","75","60","","","","","","","","","","","","","","","k",""
"","S1","","html-keyboard-response","406","112610","0.0-1.0-551.0","0","0","20696","","null","","","null","61","","","","","","","","","","","","","","","",""
"","ISI","","html-keyboard-response","407","112712","0.0-1.0-552.0","0","0","20696","","83","","","75","61","k","","","","","","","","","","","","","","",""
"","S2","","html-keyboard-response","408","112968","0.0-1.0-553.0","0","0","20696","","null","","","null","61","","NaN","","","","","","","","","","","","","",""
"","response","","html-keyboard-response","409","112982","0.0-1.0-554.0","0","0","20696","","13","","","75","61","","","5","61","test","adjacent","DE","4","5","M.jpg","Q.jpg","0","1","0","",""
"","feedback","","html-keyboard-response","410","113085","0.0-1.0-555.0-0.0","0","0","20696","","null","","","null","61","","","","","","","","","","","","","","","",""
"","time_out","","html-keyboard-response","411","113192","0.0-1.0-557.0-0.0","0","0","20696","","null","","","null","61","","","","","","","","","","","","","","","",""
"","ITI","","html-keyboard-response","412","113694","0.0-1.0-558.0","0","0","20696","","62","","","75","61","","","","","","","","","","","","","","","k",""
"","S1","","html-keyboard-response","413","113948","0.0-1.0-560.0","0","0","20696","","null","","","null","62","","","","","","","","","","","","","","","",""
"","ISI","","html-keyboard-response","414","114054","0.0-1.0-561.0","0","0","20696","","41","","","75","62","k","","","","","","","","","","","","","","",""
"","S2","","html-keyboard-response","415","114307","0.0-1.0-562.0","0","0","20696","","159","","","75","62","","k","","","","","","","","","","","","","",""
"","response","","html-keyboard-response","416","114449","0.0-1.0-563.0","0","0","20696","","140","","","75","62","","","5","62","test","non_adjacent","CF","3","6","N.jpg","O.jpg","0","1","0","",""
"","feedback","","html-keyboard-response","417","114551","0.0-1.0-564.0-0.0","0","0","20696","","null","","","null","62","","","","","","","","","","","","","","","",""
"","time_out","","html-keyboard-response","418","114658","0.0-1.0-566.0-0.0","0","0","20696","","null","","","null","62","","","","","","","","","","","","","","","",""
"","ITI","","html-keyboard-response","419","115164","0.0-1.0-567.0","0","0","20696","","4","","","75","62","","","","","","","","","","","","","","","k",""
"","S1","","html-keyboard-response","420","115416","0.0-1.0-569.0","0","0","20696","","null","","","null","63","","","","","","","","","","","","","","","",""
"","ISI","","html-keyboard-response","421","115518","0.0-1.0-570.0","0","0","20696","","null","","","null","63","NaN","","","","","","","","","","","","","","",""
"","S2","","html-keyboard-response","422","115774","0.0-1.0-571.0","0","0","20696","","6","","","75","63","","k","","","","","","","","","","","","","",""
"","response","","html-keyboard-response","423","116015","0.0-1.0-572.0","0","0","20696","","240","","","75","63","","","5","63","test","non_adjacent","FD","6","4","O.jpg","M.jpg","0","0","1","",""
"","feedback","","html-keyboard-response","424","116117","0.0-1.0-573.0-0.0","0","0","20696","","null","","","null","63","","","","","","","","","","","","","","","",""
"","ITI","","html-keyboard-response","425","116621","0.0-1.0-576.0","0","0","20696","","122","","","75","63","","","","","","","","","","","","","","","k",""
"","S1","","html-keyboard-response","426","116875","0.0-1.0-578.0","0","0","20696","","null","","","null","64","","","","","","","","","","","","","","","",""
"","ISI","","html-keyboard-response","427","116979","0.0-1.0-579.0","0","0","20696","","39","","","75","64","k","","","","","","","","","","","","","","",""
"","S2","","html-keyboard-response","428","117234","0.0-1.0-580.0","0","0","20696","","165","","","75","64","","k","","","","","","","","","","","","","",""
"","response","","html-keyboard-response","429","117384","0.0-1.0-581.0","0","0","20696","","149","","","75","64","","","5","64","test","adjacent","FG","6","7","O.jpg","P.jpg","0","1","0","",""
"","feedback","","html-keyboard-response","430","117486","0.0-1.0-582.0-0.0","0","0","20696","","null","","","null","64","","","","","","","","","","","","","","","",""
"","time_out","","html-keyboard-response","431","117590","0.0-1.0-584.0-0.0","0","0","20696","","null","","","null","64","","","","","","","","","","","","","","","",""
"","ITI","","html-keyboard-response","432","118092","0.0-1.0-585.0","0","0","20696","","62","","","75","64","","","","","","","","","","","","","","","k",""
"","S1","","html-keyboard-response","433","118345","0.0-1.0-587.0","0","0","20696","","null","","","null","65","","","","","","","","","","","","","","","",""
"","ISI","","html-keyboard-response","434","118447","0.0-1.0-588.0","0","0","20696","","25","","","75","65","k","","","","","","","","","","","","","","",""
"","S2","","html-keyboard-response","435","118702","0.0-1.0-589.0","0","0","20696","","181","","","75","65","","k","","","","","","","","","","","","","",""
"","response","","html-keyboard-response","436","118911","0.0-1.0-590.0","0","0","20696","","207","","","75","65","","","5","65","test","non_adjacent","DG","4","7","M.jpg","P.jpg","0","1","0","",""
"","feedback","","html-keyboard-response","437","119013","0.0-1.0-591.0-0.0","0","0","20696","","null","","","null","65","","","","","","","","","","","","","","","",""
"","time_out","","html-keyboard-response","438","119115","0.0-1.0-593.0-0.0","0","0","20696","","null","","","null","65","","","","","","","","","","","","","","","",""
"","ITI","","html-keyboard-response","439","119618","0.0-1.0-594.0","0","0","20696","","38","","","75","65","","","","","","","","","","","","","","","k",""
"","S1","","html-keyboard-response","440","119871","0.0-1.0-596.0","0","0","20696","","null","","","null","66","","","","","","","","","","","","","","","",""
"","ISI","","html-keyboard-response","441","119975","0.0-1.0-597.0","0","0","20696","","65","","","75","66","k","","","","","","","","","","","","","","",""
"","S2","","html-keyboard-response","442","120230","0.0-1.0-598.0","0","0","20696","","null","","","null","66","","NaN","","","","","","","","","","","","","",""
"","response","","html-keyboard-response","443","120485","0.0-1.0-599.0","0","0","20696","","255","","","75","66","","","5","66","test","non_adjacent","CG","3","7","N.jpg","P.jpg","0","1","0","",""
"","feedback","","html-keyboard-response","444","120587","0.0-1.0-600.0-0.0","0","0","20696","","null","","","null","66","","","","","","","","","","","","","","","",""
"","time_out","","html-keyboard-response","445","120690","0.0-1.0-602.0-0.0","0","0","20696","","null","","","null","66","","","","","","","","","","","","","","","",""
"","ITI","","html-keyboard-response","446","121196","0.0-1.0-603.0","0","0","20696","","54","","","75","66","","","","","","","","","","","","","","","k",""
"","S1","","html-keyboard-response","447","121448","0.0-1.0-605.0","0","0","20696","","null","","","null","67","","","","","","","","","","","","","","","",""
"","ISI","","html-keyboard-response","448","121550","0.0-1.0-606.0","0","0","20696","","null","","","null","67","NaN","","","","","","","","","","","","","","",""
"","S2","","html-keyboard-response","449","121805","0.0-1.0-607.0","0","0","20696","","null","","","null","67","","NaN","","","","","","","","","","","","","",""
"","response","","html-keyboard-response","450","121833","0.0-1.0-608.0","0","0","20696","","27","","","75","67","","","5","67","test","non_adjacent","DF","4","6","M.jpg","O.jpg","0","1","0","",""
"","feedback","","html-keyboard-response","451","121936","0.0-1.0-609.0-0.0","0","0","20696","","null","","","null","67","","","","","","","","","","","","","","","",""
"","time_out","","html-keyboard-response","452","122040","0.0-1.0-611.0-0.0","0","0","20696","","null","","","null","67","","","","","","","","","","","","","","","",""
"","ITI","","html-keyboard-response","453","122542","0.0-1.0-612.0","0","0","20696","","31","","","75","67","","","","","","","","","","","","","","","k",""
"","S1","","html-keyboard-response","454","122799","0.0-1.0-614.0","0","0","20696","","null","","","null","68","","","","","","","","","","","","","","","",""
"","ISI","","html-keyboard-response","455","122902","0.0-1.0-615.0","0","0","20696","","34","","","75","68","k","","","","","","","","","","","","","","",""
"","S2","","html-keyboard-response","456","123156","0.0-1.0-616.0","0","0","20696","","163","","","75","68","","k","","","","","","","","","","","","","",""
"","response","","html-keyboard-response","457","123280","0.0-1.0-617.0","0","0","20696","","123","","","75","68","","","5","68","test","non_adjacent","BG","2","7","L.jpg","P.jpg","0","1","0","",""
"","feedback","","html-keyboard-response","458","123383","0.0-1.0-618.0-0.0","0","0","20696","","null","","","null","68","","","","","","","","","","","","","","","",""
"","time_out","","html-keyboard-response","459","123489","0.0-1.0-620.0-0.0","0","0","20696","","null","","","null","68","","","","","","","","","","","","","","","",""
"","ITI","","html-keyboard-response","460","123993","0.0-1.0-621.0","0","0","20696","","19","","","75","68","","","","","","","","","","","","","","","k",""
"","S1","","html-keyboard-response","461","124246","0.0-1.0-623.0","0","0","20696","","null","","","null","69","","","","","","","","","","","","","","","",""
"","ISI","","html-keyboard-response","462","124353","0.0-1.0-624.0","0","0","20696","","81","","","75","69","k","","","","","","","","","","","","","","",""
"","S2","","html-keyboard-response","463","124606","0.0-1.0-625.0","0","0","20696","","192","","","75","69","","k","","","","","","","","","","","","","",""
"","response","","html-keyboard-response","464","124781","0.0-1.0-626.0","0","0","20696","","173","","","75","69","","","5","69","test","adjacent","FE","6","5","O.jpg","Q.jpg","0","0","1","",""
"","feedback","","html-keyboard-response","465","124886","0.0-1.0-627.0-0.0","0","0","20696","","null","","","null","69","","","","","","","","","","","","","","","",""
"","ITI","","html-keyboard-response","466","125391","0.0-1.0-630.0","0","0","20696","","160","","","75","69","","","","","","","","","","","","","","","k",""
"","S1","","html-keyboard-response","467","125647","0.0-1.0-632.0","0","0","20696","","null","","","null","70","","","","","","","","","","","","","","","",""
"","ISI","","html-keyboard-response","468","125749","0.0-1.0-633.0","0","0","20696","","100","","","75","70","k","","","","","","","","","","","","","","",""
"","S2","","html-keyboard-response","469","126002","0.0-1.0-634.0","0","0","20696","","230","","","75","70","","k","","","","","","","","","","","","","",""
"","response","","html-keyboard-response","470","126195","0.0-1.0-635.0","0","0","20696","","192","","","75","70","","","5","70","test","non_adjacent","GD","7","4","P.jpg","M.jpg","0","0","1","",""
"","feedback","","html-keyboard-response","471","126298","0.0-1.0-636.0-0.0","0","0","20696","","null","","","null","70","","","","","","","","","","","","","","","",""
"","ITI","","html-keyboard-response","472","126803","0.0-1.0-639.0","0","0","20696","","138","","","75","70","","","","","","","","","","","","","","","k",""
"","S1","","html-keyboard-response","473","127058","0.0-1.0-641.0","0","0","20696","","null","","","null","71","","","","","","","","","","","","","","","",""
"","ISI","","html-keyboard-response","474","127160","0.0-1.0-642.0","0","0","20696","","93","","","75","71","k","","","","","","","","","","","","","","",""
"","S2","","html-keyboard-response","475","127412","0.0-1.0-643.0","0","0","20696","","250","","","75","71","","k","","","","","","","","","","","","","",""
"","response","","html-keyboard-response","476","127643","0.0-1.0-644.0","0","0","20696","","229","","","75","71","","","5","71","test","adjacent","ED","5","4","Q.jpg","M.jpg","0","0","1","",""
"","feedback","","html-keyboard-response","477","127745","0.0-1.0-645.0-0.0","0","0","20696","","null","","","null","71","","","","","","","","","","","","","","","",""
"","ITI","","html-keyboard-response","478","128253","0.0-1.0-648.0","0","0","20696","","116","","","75","71","","","","","","","","","","","","","","","k",""
"","S1","","html-keyboard-response","479","128507","0.0-1.0-650.0","0","0","20696","","null","","","null","72","","","","","","","","","","","","","","","",""
"","ISI","","html-keyboard-response","480","128614","0.0-1.0-651.0","0","0","20696","","17","","","75","72","k","","","","","","","","","","","","","","",""
"","S2","","html-keyboard-response","481","128868","0.0-1.0-652.0","0","0","20696","","201","","","75","72","","k","","","","","","","","","","","","","",""
"","response","","html-keyboard-response","482","129375","0.0-1.0-653.0","0","0","20696","","null","","","null","72","","","5","72","test","non_adjacent","AG","1","7","R.jpg","P.jpg","NaN","1","0","",""
"","too_slow_prompt","","html-keyboard-response","483","130380","0.0-1.0-655.0-0.0","1","0","20696","","null","","","null","","","","","","","","","","","","","","","","",""
"","time_out","","html-keyboard-response","484","130486","0.0-1.0-656.0-0.0","0","0","20696","","null","","","null","72","","","","","","","","","","","","","","","",""
"","ITI","","html-keyboard-response","485","130988","0.0-1.0-657.0","0","0","20696","","4","","","75","72","","","","","","","","","","","","","","","k",""
"","S1","","html-keyboard-response","486","131243","0.0-1.0-659.0","0","0","20696","","null","","","null","73","","","","","","","","","","","","","","","",""
"","ISI","","html-keyboard-response","487","131349","0.0-1.0-660.0","0","0","20696","","null","","","null","73","NaN","","","","","","","","","","","","","","",""
"","S2","","html-keyboard-response","488","131603","0.0-1.0-661.0","0","0","20696","","124","","","75","73","","k","","","","","","","","","","","","","",""
"","response","","html-keyboard-response","489","131761","0.0-1.0-662.0","0","0","20696","","157","","","75","73","","","5","73","test","non_adjacent","AF","1","6","R.jpg","O.jpg","0","1","0","",""
"","feedback","","html-keyboard-response","490","131863","0.0-1.0-663.0-0.0","0","0","20696","","null","","","null","73","","","","","","","","","","","","","","","",""
"","time_out","","html-keyboard-response","491","131970","0.0-1.0-665.0-0.0","0","0","20696","","null","","","null","73","","","","","","","","","","","","","","","",""
"","ITI","","html-keyboard-response","492","132477","0.0-1.0-666.0","0","0","20696","","32","","","75","73","","","","","","","","","","","","","","","k",""
"","S1","","html-keyboard-response","493","132730","0.0-1.0-668.0","0","0","20696","","null","","","null","74","","","","","","","","","","","","","","","",""
"","ISI","","html-keyboard-response","494","132833","0.0-1.0-669.0","0","0","20696","","33","","","75","74","k","","","","","","","","","","","","","","",""
"","S2","","html-keyboard-response","495","133085","0.0-1.0-670.0","0","0","20696","","142","","","75","74","","k","","","","","","","","","","","","","",""
"","response","","html-keyboard-response","496","133210","0.0-1.0-671.0","0","0","20696","","123","","","75","74","","","5","74","test","non_adjacent","AE","1","5","R.jpg","Q.jpg","0","1","0","",""
"","feedback","","html-keyboard-response","497","133314","0.0-1.0-672.0-0.0","0","0","20696","","null","","","null","74","","","","","","","","","","","","","","","",""
"","time_out","","html-keyboard-response","498","133419","0.0-1.0-674.0-0.0","0","0","20696","","null","","","null","74","","","","","","","","","","","","","","","",""
"","ITI","","html-keyboard-response","499","133921","0.0-1.0-675.0","0","0","20696","","4","","","75","74","","","","","","","","","","","","","","","k",""
"","S1","","html-keyboard-response","500","134176","0.0-1.0-677.0","0","0","20696","","null","","","null","75","","","","","","","","","","","","","","","",""
"","ISI","","html-keyboard-response","501","134279","0.0-1.0-678.0","0","0","20696","","null","","","null","75","NaN","","","","","","","","","","","","","","",""
"","S2","","html-keyboard-response","502","134535","0.0-1.0-679.0","0","0","20696","","80","","","75","75","","k","","","","","","","","","","","","","",""
"","response","","html-keyboard-response","503","134587","0.0-1.0-680.0","0","0","20696","","50","","","75","75","","","5","75","test","non_adjacent","GE","7","5","P.jpg","Q.jpg","0","0","1","",""
"","feedback","","html-keyboard-response","504","134689","0.0-1.0-681.0-0.0","0","0","20696","","null","","","null","75","","","","","","","","","","","","","","","",""
"","ITI","","html-keyboard-response","505","135192","0.0-1.0-684.0","0","0","20696","","106","","","75","75","","","","","","","","","","","","","","","k",""
"","S1","","html-keyboard-response","506","135449","0.0-1.0-686.0","0","0","20696","","null","","","null","76","","","","","","","","","","","","","","","",""
"","ISI","","html-keyboard-response","507","135556","0.0-1.0-687.0","0","0","20696","","57","","","75","76","k","","","","","","","","","","","","","","",""
"","S2","","html-keyboard-response","508","135810","0.0-1.0-688.0","0","0","20696","","222","","","75","76","","k","","","","","","","","","","","","","",""
"","response","","html-keyboard-response","509","136042","0.0-1.0-689.0","0","0","20696","","230","","","75","76","","","5","76","test","adjacent","EF","5","6","Q.jpg","O.jpg","0","1","0","",""
"","feedback","","html-keyboard-response","510","136144","0.0-1.0-690.0-0.0","0","0","20696","","null","","","null","76","","","","","","","","","","","","","","","",""
"","time_out","","html-keyboard-response","511","136249","0.0-1.0-692.0-0.0","0","0","20696","","null","","","null","76","","","","","","","","","","","","","","","",""
"","ITI","","html-keyboard-response","512","136755","0.0-1.0-693.0","0","0","20696","","180","","","75","76","","","","","","","","","","","","","","","k",""
"","S1","","html-keyboard-response","513","137009","0.0-1.0-695.0","0","0","20696","","null","","","null","77","","","","","","","","","","","","","","","",""
"","ISI","","html-keyboard-response","514","137114","0.0-1.0-696.0","0","0","20696","","null","","","null","77","NaN","","","","","","","","","","","","","","",""
"","S2","","html-keyboard-response","515","137366","0.0-1.0-697.0","0","0","20696","","99","","","75","77","","k","","","","","","","","","","","","","",""
"","response","","html-keyboard-response","516","137498","0.0-1.0-698.0","0","0","20696","","130","","","75","77","","","5","77","test","non_adjacent","EG","5","7","Q.jpg","P.jpg","0","1","0","",""
"","feedback","","html-keyboard-response","517","137600","0.0-1.0-699.0-0.0","0","0","20696","","null","","","null","77","","","","","","","","","","","","","","","",""
"","time_out","","html-keyboard-response","518","137705","0.0-1.0-701.0-0.0","0","0","20696","","null","","","null","77","","","","","","","","","","","","","","","",""
"","ITI","","html-keyboard-response","519","138210","0.0-1.0-702.0","0","0","20696","","53","","","75","77","","","","","","","","","","","","","","","k",""
"","block_over","","html-keyboard-response","520","139029","0.0-1.0-703.0-0.0","0","0","20696","","817","","","32","77","","","","","","","","","","","","","","","",""
"","S1","","html-keyboard-response","521","139281","0.0-1.0-704.0","0","0","20696","","null","","","null","78","","","","","","","","","","","","","","","",""
"","ISI","","html-keyboard-response","522","139386","0.0-1.0-705.0","0","0","20696","","12","","","75","78","k","","","","","","","","","","","","","","",""
"","S2","","html-keyboard-response","523","139639","0.0-1.0-706.0","0","0","20696","","131","","","75","78","","k","","","","","","","","","","","","","",""
"","response","","html-keyboard-response","524","139720","0.0-1.0-707.0","0","0","20696","","79","","","75","78","","","6","78","test","non_adjacent","AD","1","4","R.jpg","M.jpg","0","1","0","",""
"","feedback","","html-keyboard-response","525","139822","0.0-1.0-708.0-0.0","0","0","20696","","null","","","null","78","","","","","","","","","","","","","","","",""
"","time_out","","html-keyboard-response","526","139924","0.0-1.0-710.0-0.0","0","0","20696","","null","","","null","78","","","","","","","","","","","","","","","",""
"","ITI","","html-keyboard-response","527","140428","0.0-1.0-711.0","0","0","20696","","457","","","75","78","","","","","","","","","","","","","","","k",""
"","S1","","html-keyboard-response","528","140686","0.0-1.0-713.0","0","0","20696","","null","","","null","79","","","","","","","","","","","","","","","",""
"","ISI","","html-keyboard-response","529","140791","0.0-1.0-714.0","0","0","20696","","null","","","null","79","NaN","","","","","","","","","","","","","","",""
"","S2","","html-keyboard-response","530","141043","0.0-1.0-715.0","0","0","20696","","57","","","75","79","","k","","","","","","","","","","","","","",""
"","response","","html-keyboard-response","531","141064","0.0-1.0-716.0","0","0","20696","","19","","","75","79","","","6","79","test","non_adjacent","FC","6","3","O.jpg","N.jpg","0","0","1","",""
"","feedback","","html-keyboard-response","532","141170","0.0-1.0-717.0-0.0","0","0","20696","","null","","","null","79","","","","","","","","","","","","","","","",""
"","ITI","","html-keyboard-response","533","141674","0.0-1.0-720.0","0","0","20696","","252","","","75","79","","","","","","","","","","","","","","","k",""
"","S1","","html-keyboard-response","534","141928","0.0-1.0-722.0","0","0","20696","","null","","","null","80","","","","","","","","","","","","","","","",""
"","ISI","","html-keyboard-response","535","142032","0.0-1.0-723.0","0","0","20696","","null","","","null","80","NaN","","","","","","","","","","","","","","",""
"","S2","","html-keyboard-response","536","142285","0.0-1.0-724.0","0","0","20696","","56","","","75","80","","k","","","","","","","","","","","","","",""
"","response","","html-keyboard-response","537","142307","0.0-1.0-725.0","0","0","20696","","20","","","75","80","","","6","80","test","non_adjacent","GA","7","1","P.jpg","R.jpg","0","0","1","",""
"","feedback","","html-keyboard-response","538","142413","0.0-1.0-726.0-0.0","0","0","20696","","null","","","null","80","","","","","","","","","","","","","","","",""
"","ITI","","html-keyboard-response","539","142916","0.0-1.0-729.0","0","0","20696","","null","","","null","80","","","","","","","","","","","","","","","NaN",""
"","S1","","html-keyboard-response","540","143173","0.0-1.0-731.0","0","0","20696","","null","","","null","81","","","","","","","","","","","","","","","",""
"","ISI","","html-keyboard-response","541","143280","0.0-1.0-732.0","0","0","20696","","31","","","75","81","k","","","","","","","","","","","","","","",""
"","S2","","html-keyboard-response","542","143537","0.0-1.0-733.0","0","0","20696","","181","","","75","81","","k","","","","","","","","","","","","","",""
"","response","","html-keyboard-response","543","143692","0.0-1.0-734.0","0","0","20696","","154","","","75","81","","","6","81","test","adjacent","BA","2","1","L.jpg","R.jpg","0","0","1","",""
"","feedback","","html-keyboard-response","544","143794","0.0-1.0-735.0-0.0","0","0","20696","","null","","","null","81","","","","","","","","","","","","","","","",""
"","ITI","","html-keyboard-response","545","144299","0.0-1.0-738.0","0","0","20696","","125","","","75","81","","","","","","","","","","","","","","","k",""
"","S1","","html-keyboard-response","546","144555","0.0-1.0-740.0","0","0","20696","","null","","","null","82","","","","","","","","","","","","","","","",""
"","ISI","","html-keyboard-response","547","144661","0.0-1.0-741.0","0","0","20696","","null","","","null","82","NaN","","","","","","","","","","","","","","",""
"","S2","","html-keyboard-response","548","144916","0.0-1.0-742.0","0","0","20696","","208","","","75","82","","k","","","","","","","","","","","","","",""
"","response","","html-keyboard-response","549","145129","0.0-1.0-743.0","0","0","20696","","211","","","75","82","","","6","82","test","non_adjacent","EC","5","3","Q.jpg","N.jpg","0","0","1","",""
"","feedback","","html-keyboard-response","550","145231","0.0-1.0-744.0-0.0","0","0","20696","","null","","","null","82","","","","","","","","","","","","","","","",""
"","ITI","","html-keyboard-response","551","145735","0.0-1.0-747.0","0","0","20696","","118","","","75","82","","","","","","","","","","","","","","","k",""
"","S1","","html-keyboard-response","552","145990","0.0-1.0-749.0","0","0","20696","","null","","","null","83","","","","","","","","","","","","","","","",""
"","ISI","","html-keyboard-response","553","146094","0.0-1.0-750.0","0","0","20696","","null","","","null","83","NaN","","","","","","","","","","","","","","",""
"","S2","","html-keyboard-response","554","146348","0.0-1.0-751.0","0","0","20696","","null","","","null","83","","NaN","","","","","","","","","","","","","",""
"","response","","html-keyboard-response","555","146536","0.0-1.0-752.0","0","0","20696","","187","","","75","83","","","6","83","test","non_adjacent","EB","5","2","Q.jpg","L.jpg","0","0","1","",""
"","feedback","","html-keyboard-response","556","146638","0.0-1.0-753.0-0.0","0","0","20696","","null","","","null","83","","","","","","","","","","","","","","","",""
"","ITI","","html-keyboard-response","557","147145","0.0-1.0-756.0","0","0","20696","","null","","","null","83","","","","","","","","","","","","","","","NaN",""
"","S1","","html-keyboard-response","558","147398","0.0-1.0-758.0","0","0","20696","","null","","","null","84","","","","","","","","","","","","","","","",""
"","ISI","","html-keyboard-response","559","147503","0.0-1.0-759.0","0","0","20696","","null","","","null","84","NaN","","","","","","","","","","","","","","",""
"","S2","","html-keyboard-response","560","147756","0.0-1.0-760.0","0","0","20696","","114","","","75","84","","k","","","","","","","","","","","","","",""
"","response","","html-keyboard-response","561","147809","0.0-1.0-761.0","0","0","20696","","52","","","75","84","","","6","84","test","non_adjacent","AC","1","3","R.jpg","N.jpg","0","1","0","",""
"","feedback","","html-keyboard-response","562","147914","0.0-1.0-762.0-0.0","0","0","20696","","null","","","null","84","","","","","","","","","","","","","","","",""
"","time_out","","html-keyboard-response","563","148016","0.0-1.0-764.0-0.0","0","0","20696","","null","","","null","84","","","","","","","","","","","","","","","",""
"","ITI","","html-keyboard-response","564","148519","0.0-1.0-765.0","0","0","20696","","null","","","null","84","","","","","","","","","","","","","","","NaN",""
"","S1","","html-keyboard-response","565","148776","0.0-1.0-767.0","0","0","20696","","null","","","null","85","","","","","","","","","","","","","","","",""
"","ISI","","html-keyboard-response","566","148881","0.0-1.0-768.0","0","0","20696","","50","","","75","85","k","","","","","","","","","","","","","","",""
"","S2","","html-keyboard-response","567","149134","0.0-1.0-769.0","0","0","20696","","147","","","75","85","","k","","","","","","","","","","","","","",""
"","response","","html-keyboard-response","568","149235","0.0-1.0-770.0","0","0","20696","","100","","","75","85","","","6","85","test","non_adjacent","FB","6","2","O.jpg","L.jpg","0","0","1","",""
"","feedback","","html-keyboard-response","569","149340","0.0-1.0-771.0-0.0","0","0","20696","","null","","","null","85","","","","","","","","","","","","","","","",""
"","ITI","","html-keyboard-response","570","149848","0.0-1.0-774.0","0","0","20696","","92","","","75","85","","","","","","","","","","","","","","","k",""
"","S1","","html-keyboard-response","571","150105","0.0-1.0-776.0","0","0","20696","","null","","","null","86","","","","","","","","","","","","","","","",""
"","ISI","","html-keyboard-response","572","150208","0.0-1.0-777.0","0","0","20696","","null","","","null","86","NaN","","","","","","","","","","","","","","",""
"","S2","","html-keyboard-response","573","150462","0.0-1.0-778.0","0","0","20696","","221","","","75","86","","k","","","","","","","","","","","","","",""
"","response","","html-keyboard-response","574","150625","0.0-1.0-779.0","0","0","20696","","162","","","75","86","","","6","86","test","non_adjacent","GC","7","3","P.jpg","N.jpg","0","0","1","",""
"","feedback","","html-keyboard-response","575","150727","0.0-1.0-780.0-0.0","0","0","20696","","null","","","null","86","","","","","","","","","","","","","","","",""
"","ITI","","html-keyboard-response","576","151230","0.0-1.0-783.0","0","0","20696","","null","","","null","86","","","","","","","","","","","","","","","NaN",""
"","S1","","html-keyboard-response","577","151483","0.0-1.0-785.0","0","0","20696","","null","","","null","87","","","","","","","","","","","","","","","",""
"","ISI","","html-keyboard-response","578","151588","0.0-1.0-786.0","0","0","20696","","null","","","null","87","NaN","","","","","","","","","","","","","","",""
"","S2","","html-keyboard-response","579","151844","0.0-1.0-787.0","0","0","20696","","null","","","null","87","","NaN","","","","","","","","","","","","","",""
"","response","","html-keyboard-response","580","152191","0.0-1.0-788.0","0","0","20696","","346","","","75","87","","","6","87","test","non_adjacent","EA","5","1","Q.jpg","R.jpg","0","0","1","",""
"","feedback","","html-keyboard-response","581","152296","0.0-1.0-789.0-0.0","0","0","20696","","null","","","null","87","","","","","","","","","","","","","","","",""
"","ITI","","html-keyboard-response","582","152804","0.0-1.0-792.0","0","0","20696","","101","","","75","87","","","","","","","","","","","","","","","k",""
"","S1","","html-keyboard-response","583","153059","0.0-1.0-794.0","0","0","20696","","null","","","null","88","","","","","","","","","","","","","","","",""
"","ISI","","html-keyboard-response","584","153164","0.0-1.0-795.0","0","0","20696","","null","","","null","88","NaN","","","","","","","","","","","","","","",""
"","S2","","html-keyboard-response","585","153419","0.0-1.0-796.0","0","0","20696","","119","","","75","88","","k","","","","","","","","","","","","","",""
"","response","","html-keyboard-response","586","153710","0.0-1.0-797.0","0","0","20696","","289","","","75","88","","","6","88","test","adjacent","AB","1","2","R.jpg","L.jpg","0","1","0","",""
"","feedback","","html-keyboard-response","587","153811","0.0-1.0-798.0-0.0","0","0","20696","","null","","","null","88","","","","","","","","","","","","","","","",""
"","time_out","","html-keyboard-response","588","153913","0.0-1.0-800.0-0.0","0","0","20696","","null","","","null","88","","","","","","","","","","","","","","","",""
"","ITI","","html-keyboard-response","589","154415","0.0-1.0-801.0","0","0","20696","","251","","","75","88","","","","","","","","","","","","","","","k",""
"","S1","","html-keyboard-response","590","154668","0.0-1.0-803.0","0","0","20696","","null","","","null","89","","","","","","","","","","","","","","","",""
"","ISI","","html-keyboard-response","591","154771","0.0-1.0-804.0","0","0","20696","","null","","","null","89","NaN","","","","","","","","","","","","","","",""
"","S2","","html-keyboard-response","592","155026","0.0-1.0-805.0","0","0","20696","","null","","","null","89","","NaN","","","","","","","","","","","","","",""
"","response","","html-keyboard-response","593","155446","0.0-1.0-806.0","0","0","20696","","418","","","75","89","","","6","89","test","non_adjacent","DA","4","1","M.jpg","R.jpg","0","0","1","",""
