"success","ttype","start_time","trial_type","trial_index","time_elapsed","internal_node_id","warning","missed_checkup","PID","view_history","rt","responses","repeat_instructions","key_press","index","keypress_isi","keypress_S2","block","trial_num","phase","group_type","pair_type","S1_stim","S2_stim","S1_img","S2_img","S1_chosen","S1_higher","accuracy","keypress_iti","total_bonus_tally"
"true","full_screen","d07282022hr0016","fullscreen","0","2633","0.0-0.0","0","0","72608","","","","","","","","","","","","","","","","","","","","","",""
"","instructions","","instructions","1","47595","0.0-1.0-0.0-0.0","0","0","72608","[{""page_index"":0,""viewing_time"":7462},{""page_index"":1,""viewing_time"":12244},{""page_index"":2,""viewing_time"":18932},{""page_index"":3,""viewing_time"":6321}]","44960","","","","","","","","","","","","","","","","","","","",""
"","comprehension_check","","survey-multi-choice","2","71698","0.0-1.0-0.0-1.0","0","0","72608","","24097","{""Q0"":""True"",""Q1"":""True"",""Q2"":""When you see the prompt 'MAKE A CHOICE' after the second image was presented"",""Q3"":""Green mark"",""Q4"":""either D or K""}","0","","","","","","","","","","","","","","","","","",""
"","start_exp","","html-keyboard-response","3","73638","0.0-1.0-1.0","0","0","72608","","1936","","","32","","","","","","","","","","","","","","","","",""
"","S1","","html-keyboard-response","4","73896","0.0-1.0-2.0","0","0","72608","","null","","","null","0","","","","","","","","","","","","","","","",""
"","ISI","","html-keyboard-response","5","75904","0.0-1.0-3.0","0","0","72608","","1556","","","75","0","k","","","","","","","","","","","","","","",""
"","S2","","html-keyboard-response","6","76160","0.0-1.0-4.0","0","0","72608","","177","","","75","0","","k","","","","","","","","","","","","","",""
"","response","","html-keyboard-response","7","76316","0.0-1.0-5.0","0","0","72608","","154","","","75","0","","","1","0","training","adjacent","FG","6","7","O.jpg","Q.jpg","0","1","0","",""
"","feedback","","html-keyboard-response","8","77322","0.0-1.0-6.0-0.0","0","0","72608","","null","","","null","0","","","","","","","","","","","","","","","",""
"","time_out","","html-keyboard-response","9","79328","0.0-1.0-8.0-0.0","0","0","72608","","null","","","null","0","","","","","","","","","","","","","","","",""
"","ITI","","html-keyboard-response","10","80336","0.0-1.0-9.0","0","0","72608","","42","","","75","0","","","","","","","","","","","","","","","k",""
"","S1","","html-keyboard-response","11","80591","0.0-1.0-11.0","0","0","72608","","null","","","null","1","","","","","","","","","","","","","","","",""
"","ISI","","html-keyboard-response","12","82595","0.0-1.0-12.0","0","0","72608","","1411","","","68","1","d","","","","","","","","","","","","","","",""
"","S2","","html-keyboard-response","13","82848","0.0-1.0-13.0","0","0","72608","","null","","","null","1","","NaN","","","","","","","","","","","","","",""
"","response","","html-keyboard-response","14","82975","0.0-1.0-14.0","0","0","72608","","126","","","68","1","","","1","1","training","adjacent","AB","1","2","M.jpg","L.jpg","1","1","1","",""
"","feedback","","html-keyboard-response","15","83980","0.0-1.0-15.0-0.0","0","0","72608","","null","","","null","1","","","","","","","","","","","","","","","",""
"","ITI","","html-keyboard-response","16","84983","0.0-1.0-18.0","0","0","72608","","null","","","null","1","","","","","","","","","","","","","","","NaN",""
"","S1","","html-keyboard-response","17","85239","0.0-1.0-20.0","0","0","72608","","null","","","null","2","","","","","","","","","","","","","","","",""
"","ISI","","html-keyboard-response","18","87246","0.0-1.0-21.0","0","0","72608","","1100","","","68","2","d","","","","","","","","","","","","","","",""
"","S2","","html-keyboard-response","19","87501","0.0-1.0-22.0","0","0","72608","","null","","","null","2","","NaN","","","","","","","","","","","","","",""
"","response","","html-keyboard-response","20","87628","0.0-1.0-23.0","0","0","72608","","125","","","68","2","","","1","2","training","adjacent","DE","4","5","R.jpg","N.jpg","1","1","1","",""
"","feedback","","html-keyboard-response","21","88634","0.0-1.0-24.0-0.0","0","0","72608","","null","","","null","2","","","","","","","","","","","","","","","",""
"","ITI","","html-keyboard-response","22","89639","0.0-1.0-27.0","0","0","72608","","265","","","68","2","","","","","","","","","","","","","","","d",""
"","S1","","html-keyboard-response","23","89896","0.0-1.0-29.0","0","0","72608","","null","","","null","3","","","","","","","","","","","","","","","",""
"","ISI","","html-keyboard-response","24","91899","0.0-1.0-30.0","0","0","72608","","354","","","68","3","d","","","","","","","","","","","","","","",""
"","S2","","html-keyboard-response","25","92157","0.0-1.0-31.0","0","0","72608","","202","","","68","3","","d","","","","","","","","","","","","","",""
"","response","","html-keyboard-response","26","92668","0.0-1.0-32.0","0","0","72608","","509","","","68","3","","","1","3","training","adjacent","BA","2","1","L.jpg","M.jpg","1","0","0","",""
"","feedback","","html-keyboard-response","27","93675","0.0-1.0-33.0-0.0","0","0","72608","","null","","","null","3","","","","","","","","","","","","","","","",""
"","time_out","","html-keyboard-response","28","95682","0.0-1.0-35.0-0.0","0","0","72608","","null","","","null","3","","","","","","","","","","","","","","","",""
"","ITI","","html-keyboard-response","29","96688","0.0-1.0-36.0","0","0","72608","","44","","","68","3","","","","","","","","","","","","","","","d",""
"","S1","","html-keyboard-response","30","96946","0.0-1.0-38.0","0","0","72608","","null","","","null","4","","","","","","","","","","","","","","","",""
"","ISI","","html-keyboard-response","31","98949","0.0-1.0-39.0","0","0","72608","","1311","","","68","4","d","","","","","","","","","","","","","","",""
"","S2","","html-keyboard-response","32","99204","0.0-1.0-40.0","0","0","72608","","87","","","68","4","","d","","","","","","","","","","","","","",""
"","response","","html-keyboard-response","33","99307","0.0-1.0-41.0","0","0","72608","","101","","","68","4","","","1","4","training","adjacent","GF","7","6","Q.jpg","O.jpg","1","0","0","",""
"","feedback","","html-keyboard-response","34","100313","0.0-1.0-42.0-0.0","0","0","72608","","null","","","null","4","","","","","","","","","","","","","","","",""
"","time_out","","html-keyboard-response","35","102317","0.0-1.0-44.0-0.0","0","0","72608","","null","","","null","4","","","","","","","","","","","","","","","",""
"","ITI","","html-keyboard-response","36","103322","0.0-1.0-45.0","0","0","72608","","174","","","68","4","","","","","","","","","","","","","","","d",""
"","S1","","html-keyboard-response","37","103579","0.0-1.0-47.0","0","0","72608","","null","","","null","5","","","","","","","","","","","","","","","",""
"","ISI","","html-keyboard-response","38","105586","0.0-1.0-48.0","0","0","72608","","99","","","68","5","d","","","","","","","","","","","","","","",""
"","S2","","html-keyboard-response","39","105844","0.0-1.0-49.0","0","0","72608","","null","","","null","5","","NaN","","","","","","","","","","","","","",""
"","response","","html-keyboard-response","40","105892","0.0-1.0-50.0","0","0","72608","","46","","","68","5","","","1","5","training","adjacent","BA","2","1","L.jpg","M.jpg","1","0","0","",""
"","feedback","","html-keyboard-response","41","106896","0.0-1.0-51.0-0.0","0","0","72608","","null","","","null","5","","","","","","","","","","","","","","","",""
"","time_out","","html-keyboard-response","42","108902","0.0-1.0-53.0-0.0","0","0","72608","","null","","","null","5","","","","","","","","","","","","","","","",""
"","ITI","","html-keyboard-response","43","109905","0.0-1.0-54.0","0","0","72608","","59","","","68","5","","","","","","","","","","","","","","","d",""
"","S1","","html-keyboard-response","44","110162","0.0-1.0-56.0","0","0","72608","","null","","","null","6","","","","","","","","","","","","","","","",""
"","ISI","","html-keyboard-response","45","112168","0.0-1.0-57.0","0","0","72608","","171","","","68","6","d","","","","","","","","","","","","","","",""
"","S2","","html-keyboard-response","46","112424","0.0-1.0-58.0","0","0","72608","","null","","","null","6","","NaN","","","","","","","","","","","","","",""
"","response","","html-keyboard-response","47","112432","0.0-1.0-59.0","0","0","72608","","5","","","68","6","","","1","6","training","adjacent","FG","6","7","O.jpg","Q.jpg","1","1","1","",""
"","feedback","","html-keyboard-response","48","113439","0.0-1.0-60.0-0.0","0","0","72608","","null","","","null","6","","","","","","","","","","","","","","","",""
"","ITI","","html-keyboard-response","49","114444","0.0-1.0-63.0","0","0","72608","","198","","","68","6","","","","","","","","","","","","","","","d",""
"","S1","","html-keyboard-response","50","114697","0.0-1.0-65.0","0","0","72608","","null","","","null","7","","","","","","","","","","","","","","","",""
"","ISI","","html-keyboard-response","51","116702","0.0-1.0-66.0","0","0","72608","","13","","","68","7","d","","","","","","","","","","","","","","",""
"","S2","","html-keyboard-response","52","116960","0.0-1.0-67.0","0","0","72608","","null","","","null","7","","NaN","","","","","","","","","","","","","",""
"","response","","html-keyboard-response","53","117041","0.0-1.0-68.0","0","0","72608","","73","","","68","7","","","1","7","training","adjacent","FE","6","5","O.jpg","N.jpg","1","0","0","",""
"","feedback","","html-keyboard-response","54","118047","0.0-1.0-69.0-0.0","0","0","72608","","null","","","null","7","","","","","","","","","","","","","","","",""
"","time_out","","html-keyboard-response","55","120050","0.0-1.0-71.0-0.0","0","0","72608","","null","","","null","7","","","","","","","","","","","","","","","",""
"","ITI","","html-keyboard-response","56","121057","0.0-1.0-72.0","0","0","72608","","237","","","68","7","","","","","","","","","","","","","","","d",""
"","S1","","html-keyboard-response","57","121309","0.0-1.0-74.0","0","0","72608","","null","","","null","8","","","","","","","","","","","","","","","",""
"","ISI","","html-keyboard-response","58","123314","0.0-1.0-75.0","0","0","72608","","50","","","68","8","d","","","","","","","","","","","","","","",""
"","S2","","html-keyboard-response","59","123567","0.0-1.0-76.0","0","0","72608","","null","","","null","8","","NaN","","","","","","","","","","","","","",""
"","response","","html-keyboard-response","60","123613","0.0-1.0-77.0","0","0","72608","","45","","","68","8","","","1","8","training","adjacent","BA","2","1","L.jpg","M.jpg","1","0","0","",""
"","feedback","","html-keyboard-response","61","124620","0.0-1.0-78.0-0.0","0","0","72608","","null","","","null","8","","","","","","","","","","","","","","","",""
"","time_out","","html-keyboard-response","62","126624","0.0-1.0-80.0-0.0","0","0","72608","","null","","","null","8","","","","","","","","","","","","","","","",""
"","ITI","","html-keyboard-response","63","127627","0.0-1.0-81.0","0","0","72608","","547","","","68","8","","","","","","","","","","","","","","","d",""
"","S1","","html-keyboard-response","64","127884","0.0-1.0-83.0","0","0","72608","","null","","","null","9","","","","","","","","","","","","","","","",""
"","ISI","","html-keyboard-response","65","129888","0.0-1.0-84.0","0","0","72608","","140","","","68","9","d","","","","","","","","","","","","","","",""
"","S2","","html-keyboard-response","66","130144","0.0-1.0-85.0","0","0","72608","","77","","","68","9","","d","","","","","","","","","","","","","",""
"","response","","html-keyboard-response","67","130336","0.0-1.0-86.0","0","0","72608","","190","","","68","9","","","1","9","training","adjacent","CB","3","2","P.jpg","L.jpg","1","0","0","",""
"","feedback","","html-keyboard-response","68","131339","0.0-1.0-87.0-0.0","0","0","72608","","null","","","null","9","","","","","","","","","","","","","","","",""
"","time_out","","html-keyboard-response","69","133342","0.0-1.0-89.0-0.0","0","0","72608","","null","","","null","9","","","","","","","","","","","","","","","",""
"","ITI","","html-keyboard-response","70","134349","0.0-1.0-90.0","0","0","72608","","297","","","68","9","","","","","","","","","","","","","","","d",""
"","S1","","html-keyboard-response","71","134606","0.0-1.0-92.0","0","0","72608","","null","","","null","10","","","","","","","","","","","","","","","",""
"","ISI","","html-keyboard-response","72","136609","0.0-1.0-93.0","0","0","72608","","130","","","68","10","d","","","","","","","","","","","","","","",""
"","S2","","html-keyboard-response","73","136868","0.0-1.0-94.0","0","0","72608","","null","","","null","10","","NaN","","","","","","","","","","","","","",""
"","response","","html-keyboard-response","74","137406","0.0-1.0-95.0","0","0","72608","","536","","","68","10","","","1","10","training","adjacent","BC","2","3","L.jpg","P.jpg","1","1","1","",""
"","feedback","","html-keyboard-response","75","138413","0.0-1.0-96.0-0.0","0","0","72608","","null","","","null","10","","","","","","","","","","","","","","","",""
"","ITI","","html-keyboard-response","76","139418","0.0-1.0-99.0","0","0","72608","","319","","","68","10","","","","","","","","","","","","","","","d",""
"","S1","","html-keyboard-response","77","139675","0.0-1.0-101.0","0","0","72608","","null","","","null","11","","","","","","","","","","","","","","","",""
"","ISI","","html-keyboard-response","78","141681","0.0-1.0-102.0","0","0","72608","","97","","","68","11","d","","","","","","","","","","","","","","",""
"","S2","","html-keyboard-response","79","141939","0.0-1.0-103.0","0","0","72608","","null","","","null","11","","NaN","","","","","","","","","","","","","",""
"","response","","html-keyboard-response","80","142172","0.0-1.0-104.0","0","0","72608","","231","","","68","11","","","1","11","training","adjacent","CB","3","2","P.jpg","L.jpg","1","0","0","",""
"","feedback","","html-keyboard-response","81","143179","0.0-1.0-105.0-0.0","0","0","72608","","null","","","null","11","","","","","","","","","","","","","","","",""
"","time_out","","html-keyboard-response","82","145186","0.0-1.0-107.0-0.0","0","0","72608","","null","","","null","11","","","","","","","","","","","","","","","",""
"","ITI","","html-keyboard-response","83","146193","0.0-1.0-108.0","0","0","72608","","139","","","68","11","","","","","","","","","","","","","","","d",""
"","S1","","html-keyboard-response","84","146448","0.0-1.0-110.0","0","0","72608","","null","","","null","12","","","","","","","","","","","","","","","",""
"","ISI","","html-keyboard-response","85","148454","0.0-1.0-111.0","0","0","72608","","794","","","68","12","d","","","","","","","","","","","","","","",""
"","S2","","html-keyboard-response","86","148710","0.0-1.0-112.0","0","0","72608","","208","","","68","12","","d","","","","","","","","","","","","","",""
"","response","","html-keyboard-response","87","148943","0.0-1.0-113.0","0","0","72608","","231","","","68","12","","","1","12","training","adjacent","CB","3","2","P.jpg","L.jpg","1","0","0","",""
"","feedback","","html-keyboard-response","88","149947","0.0-1.0-114.0-0.0","0","0","72608","","null","","","null","12","","","","","","","","","","","","","","","",""
"","time_out","","html-keyboard-response","89","151950","0.0-1.0-116.0-0.0","0","0","72608","","null","","","null","12","","","","","","","","","","","","","","","",""
"","ITI","","html-keyboard-response","90","152955","0.0-1.0-117.0","0","0","72608","","null","","","null","12","","","","","","","","","","","","","","","NaN",""
"","S1","","html-keyboard-response","91","153208","0.0-1.0-119.0","0","0","72608","","null","","","null","13","","","","","","","","","","","","","","","",""
"","ISI","","html-keyboard-response","92","155214","0.0-1.0-120.0","0","0","72608","","582","","","75","13","k","","","","","","","","","","","","","","",""
"","S2","","html-keyboard-response","93","155468","0.0-1.0-121.0","0","0","72608","","235","","","75","13","","k","","","","","","","","","","","","","",""
"","response","","html-keyboard-response","94","155707","0.0-1.0-122.0","0","0","72608","","236","","","75","13","","","1","13","training","adjacent","CD","3","4","P.jpg","R.jpg","0","1","0","",""
"","feedback","","html-keyboard-response","95","156710","0.0-1.0-123.0-0.0","0","0","72608","","null","","","null","13","","","","","","","","","","","","","","","",""
"","time_out","","html-keyboard-response","96","158717","0.0-1.0-125.0-0.0","0","0","72608","","null","","","null","13","","","","","","","","","","","","","","","",""
"","ITI","","html-keyboard-response","97","159725","0.0-1.0-126.0","0","0","72608","","266","","","75","13","","","","","","","","","","","","","","","k",""
"","S1","","html-keyboard-response","98","159982","0.0-1.0-128.0","0","0","72608","","null","","","null","14","","","","","","","","","","","","","","","",""
"","ISI","","html-keyboard-response","99","161986","0.0-1.0-129.0","0","0","72608","","453","","","75","14","k","","","","","","","","","","","","","","",""
"","S2","","html-keyboard-response","100","162242","0.0-1.0-130.0","0","0","72608","","null","","","null","14","","NaN","","","","","","","","","","","","","",""
"","response","","html-keyboard-response","101","162526","0.0-1.0-131.0","0","0","72608","","282","","","75","14","","","1","14","training","adjacent","ED","5","4","N.jpg","R.jpg","0","0","1","",""
"","feedback","","html-keyboard-response","102","163532","0.0-1.0-132.0-0.0","0","0","72608","","null","","","null","14","","","","","","","","","","","","","","","",""
"","ITI","","html-keyboard-response","103","164538","0.0-1.0-135.0","0","0","72608","","71","","","75","14","","","","","","","","","","","","","","","k",""
"","S1","","html-keyboard-response","104","164794","0.0-1.0-137.0","0","0","72608","","null","","","null","15","","","","","","","","","","","","","","","",""
"","ISI","","html-keyboard-response","105","166801","0.0-1.0-138.0","0","0","72608","","1326","","","75","15","k","","","","","","","","","","","","","","",""
"","S2","","html-keyboard-response","106","167059","0.0-1.0-139.0","0","0","72608","","96","","","75","15","","k","","","","","","","","","","","","","",""
"","response","","html-keyboard-response","107","167167","0.0-1.0-140.0","0","0","72608","","106","","","75","15","","","1","15","training","adjacent","DC","4","3","R.jpg","P.jpg","0","0","1","",""
"","feedback","","html-keyboard-response","108","168173","0.0-1.0-141.0-0.0","0","0","72608","","null","","","null","15","","","","","","","","","","","","","","","",""
"","ITI","","html-keyboard-response","109","169176","0.0-1.0-144.0","0","0","72608","","683","","","75","15","","","","","","","","","","","","","","","k",""
"","S1","","html-keyboard-response","110","169432","0.0-1.0-146.0","0","0","72608","","null","","","null","16","","","","","","","","","","","","","","","",""
"","ISI","","html-keyboard-response","111","171437","0.0-1.0-147.0","0","0","72608","","625","","","75","16","k","","","","","","","","","","","","","","",""
"","S2","","html-keyboard-response","112","171694","0.0-1.0-148.0","0","0","72608","","null","","","null","16","","NaN","","","","","","","","","","","","","",""
"","response","","html-keyboard-response","113","171927","0.0-1.0-149.0","0","0","72608","","230","","","75","16","","","1","16","training","adjacent","DE","4","5","R.jpg","N.jpg","0","1","0","",""
"","feedback","","html-keyboard-response","114","172929","0.0-1.0-150.0-0.0","0","0","72608","","null","","","null","16","","","","","","","","","","","","","","","",""
"","time_out","","html-keyboard-response","115","174934","0.0-1.0-152.0-0.0","0","0","72608","","null","","","null","16","","","","","","","","","","","","","","","",""
"","ITI","","html-keyboard-response","116","175938","0.0-1.0-153.0","0","0","72608","","41","","","75","16","","","","","","","","","","","","","","","k",""
"","S1","","html-keyboard-response","117","176194","0.0-1.0-155.0","0","0","72608","","null","","","null","17","","","","","","","","","","","","","","","",""
"","ISI","","html-keyboard-response","118","178196","0.0-1.0-156.0","0","0","72608","","258","","","75","17","k","","","","","","","","","","","","","","",""
"","S2","","html-keyboard-response","119","178449","0.0-1.0-157.0","0","0","72608","","3","","","75","17","","k","","","","","","","","","","","","","",""
"","response","","html-keyboard-response","120","178451","0.0-1.0-158.0","0","0","72608","","0","","","75","17","","","1","17","training","adjacent","DE","4","5","R.jpg","N.jpg","0","1","0","",""
"","feedback","","html-keyboard-response","121","179458","0.0-1.0-159.0-0.0","0","0","72608","","null","","","null","17","","","","","","","","","","","","","","","",""
"","time_out","","html-keyboard-response","122","181465","0.0-1.0-161.0-0.0","0","0","72608","","null","","","null","17","","","","","","","","","","","","","","","",""
"","ITI","","html-keyboard-response","123","182468","0.0-1.0-162.0","0","0","72608","","null","","","null","17","","","","","","","","","","","","","","","NaN",""
"","S1","","html-keyboard-response","124","182726","0.0-1.0-164.0","0","0","72608","","null","","","null","18","","","","","","","","","","","","","","","",""
"","ISI","","html-keyboard-response","125","184729","0.0-1.0-165.0","0","0","72608","","503","","","75","18","k","","","","","","","","","","","","","","",""
"","S2","","html-keyboard-response","126","184987","0.0-1.0-166.0","0","0","72608","","null","","","null","18","","NaN","","","","","","","","","","","","","",""
"","response","","html-keyboard-response","127","185068","0.0-1.0-167.0","0","0","72608","","79","","","75","18","","","1","18","training","adjacent","BC","2","3","L.jpg","P.jpg","0","1","0","",""
"","feedback","","html-keyboard-response","128","186074","0.0-1.0-168.0-0.0","0","0","72608","","null","","","null","18","","","","","","","","","","","","","","","",""
"","time_out","","html-keyboard-response","129","188075","0.0-1.0-170.0-0.0","0","0","72608","","null","","","null","18","","","","","","","","","","","","","","","",""
"","ITI","","html-keyboard-response","130","189079","0.0-1.0-171.0","0","0","72608","","294","","","75","18","","","","","","","","","","","","","","","k",""
"","S1","","html-keyboard-response","131","189333","0.0-1.0-173.0","0","0","72608","","null","","","null","19","","","","","","","","","","","","","","","",""
"","ISI","","html-keyboard-response","132","191337","0.0-1.0-174.0","0","0","72608","","158","","","75","19","k","","","","","","","","","","","","","","",""
"","S2","","html-keyboard-response","133","191591","0.0-1.0-175.0","0","0","72608","","null","","","null","19","","NaN","","","","","","","","","","","","","",""
"","response","","html-keyboard-response","134","191679","0.0-1.0-176.0","0","0","72608","","86","","","75","19","","","1","19","training","adjacent","GF","7","6","Q.jpg","O.jpg","0","0","1","",""
"","feedback","","html-keyboard-response","135","192682","0.0-1.0-177.0-0.0","0","0","72608","","null","","","null","19","","","","","","","","","","","","","","","",""
"","ITI","","html-keyboard-response","136","193688","0.0-1.0-180.0","0","0","72608","","57","","","75","19","","","","","","","","","","","","","","","k",""
"","S1","","html-keyboard-response","137","193941","0.0-1.0-182.0","0","0","72608","","null","","","null","20","","","","","","","","","","","","","","","",""
"","ISI","","html-keyboard-response","138","195946","0.0-1.0-183.0","0","0","72608","","233","","","75","20","k","","","","","","","","","","","","","","",""
"","S2","","html-keyboard-response","139","196204","0.0-1.0-184.0","0","0","72608","","null","","","null","20","","NaN","","","","","","","","","","","","","",""
"","response","","html-keyboard-response","140","196250","0.0-1.0-185.0","0","0","72608","","44","","","75","20","","","1","20","training","adjacent","AB","1","2","M.jpg","L.jpg","0","1","0","",""
"","feedback","","html-keyboard-response","141","197258","0.0-1.0-186.0-0.0","0","0","72608","","null","","","null","20","","","","","","","","","","","","","","","",""
"","time_out","","html-keyboard-response","142","199264","0.0-1.0-188.0-0.0","0","0","72608","","null","","","null","20","","","","","","","","","","","","","","","",""
"","ITI","","html-keyboard-response","143","200267","0.0-1.0-189.0","0","0","72608","","648","","","75","20","","","","","","","","","","","","","","","k",""
"","S1","","html-keyboard-response","144","200525","0.0-1.0-191.0","0","0","72608","","null","","","null","21","","","","","","","","","","","","","","","",""
"","ISI","","html-keyboard-response","145","202532","0.0-1.0-192.0","0","0","72608","","46","","","75","21","k","","","","","","","","","","","","","","",""
"","S2","","html-keyboard-response","146","202787","0.0-1.0-193.0","0","0","72608","","222","","","75","21","","k","","","","","","","","","","","","","",""
"","response","","html-keyboard-response","147","203280","0.0-1.0-194.0","0","0","72608","","491","","","75","21","","","1","21","training","adjacent","BA","2","1","L.jpg","M.jpg","0","0","1","",""
"","feedback","","html-keyboard-response","148","204285","0.0-1.0-195.0-0.0","0","0","72608","","null","","","null","21","","","","","","","","","","","","","","","",""
"","ITI","","html-keyboard-response","149","205288","0.0-1.0-198.0","0","0","72608","","145","","","75","21","","","","","","","","","","","","","","","k",""
"","S1","","html-keyboard-response","150","205541","0.0-1.0-200.0","0","0","72608","","null","","","null","22","","","","","","","","","","","","","","","",""
"","ISI","","html-keyboard-response","151","207544","0.0-1.0-201.0","0","0","72608","","7","","","75","22","k","","","","","","","","","","","","","","",""
"","S2","","html-keyboard-response","152","207799","0.0-1.0-202.0","0","0","72608","","null","","","null","22","","NaN","","","","","","","","","","","","","",""
"","response","","html-keyboard-response","153","208290","0.0-1.0-203.0","0","0","72608","","489","","","75","22","","","1","22","training","adjacent","FE","6","5","O.jpg","N.jpg","0","0","1","",""
"","feedback","","html-keyboard-response","154","209292","0.0-1.0-204.0-0.0","0","0","72608","","null","","","null","22","","","","","","","","","","","","","","","",""
"","ITI","","html-keyboard-response","155","210295","0.0-1.0-207.0","0","0","72608","","null","","","null","22","","","","","","","","","","","","","","","NaN",""
"","S1","","html-keyboard-response","156","210552","0.0-1.0-209.0","0","0","72608","","null","","","null","23","","","","","","","","","","","","","","","",""
"","ISI","","html-keyboard-response","157","212556","0.0-1.0-210.0","0","0","72608","","134","","","75","23","k","","","","","","","","","","","","","","",""
"","S2","","html-keyboard-response","158","212809","0.0-1.0-211.0","0","0","72608","","null","","","null","23","","NaN","","","","","","","","","","","","","",""
"","response","","html-keyboard-response","159","212810","0.0-1.0-212.0","0","0","72608","","0","","","75","23","","","1","23","training","adjacent","BC","2","3","L.jpg","P.jpg","0","1","0","",""
"","feedback","","html-keyboard-response","160","213817","0.0-1.0-213.0-0.0","0","0","72608","","null","","","null","23","","","","","","","","","","","","","","","",""
"","time_out","","html-keyboard-response","161","215823","0.0-1.0-215.0-0.0","0","0","72608","","null","","","null","23","","","","","","","","","","","","","","","",""
"","ITI","","html-keyboard-response","162","216829","0.0-1.0-216.0","0","0","72608","","347","","","75","23","","","","","","","","","","","","","","","k",""
"","S1","","html-keyboard-response","163","217087","0.0-1.0-218.0","0","0","72608","","null","","","null","24","","","","","","","","","","","","","","","",""
"","ISI","","html-keyboard-response","164","219092","0.0-1.0-219.0","0","0","72608","","274","","","75","24","k","","","","","","","","","","","","","","",""
"","S2","","html-keyboard-response","165","219345","0.0-1.0-220.0","0","0","72608","","null","","","null","24","","NaN","","","","","","","","","","","","","",""
"","response","","html-keyboard-response","166","219530","0.0-1.0-221.0","0","0","72608","","182","","","75","24","","","1","24","training","adjacent","AB","1","2","M.jpg","L.jpg","0","1","0","",""
"","feedback","","html-keyboard-response","167","220538","0.0-1.0-222.0-0.0","0","0","72608","","null","","","null","24","","","","","","","","","","","","","","","",""
"","time_out","","html-keyboard-response","168","222540","0.0-1.0-224.0-0.0","0","0","72608","","null","","","null","24","","","","","","","","","","","","","","","",""
"","ITI","","html-keyboard-response","169","223546","0.0-1.0-225.0","0","0","72608","","197","","","75","24","","","","","","","","","","","","","","","k",""
"","S1","","html-keyboard-response","170","223803","0.0-1.0-227.0","0","0","72608","","null","","","null","25","","","","","","","","","","","","","","","",""
"","ISI","","html-keyboard-response","171","225810","0.0-1.0-228.0","0","0","72608","","260","","","75","25","k","","","","","","","","","","","","","","",""
"","S2","","html-keyboard-response","172","226067","0.0-1.0-229.0","0","0","72608","","68","","","75","25","","k","","","","","","","","","","","","","",""
"","response","","html-keyboard-response","173","226340","0.0-1.0-230.0","0","0","72608","","272","","","75","25","","","1","25","training","adjacent","ED","5","4","N.jpg","R.jpg","0","0","1","",""
"","feedback","","html-keyboard-response","174","227343","0.0-1.0-231.0-0.0","0","0","72608","","null","","","null","25","","","","","","","","","","","","","","","",""
"","ITI","","html-keyboard-response","175","228350","0.0-1.0-234.0","0","0","72608","","347","","","75","25","","","","","","","","","","","","","","","k",""
"","S1","","html-keyboard-response","176","228604","0.0-1.0-236.0","0","0","72608","","null","","","null","26","","","","","","","","","","","","","","","",""
"","ISI","","html-keyboard-response","177","230610","0.0-1.0-237.0","0","0","72608","","241","","","75","26","k","","","","","","","","","","","","","","",""
"","S2","","html-keyboard-response","178","230867","0.0-1.0-238.0","0","0","72608","","null","","","null","26","","NaN","","","","","","","","","","","","","",""
"","response","","html-keyboard-response","179","231115","0.0-1.0-239.0","0","0","72608","","246","","","75","26","","","1","26","training","adjacent","DC","4","3","R.jpg","P.jpg","0","0","1","",""
"","feedback","","html-keyboard-response","180","232122","0.0-1.0-240.0-0.0","0","0","72608","","null","","","null","26","","","","","","","","","","","","","","","",""
"","ITI","","html-keyboard-response","181","233126","0.0-1.0-243.0","0","0","72608","","462","","","75","26","","","","","","","","","","","","","","","k",""
"","S1","","html-keyboard-response","182","233383","0.0-1.0-245.0","0","0","72608","","null","","","null","27","","","","","","","","","","","","","","","",""
"","ISI","","html-keyboard-response","183","235388","0.0-1.0-246.0","0","0","72608","","381","","","75","27","k","","","","","","","","","","","","","","",""
"","S2","","html-keyboard-response","184","235646","0.0-1.0-247.0","0","0","72608","","null","","","null","27","","NaN","","","","","","","","","","","","","",""
"","response","","html-keyboard-response","185","236122","0.0-1.0-248.0","0","0","72608","","474","","","75","27","","","1","27","training","adjacent","EF","5","6","N.jpg","O.jpg","0","1","0","",""
"","feedback","","html-keyboard-response","186","237129","0.0-1.0-249.0-0.0","0","0","72608","","null","","","null","27","","","","","","","","","","","","","","","",""
"","time_out","","html-keyboard-response","187","239132","0.0-1.0-251.0-0.0","0","0","72608","","null","","","null","27","","","","","","","","","","","","","","","",""
"","ITI","","html-keyboard-response","188","240139","0.0-1.0-252.0","0","0","72608","","null","","","null","27","","","","","","","","","","","","","","","NaN",""
"","S1","","html-keyboard-response","189","240396","0.0-1.0-254.0","0","0","72608","","null","","","null","28","","","","","","","","","","","","","","","",""
"","ISI","","html-keyboard-response","190","242401","0.0-1.0-255.0","0","0","72608","","666","","","75","28","k","","","","","","","","","","","","","","",""
"","S2","","html-keyboard-response","191","242654","0.0-1.0-256.0","0","0","72608","","null","","","null","28","","NaN","","","","","","","","","","","","","",""
"","response","","html-keyboard-response","192","242854","0.0-1.0-257.0","0","0","72608","","198","","","75","28","","","1","28","training","adjacent","DC","4","3","R.jpg","P.jpg","0","0","1","",""
"","feedback","","html-keyboard-response","193","243862","0.0-1.0-258.0-0.0","0","0","72608","","null","","","null","28","","","","","","","","","","","","","","","",""
"","ITI","","html-keyboard-response","194","244867","0.0-1.0-261.0","0","0","72608","","30","","","75","28","","","","","","","","","","","","","","","k",""
"","S1","","html-keyboard-response","195","245122","0.0-1.0-263.0","0","0","72608","","null","","","null","29","","","","","","","","","","","","","","","",""
"","ISI","","html-keyboard-response","196","247124","0.0-1.0-264.0","0","0","72608","","100","","","75","29","k","","","","","","","","","","","","","","",""
"","S2","","html-keyboard-response","197","247381","0.0-1.0-265.0","0","0","72608","","131","","","75","29","","k","","","","","","","","","","","","","",""
"","response","","html-keyboard-response","198","247784","0.0-1.0-266.0","0","0","72608","","401","","","75","29","","","1","29","training","adjacent","FE","6","5","O.jpg","N.jpg","0","0","1","",""
"","feedback","","html-keyboard-response","199","248787","0.0-1.0-267.0-0.0","0","0","72608","","null","","","null","29","","","","","","","","","","","","","","","",""
"","ITI","","html-keyboard-response","200","249792","0.0-1.0-270.0","0","0","72608","","303","","","75","29","","","","","","","","","","","","","","","k",""
"","S1","","html-keyboard-response","201","250048","0.0-1.0-272.0","0","0","72608","","null","","","null","30","","","","","","","","","","","","","","","",""
"","ISI","","html-keyboard-response","202","252055","0.0-1.0-273.0","0","0","72608","","697","","","75","30","k","","","","","","","","","","","","","","",""
"","S2","","html-keyboard-response","203","252311","0.0-1.0-274.0","0","0","72608","","136","","","75","30","","k","","","","","","","","","","","","","",""
"","response","","html-keyboard-response","204","252616","0.0-1.0-275.0","0","0","72608","","303","","","75","30","","","1","30","training","adjacent","FG","6","7","O.jpg","Q.jpg","0","1","0","",""
"","feedback","","html-keyboard-response","205","253623","0.0-1.0-276.0-0.0","0","0","72608","","null","","","null","30","","","","","","","","","","","","","","","",""
"","time_out","","html-keyboard-response","206","255628","0.0-1.0-278.0-0.0","0","0","72608","","null","","","null","30","","","","","","","","","","","","","","","",""
"","ITI","","html-keyboard-response","207","256634","0.0-1.0-279.0","0","0","72608","","476","","","75","30","","","","","","","","","","","","","","","k",""
"","S1","","html-keyboard-response","208","256888","0.0-1.0-281.0","0","0","72608","","null","","","null","31","","","","","","","","","","","","","","","",""
"","ISI","","html-keyboard-response","209","258890","0.0-1.0-282.0","0","0","72608","","369","","","75","31","k","","","","","","","","","","","","","","",""
"","S2","","html-keyboard-response","210","259147","0.0-1.0-283.0","0","0","72608","","null","","","null","31","","NaN","","","","","","","","","","","","","",""
"","response","","html-keyboard-response","211","259458","0.0-1.0-284.0","0","0","72608","","310","","","68","31","","","1","31","training","adjacent","EF","5","6","N.jpg","O.jpg","1","1","1","",""
"","feedback","","html-keyboard-response","212","260466","0.0-1.0-285.0-0.0","0","0","72608","","null","","","null","31","","","","","","","","","","","","","","","",""
"","ITI","","html-keyboard-response","213","261473","0.0-1.0-288.0","0","0","72608","","92","","","68","31","","","","","","","","","","","","","","","d",""
"","S1","","html-keyboard-response","214","261725","0.0-1.0-290.0","0","0","72608","","null","","","null","32","","","","","","","","","","","","","","","",""
"","ISI","","html-keyboard-response","215","263733","0.0-1.0-291.0","0","0","72608","","1221","","","68","32","d","","","","","","","","","","","","","","",""
"","S2","","html-keyboard-response","216","263987","0.0-1.0-292.0","0","0","72608","","null","","","null","32","","NaN","","","","","","","","","","","","","",""
"","response","","html-keyboard-response","217","264039","0.0-1.0-293.0","0","0","72608","","49","","","68","32","","","1","32","training","adjacent","BC","2","3","L.jpg","P.jpg","1","1","1","",""
"","feedback","","html-keyboard-response","218","265046","0.0-1.0-294.0-0.0","0","0","72608","","null","","","null","32","","","","","","","","","","","","","","","",""
"","ITI","","html-keyboard-response","219","266051","0.0-1.0-297.0","0","0","72608","","55","","","68","32","","","","","","","","","","","","","","","d",""
"","S1","","html-keyboard-response","220","266309","0.0-1.0-299.0","0","0","72608","","null","","","null","33","","","","","","","","","","","","","","","",""
"","ISI","","html-keyboard-response","221","268314","0.0-1.0-300.0","0","0","72608","","390","","","68","33","d","","","","","","","","","","","","","","",""
"","S2","","html-keyboard-response","222","268567","0.0-1.0-301.0","0","0","72608","","218","","","68","33","","d","","","","","","","","","","","","","",""
"","response","","html-keyboard-response","223","268964","0.0-1.0-302.0","0","0","72608","","395","","","68","33","","","1","33","training","adjacent","EF","5","6","N.jpg","O.jpg","1","1","1","",""
"","feedback","","html-keyboard-response","224","269969","0.0-1.0-303.0-0.0","0","0","72608","","null","","","null","33","","","","","","","","","","","","","","","",""
"","ITI","","html-keyboard-response","225","270974","0.0-1.0-306.0","0","0","72608","","372","","","68","33","","","","","","","","","","","","","","","d",""
"","S1","","html-keyboard-response","226","271227","0.0-1.0-308.0","0","0","72608","","null","","","null","34","","","","","","","","","","","","","","","",""
"","ISI","","html-keyboard-response","227","273235","0.0-1.0-309.0","0","0","72608","","171","","","68","34","d","","","","","","","","","","","","","","",""
"","S2","","html-keyboard-response","228","273490","0.0-1.0-310.0","0","0","72608","","null","","","null","34","","NaN","","","","","","","","","","","","","",""
"","response","","html-keyboard-response","229","273597","0.0-1.0-311.0","0","0","72608","","104","","","68","34","","","1","34","training","adjacent","CD","3","4","P.jpg","R.jpg","1","1","1","",""
"","feedback","","html-keyboard-response","230","274600","0.0-1.0-312.0-0.0","0","0","72608","","null","","","null","34","","","","","","","","","","","","","","","",""
"","ITI","","html-keyboard-response","231","275603","0.0-1.0-315.0","0","0","72608","","239","","","68","34","","","","","","","","","","","","","","","d",""
"","S1","","html-keyboard-response","232","275858","0.0-1.0-317.0","0","0","72608","","null","","","null","35","","","","","","","","","","","","","","","",""
"","ISI","","html-keyboard-response","233","277866","0.0-1.0-318.0","0","0","72608","","63","","","68","35","d","","","","","","","","","","","","","","",""
"","S2","","html-keyboard-response","234","278121","0.0-1.0-319.0","0","0","72608","","null","","","null","35","","NaN","","","","","","","","","","","","","",""
"","response","","html-keyboard-response","235","278723","0.0-1.0-320.0","0","0","72608","","599","","","68","35","","","1","35","training","adjacent","AB","1","2","M.jpg","L.jpg","1","1","1","",""
"","feedback","","html-keyboard-response","236","279729","0.0-1.0-321.0-0.0","0","0","72608","","null","","","null","35","","","","","","","","","","","","","","","",""
"","ITI","","html-keyboard-response","237","280735","0.0-1.0-324.0","0","0","72608","","376","","","68","35","","","","","","","","","","","","","","","d",""
"","S1","","html-keyboard-response","238","280989","0.0-1.0-326.0","0","0","72608","","null","","","null","36","","","","","","","","","","","","","","","",""
"","ISI","","html-keyboard-response","239","282994","0.0-1.0-327.0","0","0","72608","","3","","","68","36","d","","","","","","","","","","","","","","",""
"","S2","","html-keyboard-response","240","283250","0.0-1.0-328.0","0","0","72608","","null","","","null","36","","NaN","","","","","","","","","","","","","",""
"","response","","html-keyboard-response","241","283997","0.0-1.0-329.0","0","0","72608","","745","","","68","36","","","1","36","training","adjacent","GF","7","6","Q.jpg","O.jpg","1","0","0","",""
"","feedback","","html-keyboard-response","242","285002","0.0-1.0-330.0-0.0","0","0","72608","","null","","","null","36","","","","","","","","","","","","","","","",""
"","time_out","","html-keyboard-response","243","287007","0.0-1.0-332.0-0.0","0","0","72608","","null","","","null","36","","","","","","","","","","","","","","","",""
"","ITI","","html-keyboard-response","244","288009","0.0-1.0-333.0","0","0","72608","","67","","","68","36","","","","","","","","","","","","","","","d",""
"","S1","","html-keyboard-response","245","288267","0.0-1.0-335.0","0","0","72608","","null","","","null","37","","","","","","","","","","","","","","","",""
"","ISI","","html-keyboard-response","246","290270","0.0-1.0-336.0","0","0","72608","","233","","","68","37","d","","","","","","","","","","","","","","",""
"","S2","","html-keyboard-response","247","290527","0.0-1.0-337.0","0","0","72608","","null","","","null","37","","NaN","","","","","","","","","","","","","",""
"","response","","html-keyboard-response","248","290546","0.0-1.0-338.0","0","0","72608","","17","","","68","37","","","1","37","training","adjacent","CB","3","2","P.jpg","L.jpg","1","0","0","",""
"","feedback","","html-keyboard-response","249","291551","0.0-1.0-339.0-0.0","0","0","72608","","null","","","null","37","","","","","","","","","","","","","","","",""
"","time_out","","html-keyboard-response","250","293556","0.0-1.0-341.0-0.0","0","0","72608","","null","","","null","37","","","","","","","","","","","","","","","",""
"","ITI","","html-keyboard-response","251","294560","0.0-1.0-342.0","0","0","72608","","62","","","68","37","","","","","","","","","","","","","","","d",""
"","S1","","html-keyboard-response","252","294813","0.0-1.0-344.0","0","0","72608","","null","","","null","38","","","","","","","","","","","","","","","",""
"","ISI","","html-keyboard-response","253","296816","0.0-1.0-345.0","0","0","72608","","947","","","68","38","d","","","","","","","","","","","","","","",""
"","S2","","html-keyboard-response","254","297072","0.0-1.0-346.0","0","0","72608","","null","","","null","38","","NaN","","","","","","","","","","","","","",""
"","response","","html-keyboard-response","255","297077","0.0-1.0-347.0","0","0","72608","","1","","","68","38","","","1","38","training","adjacent","CD","3","4","P.jpg","R.jpg","1","1","1","",""
"","feedback","","html-keyboard-response","256","298084","0.0-1.0-348.0-0.0","0","0","72608","","null","","","null","38","","","","","","","","","","","","","","","",""
"","ITI","","html-keyboard-response","257","299087","0.0-1.0-351.0","0","0","72608","","608","","","68","38","","","","","","","","","","","","","","","d",""
"","S1","","html-keyboard-response","258","299345","0.0-1.0-353.0","0","0","72608","","null","","","null","39","","","","","","","","","","","","","","","",""
"","ISI","","html-keyboard-response","259","301349","0.0-1.0-354.0","0","0","72608","","318","","","68","39","d","","","","","","","","","","","","","","",""
"","S2","","html-keyboard-response","260","301607","0.0-1.0-355.0","0","0","72608","","22","","","68","39","","d","","","","","","","","","","","","","",""
"","response","","html-keyboard-response","261","301786","0.0-1.0-356.0","0","0","72608","","176","","","68","39","","","1","39","training","adjacent","ED","5","4","N.jpg","R.jpg","1","0","0","",""
"","feedback","","html-keyboard-response","262","302792","0.0-1.0-357.0-0.0","0","0","72608","","null","","","null","39","","","","","","","","","","","","","","","",""
"","time_out","","html-keyboard-response","263","304798","0.0-1.0-359.0-0.0","0","0","72608","","null","","","null","39","","","","","","","","","","","","","","","",""
"","ITI","","html-keyboard-response","264","305806","0.0-1.0-360.0","0","0","72608","","4","","","68","39","","","","","","","","","","","","","","","d",""
"","block_over","","html-keyboard-response","265","335608","0.0-1.0-361.0-0.0","0","0","72608","","29800","","","32","39","","","","","","","","","","","","","","","",""
"","S1","","html-keyboard-response","266","335866","0.0-1.0-362.0","0","0","72608","","null","","","null","40","","","","","","","","","","","","","","","",""
"","ISI","","html-keyboard-response","267","337873","0.0-1.0-363.0","0","0","72608","","258","","","70","40","f","","","","","","","","","","","","","","",""
"","S2","","html-keyboard-response","268","338127","0.0-1.0-364.0","0","0","72608","","245","","","68","40","","d","","","","","","","","","","","","","",""
"","response","","html-keyboard-response","269","338558","0.0-1.0-365.0","0","0","72608","","428","","","68","40","","","2","40","training","adjacent","BA","2","1","L.jpg","M.jpg","1","0","0","",""
"","feedback","","html-keyboard-response","270","339564","0.0-1.0-366.0-0.0","0","0","72608","","null","","","null","40","","","","","","","","","","","","","","","",""
"","time_out","","html-keyboard-response","271","341572","0.0-1.0-368.0-0.0","0","0","72608","","null","","","null","40","","","","","","","","","","","","","","","",""
"","ITI","","html-keyboard-response","272","342577","0.0-1.0-369.0","0","0","72608","","40","","","68","40","","","","","","","","","","","","","","","d",""
"","S1","","html-keyboard-response","273","342832","0.0-1.0-371.0","0","0","72608","","null","","","null","41","","","","","","","","","","","","","","","",""
"","ISI","","html-keyboard-response","274","344836","0.0-1.0-372.0","0","0","72608","","276","","","68","41","d","","","","","","","","","","","","","","",""
"","S2","","html-keyboard-response","275","345094","0.0-1.0-373.0","0","0","72608","","null","","","null","41","","NaN","","","","","","","","","","","","","",""
"","response","","html-keyboard-response","276","345512","0.0-1.0-374.0","0","0","72608","","417","","","68","41","","","2","41","training","adjacent","FE","6","5","O.jpg","N.jpg","1","0","0","",""
"","feedback","","html-keyboard-response","277","346516","0.0-1.0-375.0-0.0","0","0","72608","","null","","","null","41","","","","","","","","","","","","","","","",""
"","time_out","","html-keyboard-response","278","348523","0.0-1.0-377.0-0.0","0","0","72608","","null","","","null","41","","","","","","","","","","","","","","","",""
"","ITI","","html-keyboard-response","279","349527","0.0-1.0-378.0","0","0","72608","","40","","","68","41","","","","","","","","","","","","","","","d",""
"","S1","","html-keyboard-response","280","349785","0.0-1.0-380.0","0","0","72608","","null","","","null","42","","","","","","","","","","","","","","","",""
"","ISI","","html-keyboard-response","281","351793","0.0-1.0-381.0","0","0","72608","","723","","","68","42","d","","","","","","","","","","","","","","",""
"","S2","","html-keyboard-response","282","352051","0.0-1.0-382.0","0","0","72608","","53","","","68","42","","d","","","","","","","","","","","","","",""
"","response","","html-keyboard-response","283","352181","0.0-1.0-383.0","0","0","72608","","128","","","68","42","","","2","42","training","adjacent","FE","6","5","O.jpg","N.jpg","1","0","0","",""
"","feedback","","html-keyboard-response","284","353189","0.0-1.0-384.0-0.0","0","0","72608","","null","","","null","42","","","","","","","","","","","","","","","",""
"","time_out","","html-keyboard-response","285","355195","0.0-1.0-386.0-0.0","0","0","72608","","null","","","null","42","","","","","","","","","","","","","","","",""
"","ITI","","html-keyboard-response","286","356201","0.0-1.0-387.0","0","0","72608","","264","","","68","42","","","","","","","","","","","","","","","d",""
"","S1","","html-keyboard-response","287","356454","0.0-1.0-389.0","0","0","72608","","null","","","null","43","","","","","","","","","","","","","","","",""
"","ISI","","html-keyboard-response","288","358461","0.0-1.0-390.0","0","0","72608","","492","","","68","43","d","","","","","","","","","","","","","","",""
"","S2","","html-keyboard-response","289","358716","0.0-1.0-391.0","0","0","72608","","null","","","null","43","","NaN","","","","","","","","","","","","","",""
"","response","","html-keyboard-response","290","358732","0.0-1.0-392.0","0","0","72608","","13","","","68","43","","","2","43","training","adjacent","AB","1","2","M.jpg","L.jpg","1","1","1","",""
"","feedback","","html-keyboard-response","291","359736","0.0-1.0-393.0-0.0","0","0","72608","","null","","","null","43","","","","","","","","","","","","","","","",""
"","ITI","","html-keyboard-response","292","360743","0.0-1.0-396.0","0","0","72608","","465","","","68","43","","","","","","","","","","","","","","","d",""
"","S1","","html-keyboard-response","293","360999","0.0-1.0-398.0","0","0","72608","","null","","","null","44","","","","","","","","","","","","","","","",""
"","ISI","","html-keyboard-response","294","363004","0.0-1.0-399.0","0","0","72608","","330","","","68","44","d","","","","","","","","","","","","","","",""
"","S2","","html-keyboard-response","295","363261","0.0-1.0-400.0","0","0","72608","","null","","","null","44","","NaN","","","","","","","","","","","","","",""
"","response","","html-keyboard-response","296","363792","0.0-1.0-401.0","0","0","72608","","529","","","68","44","","","2","44","training","adjacent","ED","5","4","N.jpg","R.jpg","1","0","0","",""
"","feedback","","html-keyboard-response","297","364798","0.0-1.0-402.0-0.0","0","0","72608","","null","","","null","44","","","","","","","","","","","","","","","",""
"","time_out","","html-keyboard-response","298","366802","0.0-1.0-404.0-0.0","0","0","72608","","null","","","null","44","","","","","","","","","","","","","","","",""
"","ITI","","html-keyboard-response","299","367807","0.0-1.0-405.0","0","0","72608","","null","","","null","44","","","","","","","","","","","","","","","NaN",""
"","S1","","html-keyboard-response","300","368065","0.0-1.0-407.0","0","0","72608","","null","","","null","45","","","","","","","","","","","","","","","",""
"","ISI","","html-keyboard-response","301","370067","0.0-1.0-408.0","0","0","72608","","566","","","68","45","d","","","","","","","","","","","","","","",""
"","S2","","html-keyboard-response","302","370324","0.0-1.0-409.0","0","0","72608","","76","","","68","45","","d","","","","","","","","","","","","","",""
"","response","","html-keyboard-response","303","371135","0.0-1.0-410.0","0","0","72608","","810","","","68","45","","","2","45","training","adjacent","DC","4","3","R.jpg","P.jpg","1","0","0","",""
"","feedback","","html-keyboard-response","304","372143","0.0-1.0-411.0-0.0","0","0","72608","","null","","","null","45","","","","","","","","","","","","","","","",""
"","time_out","","html-keyboard-response","305","374147","0.0-1.0-413.0-0.0","0","0","72608","","null","","","null","45","","","","","","","","","","","","","","","",""
"","ITI","","html-keyboard-response","306","375152","0.0-1.0-414.0","0","0","72608","","668","","","68","45","","","","","","","","","","","","","","","d",""
"","S1","","html-keyboard-response","307","375409","0.0-1.0-416.0","0","0","72608","","null","","","null","46","","","","","","","","","","","","","","","",""
"","ISI","","html-keyboard-response","308","377412","0.0-1.0-417.0","0","0","72608","","225","","","68","46","d","","","","","","","","","","","","","","",""
"","S2","","html-keyboard-response","309","377665","0.0-1.0-418.0","0","0","72608","","null","","","null","46","","NaN","","","","","","","","","","","","","",""
"","response","","html-keyboard-response","310","377719","0.0-1.0-419.0","0","0","72608","","52","","","68","46","","","2","46","training","adjacent","BC","2","3","L.jpg","P.jpg","1","1","1","",""
"","feedback","","html-keyboard-response","311","378725","0.0-1.0-420.0-0.0","0","0","72608","","null","","","null","46","","","","","","","","","","","","","","","",""
"","ITI","","html-keyboard-response","312","379731","0.0-1.0-423.0","0","0","72608","","476","","","68","46","","","","","","","","","","","","","","","d",""
"","S1","","html-keyboard-response","313","379986","0.0-1.0-425.0","0","0","72608","","null","","","null","47","","","","","","","","","","","","","","","",""
"","ISI","","html-keyboard-response","314","381989","0.0-1.0-426.0","0","0","72608","","1148","","","68","47","d","","","","","","","","","","","","","","",""
"","S2","","html-keyboard-response","315","382242","0.0-1.0-427.0","0","0","72608","","null","","","null","47","","NaN","","","","","","","","","","","","","",""
"","response","","html-keyboard-response","316","383169","0.0-1.0-428.0","0","0","72608","","925","","","68","47","","","2","47","training","adjacent","CD","3","4","P.jpg","R.jpg","1","1","1","",""
"","feedback","","html-keyboard-response","317","384174","0.0-1.0-429.0-0.0","0","0","72608","","null","","","null","47","","","","","","","","","","","","","","","",""
"","ITI","","html-keyboard-response","318","385181","0.0-1.0-432.0","0","0","72608","","null","","","null","47","","","","","","","","","","","","","","","NaN",""
"","S1","","html-keyboard-response","319","385434","0.0-1.0-434.0","0","0","72608","","null","","","null","48","","","","","","","","","","","","","","","",""
"","ISI","","html-keyboard-response","320","387441","0.0-1.0-435.0","0","0","72608","","578","","","68","48","d","","","","","","","","","","","","","","",""
"","S2","","html-keyboard-response","321","387696","0.0-1.0-436.0","0","0","72608","","120","","","68","48","","d","","","","","","","","","","","","","",""
"","response","","html-keyboard-response","322","387997","0.0-1.0-437.0","0","0","72608","","293","","","68","48","","","2","48","training","adjacent","ED","5","4","N.jpg","R.jpg","1","0","0","",""
"","feedback","","html-keyboard-response","323","389005","0.0-1.0-438.0-0.0","0","0","72608","","null","","","null","48","","","","","","","","","","","","","","","",""
"","time_out","","html-keyboard-response","324","391008","0.0-1.0-440.0-0.0","0","0","72608","","null","","","null","48","","","","","","","","","","","","","","","",""
"","ITI","","html-keyboard-response","325","392014","0.0-1.0-441.0","0","0","72608","","422","","","68","48","","","","","","","","","","","","","","","d",""
"","S1","","html-keyboard-response","326","392271","0.0-1.0-443.0","0","0","72608","","null","","","null","49","","","","","","","","","","","","","","","",""
"","ISI","","html-keyboard-response","327","394275","0.0-1.0-444.0","0","0","72608","","524","","","68","49","d","","","","","","","","","","","","","","",""
"","S2","","html-keyboard-response","328","394531","0.0-1.0-445.0","0","0","72608","","null","","","null","49","","NaN","","","","","","","","","","","","","",""
"","response","","html-keyboard-response","329","395049","0.0-1.0-446.0","0","0","72608","","517","","","68","49","","","2","49","training","adjacent","DE","4","5","R.jpg","N.jpg","1","1","1","",""
"","feedback","","html-keyboard-response","330","396054","0.0-1.0-447.0-0.0","0","0","72608","","null","","","null","49","","","","","","","","","","","","","","","",""
"","ITI","","html-keyboard-response","331","397057","0.0-1.0-450.0","0","0","72608","","359","","","68","49","","","","","","","","","","","","","","","d",""
"","S1","","html-keyboard-response","332","397316","0.0-1.0-452.0","0","0","72608","","null","","","null","50","","","","","","","","","","","","","","","",""
"","ISI","","html-keyboard-response","333","399323","0.0-1.0-453.0","0","0","72608","","1227","","","68","50","d","","","","","","","","","","","","","","",""
"","S2","","html-keyboard-response","334","399577","0.0-1.0-454.0","0","0","72608","","89","","","68","50","","d","","","","","","","","","","","","","",""
"","response","","html-keyboard-response","335","400119","0.0-1.0-455.0","0","0","72608","","540","","","68","50","","","2","50","training","adjacent","FE","6","5","O.jpg","N.jpg","1","0","0","",""
"","feedback","","html-keyboard-response","336","401124","0.0-1.0-456.0-0.0","0","0","72608","","null","","","null","50","","","","","","","","","","","","","","","",""
"","time_out","","html-keyboard-response","337","403129","0.0-1.0-458.0-0.0","0","0","72608","","null","","","null","50","","","","","","","","","","","","","","","",""
"","ITI","","html-keyboard-response","338","404132","0.0-1.0-459.0","0","0","72608","","141","","","68","50","","","","","","","","","","","","","","","d",""
"","S1","","html-keyboard-response","339","404386","0.0-1.0-461.0","0","0","72608","","null","","","null","51","","","","","","","","","","","","","","","",""
"","ISI","","html-keyboard-response","340","406392","0.0-1.0-462.0","0","0","72608","","207","","","68","51","d","","","","","","","","","","","","","","",""
"","S2","","html-keyboard-response","341","406644","0.0-1.0-463.0","0","0","72608","","null","","","null","51","","NaN","","","","","","","","","","","","","",""
"","response","","html-keyboard-response","342","406944","0.0-1.0-464.0","0","0","72608","","297","","","68","51","","","2","51","training","adjacent","ED","5","4","N.jpg","R.jpg","1","0","0","",""
"","feedback","","html-keyboard-response","343","407949","0.0-1.0-465.0-0.0","0","0","72608","","null","","","null","51","","","","","","","","","","","","","","","",""
"","time_out","","html-keyboard-response","344","409956","0.0-1.0-467.0-0.0","0","0","72608","","null","","","null","51","","","","","","","","","","","","","","","",""
"","ITI","","html-keyboard-response","345","410963","0.0-1.0-468.0","0","0","72608","","524","","","68","51","","","","","","","","","","","","","","","d",""
"","S1","","html-keyboard-response","346","411217","0.0-1.0-470.0","0","0","72608","","null","","","null","52","","","","","","","","","","","","","","","",""
"","ISI","","html-keyboard-response","347","413224","0.0-1.0-471.0","0","0","72608","","454","","","68","52","d","","","","","","","","","","","","","","",""
"","S2","","html-keyboard-response","348","413478","0.0-1.0-472.0","0","0","72608","","null","","","null","52","","NaN","","","","","","","","","","","","","",""
"","response","","html-keyboard-response","349","414046","0.0-1.0-473.0","0","0","72608","","566","","","68","52","","","2","52","training","adjacent","AB","1","2","M.jpg","L.jpg","1","1","1","",""
"","feedback","","html-keyboard-response","350","415051","0.0-1.0-474.0-0.0","0","0","72608","","null","","","null","52","","","","","","","","","","","","","","","",""
"","ITI","","html-keyboard-response","351","416058","0.0-1.0-477.0","0","0","72608","","337","","","68","52","","","","","","","","","","","","","","","d",""
"","S1","","html-keyboard-response","352","416314","0.0-1.0-479.0","0","0","72608","","null","","","null","53","","","","","","","","","","","","","","","",""
"","ISI","","html-keyboard-response","353","418319","0.0-1.0-480.0","0","0","72608","","411","","","68","53","d","","","","","","","","","","","","","","",""
"","S2","","html-keyboard-response","354","418573","0.0-1.0-481.0","0","0","72608","","null","","","null","53","","NaN","","","","","","","","","","","","","",""
"","response","","html-keyboard-response","355","419653","0.0-1.0-482.0","0","0","72608","","1077","","","68","53","","","2","53","training","adjacent","EF","5","6","N.jpg","O.jpg","1","1","1","",""
"","feedback","","html-keyboard-response","356","420658","0.0-1.0-483.0-0.0","0","0","72608","","null","","","null","53","","","","","","","","","","","","","","","",""
"","ITI","","html-keyboard-response","357","421664","0.0-1.0-486.0","0","0","72608","","null","","","null","53","","","","","","","","","","","","","","","NaN",""
"","S1","","html-keyboard-response","358","421921","0.0-1.0-488.0","0","0","72608","","null","","","null","54","","","","","","","","","","","","","","","",""
"","ISI","","html-keyboard-response","359","423928","0.0-1.0-489.0","0","0","72608","","245","","","68","54","d","","","","","","","","","","","","","","",""
"","S2","","html-keyboard-response","360","424186","0.0-1.0-490.0","0","0","72608","","null","","","null","54","","NaN","","","","","","","","","","","","","",""
"","response","","html-keyboard-response","361","424333","0.0-1.0-491.0","0","0","72608","","145","","","68","54","","","2","54","training","adjacent","ED","5","4","N.jpg","R.jpg","1","0","0","",""
"","feedback","","html-keyboard-response","362","425337","0.0-1.0-492.0-0.0","0","0","72608","","null","","","null","54","","","","","","","","","","","","","","","",""
"","time_out","","html-keyboard-response","363","427343","0.0-1.0-494.0-0.0","0","0","72608","","null","","","null","54","","","","","","","","","","","","","","","",""
"","ITI","","html-keyboard-response","364","428351","0.0-1.0-495.0","0","0","72608","","186","","","68","54","","","","","","","","","","","","","","","d",""
"","S1","","html-keyboard-response","365","428607","0.0-1.0-497.0","0","0","72608","","null","","","null","55","","","","","","","","","","","","","","","",""
"","ISI","","html-keyboard-response","366","430614","0.0-1.0-498.0","0","0","72608","","301","","","68","55","d","","","","","","","","","","","","","","",""
"","S2","","html-keyboard-response","367","430873","0.0-1.0-499.0","0","0","72608","","null","","","null","55","","NaN","","","","","","","","","","","","","",""
"","response","","html-keyboard-response","368","431124","0.0-1.0-500.0","0","0","72608","","249","","","68","55","","","2","55","training","adjacent","BA","2","1","L.jpg","M.jpg","1","0","0","",""
"","feedback","","html-keyboard-response","369","432129","0.0-1.0-501.0-0.0","0","0","72608","","null","","","null","55","","","","","","","","","","","","","","","",""
"","time_out","","html-keyboard-response","370","434135","0.0-1.0-503.0-0.0","0","0","72608","","null","","","null","55","","","","","","","","","","","","","","","",""
"","ITI","","html-keyboard-response","371","435140","0.0-1.0-504.0","0","0","72608","","694","","","68","55","","","","","","","","","","","","","","","d",""
"","S1","","html-keyboard-response","372","435398","0.0-1.0-506.0","0","0","72608","","null","","","null","56","","","","","","","","","","","","","","","",""
"","ISI","","html-keyboard-response","373","437406","0.0-1.0-507.0","0","0","72608","","237","","","68","56","d","","","","","","","","","","","","","","",""
"","S2","","html-keyboard-response","374","437661","0.0-1.0-508.0","0","0","72608","","140","","","68","56","","d","","","","","","","","","","","","","",""
"","response","","html-keyboard-response","375","438223","0.0-1.0-509.0","0","0","72608","","553","","","68","56","","","2","56","training","adjacent","GF","7","6","Q.jpg","O.jpg","1","0","0","",""
"","feedback","","html-keyboard-response","376","439227","0.0-1.0-510.0-0.0","0","0","72608","","null","","","null","56","","","","","","","","","","","","","","","",""
"","time_out","","html-keyboard-response","377","441232","0.0-1.0-512.0-0.0","0","0","72608","","null","","","null","56","","","","","","","","","","","","","","","",""
"","ITI","","html-keyboard-response","378","442236","0.0-1.0-513.0","0","0","72608","","420","","","68","56","","","","","","","","","","","","","","","d",""
"","S1","","html-keyboard-response","379","442494","0.0-1.0-515.0","0","0","72608","","null","","","null","57","","","","","","","","","","","","","","","",""
"","ISI","","html-keyboard-response","380","444498","0.0-1.0-516.0","0","0","72608","","971","","","68","57","d","","","","","","","","","","","","","","",""
"","S2","","html-keyboard-response","381","444756","0.0-1.0-517.0","0","0","72608","","220","","","68","57","","d","","","","","","","","","","","","","",""
"","response","","html-keyboard-response","382","445081","0.0-1.0-518.0","0","0","72608","","322","","","68","57","","","2","57","training","adjacent","DC","4","3","R.jpg","P.jpg","1","0","0","",""
"","feedback","","html-keyboard-response","383","446086","0.0-1.0-519.0-0.0","0","0","72608","","null","","","null","57","","","","","","","","","","","","","","","",""
"","time_out","","html-keyboard-response","384","448091","0.0-1.0-521.0-0.0","0","0","72608","","null","","","null","57","","","","","","","","","","","","","","","",""
"","ITI","","html-keyboard-response","385","449095","0.0-1.0-522.0","0","0","72608","","297","","","68","57","","","","","","","","","","","","","","","d",""
"","S1","","html-keyboard-response","386","449351","0.0-1.0-524.0","0","0","72608","","null","","","null","58","","","","","","","","","","","","","","","",""
"","ISI","","html-keyboard-response","387","451355","0.0-1.0-525.0","0","0","72608","","246","","","68","58","d","","","","","","","","","","","","","","",""
"","S2","","html-keyboard-response","388","451610","0.0-1.0-526.0","0","0","72608","","null","","","null","58","","NaN","","","","","","","","","","","","","",""
"","response","","html-keyboard-response","389","451659","0.0-1.0-527.0","0","0","72608","","46","","","68","58","","","2","58","training","adjacent","DE","4","5","R.jpg","N.jpg","1","1","1","",""
"","feedback","","html-keyboard-response","390","452665","0.0-1.0-528.0-0.0","0","0","72608","","null","","","null","58","","","","","","","","","","","","","","","",""
"","ITI","","html-keyboard-response","391","453673","0.0-1.0-531.0","0","0","72608","","644","","","68","58","","","","","","","","","","","","","","","d",""
"","S1","","html-keyboard-response","392","453929","0.0-1.0-533.0","0","0","72608","","null","","","null","59","","","","","","","","","","","","","","","",""
"","ISI","","html-keyboard-response","393","455935","0.0-1.0-534.0","0","0","72608","","306","","","68","59","d","","","","","","","","","","","","","","",""
"","S2","","html-keyboard-response","394","456194","0.0-1.0-535.0","0","0","72608","","199","","","68","59","","d","","","","","","","","","","","","","",""
"","response","","html-keyboard-response","395","456937","0.0-1.0-536.0","0","0","72608","","742","","","68","59","","","2","59","training","adjacent","BA","2","1","L.jpg","M.jpg","1","0","0","",""
"","feedback","","html-keyboard-response","396","457943","0.0-1.0-537.0-0.0","0","0","72608","","null","","","null","59","","","","","","","","","","","","","","","",""
"","time_out","","html-keyboard-response","397","459951","0.0-1.0-539.0-0.0","0","0","72608","","null","","","null","59","","","","","","","","","","","","","","","",""
"","ITI","","html-keyboard-response","398","460954","0.0-1.0-540.0","0","0","72608","","151","","","68","59","","","","","","","","","","","","","","","d",""
"","S1","","html-keyboard-response","399","461212","0.0-1.0-542.0","0","0","72608","","null","","","null","60","","","","","","","","","","","","","","","",""
"","ISI","","html-keyboard-response","400","463215","0.0-1.0-543.0","0","0","72608","","119","","","68","60","d","","","","","","","","","","","","","","",""
"","S2","","html-keyboard-response","401","463471","0.0-1.0-544.0","0","0","72608","","2","","","68","60","","d","","","","","","","","","","","","","",""
"","response","","html-keyboard-response","402","463806","0.0-1.0-545.0","0","0","72608","","332","","","68","60","","","2","60","training","adjacent","BC","2","3","L.jpg","P.jpg","1","1","1","",""
"","feedback","","html-keyboard-response","403","464812","0.0-1.0-546.0-0.0","0","0","72608","","null","","","null","60","","","","","","","","","","","","","","","",""
"","ITI","","html-keyboard-response","404","465817","0.0-1.0-549.0","0","0","72608","","194","","","68","60","","","","","","","","","","","","","","","d",""
"","S1","","html-keyboard-response","405","466073","0.0-1.0-551.0","0","0","72608","","null","","","null","61","","","","","","","","","","","","","","","",""
"","ISI","","html-keyboard-response","406","468079","0.0-1.0-552.0","0","0","72608","","321","","","68","61","d","","","","","","","","","","","","","","",""
"","S2","","html-keyboard-response","407","468335","0.0-1.0-553.0","0","0","72608","","null","","","null","61","","NaN","","","","","","","","","","","","","",""
"","response","","html-keyboard-response","408","468415","0.0-1.0-554.0","0","0","72608","","77","","","68","61","","","2","61","training","adjacent","DE","4","5","R.jpg","N.jpg","1","1","1","",""
"","feedback","","html-keyboard-response","409","469421","0.0-1.0-555.0-0.0","0","0","72608","","null","","","null","61","","","","","","","","","","","","","","","",""
"","ITI","","html-keyboard-response","410","470428","0.0-1.0-558.0","0","0","72608","","null","","","null","61","","","","","","","","","","","","","","","NaN",""
"","S1","","html-keyboard-response","411","470681","0.0-1.0-560.0","0","0","72608","","null","","","null","62","","","","","","","","","","","","","","","",""
"","ISI","","html-keyboard-response","412","472685","0.0-1.0-561.0","0","0","72608","","470","","","68","62","d","","","","","","","","","","","","","","",""
"","S2","","html-keyboard-response","413","472939","0.0-1.0-562.0","0","0","72608","","null","","","null","62","","NaN","","","","","","","","","","","","","",""
"","response","","html-keyboard-response","414","473693","0.0-1.0-563.0","0","0","72608","","752","","","68","62","","","2","62","training","adjacent","CD","3","4","P.jpg","R.jpg","1","1","1","",""
"","feedback","","html-keyboard-response","415","474697","0.0-1.0-564.0-0.0","0","0","72608","","null","","","null","62","","","","","","","","","","","","","","","",""
"","ITI","","html-keyboard-response","416","475700","0.0-1.0-567.0","0","0","72608","","437","","","68","62","","","","","","","","","","","","","","","d",""
"","S1","","html-keyboard-response","417","475956","0.0-1.0-569.0","0","0","72608","","null","","","null","63","","","","","","","","","","","","","","","",""
"","ISI","","html-keyboard-response","418","477962","0.0-1.0-570.0","0","0","72608","","125","","","68","63","d","","","","","","","","","","","","","","",""
"","S2","","html-keyboard-response","419","478218","0.0-1.0-571.0","0","0","72608","","null","","","null","63","","NaN","","","","","","","","","","","","","",""
"","response","","html-keyboard-response","420","478326","0.0-1.0-572.0","0","0","72608","","105","","","68","63","","","2","63","training","adjacent","CD","3","4","P.jpg","R.jpg","1","1","1","",""
"","feedback","","html-keyboard-response","421","479332","0.0-1.0-573.0-0.0","0","0","72608","","null","","","null","63","","","","","","","","","","","","","","","",""
"","ITI","","html-keyboard-response","422","480335","0.0-1.0-576.0","0","0","72608","","451","","","68","63","","","","","","","","","","","","","","","d",""
"","S1","","html-keyboard-response","423","480594","0.0-1.0-578.0","0","0","72608","","null","","","null","64","","","","","","","","","","","","","","","",""
"","ISI","","html-keyboard-response","424","482596","0.0-1.0-579.0","0","0","72608","","129","","","68","64","d","","","","","","","","","","","","","","",""
"","S2","","html-keyboard-response","425","482854","0.0-1.0-580.0","0","0","72608","","68","","","68","64","","d","","","","","","","","","","","","","",""
"","response","","html-keyboard-response","426","483140","0.0-1.0-581.0","0","0","72608","","283","","","68","64","","","2","64","training","adjacent","DC","4","3","R.jpg","P.jpg","1","0","0","",""
"","feedback","","html-keyboard-response","427","484147","0.0-1.0-582.0-0.0","0","0","72608","","null","","","null","64","","","","","","","","","","","","","","","",""
"","time_out","","html-keyboard-response","428","486152","0.0-1.0-584.0-0.0","0","0","72608","","null","","","null","64","","","","","","","","","","","","","","","",""
"","ITI","","html-keyboard-response","429","487158","0.0-1.0-585.0","0","0","72608","","280","","","68","64","","","","","","","","","","","","","","","d",""
"","S1","","html-keyboard-response","430","487415","0.0-1.0-587.0","0","0","72608","","null","","","null","65","","","","","","","","","","","","","","","",""
"","ISI","","html-keyboard-response","431","489420","0.0-1.0-588.0","0","0","72608","","140","","","68","65","d","","","","","","","","","","","","","","",""
"","S2","","html-keyboard-response","432","489676","0.0-1.0-589.0","0","0","72608","","null","","","null","65","","NaN","","","","","","","","","","","","","",""
"","response","","html-keyboard-response","433","490022","0.0-1.0-590.0","0","0","72608","","344","","","68","65","","","2","65","training","adjacent","FG","6","7","O.jpg","Q.jpg","1","1","1","",""
"","feedback","","html-keyboard-response","434","491027","0.0-1.0-591.0-0.0","0","0","72608","","null","","","null","65","","","","","","","","","","","","","","","",""
"","ITI","","html-keyboard-response","435","492035","0.0-1.0-594.0","0","0","72608","","444","","","68","65","","","","","","","","","","","","","","","d",""
"","S1","","html-keyboard-response","436","492290","0.0-1.0-596.0","0","0","72608","","null","","","null","66","","","","","","","","","","","","","","","",""
"","ISI","","html-keyboard-response","437","494295","0.0-1.0-597.0","0","0","72608","","126","","","68","66","d","","","","","","","","","","","","","","",""
"","S2","","html-keyboard-response","438","494550","0.0-1.0-598.0","0","0","72608","","null","","","null","66","","NaN","","","","","","","","","","","","","",""
"","response","","html-keyboard-response","439","494857","0.0-1.0-599.0","0","0","72608","","305","","","68","66","","","2","66","training","adjacent","CB","3","2","P.jpg","L.jpg","1","0","0","",""
"","feedback","","html-keyboard-response","440","495859","0.0-1.0-600.0-0.0","0","0","72608","","null","","","null","66","","","","","","","","","","","","","","","",""
"","time_out","","html-keyboard-response","441","497865","0.0-1.0-602.0-0.0","0","0","72608","","null","","","null","66","","","","","","","","","","","","","","","",""
"","ITI","","html-keyboard-response","442","498868","0.0-1.0-603.0","0","0","72608","","229","","","68","66","","","","","","","","","","","","","","","d",""
"","S1","","html-keyboard-response","443","499122","0.0-1.0-605.0","0","0","72608","","null","","","null","67","","","","","","","","","","","","","","","",""
"","ISI","","html-keyboard-response","444","501128","0.0-1.0-606.0","0","0","72608","","130","","","68","67","d","","","","","","","","","","","","","","",""
"","S2","","html-keyboard-response","445","501385","0.0-1.0-607.0","0","0","72608","","100","","","68","67","","d","","","","","","","","","","","","","",""
"","response","","html-keyboard-response","446","501655","0.0-1.0-608.0","0","0","72608","","268","","","68","67","","","2","67","training","adjacent","DC","4","3","R.jpg","P.jpg","1","0","0","",""
"","feedback","","html-keyboard-response","447","502661","0.0-1.0-609.0-0.0","0","0","72608","","null","","","null","67","","","","","","","","","","","","","","","",""
"","time_out","","html-keyboard-response","448","504664","0.0-1.0-611.0-0.0","0","0","72608","","null","","","null","67","","","","","","","","","","","","","","","",""
"","ITI","","html-keyboard-response","449","505667","0.0-1.0-612.0","0","0","72608","","892","","","68","67","","","","","","","","","","","","","","","d",""
"","S1","","html-keyboard-response","450","505923","0.0-1.0-614.0","0","0","72608","","null","","","null","68","","","","","","","","","","","","","","","",""
"","ISI","","html-keyboard-response","451","507927","0.0-1.0-615.0","0","0","72608","","268","","","68","68","d","","","","","","","","","","","","","","",""
"","S2","","html-keyboard-response","452","508181","0.0-1.0-616.0","0","0","72608","","null","","","null","68","","NaN","","","","","","","","","","","","","",""
"","response","","html-keyboard-response","453","508325","0.0-1.0-617.0","0","0","72608","","140","","","68","68","","","2","68","training","adjacent","CD","3","4","P.jpg","R.jpg","1","1","1","",""
"","feedback","","html-keyboard-response","454","509331","0.0-1.0-618.0-0.0","0","0","72608","","null","","","null","68","","","","","","","","","","","","","","","",""
"","ITI","","html-keyboard-response","455","510334","0.0-1.0-621.0","0","0","72608","","318","","","68","68","","","","","","","","","","","","","","","d",""
"","S1","","html-keyboard-response","456","510592","0.0-1.0-623.0","0","0","72608","","null","","","null","69","","","","","","","","","","","","","","","",""
"","ISI","","html-keyboard-response","457","512600","0.0-1.0-624.0","0","0","72608","","28","","","68","69","d","","","","","","","","","","","","","","",""
"","S2","","html-keyboard-response","458","512855","0.0-1.0-625.0","0","0","72608","","139","","","68","69","","d","","","","","","","","","","","","","",""
"","response","","html-keyboard-response","459","513299","0.0-1.0-626.0","0","0","72608","","441","","","68","69","","","2","69","training","adjacent","EF","5","6","N.jpg","O.jpg","1","1","1","",""
"","feedback","","html-keyboard-response","460","514305","0.0-1.0-627.0-0.0","0","0","72608","","null","","","null","69","","","","","","","","","","","","","","","",""
"","ITI","","html-keyboard-response","461","515309","0.0-1.0-630.0","0","0","72608","","461","","","68","69","","","","","","","","","","","","","","","d",""
"","S1","","html-keyboard-response","462","515564","0.0-1.0-632.0","0","0","72608","","null","","","null","70","","","","","","","","","","","","","","","",""
"","ISI","","html-keyboard-response","463","517567","0.0-1.0-633.0","0","0","72608","","455","","","68","70","d","","","","","","","","","","","","","","",""
"","S2","","html-keyboard-response","464","517825","0.0-1.0-634.0","0","0","72608","","null","","","null","70","","NaN","","","","","","","","","","","","","",""
"","response","","html-keyboard-response","465","517834","0.0-1.0-635.0","0","0","72608","","6","","","68","70","","","2","70","training","adjacent","CB","3","2","P.jpg","L.jpg","1","0","0","",""
"","feedback","","html-keyboard-response","466","518839","0.0-1.0-636.0-0.0","0","0","72608","","null","","","null","70","","","","","","","","","","","","","","","",""
"","time_out","","html-keyboard-response","467","520846","0.0-1.0-638.0-0.0","0","0","72608","","null","","","null","70","","","","","","","","","","","","","","","",""
"","ITI","","html-keyboard-response","468","521852","0.0-1.0-639.0","0","0","72608","","646","","","68","70","","","","","","","","","","","","","","","d",""
"","S1","","html-keyboard-response","469","522106","0.0-1.0-641.0","0","0","72608","","null","","","null","71","","","","","","","","","","","","","","","",""
"","ISI","","html-keyboard-response","470","524111","0.0-1.0-642.0","0","0","72608","","165","","","68","71","d","","","","","","","","","","","","","","",""
"","S2","","html-keyboard-response","471","524370","0.0-1.0-643.0","0","0","72608","","229","","","68","71","","d","","","","","","","","","","","","","",""
"","response","","html-keyboard-response","472","525027","0.0-1.0-644.0","0","0","72608","","656","","","68","71","","","2","71","training","adjacent","BC","2","3","L.jpg","P.jpg","1","1","1","",""
"","feedback","","html-keyboard-response","473","526032","0.0-1.0-645.0-0.0","0","0","72608","","null","","","null","71","","","","","","","","","","","","","","","",""
"","ITI","","html-keyboard-response","474","527039","0.0-1.0-648.0","0","0","72608","","628","","","68","71","","","","","","","","","","","","","","","d",""
"","S1","","html-keyboard-response","475","527297","0.0-1.0-650.0","0","0","72608","","null","","","null","72","","","","","","","","","","","","","","","",""
"","ISI","","html-keyboard-response","476","529301","0.0-1.0-651.0","0","0","72608","","793","","","68","72","d","","","","","","","","","","","","","","",""
"","S2","","html-keyboard-response","477","529556","0.0-1.0-652.0","0","0","72608","","null","","","null","72","","NaN","","","","","","","","","","","","","",""
"","response","","html-keyboard-response","478","530041","0.0-1.0-653.0","0","0","72608","","483","","","68","72","","","2","72","training","adjacent","FG","6","7","O.jpg","Q.jpg","1","1","1","",""
"","feedback","","html-keyboard-response","479","531046","0.0-1.0-654.0-0.0","0","0","72608","","null","","","null","72","","","","","","","","","","","","","","","",""
"","ITI","","html-keyboard-response","480","532053","0.0-1.0-657.0","0","0","72608","","596","","","68","72","","","","","","","","","","","","","","","d",""
"","S1","","html-keyboard-response","481","532307","0.0-1.0-659.0","0","0","72608","","null","","","null","73","","","","","","","","","","","","","","","",""
"","ISI","","html-keyboard-response","482","534313","0.0-1.0-660.0","0","0","72608","","166","","","68","73","d","","","","","","","","","","","","","","",""
"","S2","","html-keyboard-response","483","534570","0.0-1.0-661.0","0","0","72608","","2","","","68","73","","d","","","","","","","","","","","","","",""
"","response","","html-keyboard-response","484","534962","0.0-1.0-662.0","0","0","72608","","389","","","68","73","","","2","73","training","adjacent","EF","5","6","N.jpg","O.jpg","1","1","1","",""
"","feedback","","html-keyboard-response","485","535967","0.0-1.0-663.0-0.0","0","0","72608","","null","","","null","73","","","","","","","","","","","","","","","",""
"","ITI","","html-keyboard-response","486","536973","0.0-1.0-666.0","0","0","72608","","318","","","68","73","","","","","","","","","","","","","","","d",""
"","S1","","html-keyboard-response","487","537230","0.0-1.0-668.0","0","0","72608","","null","","","null","74","","","","","","","","","","","","","","","",""
"","ISI","","html-keyboard-response","488","539235","0.0-1.0-669.0","0","0","72608","","240","","","68","74","d","","","","","","","","","","","","","","",""
"","S2","","html-keyboard-response","489","539490","0.0-1.0-670.0","0","0","72608","","101","","","68","74","","d","","","","","","","","","","","","","",""
"","response","","html-keyboard-response","490","540473","0.0-1.0-671.0","0","0","72608","","980","","","68","74","","","2","74","training","adjacent","DE","4","5","R.jpg","N.jpg","1","1","1","",""
"","feedback","","html-keyboard-response","491","541475","0.0-1.0-672.0-0.0","0","0","72608","","null","","","null","74","","","","","","","","","","","","","","","",""
"","ITI","","html-keyboard-response","492","542483","0.0-1.0-675.0","0","0","72608","","0","","","68","74","","","","","","","","","","","","","","","d",""
"","S1","","html-keyboard-response","493","542741","0.0-1.0-677.0","0","0","72608","","null","","","null","75","","","","","","","","","","","","","","","",""
"","ISI","","html-keyboard-response","494","544745","0.0-1.0-678.0","0","0","72608","","808","","","68","75","d","","","","","","","","","","","","","","",""
"","S2","","html-keyboard-response","495","545003","0.0-1.0-679.0","0","0","72608","","31","","","68","75","","d","","","","","","","","","","","","","",""
"","response","","html-keyboard-response","496","545244","0.0-1.0-680.0","0","0","72608","","239","","","68","75","","","2","75","training","adjacent","AB","1","2","M.jpg","L.jpg","1","1","1","",""
"","feedback","","html-keyboard-response","497","546251","0.0-1.0-681.0-0.0","0","0","72608","","null","","","null","75","","","","","","","","","","","","","","","",""
"","ITI","","html-keyboard-response","498","547257","0.0-1.0-684.0","0","0","72608","","34","","","68","75","","","","","","","","","","","","","","","d",""
"","S1","","html-keyboard-response","499","547514","0.0-1.0-686.0","0","0","72608","","null","","","null","76","","","","","","","","","","","","","","","",""
"","ISI","","html-keyboard-response","500","549522","0.0-1.0-687.0","0","0","72608","","300","","","68","76","d","","","","","","","","","","","","","","",""
"","S2","","html-keyboard-response","501","549777","0.0-1.0-688.0","0","0","72608","","238","","","68","76","","d","","","","","","","","","","","","","",""
"","response","","html-keyboard-response","502","550957","0.0-1.0-689.0","0","0","72608","","1178","","","68","76","","","2","76","training","adjacent","FG","6","7","O.jpg","Q.jpg","1","1","1","",""
"","feedback","","html-keyboard-response","503","551960","0.0-1.0-690.0-0.0","0","0","72608","","null","","","null","76","","","","","","","","","","","","","","","",""
"","ITI","","html-keyboard-response","504","552966","0.0-1.0-693.0","0","0","72608","","575","","","68","76","","","","","","","","","","","","","","","d",""
"","S1","","html-keyboard-response","505","553220","0.0-1.0-695.0","0","0","72608","","null","","","null","77","","","","","","","","","","","","","","","",""
"","ISI","","html-keyboard-response","506","555224","0.0-1.0-696.0","0","0","72608","","636","","","68","77","d","","","","","","","","","","","","","","",""
"","S2","","html-keyboard-response","507","555477","0.0-1.0-697.0","0","0","72608","","106","","","68","77","","d","","","","","","","","","","","","","",""
"","response","","html-keyboard-response","508","556622","0.0-1.0-698.0","0","0","72608","","1144","","","68","77","","","2","77","training","adjacent","GF","7","6","Q.jpg","O.jpg","1","0","0","",""
"","feedback","","html-keyboard-response","509","557629","0.0-1.0-699.0-0.0","0","0","72608","","null","","","null","77","","","","","","","","","","","","","","","",""
"","time_out","","html-keyboard-response","510","559634","0.0-1.0-701.0-0.0","0","0","72608","","null","","","null","77","","","","","","","","","","","","","","","",""
"","ITI","","html-keyboard-response","511","560641","0.0-1.0-702.0","0","0","72608","","446","","","68","77","","","","","","","","","","","","","","","d",""
"","S1","","html-keyboard-response","512","560895","0.0-1.0-704.0","0","0","72608","","null","","","null","78","","","","","","","","","","","","","","","",""
"","ISI","","html-keyboard-response","513","562901","0.0-1.0-705.0","0","0","72608","","602","","","68","78","d","","","","","","","","","","","","","","",""
"","S2","","html-keyboard-response","514","563156","0.0-1.0-706.0","0","0","72608","","62","","","68","78","","d","","","","","","","","","","","","","",""
"","response","","html-keyboard-response","515","563617","0.0-1.0-707.0","0","0","72608","","458","","","68","78","","","2","78","training","adjacent","GF","7","6","Q.jpg","O.jpg","1","0","0","",""
"","feedback","","html-keyboard-response","516","564623","0.0-1.0-708.0-0.0","0","0","72608","","null","","","null","78","","","","","","","","","","","","","","","",""
"","time_out","","html-keyboard-response","517","566626","0.0-1.0-710.0-0.0","0","0","72608","","null","","","null","78","","","","","","","","","","","","","","","",""
"","ITI","","html-keyboard-response","518","567632","0.0-1.0-711.0","0","0","72608","","246","","","68","78","","","","","","","","","","","","","","","d",""
"","S1","","html-keyboard-response","519","567887","0.0-1.0-713.0","0","0","72608","","null","","","null","79","","","","","","","","","","","","","","","",""
"","ISI","","html-keyboard-response","520","569892","0.0-1.0-714.0","0","0","72608","","162","","","68","79","d","","","","","","","","","","","","","","",""
"","S2","","html-keyboard-response","521","570146","0.0-1.0-715.0","0","0","72608","","null","","","null","79","","NaN","","","","","","","","","","","","","",""
"","response","","html-keyboard-response","522","570205","0.0-1.0-716.0","0","0","72608","","57","","","68","79","","","2","79","training","adjacent","CB","3","2","P.jpg","L.jpg","1","0","0","",""
"","feedback","","html-keyboard-response","523","571211","0.0-1.0-717.0-0.0","0","0","72608","","null","","","null","79","","","","","","","","","","","","","","","",""
"","time_out","","html-keyboard-response","524","573214","0.0-1.0-719.0-0.0","0","0","72608","","null","","","null","79","","","","","","","","","","","","","","","",""
"","ITI","","html-keyboard-response","525","574221","0.0-1.0-720.0","0","0","72608","","400","","","68","79","","","","","","","","","","","","","","","d",""
"","block_over","","html-keyboard-response","526","603198","0.0-1.0-721.0-0.0","0","0","72608","","28975","","","32","79","","","","","","","","","","","","","","","",""
"","S1","","html-keyboard-response","527","603450","0.0-1.0-722.0","0","0","72608","","null","","","null","80","","","","","","","","","","","","","","","",""
"","ISI","","html-keyboard-response","528","605453","0.0-1.0-723.0","0","0","72608","","633","","","68","80","d","","","","","","","","","","","","","","",""
"","S2","","html-keyboard-response","529","605705","0.0-1.0-724.0","0","0","72608","","175","","","68","80","","d","","","","","","","","","","","","","",""
"","response","","html-keyboard-response","530","605952","0.0-1.0-725.0","0","0","72608","","244","","","68","80","","","3","80","training","adjacent","BC","2","3","L.jpg","P.jpg","1","1","1","",""
"","feedback","","html-keyboard-response","531","606956","0.0-1.0-726.0-0.0","0","0","72608","","null","","","null","80","","","","","","","","","","","","","","","",""
"","ITI","","html-keyboard-response","532","607962","0.0-1.0-729.0","0","0","72608","","203","","","68","80","","","","","","","","","","","","","","","d",""
"","S1","","html-keyboard-response","533","608216","0.0-1.0-731.0","0","0","72608","","null","","","null","81","","","","","","","","","","","","","","","",""
"","ISI","","html-keyboard-response","534","610218","0.0-1.0-732.0","0","0","72608","","211","","","68","81","d","","","","","","","","","","","","","","",""
"","S2","","html-keyboard-response","535","610473","0.0-1.0-733.0","0","0","72608","","null","","","null","81","","NaN","","","","","","","","","","","","","",""
"","response","","html-keyboard-response","536","610667","0.0-1.0-734.0","0","0","72608","","191","","","68","81","","","3","81","training","adjacent","AB","1","2","M.jpg","L.jpg","1","1","1","",""
"","feedback","","html-keyboard-response","537","611674","0.0-1.0-735.0-0.0","0","0","72608","","null","","","null","81","","","","","","","","","","","","","","","",""
"","ITI","","html-keyboard-response","538","612681","0.0-1.0-738.0","0","0","72608","","347","","","68","81","","","","","","","","","","","","","","","d",""
"","S1","","html-keyboard-response","539","612938","0.0-1.0-740.0","0","0","72608","","null","","","null","82","","","","","","","","","","","","","","","",""
"","ISI","","html-keyboard-response","540","614942","0.0-1.0-741.0","0","0","72608","","202","","","68","82","d","","","","","","","","","","","","","","",""
"","S2","","html-keyboard-response","541","615196","0.0-1.0-742.0","0","0","72608","","181","","","68","82","","d","","","","","","","","","","","","","",""
"","response","","html-keyboard-response","542","615627","0.0-1.0-743.0","0","0","72608","","429","","","68","82","","","3","82","training","adjacent","BA","2","1","L.jpg","M.jpg","1","0","0","",""
"","feedback","","html-keyboard-response","543","616631","0.0-1.0-744.0-0.0","0","0","72608","","null","","","null","82","","","","","","","","","","","","","","","",""
"","time_out","","html-keyboard-response","544","618634","0.0-1.0-746.0-0.0","0","0","72608","","null","","","null","82","","","","","","","","","","","","","","","",""
"","ITI","","html-keyboard-response","545","619640","0.0-1.0-747.0","0","0","72608","","8","","","68","82","","","","","","","","","","","","","","","d",""
"","S1","","html-keyboard-response","546","619897","0.0-1.0-749.0","0","0","72608","","null","","","null","83","","","","","","","","","","","","","","","",""
"","ISI","","html-keyboard-response","547","621901","0.0-1.0-750.0","0","0","72608","","250","","","68","83","d","","","","","","","","","","","","","","",""
"","S2","","html-keyboard-response","548","622156","0.0-1.0-751.0","0","0","72608","","null","","","null","83","","NaN","","","","","","","","","","","","","",""
"","response","","html-keyboard-response","549","622226","0.0-1.0-752.0","0","0","72608","","67","","","68","83","","","3","83","training","adjacent","BC","2","3","L.jpg","P.jpg","1","1","1","",""
"","feedback","","html-keyboard-response","550","623230","0.0-1.0-753.0-0.0","0","0","72608","","null","","","null","83","","","","","","","","","","","","","","","",""
"","ITI","","html-keyboard-response","551","624234","0.0-1.0-756.0","0","0","72608","","null","","","null","83","","","","","","","","","","","","","","","NaN",""
"","S1","","html-keyboard-response","552","624490","0.0-1.0-758.0","0","0","72608","","null","","","null","84","","","","","","","","","","","","","","","",""
"","ISI","","html-keyboard-response","553","626498","0.0-1.0-759.0","0","0","72608","","277","","","68","84","d","","","","","","","","","","","","","","",""
"","S2","","html-keyboard-response","554","626756","0.0-1.0-760.0","0","0","72608","","null","","","null","84","","NaN","","","","","","","","","","","","","",""
"","response","","html-keyboard-response","555","626849","0.0-1.0-761.0","0","0","72608","","90","","","68","84","","","3","84","training","adjacent","FE","6","5","O.jpg","N.jpg","1","0","0","",""
"","feedback","","html-keyboard-response","556","627854","0.0-1.0-762.0-0.0","0","0","72608","","null","","","null","84","","","","","","","","","","","","","","","",""
"","time_out","","html-keyboard-response","557","629858","0.0-1.0-764.0-0.0","0","0","72608","","null","","","null","84","","","","","","","","","","","","","","","",""
"","ITI","","html-keyboard-response","558","630863","0.0-1.0-765.0","0","0","72608","","281","","","68","84","","","","","","","","","","","","","","","d",""
"","S1","","html-keyboard-response","559","631121","0.0-1.0-767.0","0","0","72608","","null","","","null","85","","","","","","","","","","","","","","","",""
"","ISI","","html-keyboard-response","560","633126","0.0-1.0-768.0","0","0","72608","","188","","","68","85","d","","","","","","","","","","","","","","",""
"","S2","","html-keyboard-response","561","633384","0.0-1.0-769.0","0","0","72608","","191","","","68","85","","d","","","","","","","","","","","","","",""
"","response","","html-keyboard-response","562","634589","0.0-1.0-770.0","0","0","72608","","1202","","","68","85","","","3","85","training","adjacent","CD","3","4","P.jpg","R.jpg","1","1","1","",""
"","feedback","","html-keyboard-response","563","635595","0.0-1.0-771.0-0.0","0","0","72608","","null","","","null","85","","","","","","","","","","","","","","","",""
"","ITI","","html-keyboard-response","564","636603","0.0-1.0-774.0","0","0","72608","","971","","","68","85","","","","","","","","","","","","","","","d",""
"","S1","","html-keyboard-response","565","636859","0.0-1.0-776.0","0","0","72608","","null","","","null","86","","","","","","","","","","","","","","","",""
"","ISI","","html-keyboard-response","566","638863","0.0-1.0-777.0","0","0","72608","","170","","","68","86","d","","","","","","","","","","","","","","",""
"","S2","","html-keyboard-response","567","639119","0.0-1.0-778.0","0","0","72608","","null","","","null","86","","NaN","","","","","","","","","","","","","",""
"","response","","html-keyboard-response","568","639336","0.0-1.0-779.0","0","0","72608","","214","","","68","86","","","3","86","training","adjacent","DC","4","3","R.jpg","P.jpg","1","0","0","",""
"","feedback","","html-keyboard-response","569","640343","0.0-1.0-780.0-0.0","0","0","72608","","null","","","null","86","","","","","","","","","","","","","","","",""
"","time_out","","html-keyboard-response","570","642348","0.0-1.0-782.0-0.0","0","0","72608","","null","","","null","86","","","","","","","","","","","","","","","",""
"","ITI","","html-keyboard-response","571","643353","0.0-1.0-783.0","0","0","72608","","56","","","68","86","","","","","","","","","","","","","","","d",""
"","S1","","html-keyboard-response","572","643605","0.0-1.0-785.0","0","0","72608","","null","","","null","87","","","","","","","","","","","","","","","",""
"","ISI","","html-keyboard-response","573","645613","0.0-1.0-786.0","0","0","72608","","2","","","68","87","d","","","","","","","","","","","","","","",""
"","S2","","html-keyboard-response","574","645869","0.0-1.0-787.0","0","0","72608","","null","","","null","87","","NaN","","","","","","","","","","","","","",""
"","response","","html-keyboard-response","575","646077","0.0-1.0-788.0","0","0","72608","","205","","","68","87","","","3","87","training","adjacent","EF","5","6","N.jpg","O.jpg","1","1","1","",""
"","feedback","","html-keyboard-response","576","647083","0.0-1.0-789.0-0.0","0","0","72608","","null","","","null","87","","","","","","","","","","","","","","","",""
"","ITI","","html-keyboard-response","577","648090","0.0-1.0-792.0","0","0","72608","","132","","","68","87","","","","","","","","","","","","","","","d",""
"","S1","","html-keyboard-response","578","648346","0.0-1.0-794.0","0","0","72608","","null","","","null","88","","","","","","","","","","","","","","","",""
"","ISI","","html-keyboard-response","579","650350","0.0-1.0-795.0","0","0","72608","","163","","","68","88","d","","","","","","","","","","","","","","",""
"","S2","","html-keyboard-response","580","650604","0.0-1.0-796.0","0","0","72608","","173","","","75","88","","k","","","","","","","","","","","","","",""
"","response","","html-keyboard-response","581","650911","0.0-1.0-797.0","0","0","72608","","304","","","75","88","","","3","88","training","adjacent","DE","4","5","R.jpg","N.jpg","0","1","0","",""
"","feedback","","html-keyboard-response","582","651918","0.0-1.0-798.0-0.0","0","0","72608","","null","","","null","88","","","","","","","","","","","","","","","",""
"","time_out","","html-keyboard-response","583","653923","0.0-1.0-800.0-0.0","0","0","72608","","null","","","null","88","","","","","","","","","","","","","","","",""
"","ITI","","html-keyboard-response","584","654929","0.0-1.0-801.0","0","0","72608","","602","","","75","88","","","","","","","","","","","","","","","k",""
"","S1","","html-keyboard-response","585","655184","0.0-1.0-803.0","0","0","72608","","null","","","null","89","","","","","","","","","","","","","","","",""
"","ISI","","html-keyboard-response","586","657191","0.0-1.0-804.0","0","0","72608","","76","","","75","89","k","","","","","","","","","","","","","","",""
"","S2","","html-keyboard-response","587","657449","0.0-1.0-805.0","0","0","72608","","null","","","null","89","","NaN","","","","","","","","","","","","","",""
"","response","","html-keyboard-response","588","658778","0.0-1.0-806.0","0","0","72608","","1322","","","75","89","","","3","89","training","adjacent","DC","4","3","R.jpg","P.jpg","0","0","1","",""
"","feedback","","html-keyboard-response","589","659783","0.0-1.0-807.0-0.0","0","0","72608","","null","","","null","89","","","","","","","","","","","","","","","",""
"","ITI","","html-keyboard-response","590","660789","0.0-1.0-810.0","0","0","72608","","429","","","75","89","","","","","","","","","","","","","","","k",""
"","S1","","html-keyboard-response","591","661045","0.0-1.0-812.0","0","0","72608","","null","","","null","90","","","","","","","","","","","","","","","",""
