"success","ttype","start_time","trial_type","trial_index","time_elapsed","internal_node_id","warning","missed_checkup","PID","view_history","rt","responses","repeat_instructions","key_press","index","keypress_isi","keypress_S2","block","trial_num","phase","group_type","pair_type","S1_stim","S2_stim","S1_img","S2_img","S1_chosen","S1_higher","accuracy","keypress_iti","total_bonus_tally"
"true","full_screen","d03032023hr1614","fullscreen","0","3293","0.0-0.0","0","0","54507","","","","","","","","","","","","","","","","","","","","","",""
"","instructions","","instructions","1","8152","0.0-1.0-0.0-0.0","0","0","54507","[{""page_index"":0,""viewing_time"":1794},{""page_index"":1,""viewing_time"":493},{""page_index"":2,""viewing_time"":1180},{""page_index"":3,""viewing_time"":1390}]","4858","","","","","","","","","","","","","","","","","","","",""
"","comprehension_check","","survey-multi-choice","2","15591","0.0-1.0-0.0-1.0","0","0","54507","","7436","{""Q0"":""True"",""Q1"":""D"",""Q2"":""Once the second image appears and while the screen 'MAKE A CHOICE' is shown"",""Q3"":""Green mark"",""Q4"":""either D or K""}","1","","","","","","","","","","","","","","","","","",""
"","missed_instruction_checkup","","html-keyboard-response","3","16848","0.0-1.0-0.0-2.0-0.0","0","1","54507","","1256","","","32","","","","","","","","","","","","","","","","",""
"","instructions","","instructions","4","19797","0.0-1.0-0.1-0.1","0","0","54507","[{""page_index"":0,""viewing_time"":1233},{""page_index"":1,""viewing_time"":194},{""page_index"":2,""viewing_time"":931},{""page_index"":3,""viewing_time"":590}]","2948","","","","","","","","","","","","","","","","","","","",""
"","comprehension_check","","survey-multi-choice","5","26285","0.0-1.0-0.1-1.1","0","0","54507","","6482","{""Q0"":""True"",""Q1"":"""",""Q2"":""Once the second image appears and while the screen 'MAKE A CHOICE' is shown"",""Q3"":""Green mark"",""Q4"":""either D or K""}","1","","","","","","","","","","","","","","","","","",""
"","missed_instruction_checkup","","html-keyboard-response","6","27677","0.0-1.0-0.1-2.1-0.1","0","1","54507","","1390","","","32","","","","","","","","","","","","","","","","",""
"","instructions","","instructions","7","31233","0.0-1.0-0.2-0.2","0","0","54507","[{""page_index"":0,""viewing_time"":1225},{""page_index"":1,""viewing_time"":178},{""page_index"":2,""viewing_time"":558},{""page_index"":3,""viewing_time"":1593}]","3555","","","","","","","","","","","","","","","","","","","",""
"","comprehension_check","","survey-multi-choice","8","47241","0.0-1.0-0.2-1.2","0","0","54507","","16005","{""Q0"":""True"",""Q1"":""D"",""Q2"":""Once the second image appears and while the screen 'MAKE A CHOICE' is shown"",""Q3"":""Green mark"",""Q4"":""either D or K""}","1","","","","","","","","","","","","","","","","","",""
"","missed_instruction_checkup","","html-keyboard-response","9","48580","0.0-1.0-0.2-2.2-0.2","0","1","54507","","1337","","","32","","","","","","","","","","","","","","","","",""
"","instructions","","instructions","10","56248","0.0-1.0-0.3-0.3","0","0","54507","[{""page_index"":0,""viewing_time"":1605},{""page_index"":1,""viewing_time"":4081},{""page_index"":2,""viewing_time"":655},{""page_index"":3,""viewing_time"":1326}]","7668","","","","","","","","","","","","","","","","","","","",""
"","comprehension_check","","survey-multi-choice","11","64230","0.0-1.0-0.3-1.3","0","0","54507","","7975","{""Q0"":""True"",""Q1"":""K"",""Q2"":""Once the second image appears and while the screen 'MAKE A CHOICE' is shown"",""Q3"":""Green mark"",""Q4"":""either D or K""}","0","","","","","","","","","","","","","","","","","",""
"","start_exp","","html-keyboard-response","12","65593","0.0-1.0-1.0","0","0","54507","","1361","","","32","","","","","","","","","","","","","","","","",""
"","S1","","html-keyboard-response","13","65851","0.0-1.0-2.0","0","0","54507","","null","","","null","0","","","","","","","","","","","","","","","",""
"","ISI","","html-keyboard-response","14","65962","0.0-1.0-3.0","0","0","54507","","null","","","null","0","NaN","","","","","","","","","","","","","","",""
"","S2","","html-keyboard-response","15","66217","0.0-1.0-4.0","0","0","54507","","null","","","null","0","","NaN","","","","","","","","","","","","","",""
"","response","","html-keyboard-response","16","66724","0.0-1.0-5.0-0.0","0","0","54507","","null","","","null","0","","","1","0","training","adjacent","BC","2","3","O.jpg","P.jpg","NaN","1","0","",""
"","too_slow_prompt","","html-keyboard-response","17","67731","0.0-1.0-7.0-0.0","1","0","54507","","null","","","null","","","","","","","","","","","","","","","","",""
"","time_out","","html-keyboard-response","18","67836","0.0-1.0-8.0-0.0","0","0","54507","","null","","","null","0","","","","","","","","","","","","","","","",""
"","ITI","","html-keyboard-response","19","68350","0.0-1.0-9.0","0","0","54507","","null","","","null","0","","","","","","","","","","","","","","","NaN",""
"","S1","","html-keyboard-response","20","68610","0.0-1.0-11.0","0","0","54507","","null","","","null","1","","","","","","","","","","","","","","","",""
"","ISI","","html-keyboard-response","21","68714","0.0-1.0-12.0","0","0","54507","","null","","","null","1","NaN","","","","","","","","","","","","","","",""
"","S2","","html-keyboard-response","22","68973","0.0-1.0-13.0","0","0","54507","","null","","","null","1","","NaN","","","","","","","","","","","","","",""
"","response","","html-keyboard-response","23","69419","0.0-1.0-14.0-0.0","0","0","54507","","444","","","75","1","","","1","1","training","adjacent","DC","4","3","M.jpg","P.jpg","1","0","0","",""
"","feedback","","html-keyboard-response","24","69524","0.0-1.0-15.0-0.0","0","0","54507","","null","","","null","1","","","","","","","","","","","","","","","",""
"","time_out","","html-keyboard-response","25","69636","0.0-1.0-17.0-0.0","0","0","54507","","null","","","null","1","","","","","","","","","","","","","","","",""
"","ITI","","html-keyboard-response","26","70145","0.0-1.0-18.0","0","0","54507","","null","","","null","1","","","","","","","","","","","","","","","NaN",""
"","S1","","html-keyboard-response","27","70406","0.0-1.0-20.0","0","0","54507","","null","","","null","2","","","","","","","","","","","","","","","",""
"","ISI","","html-keyboard-response","28","70517","0.0-1.0-21.0","0","0","54507","","null","","","null","2","NaN","","","","","","","","","","","","","","",""
"","S2","","html-keyboard-response","29","70778","0.0-1.0-22.0","0","0","54507","","null","","","null","2","","NaN","","","","","","","","","","","","","",""
"","response","","html-keyboard-response","30","71231","0.0-1.0-23.0-0.0","0","0","54507","","451","","","68","2","","","1","2","training","adjacent","AB","1","2","N.jpg","O.jpg","0","1","0","",""
"","feedback","","html-keyboard-response","31","71338","0.0-1.0-24.0-0.0","0","0","54507","","null","","","null","2","","","","","","","","","","","","","","","",""
"","time_out","","html-keyboard-response","32","71441","0.0-1.0-26.0-0.0","0","0","54507","","null","","","null","2","","","","","","","","","","","","","","","",""
"","ITI","","html-keyboard-response","33","71946","0.0-1.0-27.0","0","0","54507","","null","","","null","2","","","","","","","","","","","","","","","NaN",""
"","S1","","html-keyboard-response","34","72203","0.0-1.0-29.0","0","0","54507","","null","","","null","3","","","","","","","","","","","","","","","",""
"","ISI","","html-keyboard-response","35","72307","0.0-1.0-30.0","0","0","54507","","null","","","null","3","NaN","","","","","","","","","","","","","","",""
"","S2","","html-keyboard-response","36","72565","0.0-1.0-31.0","0","0","54507","","null","","","null","3","","NaN","","","","","","","","","","","","","",""
"","response","","html-keyboard-response","37","72961","0.0-1.0-32.0-0.0","0","0","54507","","394","","","75","3","","","1","3","training","adjacent","GF","7","6","L.jpg","R.jpg","1","0","0","",""
"","feedback","","html-keyboard-response","38","73067","0.0-1.0-33.0-0.0","0","0","54507","","null","","","null","3","","","","","","","","","","","","","","","",""
"","time_out","","html-keyboard-response","39","73176","0.0-1.0-35.0-0.0","0","0","54507","","null","","","null","3","","","","","","","","","","","","","","","",""
"","ITI","","html-keyboard-response","40","73683","0.0-1.0-36.0","0","0","54507","","null","","","null","3","","","","","","","","","","","","","","","NaN",""
"","S1","","html-keyboard-response","41","73938","0.0-1.0-38.0","0","0","54507","","null","","","null","4","","","","","","","","","","","","","","","",""
"","ISI","","html-keyboard-response","42","74042","0.0-1.0-39.0","0","0","54507","","null","","","null","4","NaN","","","","","","","","","","","","","","",""
"","S2","","html-keyboard-response","43","74297","0.0-1.0-40.0","0","0","54507","","null","","","null","4","","NaN","","","","","","","","","","","","","",""
"","response","","html-keyboard-response","44","74573","0.0-1.0-41.0-0.0","0","0","54507","","275","","","68","4","","","1","4","training","adjacent","FE","6","5","R.jpg","Q.jpg","0","0","1","",""
"","feedback","","html-keyboard-response","45","74682","0.0-1.0-42.0-0.0","0","0","54507","","null","","","null","4","","","","","","","","","","","","","","","",""
"","ITI","","html-keyboard-response","46","75186","0.0-1.0-45.0","0","0","54507","","null","","","null","4","","","","","","","","","","","","","","","NaN",""
"","S1","","html-keyboard-response","47","75442","0.0-1.0-47.0","0","0","54507","","null","","","null","5","","","","","","","","","","","","","","","",""
"","ISI","","html-keyboard-response","48","75549","0.0-1.0-48.0","0","0","54507","","null","","","null","5","NaN","","","","","","","","","","","","","","",""
"","S2","","html-keyboard-response","49","75812","0.0-1.0-49.0","0","0","54507","","null","","","null","5","","NaN","","","","","","","","","","","","","",""
"","response","","html-keyboard-response","50","76104","0.0-1.0-50.0-0.0","0","0","54507","","290","","","75","5","","","1","5","training","adjacent","CB","3","2","P.jpg","O.jpg","1","0","0","",""
"","feedback","","html-keyboard-response","51","76211","0.0-1.0-51.0-0.0","0","0","54507","","null","","","null","5","","","","","","","","","","","","","","","",""
"","time_out","","html-keyboard-response","52","76325","0.0-1.0-53.0-0.0","0","0","54507","","null","","","null","5","","","","","","","","","","","","","","","",""
"","ITI","","html-keyboard-response","53","76836","0.0-1.0-54.0","0","0","54507","","null","","","null","5","","","","","","","","","","","","","","","NaN",""
"","S1","","html-keyboard-response","54","77098","0.0-1.0-56.0","0","0","54507","","null","","","null","6","","","","","","","","","","","","","","","",""
"","ISI","","html-keyboard-response","55","77205","0.0-1.0-57.0","0","0","54507","","null","","","null","6","NaN","","","","","","","","","","","","","","",""
"","S2","","html-keyboard-response","56","77466","0.0-1.0-58.0","0","0","54507","","null","","","null","6","","NaN","","","","","","","","","","","","","",""
"","response","","html-keyboard-response","57","77908","0.0-1.0-59.0-0.0","0","0","54507","","440","","","68","6","","","1","6","training","adjacent","BA","2","1","O.jpg","N.jpg","0","0","1","",""
"","feedback","","html-keyboard-response","58","78013","0.0-1.0-60.0-0.0","0","0","54507","","null","","","null","6","","","","","","","","","","","","","","","",""
"","ITI","","html-keyboard-response","59","78524","0.0-1.0-63.0","0","0","54507","","null","","","null","6","","","","","","","","","","","","","","","NaN",""
"","S1","","html-keyboard-response","60","78787","0.0-1.0-65.0","0","0","54507","","null","","","null","7","","","","","","","","","","","","","","","",""
"","ISI","","html-keyboard-response","61","78898","0.0-1.0-66.0","0","0","54507","","null","","","null","7","NaN","","","","","","","","","","","","","","",""
"","S2","","html-keyboard-response","62","79156","0.0-1.0-67.0","0","0","54507","","null","","","null","7","","NaN","","","","","","","","","","","","","",""
"","response","","html-keyboard-response","63","79538","0.0-1.0-68.0-0.0","0","0","54507","","380","","","75","7","","","1","7","training","adjacent","CD","3","4","P.jpg","M.jpg","1","1","1","",""
"","feedback","","html-keyboard-response","64","79642","0.0-1.0-69.0-0.0","0","0","54507","","null","","","null","7","","","","","","","","","","","","","","","",""
"","ITI","","html-keyboard-response","65","80146","0.0-1.0-72.0","0","0","54507","","null","","","null","7","","","","","","","","","","","","","","","NaN",""
"","S1","","html-keyboard-response","66","80404","0.0-1.0-74.0","0","0","54507","","null","","","null","8","","","","","","","","","","","","","","","",""
"","ISI","","html-keyboard-response","67","80518","0.0-1.0-75.0","0","0","54507","","null","","","null","8","NaN","","","","","","","","","","","","","","",""
"","S2","","html-keyboard-response","68","80778","0.0-1.0-76.0","0","0","54507","","null","","","null","8","","NaN","","","","","","","","","","","","","",""
"","response","","html-keyboard-response","69","81024","0.0-1.0-77.0-0.0","0","0","54507","","244","","","68","8","","","1","8","training","adjacent","ED","5","4","Q.jpg","M.jpg","0","0","1","",""
"","feedback","","html-keyboard-response","70","81133","0.0-1.0-78.0-0.0","0","0","54507","","null","","","null","8","","","","","","","","","","","","","","","",""
"","ITI","","html-keyboard-response","71","81641","0.0-1.0-81.0","0","0","54507","","null","","","null","8","","","","","","","","","","","","","","","NaN",""
"","S1","","html-keyboard-response","72","81901","0.0-1.0-83.0","0","0","54507","","null","","","null","9","","","","","","","","","","","","","","","",""
"","ISI","","html-keyboard-response","73","82012","0.0-1.0-84.0","0","0","54507","","null","","","null","9","NaN","","","","","","","","","","","","","","",""
"","S2","","html-keyboard-response","74","82260","0.0-1.0-85.0","0","0","54507","","245","","","75","9","","k","1","9","training","adjacent","DE","4","5","M.jpg","Q.jpg","1","1","1","",""
"","feedback","","html-keyboard-response","75","82362","0.0-1.0-87.0-0.0","0","0","54507","","null","","","null","9","","","","","","","","","","","","","","","",""
"","ITI","","html-keyboard-response","76","82865","0.0-1.0-90.0","0","0","54507","","null","","","null","9","","","","","","","","","","","","","","","NaN",""
"","S1","","html-keyboard-response","77","83123","0.0-1.0-92.0","0","0","54507","","null","","","null","10","","","","","","","","","","","","","","","",""
"","ISI","","html-keyboard-response","78","83224","0.0-1.0-93.0","0","0","54507","","null","","","null","10","NaN","","","","","","","","","","","","","","",""
"","S2","","html-keyboard-response","79","83480","0.0-1.0-94.0","0","0","54507","","254","","","68","10","","d","1","10","training","adjacent","FG","6","7","R.jpg","L.jpg","0","1","0","",""
"","feedback","","html-keyboard-response","80","83587","0.0-1.0-96.0-0.0","0","0","54507","","null","","","null","10","","","","","","","","","","","","","","","",""
"","time_out","","html-keyboard-response","81","83697","0.0-1.0-98.0-0.0","0","0","54507","","null","","","null","10","","","","","","","","","","","","","","","",""
"","ITI","","html-keyboard-response","82","84205","0.0-1.0-99.0","0","0","54507","","null","","","null","10","","","","","","","","","","","","","","","NaN",""
"","S1","","html-keyboard-response","83","84470","0.0-1.0-101.0","0","0","54507","","null","","","null","11","","","","","","","","","","","","","","","",""
"","ISI","","html-keyboard-response","84","84578","0.0-1.0-102.0","0","0","54507","","null","","","null","11","NaN","","","","","","","","","","","","","","",""
"","S2","","html-keyboard-response","85","84835","0.0-1.0-103.0","0","0","54507","","null","","","null","11","","NaN","","","","","","","","","","","","","",""
"","response","","html-keyboard-response","86","84890","0.0-1.0-104.0-0.0","0","0","54507","","53","","","68","11","","","1","11","training","adjacent","EF","5","6","Q.jpg","R.jpg","0","1","0","",""
"","feedback","","html-keyboard-response","87","84995","0.0-1.0-105.0-0.0","0","0","54507","","null","","","null","11","","","","","","","","","","","","","","","",""
"","time_out","","html-keyboard-response","88","85106","0.0-1.0-107.0-0.0","0","0","54507","","null","","","null","11","","","","","","","","","","","","","","","",""
"","ITI","","html-keyboard-response","89","85610","0.0-1.0-108.0","0","0","54507","","null","","","null","11","","","","","","","","","","","","","","","NaN",""
"","block_over","","html-keyboard-response","90","88578","0.0-1.0-109.0-0.0","0","0","54507","","2966","","","32","11","","","","","","","","","","","","","","","",""
"","S1","","html-keyboard-response","91","88835","0.0-1.0-110.0","0","0","54507","","null","","","null","12","","","","","","","","","","","","","","","",""
"","ISI","","html-keyboard-response","92","88950","0.0-1.0-111.0","0","0","54507","","null","","","null","12","NaN","","","","","","","","","","","","","","",""
"","S2","","html-keyboard-response","93","89210","0.0-1.0-112.0","0","0","54507","","null","","","null","12","","NaN","","","","","","","","","","","","","",""
"","response","","html-keyboard-response","94","89483","0.0-1.0-113.0-0.0","0","0","54507","","272","","","75","12","","","2","12","training","adjacent","CD","3","4","P.jpg","M.jpg","1","1","1","",""
"","feedback","","html-keyboard-response","95","89587","0.0-1.0-114.0-0.0","0","0","54507","","null","","","null","12","","","","","","","","","","","","","","","",""
"","ITI","","html-keyboard-response","96","90096","0.0-1.0-117.0","0","0","54507","","392","","","75","12","","","","","","","","","","","","","","","k",""
"","S1","","html-keyboard-response","97","90354","0.0-1.0-119.0","0","0","54507","","null","","","null","13","","","","","","","","","","","","","","","",""
"","ISI","","html-keyboard-response","98","90460","0.0-1.0-120.0","0","0","54507","","null","","","null","13","NaN","","","","","","","","","","","","","","",""
"","S2","","html-keyboard-response","99","90513","0.0-1.0-121.0","0","0","54507","","51","","","75","13","","k","2","13","training","adjacent","BC","2","3","O.jpg","P.jpg","1","1","1","",""
"","feedback","","html-keyboard-response","100","90617","0.0-1.0-123.0-0.0","0","0","54507","","null","","","null","13","","","","","","","","","","","","","","","",""
"","ITI","","html-keyboard-response","101","91120","0.0-1.0-126.0","0","0","54507","","64","","","75","13","","","","","","","","","","","","","","","k",""
"","S1","","html-keyboard-response","102","91378","0.0-1.0-128.0","0","0","54507","","null","","","null","14","","","","","","","","","","","","","","","",""
"","ISI","","html-keyboard-response","103","91484","0.0-1.0-129.0","0","0","54507","","83","","","75","14","k","","","","","","","","","","","","","","",""
"","S2","","html-keyboard-response","104","91641","0.0-1.0-130.0","0","0","54507","","155","","","75","14","","k","2","14","training","adjacent","AB","1","2","N.jpg","O.jpg","1","1","1","",""
"","feedback","","html-keyboard-response","105","91749","0.0-1.0-132.0-0.0","0","0","54507","","null","","","null","14","","","","","","","","","","","","","","","",""
"","ITI","","html-keyboard-response","106","92256","0.0-1.0-135.0","0","0","54507","","78","","","75","14","","","","","","","","","","","","","","","k",""
"","S1","","html-keyboard-response","107","92513","0.0-1.0-137.0","0","0","54507","","null","","","null","15","","","","","","","","","","","","","","","",""
"","ISI","","html-keyboard-response","108","92619","0.0-1.0-138.0","0","0","54507","","62","","","75","15","k","","","","","","","","","","","","","","",""
"","S2","","html-keyboard-response","109","92760","0.0-1.0-139.0","0","0","54507","","138","","","75","15","","k","2","15","training","adjacent","ED","5","4","Q.jpg","M.jpg","1","0","0","",""
"","feedback","","html-keyboard-response","110","92869","0.0-1.0-141.0-0.0","0","0","54507","","null","","","null","15","","","","","","","","","","","","","","","",""
"","time_out","","html-keyboard-response","111","92978","0.0-1.0-143.0-0.0","0","0","54507","","null","","","null","15","","","","","","","","","","","","","","","",""
"","ITI","","html-keyboard-response","112","93481","0.0-1.0-144.0","0","0","54507","","191","","","75","15","","","","","","","","","","","","","","","k",""
"","S1","","html-keyboard-response","113","93739","0.0-1.0-146.0","0","0","54507","","null","","","null","16","","","","","","","","","","","","","","","",""
"","ISI","","html-keyboard-response","114","93849","0.0-1.0-147.0","0","0","54507","","61","","","75","16","k","","","","","","","","","","","","","","",""
"","S2","","html-keyboard-response","115","94011","0.0-1.0-148.0","0","0","54507","","161","","","75","16","","k","2","16","training","adjacent","CB","3","2","P.jpg","O.jpg","1","0","0","",""
"","feedback","","html-keyboard-response","116","94115","0.0-1.0-150.0-0.0","0","0","54507","","null","","","null","16","","","","","","","","","","","","","","","",""
"","time_out","","html-keyboard-response","117","94226","0.0-1.0-152.0-0.0","0","0","54507","","null","","","null","16","","","","","","","","","","","","","","","",""
"","ITI","","html-keyboard-response","118","94731","0.0-1.0-153.0","0","0","54507","","192","","","75","16","","","","","","","","","","","","","","","k",""
"","S1","","html-keyboard-response","119","94986","0.0-1.0-155.0","0","0","54507","","null","","","null","17","","","","","","","","","","","","","","","",""
"","ISI","","html-keyboard-response","120","95091","0.0-1.0-156.0","0","0","54507","","null","","","null","17","NaN","","","","","","","","","","","","","","",""
"","S2","","html-keyboard-response","121","95137","0.0-1.0-157.0","0","0","54507","","44","","","75","17","","k","2","17","training","adjacent","FE","6","5","R.jpg","Q.jpg","1","0","0","",""
"","feedback","","html-keyboard-response","122","95243","0.0-1.0-159.0-0.0","0","0","54507","","null","","","null","17","","","","","","","","","","","","","","","",""
"","time_out","","html-keyboard-response","123","95356","0.0-1.0-161.0-0.0","0","0","54507","","null","","","null","17","","","","","","","","","","","","","","","",""
"","ITI","","html-keyboard-response","124","95865","0.0-1.0-162.0","0","0","54507","","20","","","75","17","","","","","","","","","","","","","","","k",""
"","S1","","html-keyboard-response","125","96122","0.0-1.0-164.0","0","0","54507","","null","","","null","18","","","","","","","","","","","","","","","",""
"","ISI","","html-keyboard-response","126","96226","0.0-1.0-165.0","0","0","54507","","75","","","75","18","k","","","","","","","","","","","","","","",""
"","S2","","html-keyboard-response","127","96391","0.0-1.0-166.0","0","0","54507","","163","","","75","18","","k","2","18","training","adjacent","BA","2","1","O.jpg","N.jpg","1","0","0","",""
"","feedback","","html-keyboard-response","128","96496","0.0-1.0-168.0-0.0","0","0","54507","","null","","","null","18","","","","","","","","","","","","","","","",""
"","time_out","","html-keyboard-response","129","96603","0.0-1.0-170.0-0.0","0","0","54507","","null","","","null","18","","","","","","","","","","","","","","","",""
"","ITI","","html-keyboard-response","130","97113","0.0-1.0-171.0","0","0","54507","","0","","","75","18","","","","","","","","","","","","","","","k",""
"","S1","","html-keyboard-response","131","97370","0.0-1.0-173.0","0","0","54507","","null","","","null","19","","","","","","","","","","","","","","","",""
"","ISI","","html-keyboard-response","132","97476","0.0-1.0-174.0","0","0","54507","","null","","","null","19","NaN","","","","","","","","","","","","","","",""
"","S2","","html-keyboard-response","133","97650","0.0-1.0-175.0","0","0","54507","","172","","","75","19","","k","2","19","training","adjacent","DE","4","5","M.jpg","Q.jpg","1","1","1","",""
"","feedback","","html-keyboard-response","134","97756","0.0-1.0-177.0-0.0","0","0","54507","","null","","","null","19","","","","","","","","","","","","","","","",""
"","ITI","","html-keyboard-response","135","98269","0.0-1.0-180.0","0","0","54507","","70","","","75","19","","","","","","","","","","","","","","","k",""
"","S1","","html-keyboard-response","136","98532","0.0-1.0-182.0","0","0","54507","","null","","","null","20","","","","","","","","","","","","","","","",""
"","ISI","","html-keyboard-response","137","98638","0.0-1.0-183.0","0","0","54507","","104","","","75","20","k","","","","","","","","","","","","","","",""
"","S2","","html-keyboard-response","138","98901","0.0-1.0-184.0","0","0","54507","","null","","","null","20","","NaN","","","","","","","","","","","","","",""
"","response","","html-keyboard-response","139","98946","0.0-1.0-185.0-0.0","0","0","54507","","45","","","75","20","","","2","20","training","adjacent","EF","5","6","Q.jpg","R.jpg","1","1","1","",""
"","feedback","","html-keyboard-response","140","99056","0.0-1.0-186.0-0.0","0","0","54507","","null","","","null","20","","","","","","","","","","","","","","","",""
"","ITI","","html-keyboard-response","141","99563","0.0-1.0-189.0","0","0","54507","","130","","","75","20","","","","","","","","","","","","","","","k",""
"","S1","","html-keyboard-response","142","99815","0.0-1.0-191.0","0","0","54507","","null","","","null","21","","","","","","","","","","","","","","","",""
"","ISI","","html-keyboard-response","143","99924","0.0-1.0-192.0","0","0","54507","","null","","","null","21","NaN","","","","","","","","","","","","","","",""
"","S2","","html-keyboard-response","144","99977","0.0-1.0-193.0","0","0","54507","","51","","","75","21","","k","2","21","training","adjacent","FG","6","7","R.jpg","L.jpg","1","1","1","",""
"","feedback","","html-keyboard-response","145","100081","0.0-1.0-195.0-0.0","0","0","54507","","null","","","null","21","","","","","","","","","","","","","","","",""
"","ITI","","html-keyboard-response","146","100588","0.0-1.0-198.0","0","0","54507","","118","","","75","21","","","","","","","","","","","","","","","k",""
"","S1","","html-keyboard-response","147","100841","0.0-1.0-200.0","0","0","54507","","null","","","null","22","","","","","","","","","","","","","","","",""
"","ISI","","html-keyboard-response","148","100947","0.0-1.0-201.0","0","0","54507","","1","","","75","22","k","","","","","","","","","","","","","","",""
"","S2","","html-keyboard-response","149","101181","0.0-1.0-202.0","0","0","54507","","233","","","75","22","","k","2","22","training","adjacent","DC","4","3","M.jpg","P.jpg","1","0","0","",""
"","feedback","","html-keyboard-response","150","101293","0.0-1.0-204.0-0.0","0","0","54507","","null","","","null","22","","","","","","","","","","","","","","","",""
"","time_out","","html-keyboard-response","151","101400","0.0-1.0-206.0-0.0","0","0","54507","","null","","","null","22","","","","","","","","","","","","","","","",""
"","ITI","","html-keyboard-response","152","101906","0.0-1.0-207.0","0","0","54507","","166","","","75","22","","","","","","","","","","","","","","","k",""
"","S1","","html-keyboard-response","153","102165","0.0-1.0-209.0","0","0","54507","","null","","","null","23","","","","","","","","","","","","","","","",""
"","ISI","","html-keyboard-response","154","102273","0.0-1.0-210.0","0","0","54507","","67","","","75","23","k","","","","","","","","","","","","","","",""
"","S2","","html-keyboard-response","155","102470","0.0-1.0-211.0","0","0","54507","","195","","","75","23","","k","2","23","training","adjacent","GF","7","6","L.jpg","R.jpg","1","0","0","",""
"","feedback","","html-keyboard-response","156","102578","0.0-1.0-213.0-0.0","0","0","54507","","null","","","null","23","","","","","","","","","","","","","","","",""
"","time_out","","html-keyboard-response","157","102681","0.0-1.0-215.0-0.0","0","0","54507","","null","","","null","23","","","","","","","","","","","","","","","",""
"","ITI","","html-keyboard-response","158","103186","0.0-1.0-216.0","0","0","54507","","303","","","75","23","","","","","","","","","","","","","","","k",""
"","block_over","","html-keyboard-response","159","105527","0.0-1.0-217.0-0.0","0","0","54507","","2339","","","32","23","","","","","","","","","","","","","","","",""
"","S1","","html-keyboard-response","160","105789","0.0-1.0-218.0","0","0","54507","","null","","","null","24","","","","","","","","","","","","","","","",""
"","ISI","","html-keyboard-response","161","105897","0.0-1.0-219.0","0","0","54507","","null","","","null","24","NaN","","","","","","","","","","","","","","",""
"","S2","","html-keyboard-response","162","106080","0.0-1.0-220.0","0","0","54507","","181","","","75","24","","k","3","24","training","adjacent","ED","5","4","Q.jpg","M.jpg","1","0","0","",""
"","feedback","","html-keyboard-response","163","106185","0.0-1.0-222.0-0.0","0","0","54507","","null","","","null","24","","","","","","","","","","","","","","","",""
"","time_out","","html-keyboard-response","164","106290","0.0-1.0-224.0-0.0","0","0","54507","","null","","","null","24","","","","","","","","","","","","","","","",""
"","ITI","","html-keyboard-response","165","106793","0.0-1.0-225.0","0","0","54507","","194","","","75","24","","","","","","","","","","","","","","","k",""
"","S1","","html-keyboard-response","166","107050","0.0-1.0-227.0","0","0","54507","","null","","","null","25","","","","","","","","","","","","","","","",""
"","ISI","","html-keyboard-response","167","107156","0.0-1.0-228.0","0","0","54507","","66","","","75","25","k","","","","","","","","","","","","","","",""
"","S2","","html-keyboard-response","168","107300","0.0-1.0-229.0","0","0","54507","","142","","","75","25","","k","3","25","training","adjacent","GF","7","6","L.jpg","R.jpg","1","0","0","",""
"","feedback","","html-keyboard-response","169","107411","0.0-1.0-231.0-0.0","0","0","54507","","null","","","null","25","","","","","","","","","","","","","","","",""
"","time_out","","html-keyboard-response","170","107524","0.0-1.0-233.0-0.0","0","0","54507","","null","","","null","25","","","","","","","","","","","","","","","",""
"","ITI","","html-keyboard-response","171","108032","0.0-1.0-234.0","0","0","54507","","23","","","75","25","","","","","","","","","","","","","","","k",""
"","S1","","html-keyboard-response","172","108291","0.0-1.0-236.0","0","0","54507","","null","","","null","26","","","","","","","","","","","","","","","",""
"","ISI","","html-keyboard-response","173","108402","0.0-1.0-237.0","0","0","54507","","57","","","75","26","k","","","","","","","","","","","","","","",""
"","S2","","html-keyboard-response","174","108538","0.0-1.0-238.0","0","0","54507","","134","","","75","26","","k","3","26","training","adjacent","CD","3","4","P.jpg","M.jpg","1","1","1","",""
"","feedback","","html-keyboard-response","175","108641","0.0-1.0-240.0-0.0","0","0","54507","","null","","","null","26","","","","","","","","","","","","","","","",""
"","ITI","","html-keyboard-response","176","109149","0.0-1.0-243.0","0","0","54507","","null","","","null","26","","","","","","","","","","","","","","","NaN",""
"","S1","","html-keyboard-response","177","109411","0.0-1.0-245.0","0","0","54507","","null","","","null","27","","","","","","","","","","","","","","","",""
"","ISI","","html-keyboard-response","178","109519","0.0-1.0-246.0","0","0","54507","","17","","","75","27","k","","","","","","","","","","","","","","",""
"","S2","","html-keyboard-response","179","109602","0.0-1.0-247.0","0","0","54507","","81","","","75","27","","k","3","27","training","adjacent","EF","5","6","Q.jpg","R.jpg","1","1","1","",""
"","feedback","","html-keyboard-response","180","109706","0.0-1.0-249.0-0.0","0","0","54507","","null","","","null","27","","","","","","","","","","","","","","","",""
"","ITI","","html-keyboard-response","181","110220","0.0-1.0-252.0","0","0","54507","","83","","","75","27","","","","","","","","","","","","","","","k",""
"","S1","","html-keyboard-response","182","110475","0.0-1.0-254.0","0","0","54507","","null","","","null","28","","","","","","","","","","","","","","","",""
"","ISI","","html-keyboard-response","183","110584","0.0-1.0-255.0","0","0","54507","","76","","","75","28","k","","","","","","","","","","","","","","",""
"","S2","","html-keyboard-response","184","110744","0.0-1.0-256.0","0","0","54507","","158","","","75","28","","k","3","28","training","adjacent","AB","1","2","N.jpg","O.jpg","1","1","1","",""
"","feedback","","html-keyboard-response","185","110849","0.0-1.0-258.0-0.0","0","0","54507","","null","","","null","28","","","","","","","","","","","","","","","",""
"","ITI","","html-keyboard-response","186","111356","0.0-1.0-261.0","0","0","54507","","99","","","75","28","","","","","","","","","","","","","","","k",""
"","S1","","html-keyboard-response","187","111620","0.0-1.0-263.0","0","0","54507","","null","","","null","29","","","","","","","","","","","","","","","",""
"","ISI","","html-keyboard-response","188","111731","0.0-1.0-264.0","0","0","54507","","24","","","75","29","k","","","","","","","","","","","","","","",""
"","S2","","html-keyboard-response","189","111828","0.0-1.0-265.0","0","0","54507","","95","","","75","29","","k","3","29","training","adjacent","CB","3","2","P.jpg","O.jpg","1","0","0","",""
"","feedback","","html-keyboard-response","190","111941","0.0-1.0-267.0-0.0","0","0","54507","","null","","","null","29","","","","","","","","","","","","","","","",""
"","time_out","","html-keyboard-response","191","112052","0.0-1.0-269.0-0.0","0","0","54507","","null","","","null","29","","","","","","","","","","","","","","","",""
"","ITI","","html-keyboard-response","192","112564","0.0-1.0-270.0","0","0","54507","","null","","","null","29","","","","","","","","","","","","","","","NaN",""
"","S1","","html-keyboard-response","193","112821","0.0-1.0-272.0","0","0","54507","","null","","","null","30","","","","","","","","","","","","","","","",""
"","ISI","","html-keyboard-response","194","112933","0.0-1.0-273.0","0","0","54507","","null","","","null","30","NaN","","","","","","","","","","","","","","",""
"","S2","","html-keyboard-response","195","112959","0.0-1.0-274.0","0","0","54507","","24","","","75","30","","k","3","30","training","adjacent","BC","2","3","O.jpg","P.jpg","1","1","1","",""
"","feedback","","html-keyboard-response","196","113067","0.0-1.0-276.0-0.0","0","0","54507","","null","","","null","30","","","","","","","","","","","","","","","",""
"","ITI","","html-keyboard-response","197","113577","0.0-1.0-279.0","0","0","54507","","74","","","75","30","","","","","","","","","","","","","","","k",""
"","S1","","html-keyboard-response","198","113837","0.0-1.0-281.0","0","0","54507","","null","","","null","31","","","","","","","","","","","","","","","",""
"","ISI","","html-keyboard-response","199","113946","0.0-1.0-282.0","0","0","54507","","60","","","75","31","k","","","","","","","","","","","","","","",""
"","S2","","html-keyboard-response","200","114079","0.0-1.0-283.0","0","0","54507","","131","","","75","31","","k","3","31","training","adjacent","DE","4","5","M.jpg","Q.jpg","1","1","1","",""
"","feedback","","html-keyboard-response","201","114184","0.0-1.0-285.0-0.0","0","0","54507","","null","","","null","31","","","","","","","","","","","","","","","",""
"","ITI","","html-keyboard-response","202","114690","0.0-1.0-288.0","0","0","54507","","79","","","75","31","","","","","","","","","","","","","","","k",""
"","S1","","html-keyboard-response","203","114948","0.0-1.0-290.0","0","0","54507","","null","","","null","32","","","","","","","","","","","","","","","",""
"","ISI","","html-keyboard-response","204","115060","0.0-1.0-291.0","0","0","54507","","null","","","null","32","NaN","","","","","","","","","","","","","","",""
"","S2","","html-keyboard-response","205","115135","0.0-1.0-292.0","0","0","54507","","73","","","75","32","","k","3","32","training","adjacent","FG","6","7","R.jpg","L.jpg","1","1","1","",""
"","feedback","","html-keyboard-response","206","115242","0.0-1.0-294.0-0.0","0","0","54507","","null","","","null","32","","","","","","","","","","","","","","","",""
"","ITI","","html-keyboard-response","207","115755","0.0-1.0-297.0","0","0","54507","","77","","","75","32","","","","","","","","","","","","","","","k",""
"","S1","","html-keyboard-response","208","116012","0.0-1.0-299.0","0","0","54507","","null","","","null","33","","","","","","","","","","","","","","","",""
"","ISI","","html-keyboard-response","209","116121","0.0-1.0-300.0","0","0","54507","","31","","","75","33","k","","","","","","","","","","","","","","",""
"","S2","","html-keyboard-response","210","116236","0.0-1.0-301.0","0","0","54507","","113","","","75","33","","k","3","33","training","adjacent","FE","6","5","R.jpg","Q.jpg","1","0","0","",""
"","feedback","","html-keyboard-response","211","116346","0.0-1.0-303.0-0.0","0","0","54507","","null","","","null","33","","","","","","","","","","","","","","","",""
"","time_out","","html-keyboard-response","212","116459","0.0-1.0-305.0-0.0","0","0","54507","","null","","","null","33","","","","","","","","","","","","","","","",""
"","ITI","","html-keyboard-response","213","116968","0.0-1.0-306.0","0","0","54507","","null","","","null","33","","","","","","","","","","","","","","","NaN",""
"","S1","","html-keyboard-response","214","117228","0.0-1.0-308.0","0","0","54507","","null","","","null","34","","","","","","","","","","","","","","","",""
"","ISI","","html-keyboard-response","215","117336","0.0-1.0-309.0","0","0","54507","","null","","","null","34","NaN","","","","","","","","","","","","","","",""
"","S2","","html-keyboard-response","216","117399","0.0-1.0-310.0","0","0","54507","","61","","","75","34","","k","3","34","training","adjacent","BA","2","1","O.jpg","N.jpg","1","0","0","",""
"","feedback","","html-keyboard-response","217","117505","0.0-1.0-312.0-0.0","0","0","54507","","null","","","null","34","","","","","","","","","","","","","","","",""
"","time_out","","html-keyboard-response","218","117612","0.0-1.0-314.0-0.0","0","0","54507","","null","","","null","34","","","","","","","","","","","","","","","",""
"","ITI","","html-keyboard-response","219","118121","0.0-1.0-315.0","0","0","54507","","null","","","null","34","","","","","","","","","","","","","","","NaN",""
"","S1","","html-keyboard-response","220","118376","0.0-1.0-317.0","0","0","54507","","null","","","null","35","","","","","","","","","","","","","","","",""
"","ISI","","html-keyboard-response","221","118482","0.0-1.0-318.0","0","0","54507","","null","","","null","35","NaN","","","","","","","","","","","","","","",""
"","S2","","html-keyboard-response","222","118510","0.0-1.0-319.0","0","0","54507","","25","","","75","35","","k","3","35","training","adjacent","DC","4","3","M.jpg","P.jpg","1","0","0","",""
"","feedback","","html-keyboard-response","223","118619","0.0-1.0-321.0-0.0","0","0","54507","","null","","","null","35","","","","","","","","","","","","","","","",""
"","time_out","","html-keyboard-response","224","118732","0.0-1.0-323.0-0.0","0","0","54507","","null","","","null","35","","","","","","","","","","","","","","","",""
"","ITI","","html-keyboard-response","225","119240","0.0-1.0-324.0","0","0","54507","","null","","","null","35","","","","","","","","","","","","","","","NaN",""
"","block_over","","html-keyboard-response","226","120238","0.0-1.0-325.0-0.0","0","0","54507","","995","","","32","35","","","","","","","","","","","","","","","",""
"","S1","","html-keyboard-response","227","120498","0.0-1.0-326.0","0","0","54507","","null","","","null","36","","","","","","","","","","","","","","","",""
"","ISI","","html-keyboard-response","228","120613","0.0-1.0-327.0","0","0","54507","","null","","","null","36","NaN","","","","","","","","","","","","","","",""
"","S2","","html-keyboard-response","229","120702","0.0-1.0-328.0","0","0","54507","","88","","","75","36","","k","4","36","test","non_adjacent","CA","3","1","P.jpg","N.jpg","1","0","0","",""
"","feedback","","html-keyboard-response","230","120811","0.0-1.0-330.0-0.0","0","0","54507","","null","","","null","36","","","","","","","","","","","","","","","",""
"","time_out","","html-keyboard-response","231","120923","0.0-1.0-332.0-0.0","0","0","54507","","null","","","null","36","","","","","","","","","","","","","","","",""
"","ITI","","html-keyboard-response","232","121437","0.0-1.0-333.0","0","0","54507","","0","","","75","36","","","","","","","","","","","","","","","k",""
"","S1","","html-keyboard-response","233","121697","0.0-1.0-335.0","0","0","54507","","null","","","null","37","","","","","","","","","","","","","","","",""
"","ISI","","html-keyboard-response","234","121801","0.0-1.0-336.0","0","0","54507","","4","","","75","37","k","","","","","","","","","","","","","","",""
"","S2","","html-keyboard-response","235","121897","0.0-1.0-337.0","0","0","54507","","93","","","75","37","","k","4","37","test","non_adjacent","DA","4","1","M.jpg","N.jpg","1","0","0","",""
"","feedback","","html-keyboard-response","236","122000","0.0-1.0-339.0-0.0","0","0","54507","","null","","","null","37","","","","","","","","","","","","","","","",""
"","time_out","","html-keyboard-response","237","122105","0.0-1.0-341.0-0.0","0","0","54507","","null","","","null","37","","","","","","","","","","","","","","","",""
"","ITI","","html-keyboard-response","238","122608","0.0-1.0-342.0","0","0","54507","","null","","","null","37","","","","","","","","","","","","","","","NaN",""
"","S1","","html-keyboard-response","239","122864","0.0-1.0-344.0","0","0","54507","","null","","","null","38","","","","","","","","","","","","","","","",""
"","ISI","","html-keyboard-response","240","122970","0.0-1.0-345.0","0","0","54507","","null","","","null","38","NaN","","","","","","","","","","","","","","",""
"","S2","","html-keyboard-response","241","123008","0.0-1.0-346.0","0","0","54507","","36","","","75","38","","k","4","38","test","non_adjacent","FB","6","2","R.jpg","O.jpg","1","0","0","",""
"","feedback","","html-keyboard-response","242","123113","0.0-1.0-348.0-0.0","0","0","54507","","null","","","null","38","","","","","","","","","","","","","","","",""
"","time_out","","html-keyboard-response","243","123218","0.0-1.0-350.0-0.0","0","0","54507","","null","","","null","38","","","","","","","","","","","","","","","",""
"","ITI","","html-keyboard-response","244","123722","0.0-1.0-351.0","0","0","54507","","null","","","null","38","","","","","","","","","","","","","","","NaN",""
"","S1","","html-keyboard-response","245","123976","0.0-1.0-353.0","0","0","54507","","null","","","null","39","","","","","","","","","","","","","","","",""
"","ISI","","html-keyboard-response","246","124085","0.0-1.0-354.0","0","0","54507","","57","","","75","39","k","","","","","","","","","","","","","","",""
"","S2","","html-keyboard-response","247","124210","0.0-1.0-355.0","0","0","54507","","125","","","75","39","","k","4","39","test","non_adjacent","FC","6","3","R.jpg","P.jpg","1","0","0","",""
"","feedback","","html-keyboard-response","248","124315","0.0-1.0-357.0-0.0","0","0","54507","","null","","","null","39","","","","","","","","","","","","","","","",""
"","time_out","","html-keyboard-response","249","124425","0.0-1.0-359.0-0.0","0","0","54507","","null","","","null","39","","","","","","","","","","","","","","","",""
"","ITI","","html-keyboard-response","250","124933","0.0-1.0-360.0","0","0","54507","","null","","","null","39","","","","","","","","","","","","","","","NaN",""
"","S1","","html-keyboard-response","251","125193","0.0-1.0-362.0","0","0","54507","","null","","","null","40","","","","","","","","","","","","","","","",""
"","ISI","","html-keyboard-response","252","125296","0.0-1.0-363.0","0","0","54507","","21","","","75","40","k","","","","","","","","","","","","","","",""
"","S2","","html-keyboard-response","253","125386","0.0-1.0-364.0","0","0","54507","","89","","","75","40","","k","4","40","test","adjacent","BC","2","3","O.jpg","P.jpg","1","1","1","",""
"","feedback","","html-keyboard-response","254","125492","0.0-1.0-366.0-0.0","0","0","54507","","null","","","null","40","","","","","","","","","","","","","","","",""
"","ITI","","html-keyboard-response","255","126001","0.0-1.0-369.0","0","0","54507","","null","","","null","40","","","","","","","","","","","","","","","NaN",""
"","S1","","html-keyboard-response","256","126265","0.0-1.0-371.0","0","0","54507","","null","","","null","41","","","","","","","","","","","","","","","",""
"","ISI","","html-keyboard-response","257","126381","0.0-1.0-372.0","0","0","54507","","null","","","null","41","NaN","","","","","","","","","","","","","","",""
"","S2","","html-keyboard-response","258","126411","0.0-1.0-373.0","0","0","54507","","28","","","75","41","","k","4","41","test","non_adjacent","GA","7","1","L.jpg","N.jpg","1","0","0","",""
"","feedback","","html-keyboard-response","259","126521","0.0-1.0-375.0-0.0","0","0","54507","","null","","","null","41","","","","","","","","","","","","","","","",""
"","time_out","","html-keyboard-response","260","126625","0.0-1.0-377.0-0.0","0","0","54507","","null","","","null","41","","","","","","","","","","","","","","","",""
"","ITI","","html-keyboard-response","261","127131","0.0-1.0-378.0","0","0","54507","","null","","","null","41","","","","","","","","","","","","","","","NaN",""
"","S1","","html-keyboard-response","262","127384","0.0-1.0-380.0","0","0","54507","","null","","","null","42","","","","","","","","","","","","","","","",""
"","ISI","","html-keyboard-response","263","127490","0.0-1.0-381.0","0","0","54507","","43","","","75","42","k","","","","","","","","","","","","","","",""
"","S2","","html-keyboard-response","264","127589","0.0-1.0-382.0","0","0","54507","","97","","","75","42","","k","4","42","test","non_adjacent","EC","5","3","Q.jpg","P.jpg","1","0","0","",""
"","feedback","","html-keyboard-response","265","127696","0.0-1.0-384.0-0.0","0","0","54507","","null","","","null","42","","","","","","","","","","","","","","","",""
"","time_out","","html-keyboard-response","266","127801","0.0-1.0-386.0-0.0","0","0","54507","","null","","","null","42","","","","","","","","","","","","","","","",""
"","ITI","","html-keyboard-response","267","128306","0.0-1.0-387.0","0","0","54507","","null","","","null","42","","","","","","","","","","","","","","","NaN",""
"","S1","","html-keyboard-response","268","128565","0.0-1.0-389.0","0","0","54507","","null","","","null","43","","","","","","","","","","","","","","","",""
"","ISI","","html-keyboard-response","269","128672","0.0-1.0-390.0","0","0","54507","","36","","","75","43","k","","","","","","","","","","","","","","",""
"","S2","","html-keyboard-response","270","128774","0.0-1.0-391.0","0","0","54507","","101","","","75","43","","k","4","43","test","adjacent","CD","3","4","P.jpg","M.jpg","1","1","1","",""
"","feedback","","html-keyboard-response","271","128880","0.0-1.0-393.0-0.0","0","0","54507","","null","","","null","43","","","","","","","","","","","","","","","",""
"","ITI","","html-keyboard-response","272","129388","0.0-1.0-396.0","0","0","54507","","81","","","75","43","","","","","","","","","","","","","","","k",""
"","S1","","html-keyboard-response","273","129651","0.0-1.0-398.0","0","0","54507","","null","","","null","44","","","","","","","","","","","","","","","",""
"","ISI","","html-keyboard-response","274","129761","0.0-1.0-399.0","0","0","54507","","68","","","75","44","k","","","","","","","","","","","","","","",""
"","S2","","html-keyboard-response","275","129910","0.0-1.0-400.0","0","0","54507","","147","","","75","44","","k","4","44","test","adjacent","CB","3","2","P.jpg","O.jpg","1","0","0","",""
"","feedback","","html-keyboard-response","276","130020","0.0-1.0-402.0-0.0","0","0","54507","","null","","","null","44","","","","","","","","","","","","","","","",""
"","time_out","","html-keyboard-response","277","130129","0.0-1.0-404.0-0.0","0","0","54507","","null","","","null","44","","","","","","","","","","","","","","","",""
"","ITI","","html-keyboard-response","278","130633","0.0-1.0-405.0","0","0","54507","","null","","","null","44","","","","","","","","","","","","","","","NaN",""
"","S1","","html-keyboard-response","279","130893","0.0-1.0-407.0","0","0","54507","","null","","","null","45","","","","","","","","","","","","","","","",""
"","ISI","","html-keyboard-response","280","131004","0.0-1.0-408.0","0","0","54507","","60","","","75","45","k","","","","","","","","","","","","","","",""
"","S2","","html-keyboard-response","281","131140","0.0-1.0-409.0","0","0","54507","","134","","","75","45","","k","4","45","test","non_adjacent","AC","1","3","N.jpg","P.jpg","1","1","1","",""
"","feedback","","html-keyboard-response","282","131250","0.0-1.0-411.0-0.0","0","0","54507","","null","","","null","45","","","","","","","","","","","","","","","",""
"","ITI","","html-keyboard-response","283","131762","0.0-1.0-414.0","0","0","54507","","150","","","75","45","","","","","","","","","","","","","","","k",""
"","S1","","html-keyboard-response","284","132021","0.0-1.0-416.0","0","0","54507","","null","","","null","46","","","","","","","","","","","","","","","",""
"","ISI","","html-keyboard-response","285","132130","0.0-1.0-417.0","0","0","54507","","null","","","null","46","NaN","","","","","","","","","","","","","","",""
"","S2","","html-keyboard-response","286","132227","0.0-1.0-418.0","0","0","54507","","96","","","75","46","","k","4","46","test","non_adjacent","GC","7","3","L.jpg","P.jpg","1","0","0","",""
"","feedback","","html-keyboard-response","287","132341","0.0-1.0-420.0-0.0","0","0","54507","","null","","","null","46","","","","","","","","","","","","","","","",""
"","time_out","","html-keyboard-response","288","132452","0.0-1.0-422.0-0.0","0","0","54507","","null","","","null","46","","","","","","","","","","","","","","","",""
"","ITI","","html-keyboard-response","289","132963","0.0-1.0-423.0","0","0","54507","","146","","","75","46","","","","","","","","","","","","","","","k",""
"","S1","","html-keyboard-response","290","133219","0.0-1.0-425.0","0","0","54507","","null","","","null","47","","","","","","","","","","","","","","","",""
"","ISI","","html-keyboard-response","291","133329","0.0-1.0-426.0","0","0","54507","","28","","","75","47","k","","","","","","","","","","","","","","",""
"","S2","","html-keyboard-response","292","133440","0.0-1.0-427.0","0","0","54507","","110","","","75","47","","k","4","47","test","non_adjacent","GB","7","2","L.jpg","O.jpg","1","0","0","",""
"","feedback","","html-keyboard-response","293","133546","0.0-1.0-429.0-0.0","0","0","54507","","null","","","null","47","","","","","","","","","","","","","","","",""
"","time_out","","html-keyboard-response","294","133655","0.0-1.0-431.0-0.0","0","0","54507","","null","","","null","47","","","","","","","","","","","","","","","",""
"","ITI","","html-keyboard-response","295","134164","0.0-1.0-432.0","0","0","54507","","null","","","null","47","","","","","","","","","","","","","","","NaN",""
"","S1","","html-keyboard-response","296","134421","0.0-1.0-434.0","0","0","54507","","null","","","null","48","","","","","","","","","","","","","","","",""
"","ISI","","html-keyboard-response","297","134530","0.0-1.0-435.0","0","0","54507","","29","","","75","48","k","","","","","","","","","","","","","","",""
"","S2","","html-keyboard-response","298","134655","0.0-1.0-436.0","0","0","54507","","124","","","75","48","","k","4","48","test","non_adjacent","AD","1","4","N.jpg","M.jpg","1","1","1","",""
"","feedback","","html-keyboard-response","299","134760","0.0-1.0-438.0-0.0","0","0","54507","","null","","","null","48","","","","","","","","","","","","","","","",""
"","ITI","","html-keyboard-response","300","135266","0.0-1.0-441.0","0","0","54507","","451","","","75","48","","","","","","","","","","","","","","","k",""
"","S1","","html-keyboard-response","301","135523","0.0-1.0-443.0","0","0","54507","","null","","","null","49","","","","","","","","","","","","","","","",""
"","ISI","","html-keyboard-response","302","135632","0.0-1.0-444.0","0","0","54507","","null","","","null","49","NaN","","","","","","","","","","","","","","",""
"","S2","","html-keyboard-response","303","135717","0.0-1.0-445.0","0","0","54507","","84","","","75","49","","k","4","49","test","non_adjacent","FA","6","1","R.jpg","N.jpg","1","0","0","",""
"","feedback","","html-keyboard-response","304","135828","0.0-1.0-447.0-0.0","0","0","54507","","null","","","null","49","","","","","","","","","","","","","","","",""
"","time_out","","html-keyboard-response","305","135938","0.0-1.0-449.0-0.0","0","0","54507","","null","","","null","49","","","","","","","","","","","","","","","",""
"","ITI","","html-keyboard-response","306","136442","0.0-1.0-450.0","0","0","54507","","null","","","null","49","","","","","","","","","","","","","","","NaN",""
"","S1","","html-keyboard-response","307","136696","0.0-1.0-452.0","0","0","54507","","null","","","null","50","","","","","","","","","","","","","","","",""
"","ISI","","html-keyboard-response","308","136802","0.0-1.0-453.0","0","0","54507","","96","","","75","50","k","","","","","","","","","","","","","","",""
"","S2","","html-keyboard-response","309","137038","0.0-1.0-454.0","0","0","54507","","233","","","75","50","","k","4","50","test","adjacent","BA","2","1","O.jpg","N.jpg","1","0","0","",""
"","feedback","","html-keyboard-response","310","137146","0.0-1.0-456.0-0.0","0","0","54507","","null","","","null","50","","","","","","","","","","","","","","","",""
"","time_out","","html-keyboard-response","311","137260","0.0-1.0-458.0-0.0","0","0","54507","","null","","","null","50","","","","","","","","","","","","","","","",""
"","ITI","","html-keyboard-response","312","137772","0.0-1.0-459.0","0","0","54507","","150","","","75","50","","","","","","","","","","","","","","","k",""
"","S1","","html-keyboard-response","313","138034","0.0-1.0-461.0","0","0","54507","","null","","","null","51","","","","","","","","","","","","","","","",""
"","ISI","","html-keyboard-response","314","138145","0.0-1.0-462.0","0","0","54507","","null","","","null","51","NaN","","","","","","","","","","","","","","",""
"","S2","","html-keyboard-response","315","138171","0.0-1.0-463.0","0","0","54507","","25","","","75","51","","k","4","51","test","non_adjacent","BD","2","4","O.jpg","M.jpg","1","1","1","",""
"","feedback","","html-keyboard-response","316","138282","0.0-1.0-465.0-0.0","0","0","54507","","null","","","null","51","","","","","","","","","","","","","","","",""
"","ITI","","html-keyboard-response","317","138789","0.0-1.0-468.0","0","0","54507","","85","","","75","51","","","","","","","","","","","","","","","k",""
"","S1","","html-keyboard-response","318","139048","0.0-1.0-470.0","0","0","54507","","null","","","null","52","","","","","","","","","","","","","","","",""
"","ISI","","html-keyboard-response","319","139155","0.0-1.0-471.0","0","0","54507","","null","","","null","52","NaN","","","","","","","","","","","","","","",""
"","S2","","html-keyboard-response","320","139182","0.0-1.0-472.0","0","0","54507","","25","","","75","52","","k","4","52","test","adjacent","DC","4","3","M.jpg","P.jpg","1","0","0","",""
"","feedback","","html-keyboard-response","321","139289","0.0-1.0-474.0-0.0","0","0","54507","","null","","","null","52","","","","","","","","","","","","","","","",""
"","time_out","","html-keyboard-response","322","139395","0.0-1.0-476.0-0.0","0","0","54507","","null","","","null","52","","","","","","","","","","","","","","","",""
"","ITI","","html-keyboard-response","323","139897","0.0-1.0-477.0","0","0","54507","","144","","","75","52","","","","","","","","","","","","","","","k",""
"","S1","","html-keyboard-response","324","140153","0.0-1.0-479.0","0","0","54507","","null","","","null","53","","","","","","","","","","","","","","","",""
"","ISI","","html-keyboard-response","325","140256","0.0-1.0-480.0","0","0","54507","","null","","","null","53","NaN","","","","","","","","","","","","","","",""
"","S2","","html-keyboard-response","326","140289","0.0-1.0-481.0","0","0","54507","","31","","","75","53","","k","4","53","test","adjacent","AB","1","2","N.jpg","O.jpg","1","1","1","",""
"","feedback","","html-keyboard-response","327","140393","0.0-1.0-483.0-0.0","0","0","54507","","null","","","null","53","","","","","","","","","","","","","","","",""
"","ITI","","html-keyboard-response","328","140896","0.0-1.0-486.0","0","0","54507","","93","","","75","53","","","","","","","","","","","","","","","k",""
"","S1","","html-keyboard-response","329","141155","0.0-1.0-488.0","0","0","54507","","null","","","null","54","","","","","","","","","","","","","","","",""
"","ISI","","html-keyboard-response","330","141267","0.0-1.0-489.0","0","0","54507","","90","","","75","54","k","","","","","","","","","","","","","","",""
"","S2","","html-keyboard-response","331","141444","0.0-1.0-490.0","0","0","54507","","175","","","75","54","","k","4","54","test","non_adjacent","DB","4","2","M.jpg","O.jpg","1","0","0","",""
"","feedback","","html-keyboard-response","332","141556","0.0-1.0-492.0-0.0","0","0","54507","","null","","","null","54","","","","","","","","","","","","","","","",""
"","time_out","","html-keyboard-response","333","141668","0.0-1.0-494.0-0.0","0","0","54507","","null","","","null","54","","","","","","","","","","","","","","","",""
"","ITI","","html-keyboard-response","334","142177","0.0-1.0-495.0","0","0","54507","","null","","","null","54","","","","","","","","","","","","","","","NaN",""
"","S1","","html-keyboard-response","335","142434","0.0-1.0-497.0","0","0","54507","","null","","","null","55","","","","","","","","","","","","","","","",""
"","ISI","","html-keyboard-response","336","142549","0.0-1.0-498.0","0","0","54507","","null","","","null","55","NaN","","","","","","","","","","","","","","",""
"","S2","","html-keyboard-response","337","142575","0.0-1.0-499.0","0","0","54507","","25","","","75","55","","k","4","55","test","non_adjacent","EA","5","1","Q.jpg","N.jpg","1","0","0","",""
"","feedback","","html-keyboard-response","338","142684","0.0-1.0-501.0-0.0","0","0","54507","","null","","","null","55","","","","","","","","","","","","","","","",""
"","time_out","","html-keyboard-response","339","142793","0.0-1.0-503.0-0.0","0","0","54507","","null","","","null","55","","","","","","","","","","","","","","","",""
"","ITI","","html-keyboard-response","340","143299","0.0-1.0-504.0","0","0","54507","","null","","","null","55","","","","","","","","","","","","","","","NaN",""
"","S1","","html-keyboard-response","341","143555","0.0-1.0-506.0","0","0","54507","","null","","","null","56","","","","","","","","","","","","","","","",""
"","ISI","","html-keyboard-response","342","143664","0.0-1.0-507.0","0","0","54507","","null","","","null","56","NaN","","","","","","","","","","","","","","",""
"","S2","","html-keyboard-response","343","143703","0.0-1.0-508.0","0","0","54507","","37","","","75","56","","k","4","56","test","non_adjacent","EB","5","2","Q.jpg","O.jpg","1","0","0","",""
"","feedback","","html-keyboard-response","344","143811","0.0-1.0-510.0-0.0","0","0","54507","","null","","","null","56","","","","","","","","","","","","","","","",""
"","time_out","","html-keyboard-response","345","143920","0.0-1.0-512.0-0.0","0","0","54507","","null","","","null","56","","","","","","","","","","","","","","","",""
"","ITI","","html-keyboard-response","346","144429","0.0-1.0-513.0","0","0","54507","","null","","","null","56","","","","","","","","","","","","","","","NaN",""
"","block_over","","html-keyboard-response","347","145391","0.0-1.0-514.0-0.0","0","0","54507","","960","","","32","56","","","","","","","","","","","","","","","",""
"","S1","","html-keyboard-response","348","145653","0.0-1.0-515.0","0","0","54507","","null","","","null","57","","","","","","","","","","","","","","","",""
"","ISI","","html-keyboard-response","349","145763","0.0-1.0-516.0","0","0","54507","","96","","","75","57","k","","","","","","","","","","","","","","",""
"","S2","","html-keyboard-response","350","145966","0.0-1.0-517.0","0","0","54507","","201","","","75","57","","k","5","57","test","non_adjacent","GE","7","5","L.jpg","Q.jpg","1","0","0","",""
"","feedback","","html-keyboard-response","351","146075","0.0-1.0-519.0-0.0","0","0","54507","","null","","","null","57","","","","","","","","","","","","","","","",""
"","time_out","","html-keyboard-response","352","146183","0.0-1.0-521.0-0.0","0","0","54507","","null","","","null","57","","","","","","","","","","","","","","","",""
"","ITI","","html-keyboard-response","353","146692","0.0-1.0-522.0","0","0","54507","","null","","","null","57","","","","","","","","","","","","","","","NaN",""
"","S1","","html-keyboard-response","354","146954","0.0-1.0-524.0","0","0","54507","","null","","","null","58","","","","","","","","","","","","","","","",""
"","ISI","","html-keyboard-response","355","147069","0.0-1.0-525.0","0","0","54507","","77","","","75","58","k","","","","","","","","","","","","","","",""
"","S2","","html-keyboard-response","356","147204","0.0-1.0-526.0","0","0","54507","","133","","","75","58","","k","5","58","test","non_adjacent","BF","2","6","O.jpg","R.jpg","1","1","1","",""
"","feedback","","html-keyboard-response","357","147312","0.0-1.0-528.0-0.0","0","0","54507","","null","","","null","58","","","","","","","","","","","","","","","",""
"","ITI","","html-keyboard-response","358","147816","0.0-1.0-531.0","0","0","54507","","null","","","null","58","","","","","","","","","","","","","","","NaN",""
"","S1","","html-keyboard-response","359","148072","0.0-1.0-533.0","0","0","54507","","null","","","null","59","","","","","","","","","","","","","","","",""
"","ISI","","html-keyboard-response","360","148177","0.0-1.0-534.0","0","0","54507","","75","","","75","59","k","","","","","","","","","","","","","","",""
"","S2","","html-keyboard-response","361","148349","0.0-1.0-535.0","0","0","54507","","170","","","75","59","","k","5","59","test","non_adjacent","CG","3","7","P.jpg","L.jpg","1","1","1","",""
"","feedback","","html-keyboard-response","362","148461","0.0-1.0-537.0-0.0","0","0","54507","","null","","","null","59","","","","","","","","","","","","","","","",""
"","ITI","","html-keyboard-response","363","148970","0.0-1.0-540.0","0","0","54507","","65","","","75","59","","","","","","","","","","","","","","","k",""
"","S1","","html-keyboard-response","364","149229","0.0-1.0-542.0","0","0","54507","","null","","","null","60","","","","","","","","","","","","","","","",""
"","ISI","","html-keyboard-response","365","149336","0.0-1.0-543.0","0","0","54507","","null","","","null","60","NaN","","","","","","","","","","","","","","",""
"","S2","","html-keyboard-response","366","149425","0.0-1.0-544.0","0","0","54507","","88","","","75","60","","k","5","60","test","adjacent","DE","4","5","M.jpg","Q.jpg","1","1","1","",""
"","feedback","","html-keyboard-response","367","149528","0.0-1.0-546.0-0.0","0","0","54507","","null","","","null","60","","","","","","","","","","","","","","","",""
"","ITI","","html-keyboard-response","368","150036","0.0-1.0-549.0","0","0","54507","","87","","","75","60","","","","","","","","","","","","","","","k",""
"","S1","","html-keyboard-response","369","150296","0.0-1.0-551.0","0","0","54507","","null","","","null","61","","","","","","","","","","","","","","","",""
"","ISI","","html-keyboard-response","370","150398","0.0-1.0-552.0","0","0","54507","","100","","","75","61","k","","","","","","","","","","","","","","",""
"","S2","","html-keyboard-response","371","150596","0.0-1.0-553.0","0","0","54507","","196","","","75","61","","k","5","61","test","non_adjacent","AE","1","5","N.jpg","Q.jpg","1","1","1","",""
"","feedback","","html-keyboard-response","372","150705","0.0-1.0-555.0-0.0","0","0","54507","","null","","","null","61","","","","","","","","","","","","","","","",""
"","ITI","","html-keyboard-response","373","151208","0.0-1.0-558.0","0","0","54507","","101","","","75","61","","","","","","","","","","","","","","","k",""
"","S1","","html-keyboard-response","374","151469","0.0-1.0-560.0","0","0","54507","","null","","","null","62","","","","","","","","","","","","","","","",""
"","ISI","","html-keyboard-response","375","151576","0.0-1.0-561.0","0","0","54507","","null","","","null","62","NaN","","","","","","","","","","","","","","",""
"","S2","","html-keyboard-response","376","151622","0.0-1.0-562.0","0","0","54507","","44","","","75","62","","k","5","62","test","adjacent","FE","6","5","R.jpg","Q.jpg","1","0","0","",""
"","feedback","","html-keyboard-response","377","151729","0.0-1.0-564.0-0.0","0","0","54507","","null","","","null","62","","","","","","","","","","","","","","","",""
"","time_out","","html-keyboard-response","378","151832","0.0-1.0-566.0-0.0","0","0","54507","","null","","","null","62","","","","","","","","","","","","","","","",""
"","ITI","","html-keyboard-response","379","152338","0.0-1.0-567.0","0","0","54507","","161","","","75","62","","","","","","","","","","","","","","","k",""
"","S1","","html-keyboard-response","380","152593","0.0-1.0-569.0","0","0","54507","","null","","","null","63","","","","","","","","","","","","","","","",""
"","ISI","","html-keyboard-response","381","152695","0.0-1.0-570.0","0","0","54507","","94","","","75","63","k","","","","","","","","","","","","","","",""
"","S2","","html-keyboard-response","382","152850","0.0-1.0-571.0","0","0","54507","","153","","","75","63","","k","5","63","test","non_adjacent","EG","5","7","Q.jpg","L.jpg","1","1","1","",""
"","feedback","","html-keyboard-response","383","152955","0.0-1.0-573.0-0.0","0","0","54507","","null","","","null","63","","","","","","","","","","","","","","","",""
"","ITI","","html-keyboard-response","384","153463","0.0-1.0-576.0","0","0","54507","","489","","","75","63","","","","","","","","","","","","","","","k",""
"","S1","","html-keyboard-response","385","153721","0.0-1.0-578.0","0","0","54507","","null","","","null","64","","","","","","","","","","","","","","","",""
"","ISI","","html-keyboard-response","386","153826","0.0-1.0-579.0","0","0","54507","","63","","","75","64","k","","","","","","","","","","","","","","",""
"","S2","","html-keyboard-response","387","153957","0.0-1.0-580.0","0","0","54507","","128","","","75","64","","k","5","64","test","adjacent","EF","5","6","Q.jpg","R.jpg","1","1","1","",""
"","feedback","","html-keyboard-response","388","154069","0.0-1.0-582.0-0.0","0","0","54507","","null","","","null","64","","","","","","","","","","","","","","","",""
"","ITI","","html-keyboard-response","389","154577","0.0-1.0-585.0","0","0","54507","","370","","","75","64","","","","","","","","","","","","","","","k",""
"","S1","","html-keyboard-response","390","154831","0.0-1.0-587.0","0","0","54507","","null","","","null","65","","","","","","","","","","","","","","","",""
"","ISI","","html-keyboard-response","391","154939","0.0-1.0-588.0","0","0","54507","","1","","","75","65","k","","","","","","","","","","","","","","",""
"","S2","","html-keyboard-response","392","155017","0.0-1.0-589.0","0","0","54507","","76","","","75","65","","k","5","65","test","non_adjacent","CF","3","6","P.jpg","R.jpg","1","1","1","",""
"","feedback","","html-keyboard-response","393","155123","0.0-1.0-591.0-0.0","0","0","54507","","null","","","null","65","","","","","","","","","","","","","","","",""
"","ITI","","html-keyboard-response","394","155632","0.0-1.0-594.0","0","0","54507","","91","","","75","65","","","","","","","","","","","","","","","k",""
"","S1","","html-keyboard-response","395","155890","0.0-1.0-596.0","0","0","54507","","null","","","null","66","","","","","","","","","","","","","","","",""
"","ISI","","html-keyboard-response","396","156001","0.0-1.0-597.0","0","0","54507","","61","","","75","66","k","","","","","","","","","","","","","","",""
"","S2","","html-keyboard-response","397","156133","0.0-1.0-598.0","0","0","54507","","130","","","75","66","","k","5","66","test","adjacent","ED","5","4","Q.jpg","M.jpg","1","0","0","",""
"","feedback","","html-keyboard-response","398","156240","0.0-1.0-600.0-0.0","0","0","54507","","null","","","null","66","","","","","","","","","","","","","","","",""
"","time_out","","html-keyboard-response","399","156344","0.0-1.0-602.0-0.0","0","0","54507","","null","","","null","66","","","","","","","","","","","","","","","",""
"","ITI","","html-keyboard-response","400","156848","0.0-1.0-603.0","0","0","54507","","null","","","null","66","","","","","","","","","","","","","","","NaN",""
"","S1","","html-keyboard-response","401","157105","0.0-1.0-605.0","0","0","54507","","null","","","null","67","","","","","","","","","","","","","","","",""
"","ISI","","html-keyboard-response","402","157213","0.0-1.0-606.0","0","0","54507","","null","","","null","67","NaN","","","","","","","","","","","","","","",""
"","S2","","html-keyboard-response","403","157226","0.0-1.0-607.0","0","0","54507","","11","","","75","67","","k","5","67","test","non_adjacent","AG","1","7","N.jpg","L.jpg","1","1","1","",""
"","feedback","","html-keyboard-response","404","157338","0.0-1.0-609.0-0.0","0","0","54507","","null","","","null","67","","","","","","","","","","","","","","","",""
"","ITI","","html-keyboard-response","405","157848","0.0-1.0-612.0","0","0","54507","","66","","","75","67","","","","","","","","","","","","","","","k",""
"","S1","","html-keyboard-response","406","158106","0.0-1.0-614.0","0","0","54507","","null","","","null","68","","","","","","","","","","","","","","","",""
"","ISI","","html-keyboard-response","407","158217","0.0-1.0-615.0","0","0","54507","","null","","","null","68","NaN","","","","","","","","","","","","","","",""
"","S2","","html-keyboard-response","408","158222","0.0-1.0-616.0","0","0","54507","","4","","","75","68","","k","5","68","test","adjacent","FG","6","7","R.jpg","L.jpg","1","1","1","",""
"","feedback","","html-keyboard-response","409","158329","0.0-1.0-618.0-0.0","0","0","54507","","null","","","null","68","","","","","","","","","","","","","","","",""
"","ITI","","html-keyboard-response","410","158834","0.0-1.0-621.0","0","0","54507","","64","","","75","68","","","","","","","","","","","","","","","k",""
"","S1","","html-keyboard-response","411","159092","0.0-1.0-623.0","0","0","54507","","null","","","null","69","","","","","","","","","","","","","","","",""
"","ISI","","html-keyboard-response","412","159200","0.0-1.0-624.0","0","0","54507","","28","","","75","69","k","","","","","","","","","","","","","","",""
"","S2","","html-keyboard-response","413","159333","0.0-1.0-625.0","0","0","54507","","132","","","75","69","","k","5","69","test","non_adjacent","CE","3","5","P.jpg","Q.jpg","1","1","1","",""
"","feedback","","html-keyboard-response","414","159444","0.0-1.0-627.0-0.0","0","0","54507","","null","","","null","69","","","","","","","","","","","","","","","",""
"","ITI","","html-keyboard-response","415","159955","0.0-1.0-630.0","0","0","54507","","null","","","null","69","","","","","","","","","","","","","","","NaN",""
"","S1","","html-keyboard-response","416","160207","0.0-1.0-632.0","0","0","54507","","null","","","null","70","","","","","","","","","","","","","","","",""
"","ISI","","html-keyboard-response","417","160314","0.0-1.0-633.0","0","0","54507","","33","","","75","70","k","","","","","","","","","","","","","","",""
"","S2","","html-keyboard-response","418","160492","0.0-1.0-634.0","0","0","54507","","176","","","75","70","","k","5","70","test","non_adjacent","BG","2","7","O.jpg","L.jpg","1","1","1","",""
"","feedback","","html-keyboard-response","419","160600","0.0-1.0-636.0-0.0","0","0","54507","","null","","","null","70","","","","","","","","","","","","","","","",""
"","ITI","","html-keyboard-response","420","161104","0.0-1.0-639.0","0","0","54507","","281","","","75","70","","","","","","","","","","","","","","","k",""
"","S1","","html-keyboard-response","421","161360","0.0-1.0-641.0","0","0","54507","","null","","","null","71","","","","","","","","","","","","","","","",""
"","ISI","","html-keyboard-response","422","161464","0.0-1.0-642.0","0","0","54507","","null","","","null","71","NaN","","","","","","","","","","","","","","",""
"","S2","","html-keyboard-response","423","161528","0.0-1.0-643.0","0","0","54507","","63","","","75","71","","k","5","71","test","adjacent","GF","7","6","L.jpg","R.jpg","1","0","0","",""
"","feedback","","html-keyboard-response","424","161633","0.0-1.0-645.0-0.0","0","0","54507","","null","","","null","71","","","","","","","","","","","","","","","",""
"","time_out","","html-keyboard-response","425","161737","0.0-1.0-647.0-0.0","0","0","54507","","null","","","null","71","","","","","","","","","","","","","","","",""
"","ITI","","html-keyboard-response","426","162241","0.0-1.0-648.0","0","0","54507","","181","","","75","71","","","","","","","","","","","","","","","k",""
"","S1","","html-keyboard-response","427","162499","0.0-1.0-650.0","0","0","54507","","null","","","null","72","","","","","","","","","","","","","","","",""
"","ISI","","html-keyboard-response","428","162612","0.0-1.0-651.0","0","0","54507","","32","","","75","72","k","","","","","","","","","","","","","","",""
"","S2","","html-keyboard-response","429","162712","0.0-1.0-652.0","0","0","54507","","98","","","75","72","","k","5","72","test","non_adjacent","GD","7","4","L.jpg","M.jpg","1","0","0","",""
"","feedback","","html-keyboard-response","430","162820","0.0-1.0-654.0-0.0","0","0","54507","","null","","","null","72","","","","","","","","","","","","","","","",""
"","time_out","","html-keyboard-response","431","162932","0.0-1.0-656.0-0.0","0","0","54507","","null","","","null","72","","","","","","","","","","","","","","","",""
"","ITI","","html-keyboard-response","432","163440","0.0-1.0-657.0","0","0","54507","","null","","","null","72","","","","","","","","","","","","","","","NaN",""
"","S1","","html-keyboard-response","433","163697","0.0-1.0-659.0","0","0","54507","","null","","","null","73","","","","","","","","","","","","","","","",""
"","ISI","","html-keyboard-response","434","163800","0.0-1.0-660.0","0","0","54507","","null","","","null","73","NaN","","","","","","","","","","","","","","",""
"","S2","","html-keyboard-response","435","163925","0.0-1.0-661.0","0","0","54507","","124","","","75","73","","k","5","73","test","non_adjacent","AF","1","6","N.jpg","R.jpg","1","1","1","",""
"","feedback","","html-keyboard-response","436","164036","0.0-1.0-663.0-0.0","0","0","54507","","null","","","null","73","","","","","","","","","","","","","","","",""
"","ITI","","html-keyboard-response","437","164546","0.0-1.0-666.0","0","0","54507","","107","","","75","73","","","","","","","","","","","","","","","k",""
"","S1","","html-keyboard-response","438","164805","0.0-1.0-668.0","0","0","54507","","null","","","null","74","","","","","","","","","","","","","","","",""
"","ISI","","html-keyboard-response","439","164917","0.0-1.0-669.0","0","0","54507","","null","","","null","74","NaN","","","","","","","","","","","","","","",""
"","S2","","html-keyboard-response","440","165180","0.0-1.0-670.0","0","0","54507","","null","","","null","74","","NaN","","","","","","","","","","","","","",""
"","response","","html-keyboard-response","441","165253","0.0-1.0-671.0-0.0","0","0","54507","","71","","","75","74","","","5","74","test","non_adjacent","DF","4","6","M.jpg","R.jpg","1","1","1","",""
"","feedback","","html-keyboard-response","442","165355","0.0-1.0-672.0-0.0","0","0","54507","","null","","","null","74","","","","","","","","","","","","","","","",""
"","ITI","","html-keyboard-response","443","165867","0.0-1.0-675.0","0","0","54507","","null","","","null","74","","","","","","","","","","","","","","","NaN",""
"","S1","","html-keyboard-response","444","166122","0.0-1.0-677.0","0","0","54507","","null","","","null","75","","","","","","","","","","","","","","","",""
"","ISI","","html-keyboard-response","445","166233","0.0-1.0-678.0","0","0","54507","","null","","","null","75","NaN","","","","","","","","","","","","","","",""
"","S2","","html-keyboard-response","446","166489","0.0-1.0-679.0","0","0","54507","","null","","","null","75","","NaN","","","","","","","","","","","","","",""
"","response","","html-keyboard-response","447","166927","0.0-1.0-680.0-0.0","0","0","54507","","437","","","75","75","","","5","75","test","non_adjacent","BE","2","5","O.jpg","Q.jpg","1","1","1","",""
"","feedback","","html-keyboard-response","448","167037","0.0-1.0-681.0-0.0","0","0","54507","","null","","","null","75","","","","","","","","","","","","","","","",""
"","ITI","","html-keyboard-response","449","167546","0.0-1.0-684.0","0","0","54507","","null","","","null","75","","","","","","","","","","","","","","","NaN",""
"","S1","","html-keyboard-response","450","167804","0.0-1.0-686.0","0","0","54507","","null","","","null","76","","","","","","","","","","","","","","","",""
"","ISI","","html-keyboard-response","451","167914","0.0-1.0-687.0","0","0","54507","","null","","","null","76","NaN","","","","","","","","","","","","","","",""
"","S2","","html-keyboard-response","452","168167","0.0-1.0-688.0","0","0","54507","","null","","","null","76","","NaN","","","","","","","","","","","","","",""
"","response","","html-keyboard-response","453","168253","0.0-1.0-689.0-0.0","0","0","54507","","84","","","75","76","","","5","76","test","non_adjacent","FD","6","4","R.jpg","M.jpg","1","0","0","",""
"","feedback","","html-keyboard-response","454","168357","0.0-1.0-690.0-0.0","0","0","54507","","null","","","null","76","","","","","","","","","","","","","","","",""
"","time_out","","html-keyboard-response","455","168464","0.0-1.0-692.0-0.0","0","0","54507","","null","","","null","76","","","","","","","","","","","","","","","",""
"","ITI","","html-keyboard-response","456","168968","0.0-1.0-693.0","0","0","54507","","null","","","null","76","","","","","","","","","","","","","","","NaN",""
"","S1","","html-keyboard-response","457","169224","0.0-1.0-695.0","0","0","54507","","null","","","null","77","","","","","","","","","","","","","","","",""
"","ISI","","html-keyboard-response","458","169329","0.0-1.0-696.0","0","0","54507","","null","","","null","77","NaN","","","","","","","","","","","","","","",""
"","S2","","html-keyboard-response","459","169580","0.0-1.0-697.0","0","0","54507","","250","","","75","77","","k","5","77","test","non_adjacent","DG","4","7","M.jpg","L.jpg","1","1","1","",""
"","feedback","","html-keyboard-response","460","169689","0.0-1.0-699.0-0.0","0","0","54507","","null","","","null","77","","","","","","","","","","","","","","","",""
"","ITI","","html-keyboard-response","461","170204","0.0-1.0-702.0","0","0","54507","","null","","","null","77","","","","","","","","","","","","","","","NaN",""
"","block_over","","html-keyboard-response","462","171253","0.0-1.0-703.0-0.0","0","0","54507","","1047","","","32","77","","","","","","","","","","","","","","","",""
"","S1","","html-keyboard-response","463","171512","0.0-1.0-704.0","0","0","54507","","null","","","null","78","","","","","","","","","","","","","","","",""
"","ISI","","html-keyboard-response","464","171616","0.0-1.0-705.0","0","0","54507","","29","","","75","78","k","","","","","","","","","","","","","","",""
"","S2","","html-keyboard-response","465","171874","0.0-1.0-706.0","0","0","54507","","null","","","null","78","","NaN","","","","","","","","","","","","","",""
"","response","","html-keyboard-response","466","172384","0.0-1.0-707.0-0.0","0","0","54507","","null","","","null","78","","","6","78","test","non_adjacent","GC","7","3","L.jpg","P.jpg","NaN","0","0","",""
"","too_slow_prompt","","html-keyboard-response","467","173391","0.0-1.0-709.0-0.0","1","0","54507","","null","","","null","","","","","","","","","","","","","","","","",""
"","time_out","","html-keyboard-response","468","173500","0.0-1.0-710.0-0.0","0","0","54507","","null","","","null","78","","","","","","","","","","","","","","","",""
"","ITI","","html-keyboard-response","469","174008","0.0-1.0-711.0","0","0","54507","","null","","","null","78","","","","","","","","","","","","","","","NaN",""
"","S1","","html-keyboard-response","470","174263","0.0-1.0-713.0","0","0","54507","","null","","","null","79","","","","","","","","","","","","","","","",""
"","ISI","","html-keyboard-response","471","174369","0.0-1.0-714.0","0","0","54507","","null","","","null","79","NaN","","","","","","","","","","","","","","",""
"","S2","","html-keyboard-response","472","174623","0.0-1.0-715.0","0","0","54507","","null","","","null","79","","NaN","","","","","","","","","","","","","",""
"","response","","html-keyboard-response","473","174862","0.0-1.0-716.0-0.0","0","0","54507","","237","","","75","79","","","6","79","test","adjacent","AB","1","2","N.jpg","O.jpg","1","1","1","",""
"","feedback","","html-keyboard-response","474","174971","0.0-1.0-717.0-0.0","0","0","54507","","null","","","null","79","","","","","","","","","","","","","","","",""
"","ITI","","html-keyboard-response","475","175481","0.0-1.0-720.0","0","0","54507","","null","","","null","79","","","","","","","","","","","","","","","NaN",""
"","S1","","html-keyboard-response","476","175740","0.0-1.0-722.0","0","0","54507","","null","","","null","80","","","","","","","","","","","","","","","",""
"","ISI","","html-keyboard-response","477","175850","0.0-1.0-723.0","0","0","54507","","null","","","null","80","NaN","","","","","","","","","","","","","","",""
"","S2","","html-keyboard-response","478","176031","0.0-1.0-724.0","0","0","54507","","180","","","75","80","","k","6","80","test","non_adjacent","AD","1","4","N.jpg","M.jpg","1","1","1","",""
"","feedback","","html-keyboard-response","479","176140","0.0-1.0-726.0-0.0","0","0","54507","","null","","","null","80","","","","","","","","","","","","","","","",""
"","ITI","","html-keyboard-response","480","176648","0.0-1.0-729.0","0","0","54507","","null","","","null","80","","","","","","","","","","","","","","","NaN",""
"","S1","","html-keyboard-response","481","176906","0.0-1.0-731.0","0","0","54507","","null","","","null","81","","","","","","","","","","","","","","","",""
"","ISI","","html-keyboard-response","482","177012","0.0-1.0-732.0","0","0","54507","","null","","","null","81","NaN","","","","","","","","","","","","","","",""
"","S2","","html-keyboard-response","483","177100","0.0-1.0-733.0","0","0","54507","","86","","","75","81","","k","6","81","test","non_adjacent","FB","6","2","R.jpg","O.jpg","1","0","0","",""
"","feedback","","html-keyboard-response","484","177212","0.0-1.0-735.0-0.0","0","0","54507","","null","","","null","81","","","","","","","","","","","","","","","",""
"","time_out","","html-keyboard-response","485","177321","0.0-1.0-737.0-0.0","0","0","54507","","null","","","null","81","","","","","","","","","","","","","","","",""
"","ITI","","html-keyboard-response","486","177823","0.0-1.0-738.0","0","0","54507","","null","","","null","81","","","","","","","","","","","","","","","NaN",""
"","S1","","html-keyboard-response","487","178083","0.0-1.0-740.0","0","0","54507","","null","","","null","82","","","","","","","","","","","","","","","",""
"","ISI","","html-keyboard-response","488","178193","0.0-1.0-741.0","0","0","54507","","null","","","null","82","NaN","","","","","","","","","","","","","","",""
"","S2","","html-keyboard-response","489","178405","0.0-1.0-742.0","0","0","54507","","210","","","75","82","","k","6","82","test","non_adjacent","CA","3","1","P.jpg","N.jpg","1","0","0","",""
"","feedback","","html-keyboard-response","490","178511","0.0-1.0-744.0-0.0","0","0","54507","","null","","","null","82","","","","","","","","","","","","","","","",""
"","time_out","","html-keyboard-response","491","178619","0.0-1.0-746.0-0.0","0","0","54507","","null","","","null","82","","","","","","","","","","","","","","","",""
"","ITI","","html-keyboard-response","492","179130","0.0-1.0-747.0","0","0","54507","","null","","","null","82","","","","","","","","","","","","","","","NaN",""
"","S1","","html-keyboard-response","493","179387","0.0-1.0-749.0","0","0","54507","","null","","","null","83","","","","","","","","","","","","","","","",""
"","ISI","","html-keyboard-response","494","179496","0.0-1.0-750.0","0","0","54507","","null","","","null","83","NaN","","","","","","","","","","","","","","",""
"","S2","","html-keyboard-response","495","179582","0.0-1.0-751.0","0","0","54507","","84","","","75","83","","k","6","83","test","non_adjacent","EA","5","1","Q.jpg","N.jpg","1","0","0","",""
"","feedback","","html-keyboard-response","496","179691","0.0-1.0-753.0-0.0","0","0","54507","","null","","","null","83","","","","","","","","","","","","","","","",""
"","time_out","","html-keyboard-response","497","179802","0.0-1.0-755.0-0.0","0","0","54507","","null","","","null","83","","","","","","","","","","","","","","","",""
"","ITI","","html-keyboard-response","498","180316","0.0-1.0-756.0","0","0","54507","","null","","","null","83","","","","","","","","","","","","","","","NaN",""
"","S1","","html-keyboard-response","499","180578","0.0-1.0-758.0","0","0","54507","","null","","","null","84","","","","","","","","","","","","","","","",""
"","ISI","","html-keyboard-response","500","180690","0.0-1.0-759.0","0","0","54507","","null","","","null","84","NaN","","","","","","","","","","","","","","",""
"","S2","","html-keyboard-response","501","180863","0.0-1.0-760.0","0","0","54507","","169","","","75","84","","k","6","84","test","non_adjacent","FC","6","3","R.jpg","P.jpg","1","0","0","",""
"","feedback","","html-keyboard-response","502","180971","0.0-1.0-762.0-0.0","0","0","54507","","null","","","null","84","","","","","","","","","","","","","","","",""
"","time_out","","html-keyboard-response","503","181082","0.0-1.0-764.0-0.0","0","0","54507","","null","","","null","84","","","","","","","","","","","","","","","",""
"","ITI","","html-keyboard-response","504","181594","0.0-1.0-765.0","0","0","54507","","41","","","75","84","","","","","","","","","","","","","","","k",""
"","S1","","html-keyboard-response","505","181851","0.0-1.0-767.0","0","0","54507","","null","","","null","85","","","","","","","","","","","","","","","",""
"","ISI","","html-keyboard-response","506","181964","0.0-1.0-768.0","0","0","54507","","80","","","75","85","k","","","","","","","","","","","","","","",""
"","S2","","html-keyboard-response","507","182181","0.0-1.0-769.0","0","0","54507","","215","","","75","85","","k","6","85","test","non_adjacent","GB","7","2","L.jpg","O.jpg","1","0","0","",""
"","feedback","","html-keyboard-response","508","182290","0.0-1.0-771.0-0.0","0","0","54507","","null","","","null","85","","","","","","","","","","","","","","","",""
"","time_out","","html-keyboard-response","509","182399","0.0-1.0-773.0-0.0","0","0","54507","","null","","","null","85","","","","","","","","","","","","","","","",""
"","ITI","","html-keyboard-response","510","182905","0.0-1.0-774.0","0","0","54507","","null","","","null","85","","","","","","","","","","","","","","","NaN",""
"","S1","","html-keyboard-response","511","183161","0.0-1.0-776.0","0","0","54507","","null","","","null","86","","","","","","","","","","","","","","","",""
"","ISI","","html-keyboard-response","512","183272","0.0-1.0-777.0","0","0","54507","","null","","","null","86","NaN","","","","","","","","","","","","","","",""
"","S2","","html-keyboard-response","513","183430","0.0-1.0-778.0","0","0","54507","","156","","","75","86","","k","6","86","test","non_adjacent","DA","4","1","M.jpg","N.jpg","1","0","0","",""
"","feedback","","html-keyboard-response","514","183538","0.0-1.0-780.0-0.0","0","0","54507","","null","","","null","86","","","","","","","","","","","","","","","",""
"","time_out","","html-keyboard-response","515","183652","0.0-1.0-782.0-0.0","0","0","54507","","null","","","null","86","","","","","","","","","","","","","","","",""
"","ITI","","html-keyboard-response","516","184164","0.0-1.0-783.0","0","0","54507","","null","","","null","86","","","","","","","","","","","","","","","NaN",""
"","S1","","html-keyboard-response","517","184425","0.0-1.0-785.0","0","0","54507","","null","","","null","87","","","","","","","","","","","","","","","",""
"","ISI","","html-keyboard-response","518","184531","0.0-1.0-786.0","0","0","54507","","41","","","75","87","k","","","","","","","","","","","","","","",""
"","S2","","html-keyboard-response","519","184687","0.0-1.0-787.0","0","0","54507","","154","","","75","87","","k","6","87","test","non_adjacent","AC","1","3","N.jpg","P.jpg","1","1","1","",""
"","feedback","","html-keyboard-response","520","184791","0.0-1.0-789.0-0.0","0","0","54507","","null","","","null","87","","","","","","","","","","","","","","","",""
"","ITI","","html-keyboard-response","521","185297","0.0-1.0-792.0","0","0","54507","","110","","","75","87","","","","","","","","","","","","","","","k",""
"","S1","","html-keyboard-response","522","185555","0.0-1.0-794.0","0","0","54507","","null","","","null","88","","","","","","","","","","","","","","","",""
"","ISI","","html-keyboard-response","523","185666","0.0-1.0-795.0","0","0","54507","","null","","","null","88","NaN","","","","","","","","","","","","","","",""
"","S2","","html-keyboard-response","524","185756","0.0-1.0-796.0","0","0","54507","","88","","","75","88","","k","6","88","test","non_adjacent","BD","2","4","O.jpg","M.jpg","1","1","1","",""
"","feedback","","html-keyboard-response","525","185868","0.0-1.0-798.0-0.0","0","0","54507","","null","","","null","88","","","","","","","","","","","","","","","",""
"","ITI","","html-keyboard-response","526","186375","0.0-1.0-801.0","0","0","54507","","325","","","75","88","","","","","","","","","","","","","","","k",""
"","S1","","html-keyboard-response","527","186628","0.0-1.0-803.0","0","0","54507","","null","","","null","89","","","","","","","","","","","","","","","",""
"","ISI","","html-keyboard-response","528","186729","0.0-1.0-804.0","0","0","54507","","5","","","75","89","k","","","","","","","","","","","","","","",""
"","S2","","html-keyboard-response","529","186855","0.0-1.0-805.0","0","0","54507","","124","","","75","89","","k","6","89","test","non_adjacent","DB","4","2","M.jpg","O.jpg","1","0","0","",""
"","feedback","","html-keyboard-response","530","186963","0.0-1.0-807.0-0.0","0","0","54507","","null","","","null","89","","","","","","","","","","","","","","","",""
"","time_out","","html-keyboard-response","531","187076","0.0-1.0-809.0-0.0","0","0","54507","","null","","","null","89","","","","","","","","","","","","","","","",""
"","ITI","","html-keyboard-response","532","187588","0.0-1.0-810.0","0","0","54507","","248","","","75","89","","","","","","","","","","","","","","","k",""
"","S1","","html-keyboard-response","533","187848","0.0-1.0-812.0","0","0","54507","","null","","","null","90","","","","","","","","","","","","","","","",""
"","ISI","","html-keyboard-response","534","187955","0.0-1.0-813.0","0","0","54507","","41","","","75","90","k","","","","","","","","","","","","","","",""
"","S2","","html-keyboard-response","535","188099","0.0-1.0-814.0","0","0","54507","","142","","","75","90","","k","6","90","test","adjacent","BC","2","3","O.jpg","P.jpg","1","1","1","",""
"","feedback","","html-keyboard-response","536","188201","0.0-1.0-816.0-0.0","0","0","54507","","null","","","null","90","","","","","","","","","","","","","","","",""
"","ITI","","html-keyboard-response","537","188705","0.0-1.0-819.0","0","0","54507","","null","","","null","90","","","","","","","","","","","","","","","NaN",""
"","S1","","html-keyboard-response","538","188964","0.0-1.0-821.0","0","0","54507","","null","","","null","91","","","","","","","","","","","","","","","",""
"","ISI","","html-keyboard-response","539","189073","0.0-1.0-822.0","0","0","54507","","null","","","null","91","NaN","","","","","","","","","","","","","","",""
"","S2","","html-keyboard-response","540","189154","0.0-1.0-823.0","0","0","54507","","79","","","75","91","","k","6","91","test","adjacent","BA","2","1","O.jpg","N.jpg","1","0","0","",""
"","feedback","","html-keyboard-response","541","189267","0.0-1.0-825.0-0.0","0","0","54507","","null","","","null","91","","","","","","","","","","","","","","","",""
"","time_out","","html-keyboard-response","542","189375","0.0-1.0-827.0-0.0","0","0","54507","","null","","","null","91","","","","","","","","","","","","","","","",""
"","ITI","","html-keyboard-response","543","189882","0.0-1.0-828.0","0","0","54507","","148","","","75","91","","","","","","","","","","","","","","","k",""
"","S1","","html-keyboard-response","544","190138","0.0-1.0-830.0","0","0","54507","","null","","","null","92","","","","","","","","","","","","","","","",""
"","ISI","","html-keyboard-response","545","190251","0.0-1.0-831.0","0","0","54507","","40","","","75","92","k","","","","","","","","","","","","","","",""
"","S2","","html-keyboard-response","546","190498","0.0-1.0-832.0","0","0","54507","","245","","","75","92","","k","6","92","test","adjacent","CB","3","2","P.jpg","O.jpg","1","0","0","",""
"","feedback","","html-keyboard-response","547","190601","0.0-1.0-834.0-0.0","0","0","54507","","null","","","null","92","","","","","","","","","","","","","","","",""
"","time_out","","html-keyboard-response","548","190707","0.0-1.0-836.0-0.0","0","0","54507","","null","","","null","92","","","","","","","","","","","","","","","",""
"","ITI","","html-keyboard-response","549","191214","0.0-1.0-837.0","0","0","54507","","22","","","75","92","","","","","","","","","","","","","","","k",""
"","S1","","html-keyboard-response","550","191475","0.0-1.0-839.0","0","0","54507","","null","","","null","93","","","","","","","","","","","","","","","",""
"","ISI","","html-keyboard-response","551","191587","0.0-1.0-840.0","0","0","54507","","null","","","null","93","NaN","","","","","","","","","","","","","","",""
"","S2","","html-keyboard-response","552","191716","0.0-1.0-841.0","0","0","54507","","127","","","75","93","","k","6","93","test","non_adjacent","GA","7","1","L.jpg","N.jpg","1","0","0","",""
"","feedback","","html-keyboard-response","553","191828","0.0-1.0-843.0-0.0","0","0","54507","","null","","","null","93","","","","","","","","","","","","","","","",""
"","time_out","","html-keyboard-response","554","191938","0.0-1.0-845.0-0.0","0","0","54507","","null","","","null","93","","","","","","","","","","","","","","","",""
"","ITI","","html-keyboard-response","555","192447","0.0-1.0-846.0","0","0","54507","","269","","","75","93","","","","","","","","","","","","","","","k",""
"","S1","","html-keyboard-response","556","192705","0.0-1.0-848.0","0","0","54507","","null","","","null","94","","","","","","","","","","","","","","","",""
"","ISI","","html-keyboard-response","557","192808","0.0-1.0-849.0","0","0","54507","","20","","","75","94","k","","","","","","","","","","","","","","",""
"","S2","","html-keyboard-response","558","193068","0.0-1.0-850.0","0","0","54507","","null","","","null","94","","NaN","","","","","","","","","","","","","",""
"","response","","html-keyboard-response","559","193089","0.0-1.0-851.0-0.0","0","0","54507","","19","","","75","94","","","6","94","test","adjacent","CD","3","4","P.jpg","M.jpg","1","1","1","",""
"","feedback","","html-keyboard-response","560","193191","0.0-1.0-852.0-0.0","0","0","54507","","null","","","null","94","","","","","","","","","","","","","","","",""
"","ITI","","html-keyboard-response","561","193694","0.0-1.0-855.0","0","0","54507","","134","","","75","94","","","","","","","","","","","","","","","k",""
"","S1","","html-keyboard-response","562","193955","0.0-1.0-857.0","0","0","54507","","null","","","null","95","","","","","","","","","","","","","","","",""
"","ISI","","html-keyboard-response","563","194067","0.0-1.0-858.0","0","0","54507","","98","","","75","95","k","","","","","","","","","","","","","","",""
"","S2","","html-keyboard-response","564","194328","0.0-1.0-859.0","0","0","54507","","null","","","null","95","","NaN","","","","","","","","","","","","","",""
"","response","","html-keyboard-response","565","194401","0.0-1.0-860.0-0.0","0","0","54507","","72","","","75","95","","","6","95","test","adjacent","DC","4","3","M.jpg","P.jpg","1","0","0","",""
"","feedback","","html-keyboard-response","566","194512","0.0-1.0-861.0-0.0","0","0","54507","","null","","","null","95","","","","","","","","","","","","","","","",""
"","time_out","","html-keyboard-response","567","194616","0.0-1.0-863.0-0.0","0","0","54507","","null","","","null","95","","","","","","","","","","","","","","","",""
"","ITI","","html-keyboard-response","568","195123","0.0-1.0-864.0","0","0","54507","","196","","","75","95","","","","","","","","","","","","","","","k",""
"","S1","","html-keyboard-response","569","195384","0.0-1.0-866.0","0","0","54507","","null","","","null","96","","","","","","","","","","","","","","","",""
"","ISI","","html-keyboard-response","570","195489","0.0-1.0-867.0","0","0","54507","","null","","","null","96","NaN","","","","","","","","","","","","","","",""
"","S2","","html-keyboard-response","571","195746","0.0-1.0-868.0","0","0","54507","","null","","","null","96","","NaN","","","","","","","","","","","","","",""
"","response","","html-keyboard-response","572","195873","0.0-1.0-869.0-0.0","0","0","54507","","125","","","75","96","","","6","96","test","non_adjacent","EB","5","2","Q.jpg","O.jpg","1","0","0","",""
"","feedback","","html-keyboard-response","573","195983","0.0-1.0-870.0-0.0","0","0","54507","","null","","","null","96","","","","","","","","","","","","","","","",""
"","time_out","","html-keyboard-response","574","196089","0.0-1.0-872.0-0.0","0","0","54507","","null","","","null","96","","","","","","","","","","","","","","","",""
"","ITI","","html-keyboard-response","575","196592","0.0-1.0-873.0","0","0","54507","","19","","","75","96","","","","","","","","","","","","","","","k",""
"","S1","","html-keyboard-response","576","196851","0.0-1.0-875.0","0","0","54507","","null","","","null","97","","","","","","","","","","","","","","","",""
"","ISI","","html-keyboard-response","577","196953","0.0-1.0-876.0","0","0","54507","","null","","","null","97","NaN","","","","","","","","","","","","","","",""
"","S2","","html-keyboard-response","578","197203","0.0-1.0-877.0","0","0","54507","","248","","","75","97","","k","6","97","test","non_adjacent","EC","5","3","Q.jpg","P.jpg","1","0","0","",""
"","feedback","","html-keyboard-response","579","197313","0.0-1.0-879.0-0.0","0","0","54507","","null","","","null","97","","","","","","","","","","","","","","","",""
"","time_out","","html-keyboard-response","580","197424","0.0-1.0-881.0-0.0","0","0","54507","","null","","","null","97","","","","","","","","","","","","","","","",""
"","ITI","","html-keyboard-response","581","197932","0.0-1.0-882.0","0","0","54507","","58","","","75","97","","","","","","","","","","","","","","","k",""
"","S1","","html-keyboard-response","582","198195","0.0-1.0-884.0","0","0","54507","","null","","","null","98","","","","","","","","","","","","","","","",""
