"success","ttype","start_time","trial_type","trial_index","time_elapsed","internal_node_id","warning","missed_checkup","PID","view_history","rt","responses","repeat_instructions","key_press","index","keypress_isi","keypress_S2","block","trial_num","phase","group_type","pair_type","S1_stim","S2_stim","S1_img","S2_img","S1_chosen","S1_higher","accuracy","keypress_iti","total_bonus_tally"
"true","full_screen","d04132023hr1453","fullscreen","0","11093","0.0-0.0","0","0","70426","","","","","","","","","","","","","","","","","","","","","",""
"","instructions","","instructions","1","37317","0.0-1.0-0.0-0.0","0","0","70426","[{""page_index"":0,""viewing_time"":5395},{""page_index"":1,""viewing_time"":10034},{""page_index"":2,""viewing_time"":8388},{""page_index"":3,""viewing_time"":2398}]","26217","","","","","","","","","","","","","","","","","","","",""
"","comprehension_check","","survey-multi-choice","2","62846","0.0-1.0-0.0-1.0","0","0","70426","","25507","{""Q0"":""True"",""Q1"":""D"",""Q2"":""Once the second image appears and while the screen 'MAKE A CHOICE' is shown"",""Q3"":""Green mark"",""Q4"":""either D or K""}","0","","","","","","","","","","","","","","","","","",""
"","start_exp","","html-keyboard-response","3","64847","0.0-1.0-1.0","0","0","70426","","1988","","","32","","","","","","","","","","","","","","","","",""
"","S1","","html-keyboard-response","4","65108","0.0-1.0-2.0","0","0","70426","","null","","","null","0","","","","","","","","","","","","","","","",""
"","ISI","","html-keyboard-response","5","66116","0.0-1.0-3.0","0","0","70426","","null","","","null","0","NaN","","","","","","","","","","","","","","",""
"","S2","","html-keyboard-response","6","66373","0.0-1.0-4.0","0","0","70426","","null","","","null","0","","NaN","","","","","","","","","","","","","",""
"","response","","html-keyboard-response","7","67172","0.0-1.0-5.0-0.0","0","0","70426","","792","","","75","0","","","1","0","training","adjacent","CD","3","4","N.jpg","R.jpg","0","1","0","",""
"","feedback","","html-keyboard-response","8","68183","0.0-1.0-6.0-0.0","0","0","70426","","null","","","null","0","","","","","","","","","","","","","","","",""
"","time_out","","html-keyboard-response","9","70192","0.0-1.0-8.0-0.0","0","0","70426","","null","","","null","0","","","","","","","","","","","","","","","",""
"","ITI","","html-keyboard-response","10","71202","0.0-1.0-9.0","0","0","70426","","null","","","null","0","","","","","","","","","","","","","","","NaN",""
"","S1","","html-keyboard-response","11","71467","0.0-1.0-11.0","0","0","70426","","null","","","null","1","","","","","","","","","","","","","","","",""
"","ISI","","html-keyboard-response","12","72482","0.0-1.0-12.0","0","0","70426","","null","","","null","1","NaN","","","","","","","","","","","","","","",""
"","S2","","html-keyboard-response","13","72743","0.0-1.0-13.0","0","0","70426","","null","","","null","1","","NaN","","","","","","","","","","","","","",""
"","response","","html-keyboard-response","14","73421","0.0-1.0-14.0-0.0","0","0","70426","","673","","","68","1","","","1","1","training","adjacent","FE","6","5","Q.jpg","M.jpg","1","0","0","",""
"","feedback","","html-keyboard-response","15","74430","0.0-1.0-15.0-0.0","0","0","70426","","null","","","null","1","","","","","","","","","","","","","","","",""
"","time_out","","html-keyboard-response","16","76445","0.0-1.0-17.0-0.0","0","0","70426","","null","","","null","1","","","","","","","","","","","","","","","",""
"","ITI","","html-keyboard-response","17","77461","0.0-1.0-18.0","0","0","70426","","null","","","null","1","","","","","","","","","","","","","","","NaN",""
"","S1","","html-keyboard-response","18","77731","0.0-1.0-20.0","0","0","70426","","null","","","null","2","","","","","","","","","","","","","","","",""
"","ISI","","html-keyboard-response","19","78744","0.0-1.0-21.0","0","0","70426","","null","","","null","2","NaN","","","","","","","","","","","","","","",""
"","S2","","html-keyboard-response","20","79009","0.0-1.0-22.0","0","0","70426","","null","","","null","2","","NaN","","","","","","","","","","","","","",""
"","response","","html-keyboard-response","21","79505","0.0-1.0-23.0-0.0","0","0","70426","","490","","","68","2","","","1","2","training","adjacent","DC","4","3","R.jpg","N.jpg","1","0","0","",""
"","feedback","","html-keyboard-response","22","80521","0.0-1.0-24.0-0.0","0","0","70426","","null","","","null","2","","","","","","","","","","","","","","","",""
"","time_out","","html-keyboard-response","23","82533","0.0-1.0-26.0-0.0","0","0","70426","","null","","","null","2","","","","","","","","","","","","","","","",""
"","ITI","","html-keyboard-response","24","83549","0.0-1.0-27.0","0","0","70426","","null","","","null","2","","","","","","","","","","","","","","","NaN",""
"","S1","","html-keyboard-response","25","83815","0.0-1.0-29.0","0","0","70426","","null","","","null","3","","","","","","","","","","","","","","","",""
"","ISI","","html-keyboard-response","26","84821","0.0-1.0-30.0","0","0","70426","","null","","","null","3","NaN","","","","","","","","","","","","","","",""
"","S2","","html-keyboard-response","27","85087","0.0-1.0-31.0","0","0","70426","","null","","","null","3","","NaN","","","","","","","","","","","","","",""
"","response","","html-keyboard-response","28","85739","0.0-1.0-32.0-0.0","0","0","70426","","647","","","68","3","","","1","3","training","adjacent","CB","3","2","N.jpg","P.jpg","1","0","0","",""
"","feedback","","html-keyboard-response","29","86761","0.0-1.0-33.0-0.0","0","0","70426","","null","","","null","3","","","","","","","","","","","","","","","",""
"","time_out","","html-keyboard-response","30","88777","0.0-1.0-35.0-0.0","0","0","70426","","null","","","null","3","","","","","","","","","","","","","","","",""
"","ITI","","html-keyboard-response","31","89785","0.0-1.0-36.0","0","0","70426","","null","","","null","3","","","","","","","","","","","","","","","NaN",""
"","S1","","html-keyboard-response","32","90046","0.0-1.0-38.0","0","0","70426","","null","","","null","4","","","","","","","","","","","","","","","",""
"","ISI","","html-keyboard-response","33","91052","0.0-1.0-39.0","0","0","70426","","null","","","null","4","NaN","","","","","","","","","","","","","","",""
"","S2","","html-keyboard-response","34","91316","0.0-1.0-40.0","0","0","70426","","null","","","null","4","","NaN","","","","","","","","","","","","","",""
"","response","","html-keyboard-response","35","92055","0.0-1.0-41.0-0.0","0","0","70426","","732","","","68","4","","","1","4","training","adjacent","DC","4","3","R.jpg","N.jpg","1","0","0","",""
"","feedback","","html-keyboard-response","36","93070","0.0-1.0-42.0-0.0","0","0","70426","","null","","","null","4","","","","","","","","","","","","","","","",""
"","time_out","","html-keyboard-response","37","95081","0.0-1.0-44.0-0.0","0","0","70426","","null","","","null","4","","","","","","","","","","","","","","","",""
"","ITI","","html-keyboard-response","38","96092","0.0-1.0-45.0","0","0","70426","","null","","","null","4","","","","","","","","","","","","","","","NaN",""
"","S1","","html-keyboard-response","39","96350","0.0-1.0-47.0","0","0","70426","","null","","","null","5","","","","","","","","","","","","","","","",""
"","ISI","","html-keyboard-response","40","97362","0.0-1.0-48.0","0","0","70426","","null","","","null","5","NaN","","","","","","","","","","","","","","",""
"","S2","","html-keyboard-response","41","97626","0.0-1.0-49.0","0","0","70426","","null","","","null","5","","NaN","","","","","","","","","","","","","",""
"","response","","html-keyboard-response","42","98249","0.0-1.0-50.0-0.0","0","0","70426","","616","","","75","5","","","1","5","training","adjacent","BC","2","3","P.jpg","N.jpg","0","1","0","",""
"","feedback","","html-keyboard-response","43","99266","0.0-1.0-51.0-0.0","0","0","70426","","null","","","null","5","","","","","","","","","","","","","","","",""
"","time_out","","html-keyboard-response","44","101273","0.0-1.0-53.0-0.0","0","0","70426","","null","","","null","5","","","","","","","","","","","","","","","",""
"","ITI","","html-keyboard-response","45","102285","0.0-1.0-54.0","0","0","70426","","null","","","null","5","","","","","","","","","","","","","","","NaN",""
"","S1","","html-keyboard-response","46","102555","0.0-1.0-56.0","0","0","70426","","null","","","null","6","","","","","","","","","","","","","","","",""
"","ISI","","html-keyboard-response","47","103562","0.0-1.0-57.0","0","0","70426","","null","","","null","6","NaN","","","","","","","","","","","","","","",""
"","S2","","html-keyboard-response","48","103820","0.0-1.0-58.0","0","0","70426","","null","","","null","6","","NaN","","","","","","","","","","","","","",""
"","response","","html-keyboard-response","49","104641","0.0-1.0-59.0-0.0","0","0","70426","","815","","","68","6","","","1","6","training","adjacent","CD","3","4","N.jpg","R.jpg","1","1","1","",""
"","feedback","","html-keyboard-response","50","105653","0.0-1.0-60.0-0.0","0","0","70426","","null","","","null","6","","","","","","","","","","","","","","","",""
"","ITI","","html-keyboard-response","51","106663","0.0-1.0-63.0","0","0","70426","","null","","","null","6","","","","","","","","","","","","","","","NaN",""
"","S1","","html-keyboard-response","52","106922","0.0-1.0-65.0","0","0","70426","","null","","","null","7","","","","","","","","","","","","","","","",""
"","ISI","","html-keyboard-response","53","107941","0.0-1.0-66.0","0","0","70426","","null","","","null","7","NaN","","","","","","","","","","","","","","",""
"","S2","","html-keyboard-response","54","108210","0.0-1.0-67.0","0","0","70426","","null","","","null","7","","NaN","","","","","","","","","","","","","",""
"","response","","html-keyboard-response","55","108514","0.0-1.0-68.0-0.0","0","0","70426","","298","","","75","7","","","1","7","training","adjacent","FE","6","5","Q.jpg","M.jpg","0","0","1","",""
"","feedback","","html-keyboard-response","56","109526","0.0-1.0-69.0-0.0","0","0","70426","","null","","","null","7","","","","","","","","","","","","","","","",""
"","ITI","","html-keyboard-response","57","110541","0.0-1.0-72.0","0","0","70426","","null","","","null","7","","","","","","","","","","","","","","","NaN",""
"","S1","","html-keyboard-response","58","110798","0.0-1.0-74.0","0","0","70426","","null","","","null","8","","","","","","","","","","","","","","","",""
"","ISI","","html-keyboard-response","59","111813","0.0-1.0-75.0","0","0","70426","","null","","","null","8","NaN","","","","","","","","","","","","","","",""
"","S2","","html-keyboard-response","60","112070","0.0-1.0-76.0","0","0","70426","","null","","","null","8","","NaN","","","","","","","","","","","","","",""
"","response","","html-keyboard-response","61","112955","0.0-1.0-77.0-0.0","0","0","70426","","879","","","75","8","","","1","8","training","adjacent","DE","4","5","R.jpg","M.jpg","0","1","0","",""
"","feedback","","html-keyboard-response","62","113968","0.0-1.0-78.0-0.0","0","0","70426","","null","","","null","8","","","","","","","","","","","","","","","",""
"","time_out","","html-keyboard-response","63","115983","0.0-1.0-80.0-0.0","0","0","70426","","null","","","null","8","","","","","","","","","","","","","","","",""
"","ITI","","html-keyboard-response","64","116991","0.0-1.0-81.0","0","0","70426","","null","","","null","8","","","","","","","","","","","","","","","NaN",""
"","S1","","html-keyboard-response","65","117249","0.0-1.0-83.0","0","0","70426","","null","","","null","9","","","","","","","","","","","","","","","",""
"","ISI","","html-keyboard-response","66","118270","0.0-1.0-84.0","0","0","70426","","null","","","null","9","NaN","","","","","","","","","","","","","","",""
"","S2","","html-keyboard-response","67","118528","0.0-1.0-85.0","0","0","70426","","null","","","null","9","","NaN","","","","","","","","","","","","","",""
"","response","","html-keyboard-response","68","119180","0.0-1.0-86.0-0.0","0","0","70426","","646","","","68","9","","","1","9","training","adjacent","EF","5","6","M.jpg","Q.jpg","1","1","1","",""
"","feedback","","html-keyboard-response","69","120197","0.0-1.0-87.0-0.0","0","0","70426","","null","","","null","9","","","","","","","","","","","","","","","",""
"","ITI","","html-keyboard-response","70","121215","0.0-1.0-90.0","0","0","70426","","null","","","null","9","","","","","","","","","","","","","","","NaN",""
"","S1","","html-keyboard-response","71","121474","0.0-1.0-92.0","0","0","70426","","null","","","null","10","","","","","","","","","","","","","","","",""
"","ISI","","html-keyboard-response","72","122482","0.0-1.0-93.0","0","0","70426","","null","","","null","10","NaN","","","","","","","","","","","","","","",""
"","S2","","html-keyboard-response","73","122740","0.0-1.0-94.0","0","0","70426","","null","","","null","10","","NaN","","","","","","","","","","","","","",""
"","response","","html-keyboard-response","74","123027","0.0-1.0-95.0-0.0","0","0","70426","","282","","","75","10","","","1","10","training","adjacent","AB","1","2","L.jpg","P.jpg","0","1","0","",""
"","feedback","","html-keyboard-response","75","124045","0.0-1.0-96.0-0.0","0","0","70426","","null","","","null","10","","","","","","","","","","","","","","","",""
"","time_out","","html-keyboard-response","76","126054","0.0-1.0-98.0-0.0","0","0","70426","","null","","","null","10","","","","","","","","","","","","","","","",""
"","ITI","","html-keyboard-response","77","127074","0.0-1.0-99.0","0","0","70426","","null","","","null","10","","","","","","","","","","","","","","","NaN",""
"","S1","","html-keyboard-response","78","127332","0.0-1.0-101.0","0","0","70426","","null","","","null","11","","","","","","","","","","","","","","","",""
"","ISI","","html-keyboard-response","79","128352","0.0-1.0-102.0","0","0","70426","","null","","","null","11","NaN","","","","","","","","","","","","","","",""
"","S2","","html-keyboard-response","80","128619","0.0-1.0-103.0","0","0","70426","","null","","","null","11","","NaN","","","","","","","","","","","","","",""
"","response","","html-keyboard-response","81","129284","0.0-1.0-104.0-0.0","0","0","70426","","660","","","68","11","","","1","11","training","adjacent","DC","4","3","R.jpg","N.jpg","1","0","0","",""
"","feedback","","html-keyboard-response","82","130294","0.0-1.0-105.0-0.0","0","0","70426","","null","","","null","11","","","","","","","","","","","","","","","",""
"","time_out","","html-keyboard-response","83","132309","0.0-1.0-107.0-0.0","0","0","70426","","null","","","null","11","","","","","","","","","","","","","","","",""
"","ITI","","html-keyboard-response","84","133322","0.0-1.0-108.0","0","0","70426","","null","","","null","11","","","","","","","","","","","","","","","NaN",""
"","S1","","html-keyboard-response","85","133579","0.0-1.0-110.0","0","0","70426","","null","","","null","12","","","","","","","","","","","","","","","",""
"","ISI","","html-keyboard-response","86","134593","0.0-1.0-111.0","0","0","70426","","null","","","null","12","NaN","","","","","","","","","","","","","","",""
"","S2","","html-keyboard-response","87","134856","0.0-1.0-112.0","0","0","70426","","null","","","null","12","","NaN","","","","","","","","","","","","","",""
"","response","","html-keyboard-response","88","135697","0.0-1.0-113.0-0.0","0","0","70426","","836","","","68","12","","","1","12","training","adjacent","DE","4","5","R.jpg","M.jpg","1","1","1","",""
"","feedback","","html-keyboard-response","89","136708","0.0-1.0-114.0-0.0","0","0","70426","","null","","","null","12","","","","","","","","","","","","","","","",""
"","ITI","","html-keyboard-response","90","137724","0.0-1.0-117.0","0","0","70426","","null","","","null","12","","","","","","","","","","","","","","","NaN",""
"","S1","","html-keyboard-response","91","137983","0.0-1.0-119.0","0","0","70426","","null","","","null","13","","","","","","","","","","","","","","","",""
"","ISI","","html-keyboard-response","92","138992","0.0-1.0-120.0","0","0","70426","","null","","","null","13","NaN","","","","","","","","","","","","","","",""
"","S2","","html-keyboard-response","93","139257","0.0-1.0-121.0","0","0","70426","","null","","","null","13","","NaN","","","","","","","","","","","","","",""
"","response","","html-keyboard-response","94","139711","0.0-1.0-122.0-0.0","0","0","70426","","448","","","75","13","","","1","13","training","adjacent","AB","1","2","L.jpg","P.jpg","0","1","0","",""
"","feedback","","html-keyboard-response","95","140728","0.0-1.0-123.0-0.0","0","0","70426","","null","","","null","13","","","","","","","","","","","","","","","",""
"","time_out","","html-keyboard-response","96","142741","0.0-1.0-125.0-0.0","0","0","70426","","null","","","null","13","","","","","","","","","","","","","","","",""
"","ITI","","html-keyboard-response","97","143756","0.0-1.0-126.0","0","0","70426","","null","","","null","13","","","","","","","","","","","","","","","NaN",""
"","S1","","html-keyboard-response","98","144012","0.0-1.0-128.0","0","0","70426","","null","","","null","14","","","","","","","","","","","","","","","",""
"","ISI","","html-keyboard-response","99","145032","0.0-1.0-129.0","0","0","70426","","null","","","null","14","NaN","","","","","","","","","","","","","","",""
"","S2","","html-keyboard-response","100","145291","0.0-1.0-130.0","0","0","70426","","null","","","null","14","","NaN","","","","","","","","","","","","","",""
"","response","","html-keyboard-response","101","145749","0.0-1.0-131.0-0.0","0","0","70426","","452","","","68","14","","","1","14","training","adjacent","CD","3","4","N.jpg","R.jpg","1","1","1","",""
"","feedback","","html-keyboard-response","102","146757","0.0-1.0-132.0-0.0","0","0","70426","","null","","","null","14","","","","","","","","","","","","","","","",""
"","ITI","","html-keyboard-response","103","147772","0.0-1.0-135.0","0","0","70426","","null","","","null","14","","","","","","","","","","","","","","","NaN",""
"","S1","","html-keyboard-response","104","148030","0.0-1.0-137.0","0","0","70426","","null","","","null","15","","","","","","","","","","","","","","","",""
"","ISI","","html-keyboard-response","105","149044","0.0-1.0-138.0","0","0","70426","","null","","","null","15","NaN","","","","","","","","","","","","","","",""
"","S2","","html-keyboard-response","106","149302","0.0-1.0-139.0","0","0","70426","","null","","","null","15","","NaN","","","","","","","","","","","","","",""
"","response","","html-keyboard-response","107","149760","0.0-1.0-140.0-0.0","0","0","70426","","453","","","68","15","","","1","15","training","adjacent","ED","5","4","M.jpg","R.jpg","1","0","0","",""
"","feedback","","html-keyboard-response","108","150772","0.0-1.0-141.0-0.0","0","0","70426","","null","","","null","15","","","","","","","","","","","","","","","",""
"","time_out","","html-keyboard-response","109","152787","0.0-1.0-143.0-0.0","0","0","70426","","null","","","null","15","","","","","","","","","","","","","","","",""
"","ITI","","html-keyboard-response","110","153799","0.0-1.0-144.0","0","0","70426","","null","","","null","15","","","","","","","","","","","","","","","NaN",""
"","S1","","html-keyboard-response","111","154063","0.0-1.0-146.0","0","0","70426","","null","","","null","16","","","","","","","","","","","","","","","",""
"","ISI","","html-keyboard-response","112","155085","0.0-1.0-147.0","0","0","70426","","null","","","null","16","NaN","","","","","","","","","","","","","","",""
"","S2","","html-keyboard-response","113","155343","0.0-1.0-148.0","0","0","70426","","null","","","null","16","","NaN","","","","","","","","","","","","","",""
"","response","","html-keyboard-response","114","156068","0.0-1.0-149.0-0.0","0","0","70426","","718","","","68","16","","","1","16","training","adjacent","DE","4","5","R.jpg","M.jpg","1","1","1","",""
"","feedback","","html-keyboard-response","115","157082","0.0-1.0-150.0-0.0","0","0","70426","","null","","","null","16","","","","","","","","","","","","","","","",""
"","ITI","","html-keyboard-response","116","158098","0.0-1.0-153.0","0","0","70426","","null","","","null","16","","","","","","","","","","","","","","","NaN",""
"","S1","","html-keyboard-response","117","158359","0.0-1.0-155.0","0","0","70426","","null","","","null","17","","","","","","","","","","","","","","","",""
"","ISI","","html-keyboard-response","118","159365","0.0-1.0-156.0","0","0","70426","","null","","","null","17","NaN","","","","","","","","","","","","","","",""
"","S2","","html-keyboard-response","119","159624","0.0-1.0-157.0","0","0","70426","","null","","","null","17","","NaN","","","","","","","","","","","","","",""
"","response","","html-keyboard-response","120","160122","0.0-1.0-158.0-0.0","0","0","70426","","491","","","75","17","","","1","17","training","adjacent","FG","6","7","Q.jpg","O.jpg","0","1","0","",""
"","feedback","","html-keyboard-response","121","161142","0.0-1.0-159.0-0.0","0","0","70426","","null","","","null","17","","","","","","","","","","","","","","","",""
"","time_out","","html-keyboard-response","122","163149","0.0-1.0-161.0-0.0","0","0","70426","","null","","","null","17","","","","","","","","","","","","","","","",""
"","ITI","","html-keyboard-response","123","164165","0.0-1.0-162.0","0","0","70426","","null","","","null","17","","","","","","","","","","","","","","","NaN",""
"","S1","","html-keyboard-response","124","164429","0.0-1.0-164.0","0","0","70426","","null","","","null","18","","","","","","","","","","","","","","","",""
"","ISI","","html-keyboard-response","125","165435","0.0-1.0-165.0","0","0","70426","","null","","","null","18","NaN","","","","","","","","","","","","","","",""
"","S2","","html-keyboard-response","126","165702","0.0-1.0-166.0","0","0","70426","","null","","","null","18","","NaN","","","","","","","","","","","","","",""
"","response","","html-keyboard-response","127","166315","0.0-1.0-167.0-0.0","0","0","70426","","607","","","68","18","","","1","18","training","adjacent","EF","5","6","M.jpg","Q.jpg","1","1","1","",""
"","feedback","","html-keyboard-response","128","167322","0.0-1.0-168.0-0.0","0","0","70426","","null","","","null","18","","","","","","","","","","","","","","","",""
"","ITI","","html-keyboard-response","129","168330","0.0-1.0-171.0","0","0","70426","","null","","","null","18","","","","","","","","","","","","","","","NaN",""
"","S1","","html-keyboard-response","130","168592","0.0-1.0-173.0","0","0","70426","","null","","","null","19","","","","","","","","","","","","","","","",""
"","ISI","","html-keyboard-response","131","169598","0.0-1.0-174.0","0","0","70426","","null","","","null","19","NaN","","","","","","","","","","","","","","",""
"","S2","","html-keyboard-response","132","169856","0.0-1.0-175.0","0","0","70426","","null","","","null","19","","NaN","","","","","","","","","","","","","",""
"","response","","html-keyboard-response","133","170743","0.0-1.0-176.0-0.0","0","0","70426","","880","","","68","19","","","1","19","training","adjacent","ED","5","4","M.jpg","R.jpg","1","0","0","",""
"","feedback","","html-keyboard-response","134","171754","0.0-1.0-177.0-0.0","0","0","70426","","null","","","null","19","","","","","","","","","","","","","","","",""
"","time_out","","html-keyboard-response","135","173764","0.0-1.0-179.0-0.0","0","0","70426","","null","","","null","19","","","","","","","","","","","","","","","",""
"","ITI","","html-keyboard-response","136","174773","0.0-1.0-180.0","0","0","70426","","null","","","null","19","","","","","","","","","","","","","","","NaN",""
"","S1","","html-keyboard-response","137","175036","0.0-1.0-182.0","0","0","70426","","null","","","null","20","","","","","","","","","","","","","","","",""
"","ISI","","html-keyboard-response","138","176047","0.0-1.0-183.0","0","0","70426","","null","","","null","20","NaN","","","","","","","","","","","","","","",""
"","S2","","html-keyboard-response","139","176304","0.0-1.0-184.0","0","0","70426","","null","","","null","20","","NaN","","","","","","","","","","","","","",""
"","response","","html-keyboard-response","140","176591","0.0-1.0-185.0-0.0","0","0","70426","","280","","","75","20","","","1","20","training","adjacent","CD","3","4","N.jpg","R.jpg","0","1","0","",""
"","feedback","","html-keyboard-response","141","177602","0.0-1.0-186.0-0.0","0","0","70426","","null","","","null","20","","","","","","","","","","","","","","","",""
"","time_out","","html-keyboard-response","142","179624","0.0-1.0-188.0-0.0","0","0","70426","","null","","","null","20","","","","","","","","","","","","","","","",""
"","ITI","","html-keyboard-response","143","180635","0.0-1.0-189.0","0","0","70426","","null","","","null","20","","","","","","","","","","","","","","","NaN",""
"","S1","","html-keyboard-response","144","180894","0.0-1.0-191.0","0","0","70426","","null","","","null","21","","","","","","","","","","","","","","","",""
"","ISI","","html-keyboard-response","145","181912","0.0-1.0-192.0","0","0","70426","","null","","","null","21","NaN","","","","","","","","","","","","","","",""
"","S2","","html-keyboard-response","146","182169","0.0-1.0-193.0","0","0","70426","","null","","","null","21","","NaN","","","","","","","","","","","","","",""
"","response","","html-keyboard-response","147","182986","0.0-1.0-194.0-0.0","0","0","70426","","811","","","68","21","","","1","21","training","adjacent","DE","4","5","R.jpg","M.jpg","1","1","1","",""
"","feedback","","html-keyboard-response","148","183995","0.0-1.0-195.0-0.0","0","0","70426","","null","","","null","21","","","","","","","","","","","","","","","",""
"","ITI","","html-keyboard-response","149","185003","0.0-1.0-198.0","0","0","70426","","null","","","null","21","","","","","","","","","","","","","","","NaN",""
"","S1","","html-keyboard-response","150","185260","0.0-1.0-200.0","0","0","70426","","null","","","null","22","","","","","","","","","","","","","","","",""
"","ISI","","html-keyboard-response","151","186266","0.0-1.0-201.0","0","0","70426","","null","","","null","22","NaN","","","","","","","","","","","","","","",""
"","S2","","html-keyboard-response","152","186531","0.0-1.0-202.0","0","0","70426","","null","","","null","22","","NaN","","","","","","","","","","","","","",""
"","response","","html-keyboard-response","153","187199","0.0-1.0-203.0-0.0","0","0","70426","","661","","","68","22","","","1","22","training","adjacent","CB","3","2","N.jpg","P.jpg","1","0","0","",""
"","feedback","","html-keyboard-response","154","188209","0.0-1.0-204.0-0.0","0","0","70426","","null","","","null","22","","","","","","","","","","","","","","","",""
"","time_out","","html-keyboard-response","155","190217","0.0-1.0-206.0-0.0","0","0","70426","","null","","","null","22","","","","","","","","","","","","","","","",""
"","ITI","","html-keyboard-response","156","191228","0.0-1.0-207.0","0","0","70426","","null","","","null","22","","","","","","","","","","","","","","","NaN",""
"","S1","","html-keyboard-response","157","191484","0.0-1.0-209.0","0","0","70426","","null","","","null","23","","","","","","","","","","","","","","","",""
"","ISI","","html-keyboard-response","158","192495","0.0-1.0-210.0","0","0","70426","","null","","","null","23","NaN","","","","","","","","","","","","","","",""
"","S2","","html-keyboard-response","159","192754","0.0-1.0-211.0","0","0","70426","","null","","","null","23","","NaN","","","","","","","","","","","","","",""
"","response","","html-keyboard-response","160","193587","0.0-1.0-212.0-0.0","0","0","70426","","825","","","75","23","","","1","23","training","adjacent","ED","5","4","M.jpg","R.jpg","0","0","1","",""
"","feedback","","html-keyboard-response","161","194601","0.0-1.0-213.0-0.0","0","0","70426","","null","","","null","23","","","","","","","","","","","","","","","",""
"","ITI","","html-keyboard-response","162","195615","0.0-1.0-216.0","0","0","70426","","null","","","null","23","","","","","","","","","","","","","","","NaN",""
"","S1","","html-keyboard-response","163","195872","0.0-1.0-218.0","0","0","70426","","null","","","null","24","","","","","","","","","","","","","","","",""
"","ISI","","html-keyboard-response","164","196881","0.0-1.0-219.0","0","0","70426","","null","","","null","24","NaN","","","","","","","","","","","","","","",""
"","S2","","html-keyboard-response","165","197149","0.0-1.0-220.0","0","0","70426","","null","","","null","24","","NaN","","","","","","","","","","","","","",""
"","response","","html-keyboard-response","166","198114","0.0-1.0-221.0-0.0","0","0","70426","","959","","","68","24","","","1","24","training","adjacent","GF","7","6","O.jpg","Q.jpg","1","0","0","",""
"","feedback","","html-keyboard-response","167","199121","0.0-1.0-222.0-0.0","0","0","70426","","null","","","null","24","","","","","","","","","","","","","","","",""
"","time_out","","html-keyboard-response","168","201135","0.0-1.0-224.0-0.0","0","0","70426","","null","","","null","24","","","","","","","","","","","","","","","",""
"","ITI","","html-keyboard-response","169","202147","0.0-1.0-225.0","0","0","70426","","null","","","null","24","","","","","","","","","","","","","","","NaN",""
"","S1","","html-keyboard-response","170","202417","0.0-1.0-227.0","0","0","70426","","null","","","null","25","","","","","","","","","","","","","","","",""
"","ISI","","html-keyboard-response","171","203431","0.0-1.0-228.0","0","0","70426","","null","","","null","25","NaN","","","","","","","","","","","","","","",""
"","S2","","html-keyboard-response","172","203696","0.0-1.0-229.0","0","0","70426","","null","","","null","25","","NaN","","","","","","","","","","","","","",""
"","response","","html-keyboard-response","173","205199","0.0-1.0-230.0-0.0","0","0","70426","","1497","","","75","25","","","1","25","training","adjacent","BA","2","1","P.jpg","L.jpg","0","0","1","",""
"","feedback","","html-keyboard-response","174","206210","0.0-1.0-231.0-0.0","0","0","70426","","null","","","null","25","","","","","","","","","","","","","","","",""
"","ITI","","html-keyboard-response","175","207225","0.0-1.0-234.0","0","0","70426","","null","","","null","25","","","","","","","","","","","","","","","NaN",""
"","S1","","html-keyboard-response","176","207493","0.0-1.0-236.0","0","0","70426","","null","","","null","26","","","","","","","","","","","","","","","",""
"","ISI","","html-keyboard-response","177","208506","0.0-1.0-237.0","0","0","70426","","null","","","null","26","NaN","","","","","","","","","","","","","","",""
"","S2","","html-keyboard-response","178","208769","0.0-1.0-238.0","0","0","70426","","null","","","null","26","","NaN","","","","","","","","","","","","","",""
"","response","","html-keyboard-response","179","209287","0.0-1.0-239.0-0.0","0","0","70426","","511","","","68","26","","","1","26","training","adjacent","BC","2","3","P.jpg","N.jpg","1","1","1","",""
"","feedback","","html-keyboard-response","180","210308","0.0-1.0-240.0-0.0","0","0","70426","","null","","","null","26","","","","","","","","","","","","","","","",""
"","ITI","","html-keyboard-response","181","211323","0.0-1.0-243.0","0","0","70426","","null","","","null","26","","","","","","","","","","","","","","","NaN",""
"","S1","","html-keyboard-response","182","211584","0.0-1.0-245.0","0","0","70426","","null","","","null","27","","","","","","","","","","","","","","","",""
"","ISI","","html-keyboard-response","183","212599","0.0-1.0-246.0","0","0","70426","","null","","","null","27","NaN","","","","","","","","","","","","","","",""
"","S2","","html-keyboard-response","184","212863","0.0-1.0-247.0","0","0","70426","","null","","","null","27","","NaN","","","","","","","","","","","","","",""
"","response","","html-keyboard-response","185","213783","0.0-1.0-248.0-0.0","0","0","70426","","916","","","68","27","","","1","27","training","adjacent","FE","6","5","Q.jpg","M.jpg","1","0","0","",""
"","feedback","","html-keyboard-response","186","214795","0.0-1.0-249.0-0.0","0","0","70426","","null","","","null","27","","","","","","","","","","","","","","","",""
"","time_out","","html-keyboard-response","187","216804","0.0-1.0-251.0-0.0","0","0","70426","","null","","","null","27","","","","","","","","","","","","","","","",""
"","ITI","","html-keyboard-response","188","217813","0.0-1.0-252.0","0","0","70426","","null","","","null","27","","","","","","","","","","","","","","","NaN",""
"","S1","","html-keyboard-response","189","218072","0.0-1.0-254.0","0","0","70426","","null","","","null","28","","","","","","","","","","","","","","","",""
"","ISI","","html-keyboard-response","190","219087","0.0-1.0-255.0","0","0","70426","","null","","","null","28","NaN","","","","","","","","","","","","","","",""
"","S2","","html-keyboard-response","191","219349","0.0-1.0-256.0","0","0","70426","","null","","","null","28","","NaN","","","","","","","","","","","","","",""
"","response","","html-keyboard-response","192","220718","0.0-1.0-257.0-0.0","0","0","70426","","1363","","","75","28","","","1","28","training","adjacent","BA","2","1","P.jpg","L.jpg","0","0","1","",""
"","feedback","","html-keyboard-response","193","221728","0.0-1.0-258.0-0.0","0","0","70426","","null","","","null","28","","","","","","","","","","","","","","","",""
"","ITI","","html-keyboard-response","194","222741","0.0-1.0-261.0","0","0","70426","","null","","","null","28","","","","","","","","","","","","","","","NaN",""
"","S1","","html-keyboard-response","195","223000","0.0-1.0-263.0","0","0","70426","","null","","","null","29","","","","","","","","","","","","","","","",""
"","ISI","","html-keyboard-response","196","224006","0.0-1.0-264.0","0","0","70426","","null","","","null","29","NaN","","","","","","","","","","","","","","",""
"","S2","","html-keyboard-response","197","224273","0.0-1.0-265.0","0","0","70426","","null","","","null","29","","NaN","","","","","","","","","","","","","",""
"","response","","html-keyboard-response","198","224886","0.0-1.0-266.0-0.0","0","0","70426","","605","","","68","29","","","1","29","training","adjacent","FE","6","5","Q.jpg","M.jpg","1","0","0","",""
"","feedback","","html-keyboard-response","199","225901","0.0-1.0-267.0-0.0","0","0","70426","","null","","","null","29","","","","","","","","","","","","","","","",""
"","time_out","","html-keyboard-response","200","227917","0.0-1.0-269.0-0.0","0","0","70426","","null","","","null","29","","","","","","","","","","","","","","","",""
"","ITI","","html-keyboard-response","201","228935","0.0-1.0-270.0","0","0","70426","","null","","","null","29","","","","","","","","","","","","","","","NaN",""
"","S1","","html-keyboard-response","202","229199","0.0-1.0-272.0","0","0","70426","","null","","","null","30","","","","","","","","","","","","","","","",""
"","ISI","","html-keyboard-response","203","230205","0.0-1.0-273.0","0","0","70426","","null","","","null","30","NaN","","","","","","","","","","","","","","",""
"","S2","","html-keyboard-response","204","230469","0.0-1.0-274.0","0","0","70426","","null","","","null","30","","NaN","","","","","","","","","","","","","",""
"","response","","html-keyboard-response","205","231125","0.0-1.0-275.0-0.0","0","0","70426","","649","","","75","30","","","1","30","training","adjacent","BA","2","1","P.jpg","L.jpg","0","0","1","",""
"","feedback","","html-keyboard-response","206","232139","0.0-1.0-276.0-0.0","0","0","70426","","null","","","null","30","","","","","","","","","","","","","","","",""
"","ITI","","html-keyboard-response","207","233150","0.0-1.0-279.0","0","0","70426","","null","","","null","30","","","","","","","","","","","","","","","NaN",""
"","S1","","html-keyboard-response","208","233411","0.0-1.0-281.0","0","0","70426","","null","","","null","31","","","","","","","","","","","","","","","",""
"","ISI","","html-keyboard-response","209","234421","0.0-1.0-282.0","0","0","70426","","null","","","null","31","NaN","","","","","","","","","","","","","","",""
"","S2","","html-keyboard-response","210","234689","0.0-1.0-283.0","0","0","70426","","null","","","null","31","","NaN","","","","","","","","","","","","","",""
"","response","","html-keyboard-response","211","235258","0.0-1.0-284.0-0.0","0","0","70426","","563","","","68","31","","","1","31","training","adjacent","FG","6","7","Q.jpg","O.jpg","1","1","1","",""
"","feedback","","html-keyboard-response","212","236274","0.0-1.0-285.0-0.0","0","0","70426","","null","","","null","31","","","","","","","","","","","","","","","",""
"","ITI","","html-keyboard-response","213","237293","0.0-1.0-288.0","0","0","70426","","null","","","null","31","","","","","","","","","","","","","","","NaN",""
"","S1","","html-keyboard-response","214","237554","0.0-1.0-290.0","0","0","70426","","null","","","null","32","","","","","","","","","","","","","","","",""
"","ISI","","html-keyboard-response","215","238568","0.0-1.0-291.0","0","0","70426","","null","","","null","32","NaN","","","","","","","","","","","","","","",""
"","S2","","html-keyboard-response","216","238827","0.0-1.0-292.0","0","0","70426","","null","","","null","32","","NaN","","","","","","","","","","","","","",""
"","response","","html-keyboard-response","217","239667","0.0-1.0-293.0-0.0","0","0","70426","","834","","","68","32","","","1","32","training","adjacent","EF","5","6","M.jpg","Q.jpg","1","1","1","",""
"","feedback","","html-keyboard-response","218","240691","0.0-1.0-294.0-0.0","0","0","70426","","null","","","null","32","","","","","","","","","","","","","","","",""
"","ITI","","html-keyboard-response","219","241709","0.0-1.0-297.0","0","0","70426","","null","","","null","32","","","","","","","","","","","","","","","NaN",""
"","S1","","html-keyboard-response","220","241985","0.0-1.0-299.0","0","0","70426","","null","","","null","33","","","","","","","","","","","","","","","",""
"","ISI","","html-keyboard-response","221","242991","0.0-1.0-300.0","0","0","70426","","null","","","null","33","NaN","","","","","","","","","","","","","","",""
"","S2","","html-keyboard-response","222","243251","0.0-1.0-301.0","0","0","70426","","null","","","null","33","","NaN","","","","","","","","","","","","","",""
"","response","","html-keyboard-response","223","243762","0.0-1.0-302.0-0.0","0","0","70426","","506","","","68","33","","","1","33","training","adjacent","AB","1","2","L.jpg","P.jpg","1","1","1","",""
"","feedback","","html-keyboard-response","224","244774","0.0-1.0-303.0-0.0","0","0","70426","","null","","","null","33","","","","","","","","","","","","","","","",""
"","ITI","","html-keyboard-response","225","245789","0.0-1.0-306.0","0","0","70426","","null","","","null","33","","","","","","","","","","","","","","","NaN",""
"","S1","","html-keyboard-response","226","246054","0.0-1.0-308.0","0","0","70426","","null","","","null","34","","","","","","","","","","","","","","","",""
"","ISI","","html-keyboard-response","227","247074","0.0-1.0-309.0","0","0","70426","","null","","","null","34","NaN","","","","","","","","","","","","","","",""
"","S2","","html-keyboard-response","228","247338","0.0-1.0-310.0","0","0","70426","","null","","","null","34","","NaN","","","","","","","","","","","","","",""
"","response","","html-keyboard-response","229","247887","0.0-1.0-311.0-0.0","0","0","70426","","544","","","75","34","","","1","34","training","adjacent","GF","7","6","O.jpg","Q.jpg","0","0","1","",""
"","feedback","","html-keyboard-response","230","248897","0.0-1.0-312.0-0.0","0","0","70426","","null","","","null","34","","","","","","","","","","","","","","","",""
"","ITI","","html-keyboard-response","231","249905","0.0-1.0-315.0","0","0","70426","","null","","","null","34","","","","","","","","","","","","","","","NaN",""
"","S1","","html-keyboard-response","232","250170","0.0-1.0-317.0","0","0","70426","","null","","","null","35","","","","","","","","","","","","","","","",""
"","ISI","","html-keyboard-response","233","251179","0.0-1.0-318.0","0","0","70426","","null","","","null","35","NaN","","","","","","","","","","","","","","",""
"","S2","","html-keyboard-response","234","251442","0.0-1.0-319.0","0","0","70426","","null","","","null","35","","NaN","","","","","","","","","","","","","",""
"","response","","html-keyboard-response","235","252048","0.0-1.0-320.0-0.0","0","0","70426","","600","","","68","35","","","1","35","training","adjacent","ED","5","4","M.jpg","R.jpg","1","0","0","",""
"","feedback","","html-keyboard-response","236","253072","0.0-1.0-321.0-0.0","0","0","70426","","null","","","null","35","","","","","","","","","","","","","","","",""
"","time_out","","html-keyboard-response","237","255081","0.0-1.0-323.0-0.0","0","0","70426","","null","","","null","35","","","","","","","","","","","","","","","",""
"","ITI","","html-keyboard-response","238","256095","0.0-1.0-324.0","0","0","70426","","null","","","null","35","","","","","","","","","","","","","","","NaN",""
"","S1","","html-keyboard-response","239","256359","0.0-1.0-326.0","0","0","70426","","null","","","null","36","","","","","","","","","","","","","","","",""
"","ISI","","html-keyboard-response","240","257371","0.0-1.0-327.0","0","0","70426","","null","","","null","36","NaN","","","","","","","","","","","","","","",""
"","S2","","html-keyboard-response","241","257634","0.0-1.0-328.0","0","0","70426","","null","","","null","36","","NaN","","","","","","","","","","","","","",""
"","response","","html-keyboard-response","242","258176","0.0-1.0-329.0-0.0","0","0","70426","","536","","","75","36","","","1","36","training","adjacent","AB","1","2","L.jpg","P.jpg","0","1","0","",""
"","feedback","","html-keyboard-response","243","259188","0.0-1.0-330.0-0.0","0","0","70426","","null","","","null","36","","","","","","","","","","","","","","","",""
"","time_out","","html-keyboard-response","244","261203","0.0-1.0-332.0-0.0","0","0","70426","","null","","","null","36","","","","","","","","","","","","","","","",""
"","ITI","","html-keyboard-response","245","262217","0.0-1.0-333.0","0","0","70426","","null","","","null","36","","","","","","","","","","","","","","","NaN",""
"","S1","","html-keyboard-response","246","262479","0.0-1.0-335.0","0","0","70426","","null","","","null","37","","","","","","","","","","","","","","","",""
"","ISI","","html-keyboard-response","247","263490","0.0-1.0-336.0","0","0","70426","","null","","","null","37","NaN","","","","","","","","","","","","","","",""
"","S2","","html-keyboard-response","248","263750","0.0-1.0-337.0","0","0","70426","","null","","","null","37","","NaN","","","","","","","","","","","","","",""
"","response","","html-keyboard-response","249","264152","0.0-1.0-338.0-0.0","0","0","70426","","397","","","68","37","","","1","37","training","adjacent","BC","2","3","P.jpg","N.jpg","1","1","1","",""
"","feedback","","html-keyboard-response","250","265161","0.0-1.0-339.0-0.0","0","0","70426","","null","","","null","37","","","","","","","","","","","","","","","",""
"","ITI","","html-keyboard-response","251","266172","0.0-1.0-342.0","0","0","70426","","null","","","null","37","","","","","","","","","","","","","","","NaN",""
"","S1","","html-keyboard-response","252","266434","0.0-1.0-344.0","0","0","70426","","null","","","null","38","","","","","","","","","","","","","","","",""
"","ISI","","html-keyboard-response","253","267451","0.0-1.0-345.0","0","0","70426","","null","","","null","38","NaN","","","","","","","","","","","","","","",""
"","S2","","html-keyboard-response","254","267719","0.0-1.0-346.0","0","0","70426","","null","","","null","38","","NaN","","","","","","","","","","","","","",""
"","response","","html-keyboard-response","255","268442","0.0-1.0-347.0-0.0","0","0","70426","","716","","","68","38","","","1","38","training","adjacent","GF","7","6","O.jpg","Q.jpg","1","0","0","",""
"","feedback","","html-keyboard-response","256","269456","0.0-1.0-348.0-0.0","0","0","70426","","null","","","null","38","","","","","","","","","","","","","","","",""
"","time_out","","html-keyboard-response","257","271479","0.0-1.0-350.0-0.0","0","0","70426","","null","","","null","38","","","","","","","","","","","","","","","",""
"","ITI","","html-keyboard-response","258","272491","0.0-1.0-351.0","0","0","70426","","null","","","null","38","","","","","","","","","","","","","","","NaN",""
"","S1","","html-keyboard-response","259","272748","0.0-1.0-353.0","0","0","70426","","null","","","null","39","","","","","","","","","","","","","","","",""
"","ISI","","html-keyboard-response","260","273761","0.0-1.0-354.0","0","0","70426","","null","","","null","39","NaN","","","","","","","","","","","","","","",""
"","S2","","html-keyboard-response","261","274023","0.0-1.0-355.0","0","0","70426","","null","","","null","39","","NaN","","","","","","","","","","","","","",""
"","response","","html-keyboard-response","262","274636","0.0-1.0-356.0-0.0","0","0","70426","","607","","","75","39","","","1","39","training","adjacent","DC","4","3","R.jpg","N.jpg","0","0","1","",""
"","feedback","","html-keyboard-response","263","275652","0.0-1.0-357.0-0.0","0","0","70426","","null","","","null","39","","","","","","","","","","","","","","","",""
"","ITI","","html-keyboard-response","264","276673","0.0-1.0-360.0","0","0","70426","","null","","","null","39","","","","","","","","","","","","","","","NaN",""
"","S1","","html-keyboard-response","265","276935","0.0-1.0-362.0","0","0","70426","","null","","","null","40","","","","","","","","","","","","","","","",""
"","ISI","","html-keyboard-response","266","277944","0.0-1.0-363.0","0","0","70426","","null","","","null","40","NaN","","","","","","","","","","","","","","",""
"","S2","","html-keyboard-response","267","278208","0.0-1.0-364.0","0","0","70426","","null","","","null","40","","NaN","","","","","","","","","","","","","",""
"","response","","html-keyboard-response","268","278675","0.0-1.0-365.0-0.0","0","0","70426","","460","","","75","40","","","1","40","training","adjacent","GF","7","6","O.jpg","Q.jpg","0","0","1","",""
"","feedback","","html-keyboard-response","269","279689","0.0-1.0-366.0-0.0","0","0","70426","","null","","","null","40","","","","","","","","","","","","","","","",""
"","ITI","","html-keyboard-response","270","280700","0.0-1.0-369.0","0","0","70426","","null","","","null","40","","","","","","","","","","","","","","","NaN",""
"","S1","","html-keyboard-response","271","280957","0.0-1.0-371.0","0","0","70426","","null","","","null","41","","","","","","","","","","","","","","","",""
"","ISI","","html-keyboard-response","272","281961","0.0-1.0-372.0","0","0","70426","","null","","","null","41","NaN","","","","","","","","","","","","","","",""
"","S2","","html-keyboard-response","273","282219","0.0-1.0-373.0","0","0","70426","","null","","","null","41","","NaN","","","","","","","","","","","","","",""
"","response","","html-keyboard-response","274","282574","0.0-1.0-374.0-0.0","0","0","70426","","352","","","68","41","","","1","41","training","adjacent","FG","6","7","Q.jpg","O.jpg","1","1","1","",""
"","feedback","","html-keyboard-response","275","283583","0.0-1.0-375.0-0.0","0","0","70426","","null","","","null","41","","","","","","","","","","","","","","","",""
"","ITI","","html-keyboard-response","276","284590","0.0-1.0-378.0","0","0","70426","","null","","","null","41","","","","","","","","","","","","","","","NaN",""
"","S1","","html-keyboard-response","277","284857","0.0-1.0-380.0","0","0","70426","","null","","","null","42","","","","","","","","","","","","","","","",""
"","ISI","","html-keyboard-response","278","285876","0.0-1.0-381.0","0","0","70426","","null","","","null","42","NaN","","","","","","","","","","","","","","",""
"","S2","","html-keyboard-response","279","286136","0.0-1.0-382.0","0","0","70426","","null","","","null","42","","NaN","","","","","","","","","","","","","",""
"","response","","html-keyboard-response","280","286578","0.0-1.0-383.0-0.0","0","0","70426","","436","","","68","42","","","1","42","training","adjacent","CB","3","2","N.jpg","P.jpg","1","0","0","",""
"","feedback","","html-keyboard-response","281","287597","0.0-1.0-384.0-0.0","0","0","70426","","null","","","null","42","","","","","","","","","","","","","","","",""
"","time_out","","html-keyboard-response","282","289607","0.0-1.0-386.0-0.0","0","0","70426","","null","","","null","42","","","","","","","","","","","","","","","",""
"","ITI","","html-keyboard-response","283","290616","0.0-1.0-387.0","0","0","70426","","null","","","null","42","","","","","","","","","","","","","","","NaN",""
"","S1","","html-keyboard-response","284","290876","0.0-1.0-389.0","0","0","70426","","null","","","null","43","","","","","","","","","","","","","","","",""
"","ISI","","html-keyboard-response","285","291885","0.0-1.0-390.0","0","0","70426","","null","","","null","43","NaN","","","","","","","","","","","","","","",""
"","S2","","html-keyboard-response","286","292142","0.0-1.0-391.0","0","0","70426","","null","","","null","43","","NaN","","","","","","","","","","","","","",""
"","response","","html-keyboard-response","287","292933","0.0-1.0-392.0-0.0","0","0","70426","","785","","","75","43","","","1","43","training","adjacent","BA","2","1","P.jpg","L.jpg","0","0","1","",""
"","feedback","","html-keyboard-response","288","293945","0.0-1.0-393.0-0.0","0","0","70426","","null","","","null","43","","","","","","","","","","","","","","","",""
"","ITI","","html-keyboard-response","289","294953","0.0-1.0-396.0","0","0","70426","","null","","","null","43","","","","","","","","","","","","","","","NaN",""
"","S1","","html-keyboard-response","290","295210","0.0-1.0-398.0","0","0","70426","","null","","","null","44","","","","","","","","","","","","","","","",""
"","ISI","","html-keyboard-response","291","296225","0.0-1.0-399.0","0","0","70426","","null","","","null","44","NaN","","","","","","","","","","","","","","",""
"","S2","","html-keyboard-response","292","296485","0.0-1.0-400.0","0","0","70426","","null","","","null","44","","NaN","","","","","","","","","","","","","",""
"","response","","html-keyboard-response","293","296809","0.0-1.0-401.0-0.0","0","0","70426","","318","","","68","44","","","1","44","training","adjacent","CB","3","2","N.jpg","P.jpg","1","0","0","",""
"","feedback","","html-keyboard-response","294","297819","0.0-1.0-402.0-0.0","0","0","70426","","null","","","null","44","","","","","","","","","","","","","","","",""
"","time_out","","html-keyboard-response","295","299829","0.0-1.0-404.0-0.0","0","0","70426","","null","","","null","44","","","","","","","","","","","","","","","",""
"","ITI","","html-keyboard-response","296","300840","0.0-1.0-405.0","0","0","70426","","null","","","null","44","","","","","","","","","","","","","","","NaN",""
"","S1","","html-keyboard-response","297","301100","0.0-1.0-407.0","0","0","70426","","null","","","null","45","","","","","","","","","","","","","","","",""
"","ISI","","html-keyboard-response","298","302111","0.0-1.0-408.0","0","0","70426","","null","","","null","45","NaN","","","","","","","","","","","","","","",""
"","S2","","html-keyboard-response","299","302377","0.0-1.0-409.0","0","0","70426","","null","","","null","45","","NaN","","","","","","","","","","","","","",""
"","response","","html-keyboard-response","300","302807","0.0-1.0-410.0-0.0","0","0","70426","","424","","","68","45","","","1","45","training","adjacent","BC","2","3","P.jpg","N.jpg","1","1","1","",""
"","feedback","","html-keyboard-response","301","303816","0.0-1.0-411.0-0.0","0","0","70426","","null","","","null","45","","","","","","","","","","","","","","","",""
"","ITI","","html-keyboard-response","302","304825","0.0-1.0-414.0","0","0","70426","","null","","","null","45","","","","","","","","","","","","","","","NaN",""
"","S1","","html-keyboard-response","303","305081","0.0-1.0-416.0","0","0","70426","","null","","","null","46","","","","","","","","","","","","","","","",""
"","ISI","","html-keyboard-response","304","306093","0.0-1.0-417.0","0","0","70426","","null","","","null","46","NaN","","","","","","","","","","","","","","",""
"","S2","","html-keyboard-response","305","306355","0.0-1.0-418.0","0","0","70426","","null","","","null","46","","NaN","","","","","","","","","","","","","",""
"","response","","html-keyboard-response","306","306780","0.0-1.0-419.0-0.0","0","0","70426","","419","","","68","46","","","1","46","training","adjacent","FG","6","7","Q.jpg","O.jpg","1","1","1","",""
"","feedback","","html-keyboard-response","307","307790","0.0-1.0-420.0-0.0","0","0","70426","","null","","","null","46","","","","","","","","","","","","","","","",""
"","ITI","","html-keyboard-response","308","308811","0.0-1.0-423.0","0","0","70426","","null","","","null","46","","","","","","","","","","","","","","","NaN",""
"","S1","","html-keyboard-response","309","309070","0.0-1.0-425.0","0","0","70426","","null","","","null","47","","","","","","","","","","","","","","","",""
"","ISI","","html-keyboard-response","310","310083","0.0-1.0-426.0","0","0","70426","","null","","","null","47","NaN","","","","","","","","","","","","","","",""
"","S2","","html-keyboard-response","311","310343","0.0-1.0-427.0","0","0","70426","","null","","","null","47","","NaN","","","","","","","","","","","","","",""
"","response","","html-keyboard-response","312","310656","0.0-1.0-428.0-0.0","0","0","70426","","307","","","75","47","","","1","47","training","adjacent","EF","5","6","M.jpg","Q.jpg","0","1","0","",""
"","feedback","","html-keyboard-response","313","311665","0.0-1.0-429.0-0.0","0","0","70426","","null","","","null","47","","","","","","","","","","","","","","","",""
"","time_out","","html-keyboard-response","314","313682","0.0-1.0-431.0-0.0","0","0","70426","","null","","","null","47","","","","","","","","","","","","","","","",""
"","ITI","","html-keyboard-response","315","314691","0.0-1.0-432.0","0","0","70426","","null","","","null","47","","","","","","","","","","","","","","","NaN",""
"","block_over","","html-keyboard-response","316","320221","0.0-1.0-433.0-0.0","0","0","70426","","5522","","","32","47","","","","","","","","","","","","","","","",""
"","S1","","html-keyboard-response","317","320484","0.0-1.0-434.0","0","0","70426","","null","","","null","48","","","","","","","","","","","","","","","",""
"","ISI","","html-keyboard-response","318","321499","0.0-1.0-435.0","0","0","70426","","null","","","null","48","NaN","","","","","","","","","","","","","","",""
"","S2","","html-keyboard-response","319","321761","0.0-1.0-436.0","0","0","70426","","null","","","null","48","","NaN","","","","","","","","","","","","","",""
"","response","","html-keyboard-response","320","322329","0.0-1.0-437.0-0.0","0","0","70426","","562","","","68","48","","","2","48","training","adjacent","BC","2","3","P.jpg","N.jpg","1","1","1","",""
"","feedback","","html-keyboard-response","321","323351","0.0-1.0-438.0-0.0","0","0","70426","","null","","","null","48","","","","","","","","","","","","","","","",""
"","ITI","","html-keyboard-response","322","324368","0.0-1.0-441.0","0","0","70426","","null","","","null","48","","","","","","","","","","","","","","","NaN",""
"","S1","","html-keyboard-response","323","324627","0.0-1.0-443.0","0","0","70426","","null","","","null","49","","","","","","","","","","","","","","","",""
"","ISI","","html-keyboard-response","324","325633","0.0-1.0-444.0","0","0","70426","","null","","","null","49","NaN","","","","","","","","","","","","","","",""
"","S2","","html-keyboard-response","325","325900","0.0-1.0-445.0","0","0","70426","","null","","","null","49","","NaN","","","","","","","","","","","","","",""
"","response","","html-keyboard-response","326","326122","0.0-1.0-446.0-0.0","0","0","70426","","216","","","75","49","","","2","49","training","adjacent","CB","3","2","N.jpg","P.jpg","0","0","1","",""
"","feedback","","html-keyboard-response","327","327132","0.0-1.0-447.0-0.0","0","0","70426","","null","","","null","49","","","","","","","","","","","","","","","",""
"","ITI","","html-keyboard-response","328","328147","0.0-1.0-450.0","0","0","70426","","null","","","null","49","","","","","","","","","","","","","","","NaN",""
"","S1","","html-keyboard-response","329","328407","0.0-1.0-452.0","0","0","70426","","null","","","null","50","","","","","","","","","","","","","","","",""
"","ISI","","html-keyboard-response","330","329419","0.0-1.0-453.0","0","0","70426","","null","","","null","50","NaN","","","","","","","","","","","","","","",""
"","S2","","html-keyboard-response","331","329681","0.0-1.0-454.0","0","0","70426","","null","","","null","50","","NaN","","","","","","","","","","","","","",""
"","response","","html-keyboard-response","332","329964","0.0-1.0-455.0-0.0","0","0","70426","","277","","","75","50","","","2","50","training","adjacent","AB","1","2","L.jpg","P.jpg","0","1","0","",""
"","feedback","","html-keyboard-response","333","330974","0.0-1.0-456.0-0.0","0","0","70426","","null","","","null","50","","","","","","","","","","","","","","","",""
"","time_out","","html-keyboard-response","334","332990","0.0-1.0-458.0-0.0","0","0","70426","","null","","","null","50","","","","","","","","","","","","","","","",""
"","ITI","","html-keyboard-response","335","334002","0.0-1.0-459.0","0","0","70426","","null","","","null","50","","","","","","","","","","","","","","","NaN",""
"","S1","","html-keyboard-response","336","334266","0.0-1.0-461.0","0","0","70426","","null","","","null","51","","","","","","","","","","","","","","","",""
"","ISI","","html-keyboard-response","337","335280","0.0-1.0-462.0","0","0","70426","","null","","","null","51","NaN","","","","","","","","","","","","","","",""
"","S2","","html-keyboard-response","338","335549","0.0-1.0-463.0","0","0","70426","","null","","","null","51","","NaN","","","","","","","","","","","","","",""
"","response","","html-keyboard-response","339","335892","0.0-1.0-464.0-0.0","0","0","70426","","336","","","68","51","","","2","51","training","adjacent","AB","1","2","L.jpg","P.jpg","1","1","1","",""
"","feedback","","html-keyboard-response","340","336901","0.0-1.0-465.0-0.0","0","0","70426","","null","","","null","51","","","","","","","","","","","","","","","",""
"","ITI","","html-keyboard-response","341","337918","0.0-1.0-468.0","0","0","70426","","null","","","null","51","","","","","","","","","","","","","","","NaN",""
"","S1","","html-keyboard-response","342","338190","0.0-1.0-470.0","0","0","70426","","null","","","null","52","","","","","","","","","","","","","","","",""
"","ISI","","html-keyboard-response","343","339204","0.0-1.0-471.0","0","0","70426","","null","","","null","52","NaN","","","","","","","","","","","","","","",""
"","S2","","html-keyboard-response","344","339466","0.0-1.0-472.0","0","0","70426","","null","","","null","52","","NaN","","","","","","","","","","","","","",""
"","response","","html-keyboard-response","345","339953","0.0-1.0-473.0-0.0","0","0","70426","","480","","","75","52","","","2","52","training","adjacent","FG","6","7","Q.jpg","O.jpg","0","1","0","",""
"","feedback","","html-keyboard-response","346","340970","0.0-1.0-474.0-0.0","0","0","70426","","null","","","null","52","","","","","","","","","","","","","","","",""
"","time_out","","html-keyboard-response","347","342984","0.0-1.0-476.0-0.0","0","0","70426","","null","","","null","52","","","","","","","","","","","","","","","",""
"","ITI","","html-keyboard-response","348","343990","0.0-1.0-477.0","0","0","70426","","null","","","null","52","","","","","","","","","","","","","","","NaN",""
"","S1","","html-keyboard-response","349","344249","0.0-1.0-479.0","0","0","70426","","null","","","null","53","","","","","","","","","","","","","","","",""
"","ISI","","html-keyboard-response","350","345263","0.0-1.0-480.0","0","0","70426","","null","","","null","53","NaN","","","","","","","","","","","","","","",""
"","S2","","html-keyboard-response","351","345521","0.0-1.0-481.0","0","0","70426","","null","","","null","53","","NaN","","","","","","","","","","","","","",""
"","response","","html-keyboard-response","352","345924","0.0-1.0-482.0-0.0","0","0","70426","","397","","","68","53","","","2","53","training","adjacent","FG","6","7","Q.jpg","O.jpg","1","1","1","",""
"","feedback","","html-keyboard-response","353","346939","0.0-1.0-483.0-0.0","0","0","70426","","null","","","null","53","","","","","","","","","","","","","","","",""
"","ITI","","html-keyboard-response","354","347954","0.0-1.0-486.0","0","0","70426","","null","","","null","53","","","","","","","","","","","","","","","NaN",""
"","S1","","html-keyboard-response","355","348213","0.0-1.0-488.0","0","0","70426","","null","","","null","54","","","","","","","","","","","","","","","",""
"","ISI","","html-keyboard-response","356","349227","0.0-1.0-489.0","0","0","70426","","null","","","null","54","NaN","","","","","","","","","","","","","","",""
"","S2","","html-keyboard-response","357","349490","0.0-1.0-490.0","0","0","70426","","null","","","null","54","","NaN","","","","","","","","","","","","","",""
"","response","","html-keyboard-response","358","349870","0.0-1.0-491.0-0.0","0","0","70426","","373","","","68","54","","","2","54","training","adjacent","AB","1","2","L.jpg","P.jpg","1","1","1","",""
"","feedback","","html-keyboard-response","359","350891","0.0-1.0-492.0-0.0","0","0","70426","","null","","","null","54","","","","","","","","","","","","","","","",""
"","ITI","","html-keyboard-response","360","351902","0.0-1.0-495.0","0","0","70426","","null","","","null","54","","","","","","","","","","","","","","","NaN",""
"","S1","","html-keyboard-response","361","352159","0.0-1.0-497.0","0","0","70426","","null","","","null","55","","","","","","","","","","","","","","","",""
"","ISI","","html-keyboard-response","362","353178","0.0-1.0-498.0","0","0","70426","","null","","","null","55","NaN","","","","","","","","","","","","","","",""
"","S2","","html-keyboard-response","363","353435","0.0-1.0-499.0","0","0","70426","","null","","","null","55","","NaN","","","","","","","","","","","","","",""
"","response","","html-keyboard-response","364","353934","0.0-1.0-500.0-0.0","0","0","70426","","493","","","75","55","","","2","55","training","adjacent","GF","7","6","O.jpg","Q.jpg","0","0","1","",""
"","feedback","","html-keyboard-response","365","354950","0.0-1.0-501.0-0.0","0","0","70426","","null","","","null","55","","","","","","","","","","","","","","","",""
"","ITI","","html-keyboard-response","366","355959","0.0-1.0-504.0","0","0","70426","","null","","","null","55","","","","","","","","","","","","","","","NaN",""
"","S1","","html-keyboard-response","367","356222","0.0-1.0-506.0","0","0","70426","","null","","","null","56","","","","","","","","","","","","","","","",""
"","ISI","","html-keyboard-response","368","357236","0.0-1.0-507.0","0","0","70426","","null","","","null","56","NaN","","","","","","","","","","","","","","",""
"","S2","","html-keyboard-response","369","357493","0.0-1.0-508.0","0","0","70426","","null","","","null","56","","NaN","","","","","","","","","","","","","",""
"","response","","html-keyboard-response","370","357905","0.0-1.0-509.0-0.0","0","0","70426","","407","","","68","56","","","2","56","training","adjacent","BC","2","3","P.jpg","N.jpg","1","1","1","",""
"","feedback","","html-keyboard-response","371","358919","0.0-1.0-510.0-0.0","0","0","70426","","null","","","null","56","","","","","","","","","","","","","","","",""
"","ITI","","html-keyboard-response","372","359941","0.0-1.0-513.0","0","0","70426","","null","","","null","56","","","","","","","","","","","","","","","NaN",""
"","S1","","html-keyboard-response","373","360198","0.0-1.0-515.0","0","0","70426","","null","","","null","57","","","","","","","","","","","","","","","",""
"","ISI","","html-keyboard-response","374","361210","0.0-1.0-516.0","0","0","70426","","null","","","null","57","NaN","","","","","","","","","","","","","","",""
"","S2","","html-keyboard-response","375","361478","0.0-1.0-517.0","0","0","70426","","null","","","null","57","","NaN","","","","","","","","","","","","","",""
"","response","","html-keyboard-response","376","361886","0.0-1.0-518.0-0.0","0","0","70426","","401","","","75","57","","","2","57","training","adjacent","CB","3","2","N.jpg","P.jpg","0","0","1","",""
"","feedback","","html-keyboard-response","377","362901","0.0-1.0-519.0-0.0","0","0","70426","","null","","","null","57","","","","","","","","","","","","","","","",""
"","ITI","","html-keyboard-response","378","363923","0.0-1.0-522.0","0","0","70426","","null","","","null","57","","","","","","","","","","","","","","","NaN",""
"","S1","","html-keyboard-response","379","364186","0.0-1.0-524.0","0","0","70426","","null","","","null","58","","","","","","","","","","","","","","","",""
"","ISI","","html-keyboard-response","380","365205","0.0-1.0-525.0","0","0","70426","","null","","","null","58","NaN","","","","","","","","","","","","","","",""
"","S2","","html-keyboard-response","381","365479","0.0-1.0-526.0","0","0","70426","","null","","","null","58","","NaN","","","","","","","","","","","","","",""
"","response","","html-keyboard-response","382","365947","0.0-1.0-527.0-0.0","0","0","70426","","462","","","68","58","","","2","58","training","adjacent","DE","4","5","R.jpg","M.jpg","1","1","1","",""
"","feedback","","html-keyboard-response","383","366965","0.0-1.0-528.0-0.0","0","0","70426","","null","","","null","58","","","","","","","","","","","","","","","",""
"","ITI","","html-keyboard-response","384","367978","0.0-1.0-531.0","0","0","70426","","null","","","null","58","","","","","","","","","","","","","","","NaN",""
"","S1","","html-keyboard-response","385","368235","0.0-1.0-533.0","0","0","70426","","null","","","null","59","","","","","","","","","","","","","","","",""
"","ISI","","html-keyboard-response","386","369243","0.0-1.0-534.0","0","0","70426","","null","","","null","59","NaN","","","","","","","","","","","","","","",""
"","S2","","html-keyboard-response","387","369501","0.0-1.0-535.0","0","0","70426","","null","","","null","59","","NaN","","","","","","","","","","","","","",""
"","response","","html-keyboard-response","388","369922","0.0-1.0-536.0-0.0","0","0","70426","","415","","","75","59","","","2","59","training","adjacent","DC","4","3","R.jpg","N.jpg","0","0","1","",""
"","feedback","","html-keyboard-response","389","370935","0.0-1.0-537.0-0.0","0","0","70426","","null","","","null","59","","","","","","","","","","","","","","","",""
"","ITI","","html-keyboard-response","390","371942","0.0-1.0-540.0","0","0","70426","","null","","","null","59","","","","","","","","","","","","","","","NaN",""
"","S1","","html-keyboard-response","391","372209","0.0-1.0-542.0","0","0","70426","","null","","","null","60","","","","","","","","","","","","","","","",""
"","ISI","","html-keyboard-response","392","373229","0.0-1.0-543.0","0","0","70426","","null","","","null","60","NaN","","","","","","","","","","","","","","",""
"","S2","","html-keyboard-response","393","373493","0.0-1.0-544.0","0","0","70426","","null","","","null","60","","NaN","","","","","","","","","","","","","",""
"","response","","html-keyboard-response","394","373818","0.0-1.0-545.0-0.0","0","0","70426","","319","","","68","60","","","2","60","training","adjacent","CB","3","2","N.jpg","P.jpg","1","0","0","",""
"","feedback","","html-keyboard-response","395","374835","0.0-1.0-546.0-0.0","0","0","70426","","null","","","null","60","","","","","","","","","","","","","","","",""
"","time_out","","html-keyboard-response","396","376843","0.0-1.0-548.0-0.0","0","0","70426","","null","","","null","60","","","","","","","","","","","","","","","",""
"","ITI","","html-keyboard-response","397","377861","0.0-1.0-549.0","0","0","70426","","null","","","null","60","","","","","","","","","","","","","","","NaN",""
"","S1","","html-keyboard-response","398","378119","0.0-1.0-551.0","0","0","70426","","null","","","null","61","","","","","","","","","","","","","","","",""
"","ISI","","html-keyboard-response","399","379130","0.0-1.0-552.0","0","0","70426","","null","","","null","61","NaN","","","","","","","","","","","","","","",""
"","S2","","html-keyboard-response","400","379392","0.0-1.0-553.0","0","0","70426","","null","","","null","61","","NaN","","","","","","","","","","","","","",""
"","response","","html-keyboard-response","401","379568","0.0-1.0-554.0-0.0","0","0","70426","","170","","","75","61","","","2","61","training","adjacent","CB","3","2","N.jpg","P.jpg","0","0","1","",""
"","feedback","","html-keyboard-response","402","380578","0.0-1.0-555.0-0.0","0","0","70426","","null","","","null","61","","","","","","","","","","","","","","","",""
"","ITI","","html-keyboard-response","403","381590","0.0-1.0-558.0","0","0","70426","","null","","","null","61","","","","","","","","","","","","","","","NaN",""
"","S1","","html-keyboard-response","404","381854","0.0-1.0-560.0","0","0","70426","","null","","","null","62","","","","","","","","","","","","","","","",""
"","ISI","","html-keyboard-response","405","382867","0.0-1.0-561.0","0","0","70426","","null","","","null","62","NaN","","","","","","","","","","","","","","",""
"","S2","","html-keyboard-response","406","383132","0.0-1.0-562.0","0","0","70426","","null","","","null","62","","NaN","","","","","","","","","","","","","",""
"","response","","html-keyboard-response","407","383680","0.0-1.0-563.0-0.0","0","0","70426","","542","","","68","62","","","2","62","training","adjacent","BA","2","1","P.jpg","L.jpg","1","0","0","",""
"","feedback","","html-keyboard-response","408","384690","0.0-1.0-564.0-0.0","0","0","70426","","null","","","null","62","","","","","","","","","","","","","","","",""
"","time_out","","html-keyboard-response","409","386701","0.0-1.0-566.0-0.0","0","0","70426","","null","","","null","62","","","","","","","","","","","","","","","",""
"","ITI","","html-keyboard-response","410","387716","0.0-1.0-567.0","0","0","70426","","null","","","null","62","","","","","","","","","","","","","","","NaN",""
"","S1","","html-keyboard-response","411","387983","0.0-1.0-569.0","0","0","70426","","null","","","null","63","","","","","","","","","","","","","","","",""
"","ISI","","html-keyboard-response","412","388989","0.0-1.0-570.0","0","0","70426","","null","","","null","63","NaN","","","","","","","","","","","","","","",""
"","S2","","html-keyboard-response","413","389258","0.0-1.0-571.0","0","0","70426","","null","","","null","63","","NaN","","","","","","","","","","","","","",""
"","response","","html-keyboard-response","414","389714","0.0-1.0-572.0-0.0","0","0","70426","","450","","","75","63","","","2","63","training","adjacent","ED","5","4","M.jpg","R.jpg","0","0","1","",""
"","feedback","","html-keyboard-response","415","390727","0.0-1.0-573.0-0.0","0","0","70426","","null","","","null","63","","","","","","","","","","","","","","","",""
"","ITI","","html-keyboard-response","416","391739","0.0-1.0-576.0","0","0","70426","","null","","","null","63","","","","","","","","","","","","","","","NaN",""
"","S1","","html-keyboard-response","417","391998","0.0-1.0-578.0","0","0","70426","","null","","","null","64","","","","","","","","","","","","","","","",""
"","ISI","","html-keyboard-response","418","393009","0.0-1.0-579.0","0","0","70426","","null","","","null","64","NaN","","","","","","","","","","","","","","",""
"","S2","","html-keyboard-response","419","393272","0.0-1.0-580.0","0","0","70426","","null","","","null","64","","NaN","","","","","","","","","","","","","",""
"","response","","html-keyboard-response","420","393556","0.0-1.0-581.0-0.0","0","0","70426","","278","","","68","64","","","2","64","training","adjacent","AB","1","2","L.jpg","P.jpg","1","1","1","",""
"","feedback","","html-keyboard-response","421","394570","0.0-1.0-582.0-0.0","0","0","70426","","null","","","null","64","","","","","","","","","","","","","","","",""
"","ITI","","html-keyboard-response","422","395587","0.0-1.0-585.0","0","0","70426","","null","","","null","64","","","","","","","","","","","","","","","NaN",""
"","S1","","html-keyboard-response","423","395857","0.0-1.0-587.0","0","0","70426","","null","","","null","65","","","","","","","","","","","","","","","",""
"","ISI","","html-keyboard-response","424","396869","0.0-1.0-588.0","0","0","70426","","null","","","null","65","NaN","","","","","","","","","","","","","","",""
"","S2","","html-keyboard-response","425","397130","0.0-1.0-589.0","0","0","70426","","null","","","null","65","","NaN","","","","","","","","","","","","","",""
"","response","","html-keyboard-response","426","397538","0.0-1.0-590.0-0.0","0","0","70426","","403","","","75","65","","","2","65","training","adjacent","GF","7","6","O.jpg","Q.jpg","0","0","1","",""
"","feedback","","html-keyboard-response","427","398549","0.0-1.0-591.0-0.0","0","0","70426","","null","","","null","65","","","","","","","","","","","","","","","",""
"","ITI","","html-keyboard-response","428","399560","0.0-1.0-594.0","0","0","70426","","null","","","null","65","","","","","","","","","","","","","","","NaN",""
"","S1","","html-keyboard-response","429","399824","0.0-1.0-596.0","0","0","70426","","null","","","null","66","","","","","","","","","","","","","","","",""
"","ISI","","html-keyboard-response","430","400841","0.0-1.0-597.0","0","0","70426","","null","","","null","66","NaN","","","","","","","","","","","","","","",""
"","S2","","html-keyboard-response","431","401101","0.0-1.0-598.0","0","0","70426","","null","","","null","66","","NaN","","","","","","","","","","","","","",""
"","response","","html-keyboard-response","432","401430","0.0-1.0-599.0-0.0","0","0","70426","","323","","","68","66","","","2","66","training","adjacent","DC","4","3","R.jpg","N.jpg","1","0","0","",""
"","feedback","","html-keyboard-response","433","402437","0.0-1.0-600.0-0.0","0","0","70426","","null","","","null","66","","","","","","","","","","","","","","","",""
"","time_out","","html-keyboard-response","434","404448","0.0-1.0-602.0-0.0","0","0","70426","","null","","","null","66","","","","","","","","","","","","","","","",""
"","ITI","","html-keyboard-response","435","405459","0.0-1.0-603.0","0","0","70426","","null","","","null","66","","","","","","","","","","","","","","","NaN",""
"","S1","","html-keyboard-response","436","405721","0.0-1.0-605.0","0","0","70426","","null","","","null","67","","","","","","","","","","","","","","","",""
"","ISI","","html-keyboard-response","437","406728","0.0-1.0-606.0","0","0","70426","","null","","","null","67","NaN","","","","","","","","","","","","","","",""
"","S2","","html-keyboard-response","438","406998","0.0-1.0-607.0","0","0","70426","","null","","","null","67","","NaN","","","","","","","","","","","","","",""
"","response","","html-keyboard-response","439","407387","0.0-1.0-608.0-0.0","0","0","70426","","382","","","75","67","","","2","67","training","adjacent","BA","2","1","P.jpg","L.jpg","0","0","1","",""
"","feedback","","html-keyboard-response","440","408406","0.0-1.0-609.0-0.0","0","0","70426","","null","","","null","67","","","","","","","","","","","","","","","",""
"","ITI","","html-keyboard-response","441","409425","0.0-1.0-612.0","0","0","70426","","null","","","null","67","","","","","","","","","","","","","","","NaN",""
"","S1","","html-keyboard-response","442","409689","0.0-1.0-614.0","0","0","70426","","null","","","null","68","","","","","","","","","","","","","","","",""
"","ISI","","html-keyboard-response","443","410711","0.0-1.0-615.0","0","0","70426","","null","","","null","68","NaN","","","","","","","","","","","","","","",""
"","S2","","html-keyboard-response","444","410971","0.0-1.0-616.0","0","0","70426","","null","","","null","68","","NaN","","","","","","","","","","","","","",""
"","response","","html-keyboard-response","445","411369","0.0-1.0-617.0-0.0","0","0","70426","","392","","","68","68","","","2","68","training","adjacent","EF","5","6","M.jpg","Q.jpg","1","1","1","",""
"","feedback","","html-keyboard-response","446","412379","0.0-1.0-618.0-0.0","0","0","70426","","null","","","null","68","","","","","","","","","","","","","","","",""
"","ITI","","html-keyboard-response","447","413401","0.0-1.0-621.0","0","0","70426","","null","","","null","68","","","","","","","","","","","","","","","NaN",""
"","S1","","html-keyboard-response","448","413666","0.0-1.0-623.0","0","0","70426","","null","","","null","69","","","","","","","","","","","","","","","",""
"","ISI","","html-keyboard-response","449","414686","0.0-1.0-624.0","0","0","70426","","null","","","null","69","NaN","","","","","","","","","","","","","","",""
"","S2","","html-keyboard-response","450","414960","0.0-1.0-625.0","0","0","70426","","null","","","null","69","","NaN","","","","","","","","","","","","","",""
"","response","","html-keyboard-response","451","415839","0.0-1.0-626.0-0.0","0","0","70426","","873","","","75","69","","","2","69","training","adjacent","DE","4","5","R.jpg","M.jpg","0","1","0","",""
"","feedback","","html-keyboard-response","452","416853","0.0-1.0-627.0-0.0","0","0","70426","","null","","","null","69","","","","","","","","","","","","","","","",""
"","time_out","","html-keyboard-response","453","418864","0.0-1.0-629.0-0.0","0","0","70426","","null","","","null","69","","","","","","","","","","","","","","","",""
"","ITI","","html-keyboard-response","454","419882","0.0-1.0-630.0","0","0","70426","","null","","","null","69","","","","","","","","","","","","","","","NaN",""
"","S1","","html-keyboard-response","455","420154","0.0-1.0-632.0","0","0","70426","","null","","","null","70","","","","","","","","","","","","","","","",""
"","ISI","","html-keyboard-response","456","421174","0.0-1.0-633.0","0","0","70426","","null","","","null","70","NaN","","","","","","","","","","","","","","",""
"","S2","","html-keyboard-response","457","421438","0.0-1.0-634.0","0","0","70426","","null","","","null","70","","NaN","","","","","","","","","","","","","",""
"","response","","html-keyboard-response","458","422398","0.0-1.0-635.0-0.0","0","0","70426","","954","","","75","70","","","2","70","training","adjacent","GF","7","6","O.jpg","Q.jpg","0","0","1","",""
"","feedback","","html-keyboard-response","459","423407","0.0-1.0-636.0-0.0","0","0","70426","","null","","","null","70","","","","","","","","","","","","","","","",""
"","ITI","","html-keyboard-response","460","424418","0.0-1.0-639.0","0","0","70426","","null","","","null","70","","","","","","","","","","","","","","","NaN",""
"","S1","","html-keyboard-response","461","424682","0.0-1.0-641.0","0","0","70426","","null","","","null","71","","","","","","","","","","","","","","","",""
"","ISI","","html-keyboard-response","462","425695","0.0-1.0-642.0","0","0","70426","","null","","","null","71","NaN","","","","","","","","","","","","","","",""
"","S2","","html-keyboard-response","463","425968","0.0-1.0-643.0","0","0","70426","","null","","","null","71","","NaN","","","","","","","","","","","","","",""
"","response","","html-keyboard-response","464","426421","0.0-1.0-644.0-0.0","0","0","70426","","447","","","75","71","","","2","71","training","adjacent","BA","2","1","P.jpg","L.jpg","0","0","1","",""
"","feedback","","html-keyboard-response","465","427436","0.0-1.0-645.0-0.0","0","0","70426","","null","","","null","71","","","","","","","","","","","","","","","",""
"","ITI","","html-keyboard-response","466","428446","0.0-1.0-648.0","0","0","70426","","null","","","null","71","","","","","","","","","","","","","","","NaN",""
"","S1","","html-keyboard-response","467","428717","0.0-1.0-650.0","0","0","70426","","null","","","null","72","","","","","","","","","","","","","","","",""
"","ISI","","html-keyboard-response","468","429729","0.0-1.0-651.0","0","0","70426","","null","","","null","72","NaN","","","","","","","","","","","","","","",""
"","S2","","html-keyboard-response","469","429990","0.0-1.0-652.0","0","0","70426","","null","","","null","72","","NaN","","","","","","","","","","","","","",""
"","response","","html-keyboard-response","470","430541","0.0-1.0-653.0-0.0","0","0","70426","","544","","","68","72","","","2","72","training","adjacent","BA","2","1","P.jpg","L.jpg","1","0","0","",""
"","feedback","","html-keyboard-response","471","431552","0.0-1.0-654.0-0.0","0","0","70426","","null","","","null","72","","","","","","","","","","","","","","","",""
"","time_out","","html-keyboard-response","472","433561","0.0-1.0-656.0-0.0","0","0","70426","","null","","","null","72","","","","","","","","","","","","","","","",""
"","ITI","","html-keyboard-response","473","434570","0.0-1.0-657.0","0","0","70426","","null","","","null","72","","","","","","","","","","","","","","","NaN",""
"","S1","","html-keyboard-response","474","434833","0.0-1.0-659.0","0","0","70426","","null","","","null","73","","","","","","","","","","","","","","","",""
"","ISI","","html-keyboard-response","475","435842","0.0-1.0-660.0","0","0","70426","","null","","","null","73","NaN","","","","","","","","","","","","","","",""
"","S2","","html-keyboard-response","476","436106","0.0-1.0-661.0","0","0","70426","","null","","","null","73","","NaN","","","","","","","","","","","","","",""
"","response","","html-keyboard-response","477","436848","0.0-1.0-662.0-0.0","0","0","70426","","733","","","68","73","","","2","73","training","adjacent","EF","5","6","M.jpg","Q.jpg","1","1","1","",""
"","feedback","","html-keyboard-response","478","437870","0.0-1.0-663.0-0.0","0","0","70426","","null","","","null","73","","","","","","","","","","","","","","","",""
"","ITI","","html-keyboard-response","479","438881","0.0-1.0-666.0","0","0","70426","","null","","","null","73","","","","","","","","","","","","","","","NaN",""
"","S1","","html-keyboard-response","480","439139","0.0-1.0-668.0","0","0","70426","","null","","","null","74","","","","","","","","","","","","","","","",""
"","ISI","","html-keyboard-response","481","440151","0.0-1.0-669.0","0","0","70426","","null","","","null","74","NaN","","","","","","","","","","","","","","",""
"","S2","","html-keyboard-response","482","440409","0.0-1.0-670.0","0","0","70426","","null","","","null","74","","NaN","","","","","","","","","","","","","",""
"","response","","html-keyboard-response","483","440877","0.0-1.0-671.0-0.0","0","0","70426","","463","","","75","74","","","2","74","training","adjacent","DC","4","3","R.jpg","N.jpg","0","0","1","",""
"","feedback","","html-keyboard-response","484","441894","0.0-1.0-672.0-0.0","0","0","70426","","null","","","null","74","","","","","","","","","","","","","","","",""
"","ITI","","html-keyboard-response","485","442911","0.0-1.0-675.0","0","0","70426","","null","","","null","74","","","","","","","","","","","","","","","NaN",""
"","S1","","html-keyboard-response","486","443190","0.0-1.0-677.0","0","0","70426","","null","","","null","75","","","","","","","","","","","","","","","",""
"","ISI","","html-keyboard-response","487","444208","0.0-1.0-678.0","0","0","70426","","null","","","null","75","NaN","","","","","","","","","","","","","","",""
"","S2","","html-keyboard-response","488","444473","0.0-1.0-679.0","0","0","70426","","null","","","null","75","","NaN","","","","","","","","","","","","","",""
"","response","","html-keyboard-response","489","444952","0.0-1.0-680.0-0.0","0","0","70426","","473","","","68","75","","","2","75","training","adjacent","BC","2","3","P.jpg","N.jpg","1","1","1","",""
"","feedback","","html-keyboard-response","490","445961","0.0-1.0-681.0-0.0","0","0","70426","","null","","","null","75","","","","","","","","","","","","","","","",""
"","ITI","","html-keyboard-response","491","446971","0.0-1.0-684.0","0","0","70426","","null","","","null","75","","","","","","","","","","","","","","","NaN",""
"","S1","","html-keyboard-response","492","447234","0.0-1.0-686.0","0","0","70426","","null","","","null","76","","","","","","","","","","","","","","","",""
"","ISI","","html-keyboard-response","493","448248","0.0-1.0-687.0","0","0","70426","","null","","","null","76","NaN","","","","","","","","","","","","","","",""
"","S2","","html-keyboard-response","494","448513","0.0-1.0-688.0","0","0","70426","","null","","","null","76","","NaN","","","","","","","","","","","","","",""
"","response","","html-keyboard-response","495","449102","0.0-1.0-689.0-0.0","0","0","70426","","583","","","75","76","","","2","76","training","adjacent","DC","4","3","R.jpg","N.jpg","0","0","1","",""
"","feedback","","html-keyboard-response","496","450120","0.0-1.0-690.0-0.0","0","0","70426","","null","","","null","76","","","","","","","","","","","","","","","",""
"","ITI","","html-keyboard-response","497","451138","0.0-1.0-693.0","0","0","70426","","null","","","null","76","","","","","","","","","","","","","","","NaN",""
"","S1","","html-keyboard-response","498","451407","0.0-1.0-695.0","0","0","70426","","null","","","null","77","","","","","","","","","","","","","","","",""
"","ISI","","html-keyboard-response","499","452413","0.0-1.0-696.0","0","0","70426","","null","","","null","77","NaN","","","","","","","","","","","","","","",""
"","S2","","html-keyboard-response","500","452681","0.0-1.0-697.0","0","0","70426","","null","","","null","77","","NaN","","","","","","","","","","","","","",""
"","response","","html-keyboard-response","501","453230","0.0-1.0-698.0-0.0","0","0","70426","","542","","","75","77","","","2","77","training","adjacent","ED","5","4","M.jpg","R.jpg","0","0","1","",""
"","feedback","","html-keyboard-response","502","454240","0.0-1.0-699.0-0.0","0","0","70426","","null","","","null","77","","","","","","","","","","","","","","","",""
"","ITI","","html-keyboard-response","503","455248","0.0-1.0-702.0","0","0","70426","","null","","","null","77","","","","","","","","","","","","","","","NaN",""
"","S1","","html-keyboard-response","504","455512","0.0-1.0-704.0","0","0","70426","","null","","","null","78","","","","","","","","","","","","","","","",""
"","ISI","","html-keyboard-response","505","456526","0.0-1.0-705.0","0","0","70426","","null","","","null","78","NaN","","","","","","","","","","","","","","",""
"","S2","","html-keyboard-response","506","456784","0.0-1.0-706.0","0","0","70426","","null","","","null","78","","NaN","","","","","","","","","","","","","",""
"","response","","html-keyboard-response","507","457153","0.0-1.0-707.0-0.0","0","0","70426","","363","","","68","78","","","2","78","training","adjacent","CD","3","4","N.jpg","R.jpg","1","1","1","",""
"","feedback","","html-keyboard-response","508","458170","0.0-1.0-708.0-0.0","0","0","70426","","null","","","null","78","","","","","","","","","","","","","","","",""
"","ITI","","html-keyboard-response","509","459185","0.0-1.0-711.0","0","0","70426","","null","","","null","78","","","","","","","","","","","","","","","NaN",""
"","S1","","html-keyboard-response","510","459452","0.0-1.0-713.0","0","0","70426","","null","","","null","79","","","","","","","","","","","","","","","",""
"","ISI","","html-keyboard-response","511","460461","0.0-1.0-714.0","0","0","70426","","null","","","null","79","NaN","","","","","","","","","","","","","","",""
"","S2","","html-keyboard-response","512","460727","0.0-1.0-715.0","0","0","70426","","null","","","null","79","","NaN","","","","","","","","","","","","","",""
"","response","","html-keyboard-response","513","461321","0.0-1.0-716.0-0.0","0","0","70426","","588","","","75","79","","","2","79","training","adjacent","FG","6","7","Q.jpg","O.jpg","0","1","0","",""
"","feedback","","html-keyboard-response","514","462334","0.0-1.0-717.0-0.0","0","0","70426","","null","","","null","79","","","","","","","","","","","","","","","",""
"","time_out","","html-keyboard-response","515","464345","0.0-1.0-719.0-0.0","0","0","70426","","null","","","null","79","","","","","","","","","","","","","","","",""
"","ITI","","html-keyboard-response","516","465359","0.0-1.0-720.0","0","0","70426","","null","","","null","79","","","","","","","","","","","","","","","NaN",""
"","S1","","html-keyboard-response","517","465625","0.0-1.0-722.0","0","0","70426","","null","","","null","80","","","","","","","","","","","","","","","",""
"","ISI","","html-keyboard-response","518","466639","0.0-1.0-723.0","0","0","70426","","null","","","null","80","NaN","","","","","","","","","","","","","","",""
"","S2","","html-keyboard-response","519","466911","0.0-1.0-724.0","0","0","70426","","null","","","null","80","","NaN","","","","","","","","","","","","","",""
"","response","","html-keyboard-response","520","467284","0.0-1.0-725.0-0.0","0","0","70426","","366","","","68","80","","","2","80","training","adjacent","ED","5","4","M.jpg","R.jpg","1","0","0","",""
"","feedback","","html-keyboard-response","521","468294","0.0-1.0-726.0-0.0","0","0","70426","","null","","","null","80","","","","","","","","","","","","","","","",""
"","time_out","","html-keyboard-response","522","470310","0.0-1.0-728.0-0.0","0","0","70426","","null","","","null","80","","","","","","","","","","","","","","","",""
"","ITI","","html-keyboard-response","523","471325","0.0-1.0-729.0","0","0","70426","","null","","","null","80","","","","","","","","","","","","","","","NaN",""
"","S1","","html-keyboard-response","524","471586","0.0-1.0-731.0","0","0","70426","","null","","","null","81","","","","","","","","","","","","","","","",""
"","ISI","","html-keyboard-response","525","472601","0.0-1.0-732.0","0","0","70426","","null","","","null","81","NaN","","","","","","","","","","","","","","",""
"","S2","","html-keyboard-response","526","472866","0.0-1.0-733.0","0","0","70426","","null","","","null","81","","NaN","","","","","","","","","","","","","",""
"","response","","html-keyboard-response","527","473425","0.0-1.0-734.0-0.0","0","0","70426","","552","","","75","81","","","2","81","training","adjacent","DE","4","5","R.jpg","M.jpg","0","1","0","",""
"","feedback","","html-keyboard-response","528","474433","0.0-1.0-735.0-0.0","0","0","70426","","null","","","null","81","","","","","","","","","","","","","","","",""
"","time_out","","html-keyboard-response","529","476440","0.0-1.0-737.0-0.0","0","0","70426","","null","","","null","81","","","","","","","","","","","","","","","",""
"","ITI","","html-keyboard-response","530","477451","0.0-1.0-738.0","0","0","70426","","null","","","null","81","","","","","","","","","","","","","","","NaN",""
"","S1","","html-keyboard-response","531","477710","0.0-1.0-740.0","0","0","70426","","null","","","null","82","","","","","","","","","","","","","","","",""
"","ISI","","html-keyboard-response","532","478718","0.0-1.0-741.0","0","0","70426","","null","","","null","82","NaN","","","","","","","","","","","","","","",""
"","S2","","html-keyboard-response","533","478987","0.0-1.0-742.0","0","0","70426","","null","","","null","82","","NaN","","","","","","","","","","","","","",""
"","response","","html-keyboard-response","534","479340","0.0-1.0-743.0-0.0","0","0","70426","","346","","","68","82","","","2","82","training","adjacent","EF","5","6","M.jpg","Q.jpg","1","1","1","",""
"","feedback","","html-keyboard-response","535","480360","0.0-1.0-744.0-0.0","0","0","70426","","null","","","null","82","","","","","","","","","","","","","","","",""
"","ITI","","html-keyboard-response","536","481382","0.0-1.0-747.0","0","0","70426","","null","","","null","82","","","","","","","","","","","","","","","NaN",""
"","S1","","html-keyboard-response","537","481644","0.0-1.0-749.0","0","0","70426","","null","","","null","83","","","","","","","","","","","","","","","",""
"","ISI","","html-keyboard-response","538","482651","0.0-1.0-750.0","0","0","70426","","null","","","null","83","NaN","","","","","","","","","","","","","","",""
"","S2","","html-keyboard-response","539","482923","0.0-1.0-751.0","0","0","70426","","null","","","null","83","","NaN","","","","","","","","","","","","","",""
"","response","","html-keyboard-response","540","483463","0.0-1.0-752.0-0.0","0","0","70426","","534","","","75","83","","","2","83","training","adjacent","BC","2","3","P.jpg","N.jpg","0","1","0","",""
"","feedback","","html-keyboard-response","541","484478","0.0-1.0-753.0-0.0","0","0","70426","","null","","","null","83","","","","","","","","","","","","","","","",""
"","time_out","","html-keyboard-response","542","486502","0.0-1.0-755.0-0.0","0","0","70426","","null","","","null","83","","","","","","","","","","","","","","","",""
"","ITI","","html-keyboard-response","543","487515","0.0-1.0-756.0","0","0","70426","","null","","","null","83","","","","","","","","","","","","","","","NaN",""
"","S1","","html-keyboard-response","544","487776","0.0-1.0-758.0","0","0","70426","","null","","","null","84","","","","","","","","","","","","","","","",""
"","ISI","","html-keyboard-response","545","488789","0.0-1.0-759.0","0","0","70426","","null","","","null","84","NaN","","","","","","","","","","","","","","",""
"","S2","","html-keyboard-response","546","489052","0.0-1.0-760.0","0","0","70426","","null","","","null","84","","NaN","","","","","","","","","","","","","",""
"","response","","html-keyboard-response","547","489967","0.0-1.0-761.0-0.0","0","0","70426","","908","","","75","84","","","2","84","training","adjacent","FG","6","7","Q.jpg","O.jpg","0","1","0","",""
"","feedback","","html-keyboard-response","548","490985","0.0-1.0-762.0-0.0","0","0","70426","","null","","","null","84","","","","","","","","","","","","","","","",""
"","time_out","","html-keyboard-response","549","492997","0.0-1.0-764.0-0.0","0","0","70426","","null","","","null","84","","","","","","","","","","","","","","","",""
"","ITI","","html-keyboard-response","550","494014","0.0-1.0-765.0","0","0","70426","","null","","","null","84","","","","","","","","","","","","","","","NaN",""
"","S1","","html-keyboard-response","551","494271","0.0-1.0-767.0","0","0","70426","","null","","","null","85","","","","","","","","","","","","","","","",""
"","ISI","","html-keyboard-response","552","495277","0.0-1.0-768.0","0","0","70426","","null","","","null","85","NaN","","","","","","","","","","","","","","",""
"","S2","","html-keyboard-response","553","495535","0.0-1.0-769.0","0","0","70426","","null","","","null","85","","NaN","","","","","","","","","","","","","",""
"","response","","html-keyboard-response","554","495789","0.0-1.0-770.0-0.0","0","0","70426","","246","","","68","85","","","2","85","training","adjacent","CD","3","4","N.jpg","R.jpg","1","1","1","",""
"","feedback","","html-keyboard-response","555","496797","0.0-1.0-771.0-0.0","0","0","70426","","null","","","null","85","","","","","","","","","","","","","","","",""
"","ITI","","html-keyboard-response","556","497821","0.0-1.0-774.0","0","0","70426","","null","","","null","85","","","","","","","","","","","","","","","NaN",""
"","S1","","html-keyboard-response","557","498082","0.0-1.0-776.0","0","0","70426","","null","","","null","86","","","","","","","","","","","","","","","",""
"","ISI","","html-keyboard-response","558","499093","0.0-1.0-777.0","0","0","70426","","null","","","null","86","NaN","","","","","","","","","","","","","","",""
"","S2","","html-keyboard-response","559","499355","0.0-1.0-778.0","0","0","70426","","null","","","null","86","","NaN","","","","","","","","","","","","","",""
"","response","","html-keyboard-response","560","500429","0.0-1.0-779.0-0.0","0","0","70426","","1068","","","75","86","","","2","86","training","adjacent","FE","6","5","Q.jpg","M.jpg","0","0","1","",""
"","feedback","","html-keyboard-response","561","501449","0.0-1.0-780.0-0.0","0","0","70426","","null","","","null","86","","","","","","","","","","","","","","","",""
"","ITI","","html-keyboard-response","562","502462","0.0-1.0-783.0","0","0","70426","","null","","","null","86","","","","","","","","","","","","","","","NaN",""
"","S1","","html-keyboard-response","563","502721","0.0-1.0-785.0","0","0","70426","","null","","","null","87","","","","","","","","","","","","","","","",""
"","ISI","","html-keyboard-response","564","503737","0.0-1.0-786.0","0","0","70426","","null","","","null","87","NaN","","","","","","","","","","","","","","",""
"","S2","","html-keyboard-response","565","504001","0.0-1.0-787.0","0","0","70426","","null","","","null","87","","NaN","","","","","","","","","","","","","",""
"","response","","html-keyboard-response","566","504843","0.0-1.0-788.0-0.0","0","0","70426","","836","","","75","87","","","2","87","training","adjacent","GF","7","6","O.jpg","Q.jpg","0","0","1","",""
"","feedback","","html-keyboard-response","567","505860","0.0-1.0-789.0-0.0","0","0","70426","","null","","","null","87","","","","","","","","","","","","","","","",""
"","ITI","","html-keyboard-response","568","506870","0.0-1.0-792.0","0","0","70426","","null","","","null","87","","","","","","","","","","","","","","","NaN",""
"","S1","","html-keyboard-response","569","507136","0.0-1.0-794.0","0","0","70426","","null","","","null","88","","","","","","","","","","","","","","","",""
"","ISI","","html-keyboard-response","570","508150","0.0-1.0-795.0","0","0","70426","","null","","","null","88","NaN","","","","","","","","","","","","","","",""
"","S2","","html-keyboard-response","571","508414","0.0-1.0-796.0","0","0","70426","","null","","","null","88","","NaN","","","","","","","","","","","","","",""
"","response","","html-keyboard-response","572","509014","0.0-1.0-797.0-0.0","0","0","70426","","594","","","75","88","","","2","88","training","adjacent","FE","6","5","Q.jpg","M.jpg","0","0","1","",""
"","feedback","","html-keyboard-response","573","510024","0.0-1.0-798.0-0.0","0","0","70426","","null","","","null","88","","","","","","","","","","","","","","","",""
"","ITI","","html-keyboard-response","574","511034","0.0-1.0-801.0","0","0","70426","","null","","","null","88","","","","","","","","","","","","","","","NaN",""
"","S1","","html-keyboard-response","575","511299","0.0-1.0-803.0","0","0","70426","","null","","","null","89","","","","","","","","","","","","","","","",""
"","ISI","","html-keyboard-response","576","512310","0.0-1.0-804.0","0","0","70426","","null","","","null","89","NaN","","","","","","","","","","","","","","",""
"","S2","","html-keyboard-response","577","512577","0.0-1.0-805.0","0","0","70426","","null","","","null","89","","NaN","","","","","","","","","","","","","",""
"","response","","html-keyboard-response","578","513061","0.0-1.0-806.0-0.0","0","0","70426","","478","","","75","89","","","2","89","training","adjacent","FE","6","5","Q.jpg","M.jpg","0","0","1","",""
"","feedback","","html-keyboard-response","579","514072","0.0-1.0-807.0-0.0","0","0","70426","","null","","","null","89","","","","","","","","","","","","","","","",""
"","ITI","","html-keyboard-response","580","515092","0.0-1.0-810.0","0","0","70426","","null","","","null","89","","","","","","","","","","","","","","","NaN",""
"","S1","","html-keyboard-response","581","515356","0.0-1.0-812.0","0","0","70426","","null","","","null","90","","","","","","","","","","","","","","","",""
"","ISI","","html-keyboard-response","582","516368","0.0-1.0-813.0","0","0","70426","","null","","","null","90","NaN","","","","","","","","","","","","","","",""
"","S2","","html-keyboard-response","583","516628","0.0-1.0-814.0","0","0","70426","","null","","","null","90","","NaN","","","","","","","","","","","","","",""
