"success","ttype","start_time","trial_type","trial_index","time_elapsed","internal_node_id","warning","missed_checkup","PID","view_history","rt","responses","repeat_instructions","key_press","index","keypress_isi","keypress_S2","block","trial_num","phase","group_type","pair_type","S1_stim","S2_stim","S1_img","S2_img","S1_chosen","S1_higher","accuracy","keypress_iti","total_bonus_tally"
"true","full_screen","d04142023hr1851","fullscreen","0","2693","0.0-0.0","0","0","94528","","","","","","","","","","","","","","","","","","","","","",""
"","instructions","","instructions","1","22478","0.0-1.0-0.0-0.0","0","0","94528","[{""page_index"":0,""viewing_time"":8743},{""page_index"":1,""viewing_time"":8613},{""page_index"":2,""viewing_time"":1182},{""page_index"":3,""viewing_time"":1242}]","19781","","","","","","","","","","","","","","","","","","","",""
"","comprehension_check","","survey-multi-choice","2","37414","0.0-1.0-0.0-1.0","0","0","94528","","14896","{""Q0"":""True"",""Q1"":""D"",""Q2"":""Only when the screen 'MAKE A CHOICE' is shown"",""Q3"":""Green mark"",""Q4"":""either D or K""}","1","","","","","","","","","","","","","","","","","",""
"","missed_instruction_checkup","","html-keyboard-response","3","39158","0.0-1.0-0.0-2.0-0.0","0","1","94528","","1738","","","32","","","","","","","","","","","","","","","","",""
"","instructions","","instructions","4","54425","0.0-1.0-0.1-0.1","0","0","94528","[{""page_index"":0,""viewing_time"":2285},{""page_index"":1,""viewing_time"":8740},{""page_index"":2,""viewing_time"":3254},{""page_index"":3,""viewing_time"":983}]","15262","","","","","","","","","","","","","","","","","","","",""
"","comprehension_check","","survey-multi-choice","5","69049","0.0-1.0-0.1-1.1","0","0","94528","","14615","{""Q0"":""True"",""Q1"":""D"",""Q2"":""Once the second image appears and while the screen 'MAKE A CHOICE' is shown"",""Q3"":""Green mark"",""Q4"":""either D or K""}","0","","","","","","","","","","","","","","","","","",""
"","start_exp","","html-keyboard-response","6","70088","0.0-1.0-1.0","0","0","94528","","1035","","","32","","","","","","","","","","","","","","","","",""
"","S1","","html-keyboard-response","7","70343","0.0-1.0-2.0","0","0","94528","","null","","","null","0","","","","","","","","","","","","","","","",""
"","ISI","","html-keyboard-response","8","71348","0.0-1.0-3.0","0","0","94528","","null","","","null","0","NaN","","","","","","","","","","","","","","",""
"","S2","","html-keyboard-response","9","71603","0.0-1.0-4.0","0","0","94528","","null","","","null","0","","NaN","","","","","","","","","","","","","",""
"","response","","html-keyboard-response","10","72568","0.0-1.0-5.0-0.0","0","0","94528","","960","","","75","0","","","1","0","training","adjacent","ED","5","4","P.jpg","M.jpg","0","0","1","",""
"","feedback","","html-keyboard-response","11","73573","0.0-1.0-6.0-0.0","0","0","94528","","null","","","null","0","","","","","","","","","","","","","","","",""
"","ITI","","html-keyboard-response","12","74580","0.0-1.0-9.0","0","0","94528","","null","","","null","0","","","","","","","","","","","","","","","NaN",""
"","S1","","html-keyboard-response","13","74836","0.0-1.0-11.0","0","0","94528","","null","","","null","1","","","","","","","","","","","","","","","",""
"","ISI","","html-keyboard-response","14","75840","0.0-1.0-12.0","0","0","94528","","null","","","null","1","NaN","","","","","","","","","","","","","","",""
"","S2","","html-keyboard-response","15","76095","0.0-1.0-13.0","0","0","94528","","null","","","null","1","","NaN","","","","","","","","","","","","","",""
"","response","","html-keyboard-response","16","76771","0.0-1.0-14.0-0.0","0","0","94528","","671","","","68","1","","","1","1","training","adjacent","BC","2","3","N.jpg","O.jpg","1","1","1","",""
"","feedback","","html-keyboard-response","17","77776","0.0-1.0-15.0-0.0","0","0","94528","","null","","","null","1","","","","","","","","","","","","","","","",""
"","ITI","","html-keyboard-response","18","78782","0.0-1.0-18.0","0","0","94528","","null","","","null","1","","","","","","","","","","","","","","","NaN",""
"","S1","","html-keyboard-response","19","79036","0.0-1.0-20.0","0","0","94528","","null","","","null","2","","","","","","","","","","","","","","","",""
"","ISI","","html-keyboard-response","20","80041","0.0-1.0-21.0","0","0","94528","","null","","","null","2","NaN","","","","","","","","","","","","","","",""
"","S2","","html-keyboard-response","21","80296","0.0-1.0-22.0","0","0","94528","","null","","","null","2","","NaN","","","","","","","","","","","","","",""
"","response","","html-keyboard-response","22","80644","0.0-1.0-23.0-0.0","0","0","94528","","343","","","68","2","","","1","2","training","adjacent","GF","7","6","R.jpg","L.jpg","1","0","0","",""
"","feedback","","html-keyboard-response","23","81648","0.0-1.0-24.0-0.0","0","0","94528","","null","","","null","2","","","","","","","","","","","","","","","",""
"","time_out","","html-keyboard-response","24","83652","0.0-1.0-26.0-0.0","0","0","94528","","null","","","null","2","","","","","","","","","","","","","","","",""
"","ITI","","html-keyboard-response","25","84658","0.0-1.0-27.0","0","0","94528","","null","","","null","2","","","","","","","","","","","","","","","NaN",""
"","S1","","html-keyboard-response","26","84912","0.0-1.0-29.0","0","0","94528","","null","","","null","3","","","","","","","","","","","","","","","",""
"","ISI","","html-keyboard-response","27","85918","0.0-1.0-30.0","0","0","94528","","null","","","null","3","NaN","","","","","","","","","","","","","","",""
"","S2","","html-keyboard-response","28","86172","0.0-1.0-31.0","0","0","94528","","null","","","null","3","","NaN","","","","","","","","","","","","","",""
"","response","","html-keyboard-response","29","86331","0.0-1.0-32.0-0.0","0","0","94528","","154","","","75","3","","","1","3","training","adjacent","BC","2","3","N.jpg","O.jpg","0","1","0","",""
"","feedback","","html-keyboard-response","30","87337","0.0-1.0-33.0-0.0","0","0","94528","","null","","","null","3","","","","","","","","","","","","","","","",""
"","time_out","","html-keyboard-response","31","89341","0.0-1.0-35.0-0.0","0","0","94528","","null","","","null","3","","","","","","","","","","","","","","","",""
"","ITI","","html-keyboard-response","32","90347","0.0-1.0-36.0","0","0","94528","","null","","","null","3","","","","","","","","","","","","","","","NaN",""
"","S1","","html-keyboard-response","33","90601","0.0-1.0-38.0","0","0","94528","","null","","","null","4","","","","","","","","","","","","","","","",""
"","ISI","","html-keyboard-response","34","91607","0.0-1.0-39.0","0","0","94528","","null","","","null","4","NaN","","","","","","","","","","","","","","",""
"","S2","","html-keyboard-response","35","91841","0.0-1.0-40.0","0","0","94528","","228","","","75","4","","k","1","4","training","adjacent","ED","5","4","P.jpg","M.jpg","0","0","1","",""
"","feedback","","html-keyboard-response","36","92849","0.0-1.0-42.0-0.0","0","0","94528","","null","","","null","4","","","","","","","","","","","","","","","",""
"","ITI","","html-keyboard-response","37","93853","0.0-1.0-45.0","0","0","94528","","null","","","null","4","","","","","","","","","","","","","","","NaN",""
"","S1","","html-keyboard-response","38","94107","0.0-1.0-47.0","0","0","94528","","null","","","null","5","","","","","","","","","","","","","","","",""
"","ISI","","html-keyboard-response","39","95111","0.0-1.0-48.0","0","0","94528","","null","","","null","5","NaN","","","","","","","","","","","","","","",""
"","S2","","html-keyboard-response","40","95140","0.0-1.0-49.0","0","0","94528","","24","","","68","5","","d","1","5","training","adjacent","CB","3","2","O.jpg","N.jpg","1","0","0","",""
"","feedback","","html-keyboard-response","41","96146","0.0-1.0-51.0-0.0","0","0","94528","","null","","","null","5","","","","","","","","","","","","","","","",""
"","time_out","","html-keyboard-response","42","98151","0.0-1.0-53.0-0.0","0","0","94528","","null","","","null","5","","","","","","","","","","","","","","","",""
"","ITI","","html-keyboard-response","43","99156","0.0-1.0-54.0","0","0","94528","","null","","","null","5","","","","","","","","","","","","","","","NaN",""
"","S1","","html-keyboard-response","44","99411","0.0-1.0-56.0","0","0","94528","","null","","","null","6","","","","","","","","","","","","","","","",""
"","ISI","","html-keyboard-response","45","100416","0.0-1.0-57.0","0","0","94528","","null","","","null","6","NaN","","","","","","","","","","","","","","",""
"","S2","","html-keyboard-response","46","100670","0.0-1.0-58.0","0","0","94528","","null","","","null","6","","NaN","","","","","","","","","","","","","",""
"","response","","html-keyboard-response","47","100765","0.0-1.0-59.0-0.0","0","0","94528","","91","","","68","6","","","1","6","training","adjacent","FG","6","7","L.jpg","R.jpg","1","1","1","",""
"","feedback","","html-keyboard-response","48","101771","0.0-1.0-60.0-0.0","0","0","94528","","null","","","null","6","","","","","","","","","","","","","","","",""
"","ITI","","html-keyboard-response","49","102777","0.0-1.0-63.0","0","0","94528","","null","","","null","6","","","","","","","","","","","","","","","NaN",""
"","S1","","html-keyboard-response","50","103032","0.0-1.0-65.0","0","0","94528","","null","","","null","7","","","","","","","","","","","","","","","",""
"","ISI","","html-keyboard-response","51","104038","0.0-1.0-66.0","0","0","94528","","null","","","null","7","NaN","","","","","","","","","","","","","","",""
"","S2","","html-keyboard-response","52","104291","0.0-1.0-67.0","0","0","94528","","null","","","null","7","","NaN","","","","","","","","","","","","","",""
"","response","","html-keyboard-response","53","104851","0.0-1.0-68.0-0.0","0","0","94528","","556","","","68","7","","","1","7","training","adjacent","FE","6","5","L.jpg","P.jpg","1","0","0","",""
"","feedback","","html-keyboard-response","54","105856","0.0-1.0-69.0-0.0","0","0","94528","","null","","","null","7","","","","","","","","","","","","","","","",""
"","time_out","","html-keyboard-response","55","107859","0.0-1.0-71.0-0.0","0","0","94528","","null","","","null","7","","","","","","","","","","","","","","","",""
"","ITI","","html-keyboard-response","56","108865","0.0-1.0-72.0","0","0","94528","","null","","","null","7","","","","","","","","","","","","","","","NaN",""
"","S1","","html-keyboard-response","57","109119","0.0-1.0-74.0","0","0","94528","","null","","","null","8","","","","","","","","","","","","","","","",""
"","ISI","","html-keyboard-response","58","110139","0.0-1.0-75.0","0","0","94528","","null","","","null","8","NaN","","","","","","","","","","","","","","",""
"","S2","","html-keyboard-response","59","110363","0.0-1.0-76.0","0","0","94528","","220","","","68","8","","d","1","8","training","adjacent","DC","4","3","M.jpg","O.jpg","1","0","0","",""
"","feedback","","html-keyboard-response","60","111368","0.0-1.0-78.0-0.0","0","0","94528","","null","","","null","8","","","","","","","","","","","","","","","",""
"","time_out","","html-keyboard-response","61","113375","0.0-1.0-80.0-0.0","0","0","94528","","null","","","null","8","","","","","","","","","","","","","","","",""
"","ITI","","html-keyboard-response","62","114381","0.0-1.0-81.0","0","0","94528","","null","","","null","8","","","","","","","","","","","","","","","NaN",""
"","S1","","html-keyboard-response","63","114633","0.0-1.0-83.0","0","0","94528","","null","","","null","9","","","","","","","","","","","","","","","",""
"","ISI","","html-keyboard-response","64","115639","0.0-1.0-84.0","0","0","94528","","null","","","null","9","NaN","","","","","","","","","","","","","","",""
"","S2","","html-keyboard-response","65","115863","0.0-1.0-85.0","0","0","94528","","220","","","68","9","","d","1","9","training","adjacent","CD","3","4","O.jpg","M.jpg","1","1","1","",""
"","feedback","","html-keyboard-response","66","116887","0.0-1.0-87.0-0.0","0","0","94528","","null","","","null","9","","","","","","","","","","","","","","","",""
"","ITI","","html-keyboard-response","67","117892","0.0-1.0-90.0","0","0","94528","","null","","","null","9","","","","","","","","","","","","","","","NaN",""
"","S1","","html-keyboard-response","68","118147","0.0-1.0-92.0","0","0","94528","","null","","","null","10","","","","","","","","","","","","","","","",""
"","ISI","","html-keyboard-response","69","119153","0.0-1.0-93.0","0","0","94528","","null","","","null","10","NaN","","","","","","","","","","","","","","",""
"","S2","","html-keyboard-response","70","119409","0.0-1.0-94.0","0","0","94528","","null","","","null","10","","NaN","","","","","","","","","","","","","",""
"","response","","html-keyboard-response","71","119866","0.0-1.0-95.0-0.0","0","0","94528","","454","","","75","10","","","1","10","training","adjacent","BA","2","1","N.jpg","Q.jpg","0","0","1","",""
"","feedback","","html-keyboard-response","72","120869","0.0-1.0-96.0-0.0","0","0","94528","","null","","","null","10","","","","","","","","","","","","","","","",""
"","ITI","","html-keyboard-response","73","121873","0.0-1.0-99.0","0","0","94528","","null","","","null","10","","","","","","","","","","","","","","","NaN",""
"","S1","","html-keyboard-response","74","122129","0.0-1.0-101.0","0","0","94528","","null","","","null","11","","","","","","","","","","","","","","","",""
"","ISI","","html-keyboard-response","75","123132","0.0-1.0-102.0","0","0","94528","","null","","","null","11","NaN","","","","","","","","","","","","","","",""
"","S2","","html-keyboard-response","76","123387","0.0-1.0-103.0","0","0","94528","","null","","","null","11","","NaN","","","","","","","","","","","","","",""
"","response","","html-keyboard-response","77","123482","0.0-1.0-104.0-0.0","0","0","94528","","92","","","75","11","","","1","11","training","adjacent","FG","6","7","L.jpg","R.jpg","0","1","0","",""
"","feedback","","html-keyboard-response","78","124487","0.0-1.0-105.0-0.0","0","0","94528","","null","","","null","11","","","","","","","","","","","","","","","",""
"","time_out","","html-keyboard-response","79","126490","0.0-1.0-107.0-0.0","0","0","94528","","null","","","null","11","","","","","","","","","","","","","","","",""
"","ITI","","html-keyboard-response","80","127496","0.0-1.0-108.0","0","0","94528","","null","","","null","11","","","","","","","","","","","","","","","NaN",""
"","S1","","html-keyboard-response","81","127750","0.0-1.0-110.0","0","0","94528","","null","","","null","12","","","","","","","","","","","","","","","",""
"","ISI","","html-keyboard-response","82","128755","0.0-1.0-111.0","0","0","94528","","952","","","75","12","k","","","","","","","","","","","","","","",""
"","S2","","html-keyboard-response","83","129010","0.0-1.0-112.0","0","0","94528","","null","","","null","12","","NaN","","","","","","","","","","","","","",""
"","response","","html-keyboard-response","84","129179","0.0-1.0-113.0-0.0","0","0","94528","","165","","","75","12","","","1","12","training","adjacent","DC","4","3","M.jpg","O.jpg","0","0","1","",""
"","feedback","","html-keyboard-response","85","130184","0.0-1.0-114.0-0.0","0","0","94528","","null","","","null","12","","","","","","","","","","","","","","","",""
"","ITI","","html-keyboard-response","86","131189","0.0-1.0-117.0","0","0","94528","","null","","","null","12","","","","","","","","","","","","","","","NaN",""
"","S1","","html-keyboard-response","87","131443","0.0-1.0-119.0","0","0","94528","","null","","","null","13","","","","","","","","","","","","","","","",""
"","ISI","","html-keyboard-response","88","132447","0.0-1.0-120.0","0","0","94528","","null","","","null","13","NaN","","","","","","","","","","","","","","",""
"","S2","","html-keyboard-response","89","132702","0.0-1.0-121.0","0","0","94528","","null","","","null","13","","NaN","","","","","","","","","","","","","",""
"","response","","html-keyboard-response","90","133197","0.0-1.0-122.0-0.0","0","0","94528","","492","","","68","13","","","1","13","training","adjacent","CD","3","4","O.jpg","M.jpg","1","1","1","",""
"","feedback","","html-keyboard-response","91","134201","0.0-1.0-123.0-0.0","0","0","94528","","null","","","null","13","","","","","","","","","","","","","","","",""
"","ITI","","html-keyboard-response","92","135206","0.0-1.0-126.0","0","0","94528","","null","","","null","13","","","","","","","","","","","","","","","NaN",""
"","S1","","html-keyboard-response","93","135459","0.0-1.0-128.0","0","0","94528","","null","","","null","14","","","","","","","","","","","","","","","",""
"","ISI","","html-keyboard-response","94","136462","0.0-1.0-129.0","0","0","94528","","null","","","null","14","NaN","","","","","","","","","","","","","","",""
"","S2","","html-keyboard-response","95","136699","0.0-1.0-130.0","0","0","94528","","232","","","68","14","","d","1","14","training","adjacent","AB","1","2","Q.jpg","N.jpg","1","1","1","",""
"","feedback","","html-keyboard-response","96","137703","0.0-1.0-132.0-0.0","0","0","94528","","null","","","null","14","","","","","","","","","","","","","","","",""
"","ITI","","html-keyboard-response","97","138707","0.0-1.0-135.0","0","0","94528","","null","","","null","14","","","","","","","","","","","","","","","NaN",""
"","S1","","html-keyboard-response","98","138962","0.0-1.0-137.0","0","0","94528","","null","","","null","15","","","","","","","","","","","","","","","",""
"","ISI","","html-keyboard-response","99","139967","0.0-1.0-138.0","0","0","94528","","null","","","null","15","NaN","","","","","","","","","","","","","","",""
"","S2","","html-keyboard-response","100","140222","0.0-1.0-139.0","0","0","94528","","null","","","null","15","","NaN","","","","","","","","","","","","","",""
"","response","","html-keyboard-response","101","140256","0.0-1.0-140.0-0.0","0","0","94528","","30","","","75","15","","","1","15","training","adjacent","DC","4","3","M.jpg","O.jpg","0","0","1","",""
"","feedback","","html-keyboard-response","102","141261","0.0-1.0-141.0-0.0","0","0","94528","","null","","","null","15","","","","","","","","","","","","","","","",""
"","ITI","","html-keyboard-response","103","142267","0.0-1.0-144.0","0","0","94528","","null","","","null","15","","","","","","","","","","","","","","","NaN",""
"","S1","","html-keyboard-response","104","142532","0.0-1.0-146.0","0","0","94528","","null","","","null","16","","","","","","","","","","","","","","","",""
"","ISI","","html-keyboard-response","105","143537","0.0-1.0-147.0","0","0","94528","","null","","","null","16","NaN","","","","","","","","","","","","","","",""
"","S2","","html-keyboard-response","106","143791","0.0-1.0-148.0","0","0","94528","","null","","","null","16","","NaN","","","","","","","","","","","","","",""
"","response","","html-keyboard-response","107","143797","0.0-1.0-149.0-0.0","0","0","94528","","2","","","75","16","","","1","16","training","adjacent","DC","4","3","M.jpg","O.jpg","0","0","1","",""
"","feedback","","html-keyboard-response","108","144802","0.0-1.0-150.0-0.0","0","0","94528","","null","","","null","16","","","","","","","","","","","","","","","",""
"","ITI","","html-keyboard-response","109","145807","0.0-1.0-153.0","0","0","94528","","null","","","null","16","","","","","","","","","","","","","","","NaN",""
"","S1","","html-keyboard-response","110","146062","0.0-1.0-155.0","0","0","94528","","null","","","null","17","","","","","","","","","","","","","","","",""
"","ISI","","html-keyboard-response","111","147068","0.0-1.0-156.0","0","0","94528","","null","","","null","17","NaN","","","","","","","","","","","","","","",""
"","S2","","html-keyboard-response","112","147322","0.0-1.0-157.0","0","0","94528","","null","","","null","17","","NaN","","","","","","","","","","","","","",""
"","response","","html-keyboard-response","113","147605","0.0-1.0-158.0-0.0","0","0","94528","","278","","","75","17","","","1","17","training","adjacent","FG","6","7","L.jpg","R.jpg","0","1","0","",""
"","feedback","","html-keyboard-response","114","148610","0.0-1.0-159.0-0.0","0","0","94528","","null","","","null","17","","","","","","","","","","","","","","","",""
"","time_out","","html-keyboard-response","115","150629","0.0-1.0-161.0-0.0","0","0","94528","","null","","","null","17","","","","","","","","","","","","","","","",""
"","ITI","","html-keyboard-response","116","151633","0.0-1.0-162.0","0","0","94528","","null","","","null","17","","","","","","","","","","","","","","","NaN",""
"","S1","","html-keyboard-response","117","151889","0.0-1.0-164.0","0","0","94528","","null","","","null","18","","","","","","","","","","","","","","","",""
"","ISI","","html-keyboard-response","118","152894","0.0-1.0-165.0","0","0","94528","","null","","","null","18","NaN","","","","","","","","","","","","","","",""
"","S2","","html-keyboard-response","119","153149","0.0-1.0-166.0","0","0","94528","","null","","","null","18","","NaN","","","","","","","","","","","","","",""
"","response","","html-keyboard-response","120","153165","0.0-1.0-167.0-0.0","0","0","94528","","12","","","68","18","","","1","18","training","adjacent","EF","5","6","P.jpg","L.jpg","1","1","1","",""
"","feedback","","html-keyboard-response","121","154170","0.0-1.0-168.0-0.0","0","0","94528","","null","","","null","18","","","","","","","","","","","","","","","",""
"","ITI","","html-keyboard-response","122","155176","0.0-1.0-171.0","0","0","94528","","null","","","null","18","","","","","","","","","","","","","","","NaN",""
"","S1","","html-keyboard-response","123","155430","0.0-1.0-173.0","0","0","94528","","null","","","null","19","","","","","","","","","","","","","","","",""
"","ISI","","html-keyboard-response","124","156434","0.0-1.0-174.0","0","0","94528","","null","","","null","19","NaN","","","","","","","","","","","","","","",""
"","S2","","html-keyboard-response","125","156689","0.0-1.0-175.0","0","0","94528","","null","","","null","19","","NaN","","","","","","","","","","","","","",""
"","response","","html-keyboard-response","126","156732","0.0-1.0-176.0-0.0","0","0","94528","","41","","","75","19","","","1","19","training","adjacent","AB","1","2","Q.jpg","N.jpg","0","1","0","",""
"","feedback","","html-keyboard-response","127","157738","0.0-1.0-177.0-0.0","0","0","94528","","null","","","null","19","","","","","","","","","","","","","","","",""
"","time_out","","html-keyboard-response","128","159741","0.0-1.0-179.0-0.0","0","0","94528","","null","","","null","19","","","","","","","","","","","","","","","",""
"","ITI","","html-keyboard-response","129","160746","0.0-1.0-180.0","0","0","94528","","null","","","null","19","","","","","","","","","","","","","","","NaN",""
"","S1","","html-keyboard-response","130","161000","0.0-1.0-182.0","0","0","94528","","null","","","null","20","","","","","","","","","","","","","","","",""
"","ISI","","html-keyboard-response","131","162006","0.0-1.0-183.0","0","0","94528","","null","","","null","20","NaN","","","","","","","","","","","","","","",""
"","S2","","html-keyboard-response","132","162229","0.0-1.0-184.0","0","0","94528","","218","","","68","20","","d","1","20","training","adjacent","GF","7","6","R.jpg","L.jpg","1","0","0","",""
"","feedback","","html-keyboard-response","133","163233","0.0-1.0-186.0-0.0","0","0","94528","","null","","","null","20","","","","","","","","","","","","","","","",""
"","time_out","","html-keyboard-response","134","165236","0.0-1.0-188.0-0.0","0","0","94528","","null","","","null","20","","","","","","","","","","","","","","","",""
"","ITI","","html-keyboard-response","135","166240","0.0-1.0-189.0","0","0","94528","","null","","","null","20","","","","","","","","","","","","","","","NaN",""
"","S1","","html-keyboard-response","136","166493","0.0-1.0-191.0","0","0","94528","","null","","","null","21","","","","","","","","","","","","","","","",""
"","ISI","","html-keyboard-response","137","167497","0.0-1.0-192.0","0","0","94528","","null","","","null","21","NaN","","","","","","","","","","","","","","",""
"","S2","","html-keyboard-response","138","167752","0.0-1.0-193.0","0","0","94528","","null","","","null","21","","NaN","","","","","","","","","","","","","",""
"","response","","html-keyboard-response","139","168110","0.0-1.0-194.0-0.0","0","0","94528","","353","","","68","21","","","1","21","training","adjacent","CD","3","4","O.jpg","M.jpg","1","1","1","",""
"","feedback","","html-keyboard-response","140","169115","0.0-1.0-195.0-0.0","0","0","94528","","null","","","null","21","","","","","","","","","","","","","","","",""
"","ITI","","html-keyboard-response","141","170118","0.0-1.0-198.0","0","0","94528","","null","","","null","21","","","","","","","","","","","","","","","NaN",""
"","S1","","html-keyboard-response","142","170373","0.0-1.0-200.0","0","0","94528","","null","","","null","22","","","","","","","","","","","","","","","",""
"","ISI","","html-keyboard-response","143","171377","0.0-1.0-201.0","0","0","94528","","null","","","null","22","NaN","","","","","","","","","","","","","","",""
"","S2","","html-keyboard-response","144","171632","0.0-1.0-202.0","0","0","94528","","null","","","null","22","","NaN","","","","","","","","","","","","","",""
"","response","","html-keyboard-response","145","171765","0.0-1.0-203.0-0.0","0","0","94528","","129","","","75","22","","","1","22","training","adjacent","CB","3","2","O.jpg","N.jpg","0","0","1","",""
"","feedback","","html-keyboard-response","146","172770","0.0-1.0-204.0-0.0","0","0","94528","","null","","","null","22","","","","","","","","","","","","","","","",""
"","ITI","","html-keyboard-response","147","173775","0.0-1.0-207.0","0","0","94528","","null","","","null","22","","","","","","","","","","","","","","","NaN",""
"","S1","","html-keyboard-response","148","174028","0.0-1.0-209.0","0","0","94528","","null","","","null","23","","","","","","","","","","","","","","","",""
"","ISI","","html-keyboard-response","149","175034","0.0-1.0-210.0","0","0","94528","","null","","","null","23","NaN","","","","","","","","","","","","","","",""
"","S2","","html-keyboard-response","150","175290","0.0-1.0-211.0","0","0","94528","","null","","","null","23","","NaN","","","","","","","","","","","","","",""
"","response","","html-keyboard-response","151","176620","0.0-1.0-212.0-0.0","0","0","94528","","1326","","","75","23","","","1","23","training","adjacent","ED","5","4","P.jpg","M.jpg","0","0","1","",""
"","feedback","","html-keyboard-response","152","177626","0.0-1.0-213.0-0.0","0","0","94528","","null","","","null","23","","","","","","","","","","","","","","","",""
"","ITI","","html-keyboard-response","153","178630","0.0-1.0-216.0","0","0","94528","","null","","","null","23","","","","","","","","","","","","","","","NaN",""
"","S1","","html-keyboard-response","154","178886","0.0-1.0-218.0","0","0","94528","","null","","","null","24","","","","","","","","","","","","","","","",""
"","ISI","","html-keyboard-response","155","179891","0.0-1.0-219.0","0","0","94528","","null","","","null","24","NaN","","","","","","","","","","","","","","",""
"","S2","","html-keyboard-response","156","180146","0.0-1.0-220.0","0","0","94528","","null","","","null","24","","NaN","","","","","","","","","","","","","",""
"","response","","html-keyboard-response","157","180342","0.0-1.0-221.0-0.0","0","0","94528","","192","","","75","24","","","1","24","training","adjacent","DE","4","5","M.jpg","P.jpg","0","1","0","",""
"","feedback","","html-keyboard-response","158","181347","0.0-1.0-222.0-0.0","0","0","94528","","null","","","null","24","","","","","","","","","","","","","","","",""
"","time_out","","html-keyboard-response","159","183350","0.0-1.0-224.0-0.0","0","0","94528","","null","","","null","24","","","","","","","","","","","","","","","",""
"","ITI","","html-keyboard-response","160","184353","0.0-1.0-225.0","0","0","94528","","null","","","null","24","","","","","","","","","","","","","","","NaN",""
"","S1","","html-keyboard-response","161","184608","0.0-1.0-227.0","0","0","94528","","null","","","null","25","","","","","","","","","","","","","","","",""
"","ISI","","html-keyboard-response","162","185613","0.0-1.0-228.0","0","0","94528","","null","","","null","25","NaN","","","","","","","","","","","","","","",""
"","S2","","html-keyboard-response","163","185663","0.0-1.0-229.0","0","0","94528","","46","","","75","25","","k","1","25","training","adjacent","BA","2","1","N.jpg","Q.jpg","0","0","1","",""
"","feedback","","html-keyboard-response","164","186668","0.0-1.0-231.0-0.0","0","0","94528","","null","","","null","25","","","","","","","","","","","","","","","",""
"","ITI","","html-keyboard-response","165","187675","0.0-1.0-234.0","0","0","94528","","null","","","null","25","","","","","","","","","","","","","","","NaN",""
"","S1","","html-keyboard-response","166","187928","0.0-1.0-236.0","0","0","94528","","null","","","null","26","","","","","","","","","","","","","","","",""
"","ISI","","html-keyboard-response","167","188933","0.0-1.0-237.0","0","0","94528","","null","","","null","26","NaN","","","","","","","","","","","","","","",""
"","S2","","html-keyboard-response","168","189188","0.0-1.0-238.0","0","0","94528","","null","","","null","26","","NaN","","","","","","","","","","","","","",""
"","response","","html-keyboard-response","169","189311","0.0-1.0-239.0-0.0","0","0","94528","","120","","","75","26","","","1","26","training","adjacent","DE","4","5","M.jpg","P.jpg","0","1","0","",""
"","feedback","","html-keyboard-response","170","190316","0.0-1.0-240.0-0.0","0","0","94528","","null","","","null","26","","","","","","","","","","","","","","","",""
"","time_out","","html-keyboard-response","171","192321","0.0-1.0-242.0-0.0","0","0","94528","","null","","","null","26","","","","","","","","","","","","","","","",""
"","ITI","","html-keyboard-response","172","193326","0.0-1.0-243.0","0","0","94528","","null","","","null","26","","","","","","","","","","","","","","","NaN",""
"","S1","","html-keyboard-response","173","193582","0.0-1.0-245.0","0","0","94528","","null","","","null","27","","","","","","","","","","","","","","","",""
"","ISI","","html-keyboard-response","174","194586","0.0-1.0-246.0","0","0","94528","","null","","","null","27","NaN","","","","","","","","","","","","","","",""
"","S2","","html-keyboard-response","175","194787","0.0-1.0-247.0","0","0","94528","","197","","","75","27","","k","1","27","training","adjacent","DE","4","5","M.jpg","P.jpg","0","1","0","",""
"","feedback","","html-keyboard-response","176","195794","0.0-1.0-249.0-0.0","0","0","94528","","null","","","null","27","","","","","","","","","","","","","","","",""
"","time_out","","html-keyboard-response","177","197797","0.0-1.0-251.0-0.0","0","0","94528","","null","","","null","27","","","","","","","","","","","","","","","",""
"","ITI","","html-keyboard-response","178","198802","0.0-1.0-252.0","0","0","94528","","621","","","75","27","","","","","","","","","","","","","","","k",""
"","S1","","html-keyboard-response","179","199056","0.0-1.0-254.0","0","0","94528","","null","","","null","28","","","","","","","","","","","","","","","",""
"","ISI","","html-keyboard-response","180","200060","0.0-1.0-255.0","0","0","94528","","null","","","null","28","NaN","","","","","","","","","","","","","","",""
"","S2","","html-keyboard-response","181","200314","0.0-1.0-256.0","0","0","94528","","null","","","null","28","","NaN","","","","","","","","","","","","","",""
"","response","","html-keyboard-response","182","200511","0.0-1.0-257.0-0.0","0","0","94528","","193","","","75","28","","","1","28","training","adjacent","CD","3","4","O.jpg","M.jpg","0","1","0","",""
"","feedback","","html-keyboard-response","183","201516","0.0-1.0-258.0-0.0","0","0","94528","","null","","","null","28","","","","","","","","","","","","","","","",""
"","time_out","","html-keyboard-response","184","203520","0.0-1.0-260.0-0.0","0","0","94528","","null","","","null","28","","","","","","","","","","","","","","","",""
"","ITI","","html-keyboard-response","185","204524","0.0-1.0-261.0","0","0","94528","","null","","","null","28","","","","","","","","","","","","","","","NaN",""
"","S1","","html-keyboard-response","186","204779","0.0-1.0-263.0","0","0","94528","","null","","","null","29","","","","","","","","","","","","","","","",""
"","ISI","","html-keyboard-response","187","205781","0.0-1.0-264.0","0","0","94528","","null","","","null","29","NaN","","","","","","","","","","","","","","",""
"","S2","","html-keyboard-response","188","206035","0.0-1.0-265.0","0","0","94528","","null","","","null","29","","NaN","","","","","","","","","","","","","",""
"","response","","html-keyboard-response","189","206153","0.0-1.0-266.0-0.0","0","0","94528","","114","","","68","29","","","1","29","training","adjacent","ED","5","4","P.jpg","M.jpg","1","0","0","",""
"","feedback","","html-keyboard-response","190","207158","0.0-1.0-267.0-0.0","0","0","94528","","null","","","null","29","","","","","","","","","","","","","","","",""
"","time_out","","html-keyboard-response","191","209214","0.0-1.0-269.0-0.0","0","0","94528","","null","","","null","29","","","","","","","","","","","","","","","",""
"","ITI","","html-keyboard-response","192","211211","0.0-1.0-270.0","0","0","94528","","null","","","null","29","","","","","","","","","","","","","","","NaN",""
"","S1","","html-keyboard-response","193","211555","0.0-1.0-272.0","0","0","94528","","null","","","null","30","","","","","","","","","","","","","","","",""
"","ISI","","html-keyboard-response","194","212561","0.0-1.0-273.0","0","0","94528","","null","","","null","30","NaN","","","","","","","","","","","","","","",""
"","S2","","html-keyboard-response","195","212816","0.0-1.0-274.0","0","0","94528","","null","","","null","30","","NaN","","","","","","","","","","","","","",""
"","response","","html-keyboard-response","196","214497","0.0-1.0-275.0-0.0","0","0","94528","","1678","","","68","30","","","1","30","training","adjacent","FE","6","5","L.jpg","P.jpg","1","0","0","",""
"","feedback","","html-keyboard-response","197","215502","0.0-1.0-276.0-0.0","0","0","94528","","null","","","null","30","","","","","","","","","","","","","","","",""
"","time_out","","html-keyboard-response","198","217505","0.0-1.0-278.0-0.0","0","0","94528","","null","","","null","30","","","","","","","","","","","","","","","",""
"","ITI","","html-keyboard-response","199","218509","0.0-1.0-279.0","0","0","94528","","null","","","null","30","","","","","","","","","","","","","","","NaN",""
"","S1","","html-keyboard-response","200","218764","0.0-1.0-281.0","0","0","94528","","null","","","null","31","","","","","","","","","","","","","","","",""
"","ISI","","html-keyboard-response","201","219768","0.0-1.0-282.0","0","0","94528","","null","","","null","31","NaN","","","","","","","","","","","","","","",""
"","S2","","html-keyboard-response","202","220023","0.0-1.0-283.0","0","0","94528","","null","","","null","31","","NaN","","","","","","","","","","","","","",""
"","response","","html-keyboard-response","203","220149","0.0-1.0-284.0-0.0","0","0","94528","","123","","","68","31","","","1","31","training","adjacent","CB","3","2","O.jpg","N.jpg","1","0","0","",""
"","feedback","","html-keyboard-response","204","221183","0.0-1.0-285.0-0.0","0","0","94528","","null","","","null","31","","","","","","","","","","","","","","","",""
"","time_out","","html-keyboard-response","205","223191","0.0-1.0-287.0-0.0","0","0","94528","","null","","","null","31","","","","","","","","","","","","","","","",""
"","ITI","","html-keyboard-response","206","224199","0.0-1.0-288.0","0","0","94528","","null","","","null","31","","","","","","","","","","","","","","","NaN",""
"","S1","","html-keyboard-response","207","224453","0.0-1.0-290.0","0","0","94528","","null","","","null","32","","","","","","","","","","","","","","","",""
"","ISI","","html-keyboard-response","208","225457","0.0-1.0-291.0","0","0","94528","","null","","","null","32","NaN","","","","","","","","","","","","","","",""
"","S2","","html-keyboard-response","209","225711","0.0-1.0-292.0","0","0","94528","","null","","","null","32","","NaN","","","","","","","","","","","","","",""
"","response","","html-keyboard-response","210","226023","0.0-1.0-293.0-0.0","0","0","94528","","307","","","68","32","","","1","32","training","adjacent","GF","7","6","R.jpg","L.jpg","1","0","0","",""
"","feedback","","html-keyboard-response","211","227037","0.0-1.0-294.0-0.0","0","0","94528","","null","","","null","32","","","","","","","","","","","","","","","",""
"","time_out","","html-keyboard-response","212","229041","0.0-1.0-296.0-0.0","0","0","94528","","null","","","null","32","","","","","","","","","","","","","","","",""
"","ITI","","html-keyboard-response","213","230045","0.0-1.0-297.0","0","0","94528","","null","","","null","32","","","","","","","","","","","","","","","NaN",""
"","S1","","html-keyboard-response","214","230298","0.0-1.0-299.0","0","0","94528","","null","","","null","33","","","","","","","","","","","","","","","",""
"","ISI","","html-keyboard-response","215","231302","0.0-1.0-300.0","0","0","94528","","null","","","null","33","NaN","","","","","","","","","","","","","","",""
"","S2","","html-keyboard-response","216","231560","0.0-1.0-301.0","0","0","94528","","null","","","null","33","","NaN","","","","","","","","","","","","","",""
"","response","","html-keyboard-response","217","231890","0.0-1.0-302.0-0.0","0","0","94528","","325","","","75","33","","","1","33","training","adjacent","BC","2","3","N.jpg","O.jpg","0","1","0","",""
"","feedback","","html-keyboard-response","218","232894","0.0-1.0-303.0-0.0","0","0","94528","","null","","","null","33","","","","","","","","","","","","","","","",""
"","time_out","","html-keyboard-response","219","234899","0.0-1.0-305.0-0.0","0","0","94528","","null","","","null","33","","","","","","","","","","","","","","","",""
"","ITI","","html-keyboard-response","220","235903","0.0-1.0-306.0","0","0","94528","","null","","","null","33","","","","","","","","","","","","","","","NaN",""
"","S1","","html-keyboard-response","221","236157","0.0-1.0-308.0","0","0","94528","","null","","","null","34","","","","","","","","","","","","","","","",""
"","ISI","","html-keyboard-response","222","237161","0.0-1.0-309.0","0","0","94528","","null","","","null","34","NaN","","","","","","","","","","","","","","",""
"","S2","","html-keyboard-response","223","237417","0.0-1.0-310.0","0","0","94528","","null","","","null","34","","NaN","","","","","","","","","","","","","",""
"","response","","html-keyboard-response","224","238376","0.0-1.0-311.0-0.0","0","0","94528","","955","","","68","34","","","1","34","training","adjacent","AB","1","2","Q.jpg","N.jpg","1","1","1","",""
"","feedback","","html-keyboard-response","225","239381","0.0-1.0-312.0-0.0","0","0","94528","","null","","","null","34","","","","","","","","","","","","","","","",""
"","ITI","","html-keyboard-response","226","240386","0.0-1.0-315.0","0","0","94528","","null","","","null","34","","","","","","","","","","","","","","","NaN",""
"","S1","","html-keyboard-response","227","240641","0.0-1.0-317.0","0","0","94528","","null","","","null","35","","","","","","","","","","","","","","","",""
"","ISI","","html-keyboard-response","228","241645","0.0-1.0-318.0","0","0","94528","","null","","","null","35","NaN","","","","","","","","","","","","","","",""
"","S2","","html-keyboard-response","229","241899","0.0-1.0-319.0","0","0","94528","","null","","","null","35","","NaN","","","","","","","","","","","","","",""
"","response","","html-keyboard-response","230","242090","0.0-1.0-320.0-0.0","0","0","94528","","186","","","75","35","","","1","35","training","adjacent","EF","5","6","P.jpg","L.jpg","0","1","0","",""
"","feedback","","html-keyboard-response","231","243095","0.0-1.0-321.0-0.0","0","0","94528","","null","","","null","35","","","","","","","","","","","","","","","",""
"","time_out","","html-keyboard-response","232","245099","0.0-1.0-323.0-0.0","0","0","94528","","null","","","null","35","","","","","","","","","","","","","","","",""
"","ITI","","html-keyboard-response","233","246103","0.0-1.0-324.0","0","0","94528","","null","","","null","35","","","","","","","","","","","","","","","NaN",""
"","S1","","html-keyboard-response","234","246358","0.0-1.0-326.0","0","0","94528","","null","","","null","36","","","","","","","","","","","","","","","",""
"","ISI","","html-keyboard-response","235","247360","0.0-1.0-327.0","0","0","94528","","776","","","68","36","d","","","","","","","","","","","","","","",""
"","S2","","html-keyboard-response","236","247615","0.0-1.0-328.0","0","0","94528","","null","","","null","36","","NaN","","","","","","","","","","","","","",""
"","response","","html-keyboard-response","237","247782","0.0-1.0-329.0-0.0","0","0","94528","","163","","","68","36","","","1","36","training","adjacent","BC","2","3","N.jpg","O.jpg","1","1","1","",""
"","feedback","","html-keyboard-response","238","248788","0.0-1.0-330.0-0.0","0","0","94528","","null","","","null","36","","","","","","","","","","","","","","","",""
"","ITI","","html-keyboard-response","239","249793","0.0-1.0-333.0","0","0","94528","","null","","","null","36","","","","","","","","","","","","","","","NaN",""
"","S1","","html-keyboard-response","240","250049","0.0-1.0-335.0","0","0","94528","","null","","","null","37","","","","","","","","","","","","","","","",""
"","ISI","","html-keyboard-response","241","251054","0.0-1.0-336.0","0","0","94528","","null","","","null","37","NaN","","","","","","","","","","","","","","",""
"","S2","","html-keyboard-response","242","251310","0.0-1.0-337.0","0","0","94528","","null","","","null","37","","NaN","","","","","","","","","","","","","",""
"","response","","html-keyboard-response","243","252860","0.0-1.0-338.0-0.0","0","0","94528","","1545","","","75","37","","","1","37","training","adjacent","BA","2","1","N.jpg","Q.jpg","0","0","1","",""
"","feedback","","html-keyboard-response","244","253866","0.0-1.0-339.0-0.0","0","0","94528","","null","","","null","37","","","","","","","","","","","","","","","",""
"","ITI","","html-keyboard-response","245","254871","0.0-1.0-342.0","0","0","94528","","null","","","null","37","","","","","","","","","","","","","","","NaN",""
"","S1","","html-keyboard-response","246","255125","0.0-1.0-344.0","0","0","94528","","null","","","null","38","","","","","","","","","","","","","","","",""
"","ISI","","html-keyboard-response","247","256129","0.0-1.0-345.0","0","0","94528","","null","","","null","38","NaN","","","","","","","","","","","","","","",""
"","S2","","html-keyboard-response","248","256384","0.0-1.0-346.0","0","0","94528","","null","","","null","38","","NaN","","","","","","","","","","","","","",""
"","response","","html-keyboard-response","249","256506","0.0-1.0-347.0-0.0","0","0","94528","","117","","","75","38","","","1","38","training","adjacent","FG","6","7","L.jpg","R.jpg","0","1","0","",""
"","feedback","","html-keyboard-response","250","257512","0.0-1.0-348.0-0.0","0","0","94528","","null","","","null","38","","","","","","","","","","","","","","","",""
"","time_out","","html-keyboard-response","251","259516","0.0-1.0-350.0-0.0","0","0","94528","","null","","","null","38","","","","","","","","","","","","","","","",""
"","ITI","","html-keyboard-response","252","260523","0.0-1.0-351.0","0","0","94528","","null","","","null","38","","","","","","","","","","","","","","","NaN",""
"","S1","","html-keyboard-response","253","260778","0.0-1.0-353.0","0","0","94528","","null","","","null","39","","","","","","","","","","","","","","","",""
"","ISI","","html-keyboard-response","254","261782","0.0-1.0-354.0","0","0","94528","","null","","","null","39","NaN","","","","","","","","","","","","","","",""
"","S2","","html-keyboard-response","255","262037","0.0-1.0-355.0","0","0","94528","","null","","","null","39","","NaN","","","","","","","","","","","","","",""
"","response","","html-keyboard-response","256","262294","0.0-1.0-356.0-0.0","0","0","94528","","253","","","68","39","","","1","39","training","adjacent","GF","7","6","R.jpg","L.jpg","1","0","0","",""
"","feedback","","html-keyboard-response","257","263298","0.0-1.0-357.0-0.0","0","0","94528","","null","","","null","39","","","","","","","","","","","","","","","",""
"","time_out","","html-keyboard-response","258","265304","0.0-1.0-359.0-0.0","0","0","94528","","null","","","null","39","","","","","","","","","","","","","","","",""
"","ITI","","html-keyboard-response","259","266308","0.0-1.0-360.0","0","0","94528","","null","","","null","39","","","","","","","","","","","","","","","NaN",""
"","S1","","html-keyboard-response","260","266563","0.0-1.0-362.0","0","0","94528","","null","","","null","40","","","","","","","","","","","","","","","",""
"","ISI","","html-keyboard-response","261","267567","0.0-1.0-363.0","0","0","94528","","null","","","null","40","NaN","","","","","","","","","","","","","","",""
"","S2","","html-keyboard-response","262","267821","0.0-1.0-364.0","0","0","94528","","null","","","null","40","","NaN","","","","","","","","","","","","","",""
"","response","","html-keyboard-response","263","268097","0.0-1.0-365.0-0.0","0","0","94528","","270","","","75","40","","","1","40","training","adjacent","FE","6","5","L.jpg","P.jpg","0","0","1","",""
"","feedback","","html-keyboard-response","264","269101","0.0-1.0-366.0-0.0","0","0","94528","","null","","","null","40","","","","","","","","","","","","","","","",""
"","ITI","","html-keyboard-response","265","270106","0.0-1.0-369.0","0","0","94528","","null","","","null","40","","","","","","","","","","","","","","","NaN",""
"","S1","","html-keyboard-response","266","270360","0.0-1.0-371.0","0","0","94528","","null","","","null","41","","","","","","","","","","","","","","","",""
"","ISI","","html-keyboard-response","267","271366","0.0-1.0-372.0","0","0","94528","","null","","","null","41","NaN","","","","","","","","","","","","","","",""
"","S2","","html-keyboard-response","268","271620","0.0-1.0-373.0","0","0","94528","","null","","","null","41","","NaN","","","","","","","","","","","","","",""
"","response","","html-keyboard-response","269","273146","0.0-1.0-374.0-0.0","0","0","94528","","1521","","","75","41","","","1","41","training","adjacent","DE","4","5","M.jpg","P.jpg","0","1","0","",""
"","feedback","","html-keyboard-response","270","274150","0.0-1.0-375.0-0.0","0","0","94528","","null","","","null","41","","","","","","","","","","","","","","","",""
"","time_out","","html-keyboard-response","271","276155","0.0-1.0-377.0-0.0","0","0","94528","","null","","","null","41","","","","","","","","","","","","","","","",""
"","ITI","","html-keyboard-response","272","277159","0.0-1.0-378.0","0","0","94528","","null","","","null","41","","","","","","","","","","","","","","","NaN",""
"","S1","","html-keyboard-response","273","277414","0.0-1.0-380.0","0","0","94528","","null","","","null","42","","","","","","","","","","","","","","","",""
"","ISI","","html-keyboard-response","274","278419","0.0-1.0-381.0","0","0","94528","","null","","","null","42","NaN","","","","","","","","","","","","","","",""
"","S2","","html-keyboard-response","275","278674","0.0-1.0-382.0","0","0","94528","","null","","","null","42","","NaN","","","","","","","","","","","","","",""
"","response","","html-keyboard-response","276","278814","0.0-1.0-383.0-0.0","0","0","94528","","136","","","68","42","","","1","42","training","adjacent","EF","5","6","P.jpg","L.jpg","1","1","1","",""
"","feedback","","html-keyboard-response","277","279819","0.0-1.0-384.0-0.0","0","0","94528","","null","","","null","42","","","","","","","","","","","","","","","",""
"","ITI","","html-keyboard-response","278","280824","0.0-1.0-387.0","0","0","94528","","null","","","null","42","","","","","","","","","","","","","","","NaN",""
"","S1","","html-keyboard-response","279","281078","0.0-1.0-389.0","0","0","94528","","null","","","null","43","","","","","","","","","","","","","","","",""
"","ISI","","html-keyboard-response","280","282083","0.0-1.0-390.0","0","0","94528","","null","","","null","43","NaN","","","","","","","","","","","","","","",""
"","S2","","html-keyboard-response","281","282338","0.0-1.0-391.0","0","0","94528","","null","","","null","43","","NaN","","","","","","","","","","","","","",""
"","response","","html-keyboard-response","282","283652","0.0-1.0-392.0-0.0","0","0","94528","","1310","","","75","43","","","1","43","training","adjacent","FE","6","5","L.jpg","P.jpg","0","0","1","",""
"","feedback","","html-keyboard-response","283","284657","0.0-1.0-393.0-0.0","0","0","94528","","null","","","null","43","","","","","","","","","","","","","","","",""
"","ITI","","html-keyboard-response","284","285661","0.0-1.0-396.0","0","0","94528","","null","","","null","43","","","","","","","","","","","","","","","NaN",""
"","S1","","html-keyboard-response","285","285916","0.0-1.0-398.0","0","0","94528","","null","","","null","44","","","","","","","","","","","","","","","",""
"","ISI","","html-keyboard-response","286","286920","0.0-1.0-399.0","0","0","94528","","null","","","null","44","NaN","","","","","","","","","","","","","","",""
"","S2","","html-keyboard-response","287","287175","0.0-1.0-400.0","0","0","94528","","null","","","null","44","","NaN","","","","","","","","","","","","","",""
"","response","","html-keyboard-response","288","287201","0.0-1.0-401.0-0.0","0","0","94528","","22","","","68","44","","","1","44","training","adjacent","EF","5","6","P.jpg","L.jpg","1","1","1","",""
"","feedback","","html-keyboard-response","289","288206","0.0-1.0-402.0-0.0","0","0","94528","","null","","","null","44","","","","","","","","","","","","","","","",""
"","ITI","","html-keyboard-response","290","289210","0.0-1.0-405.0","0","0","94528","","null","","","null","44","","","","","","","","","","","","","","","NaN",""
"","S1","","html-keyboard-response","291","289466","0.0-1.0-407.0","0","0","94528","","null","","","null","45","","","","","","","","","","","","","","","",""
"","ISI","","html-keyboard-response","292","290471","0.0-1.0-408.0","0","0","94528","","null","","","null","45","NaN","","","","","","","","","","","","","","",""
"","S2","","html-keyboard-response","293","290725","0.0-1.0-409.0","0","0","94528","","null","","","null","45","","NaN","","","","","","","","","","","","","",""
"","response","","html-keyboard-response","294","292305","0.0-1.0-410.0-0.0","0","0","94528","","1574","","","75","45","","","1","45","training","adjacent","AB","1","2","Q.jpg","N.jpg","0","1","0","",""
"","feedback","","html-keyboard-response","295","293309","0.0-1.0-411.0-0.0","0","0","94528","","null","","","null","45","","","","","","","","","","","","","","","",""
"","time_out","","html-keyboard-response","296","295313","0.0-1.0-413.0-0.0","0","0","94528","","null","","","null","45","","","","","","","","","","","","","","","",""
"","ITI","","html-keyboard-response","297","296318","0.0-1.0-414.0","0","0","94528","","null","","","null","45","","","","","","","","","","","","","","","NaN",""
"","S1","","html-keyboard-response","298","296572","0.0-1.0-416.0","0","0","94528","","null","","","null","46","","","","","","","","","","","","","","","",""
"","ISI","","html-keyboard-response","299","297578","0.0-1.0-417.0","0","0","94528","","null","","","null","46","NaN","","","","","","","","","","","","","","",""
"","S2","","html-keyboard-response","300","297832","0.0-1.0-418.0","0","0","94528","","null","","","null","46","","NaN","","","","","","","","","","","","","",""
"","response","","html-keyboard-response","301","298149","0.0-1.0-419.0-0.0","0","0","94528","","312","","","68","46","","","1","46","training","adjacent","BA","2","1","N.jpg","Q.jpg","1","0","0","",""
"","feedback","","html-keyboard-response","302","299154","0.0-1.0-420.0-0.0","0","0","94528","","null","","","null","46","","","","","","","","","","","","","","","",""
"","time_out","","html-keyboard-response","303","301158","0.0-1.0-422.0-0.0","0","0","94528","","null","","","null","46","","","","","","","","","","","","","","","",""
"","ITI","","html-keyboard-response","304","302162","0.0-1.0-423.0","0","0","94528","","null","","","null","46","","","","","","","","","","","","","","","NaN",""
"","S1","","html-keyboard-response","305","302417","0.0-1.0-425.0","0","0","94528","","null","","","null","47","","","","","","","","","","","","","","","",""
"","ISI","","html-keyboard-response","306","303422","0.0-1.0-426.0","0","0","94528","","null","","","null","47","NaN","","","","","","","","","","","","","","",""
"","S2","","html-keyboard-response","307","303677","0.0-1.0-427.0","0","0","94528","","null","","","null","47","","NaN","","","","","","","","","","","","","",""
"","response","","html-keyboard-response","308","304194","0.0-1.0-428.0-0.0","0","0","94528","","512","","","75","47","","","1","47","training","adjacent","CB","3","2","O.jpg","N.jpg","0","0","1","",""
"","feedback","","html-keyboard-response","309","305202","0.0-1.0-429.0-0.0","0","0","94528","","null","","","null","47","","","","","","","","","","","","","","","",""
"","ITI","","html-keyboard-response","310","306207","0.0-1.0-432.0","0","0","94528","","null","","","null","47","","","","","","","","","","","","","","","NaN",""
"","block_over","","html-keyboard-response","311","317231","0.0-1.0-433.0-0.0","0","0","94528","","11018","","","32","47","","","","","","","","","","","","","","","",""
"","S1","","html-keyboard-response","312","317485","0.0-1.0-434.0","0","0","94528","","null","","","null","48","","","","","","","","","","","","","","","",""
"","ISI","","html-keyboard-response","313","318490","0.0-1.0-435.0","0","0","94528","","null","","","null","48","NaN","","","","","","","","","","","","","","",""
"","S2","","html-keyboard-response","314","318744","0.0-1.0-436.0","0","0","94528","","null","","","null","48","","NaN","","","","","","","","","","","","","",""
"","response","","html-keyboard-response","315","319137","0.0-1.0-437.0-0.0","0","0","94528","","389","","","75","48","","","2","48","training","adjacent","DC","4","3","M.jpg","O.jpg","0","0","1","",""
"","feedback","","html-keyboard-response","316","320142","0.0-1.0-438.0-0.0","0","0","94528","","null","","","null","48","","","","","","","","","","","","","","","",""
"","ITI","","html-keyboard-response","317","321148","0.0-1.0-441.0","0","0","94528","","null","","","null","48","","","","","","","","","","","","","","","NaN",""
"","S1","","html-keyboard-response","318","321402","0.0-1.0-443.0","0","0","94528","","null","","","null","49","","","","","","","","","","","","","","","",""
"","ISI","","html-keyboard-response","319","322406","0.0-1.0-444.0","0","0","94528","","null","","","null","49","NaN","","","","","","","","","","","","","","",""
"","S2","","html-keyboard-response","320","322661","0.0-1.0-445.0","0","0","94528","","null","","","null","49","","NaN","","","","","","","","","","","","","",""
"","response","","html-keyboard-response","321","323502","0.0-1.0-446.0-0.0","0","0","94528","","837","","","75","49","","","2","49","training","adjacent","DE","4","5","M.jpg","P.jpg","0","1","0","",""
"","feedback","","html-keyboard-response","322","324508","0.0-1.0-447.0-0.0","0","0","94528","","null","","","null","49","","","","","","","","","","","","","","","",""
"","time_out","","html-keyboard-response","323","326512","0.0-1.0-449.0-0.0","0","0","94528","","null","","","null","49","","","","","","","","","","","","","","","",""
"","ITI","","html-keyboard-response","324","327516","0.0-1.0-450.0","0","0","94528","","null","","","null","49","","","","","","","","","","","","","","","NaN",""
"","S1","","html-keyboard-response","325","327772","0.0-1.0-452.0","0","0","94528","","null","","","null","50","","","","","","","","","","","","","","","",""
"","ISI","","html-keyboard-response","326","328790","0.0-1.0-453.0","0","0","94528","","null","","","null","50","NaN","","","","","","","","","","","","","","",""
"","S2","","html-keyboard-response","327","329046","0.0-1.0-454.0","0","0","94528","","null","","","null","50","","NaN","","","","","","","","","","","","","",""
"","response","","html-keyboard-response","328","329385","0.0-1.0-455.0-0.0","0","0","94528","","335","","","68","50","","","2","50","training","adjacent","GF","7","6","R.jpg","L.jpg","1","0","0","",""
"","feedback","","html-keyboard-response","329","330394","0.0-1.0-456.0-0.0","0","0","94528","","null","","","null","50","","","","","","","","","","","","","","","",""
"","time_out","","html-keyboard-response","330","332398","0.0-1.0-458.0-0.0","0","0","94528","","null","","","null","50","","","","","","","","","","","","","","","",""
"","ITI","","html-keyboard-response","331","333402","0.0-1.0-459.0","0","0","94528","","null","","","null","50","","","","","","","","","","","","","","","NaN",""
"","S1","","html-keyboard-response","332","333656","0.0-1.0-461.0","0","0","94528","","null","","","null","51","","","","","","","","","","","","","","","",""
"","ISI","","html-keyboard-response","333","334661","0.0-1.0-462.0","0","0","94528","","null","","","null","51","NaN","","","","","","","","","","","","","","",""
"","S2","","html-keyboard-response","334","334916","0.0-1.0-463.0","0","0","94528","","null","","","null","51","","NaN","","","","","","","","","","","","","",""
"","response","","html-keyboard-response","335","335420","0.0-1.0-464.0-0.0","0","0","94528","","499","","","75","51","","","2","51","training","adjacent","DE","4","5","M.jpg","P.jpg","0","1","0","",""
"","feedback","","html-keyboard-response","336","336425","0.0-1.0-465.0-0.0","0","0","94528","","null","","","null","51","","","","","","","","","","","","","","","",""
"","time_out","","html-keyboard-response","337","338430","0.0-1.0-467.0-0.0","0","0","94528","","null","","","null","51","","","","","","","","","","","","","","","",""
"","ITI","","html-keyboard-response","338","339443","0.0-1.0-468.0","0","0","94528","","null","","","null","51","","","","","","","","","","","","","","","NaN",""
"","S1","","html-keyboard-response","339","339696","0.0-1.0-470.0","0","0","94528","","null","","","null","52","","","","","","","","","","","","","","","",""
"","ISI","","html-keyboard-response","340","340705","0.0-1.0-471.0","0","0","94528","","null","","","null","52","NaN","","","","","","","","","","","","","","",""
"","S2","","html-keyboard-response","341","340959","0.0-1.0-472.0","0","0","94528","","null","","","null","52","","NaN","","","","","","","","","","","","","",""
"","response","","html-keyboard-response","342","341038","0.0-1.0-473.0-0.0","0","0","94528","","76","","","68","52","","","2","52","training","adjacent","FE","6","5","L.jpg","P.jpg","1","0","0","",""
"","feedback","","html-keyboard-response","343","342043","0.0-1.0-474.0-0.0","0","0","94528","","null","","","null","52","","","","","","","","","","","","","","","",""
"","time_out","","html-keyboard-response","344","344047","0.0-1.0-476.0-0.0","0","0","94528","","null","","","null","52","","","","","","","","","","","","","","","",""
"","ITI","","html-keyboard-response","345","345049","0.0-1.0-477.0","0","0","94528","","null","","","null","52","","","","","","","","","","","","","","","NaN",""
"","S1","","html-keyboard-response","346","345303","0.0-1.0-479.0","0","0","94528","","null","","","null","53","","","","","","","","","","","","","","","",""
"","ISI","","html-keyboard-response","347","346308","0.0-1.0-480.0","0","0","94528","","null","","","null","53","NaN","","","","","","","","","","","","","","",""
"","S2","","html-keyboard-response","348","346562","0.0-1.0-481.0","0","0","94528","","null","","","null","53","","NaN","","","","","","","","","","","","","",""
"","response","","html-keyboard-response","349","346803","0.0-1.0-482.0-0.0","0","0","94528","","236","","","75","53","","","2","53","training","adjacent","DC","4","3","M.jpg","O.jpg","0","0","1","",""
"","feedback","","html-keyboard-response","350","347809","0.0-1.0-483.0-0.0","0","0","94528","","null","","","null","53","","","","","","","","","","","","","","","",""
"","ITI","","html-keyboard-response","351","348814","0.0-1.0-486.0","0","0","94528","","null","","","null","53","","","","","","","","","","","","","","","NaN",""
"","S1","","html-keyboard-response","352","349071","0.0-1.0-488.0","0","0","94528","","null","","","null","54","","","","","","","","","","","","","","","",""
"","ISI","","html-keyboard-response","353","350077","0.0-1.0-489.0","0","0","94528","","null","","","null","54","NaN","","","","","","","","","","","","","","",""
"","S2","","html-keyboard-response","354","350331","0.0-1.0-490.0","0","0","94528","","null","","","null","54","","NaN","","","","","","","","","","","","","",""
"","response","","html-keyboard-response","355","350672","0.0-1.0-491.0-0.0","0","0","94528","","337","","","68","54","","","2","54","training","adjacent","FG","6","7","L.jpg","R.jpg","1","1","1","",""
"","feedback","","html-keyboard-response","356","351677","0.0-1.0-492.0-0.0","0","0","94528","","null","","","null","54","","","","","","","","","","","","","","","",""
"","ITI","","html-keyboard-response","357","352683","0.0-1.0-495.0","0","0","94528","","null","","","null","54","","","","","","","","","","","","","","","NaN",""
"","S1","","html-keyboard-response","358","352936","0.0-1.0-497.0","0","0","94528","","null","","","null","55","","","","","","","","","","","","","","","",""
"","ISI","","html-keyboard-response","359","353941","0.0-1.0-498.0","0","0","94528","","null","","","null","55","NaN","","","","","","","","","","","","","","",""
"","S2","","html-keyboard-response","360","354196","0.0-1.0-499.0","0","0","94528","","null","","","null","55","","NaN","","","","","","","","","","","","","",""
"","response","","html-keyboard-response","361","354584","0.0-1.0-500.0-0.0","0","0","94528","","383","","","75","55","","","2","55","training","adjacent","FE","6","5","L.jpg","P.jpg","0","0","1","",""
"","feedback","","html-keyboard-response","362","355588","0.0-1.0-501.0-0.0","0","0","94528","","null","","","null","55","","","","","","","","","","","","","","","",""
"","ITI","","html-keyboard-response","363","356592","0.0-1.0-504.0","0","0","94528","","null","","","null","55","","","","","","","","","","","","","","","NaN",""
"","S1","","html-keyboard-response","364","356846","0.0-1.0-506.0","0","0","94528","","null","","","null","56","","","","","","","","","","","","","","","",""
"","ISI","","html-keyboard-response","365","357851","0.0-1.0-507.0","0","0","94528","","null","","","null","56","NaN","","","","","","","","","","","","","","",""
"","S2","","html-keyboard-response","366","358106","0.0-1.0-508.0","0","0","94528","","null","","","null","56","","NaN","","","","","","","","","","","","","",""
"","response","","html-keyboard-response","367","358608","0.0-1.0-509.0-0.0","0","0","94528","","497","","","75","56","","","2","56","training","adjacent","CB","3","2","O.jpg","N.jpg","0","0","1","",""
"","feedback","","html-keyboard-response","368","359614","0.0-1.0-510.0-0.0","0","0","94528","","null","","","null","56","","","","","","","","","","","","","","","",""
"","ITI","","html-keyboard-response","369","360618","0.0-1.0-513.0","0","0","94528","","null","","","null","56","","","","","","","","","","","","","","","NaN",""
"","S1","","html-keyboard-response","370","360873","0.0-1.0-515.0","0","0","94528","","null","","","null","57","","","","","","","","","","","","","","","",""
"","ISI","","html-keyboard-response","371","361878","0.0-1.0-516.0","0","0","94528","","null","","","null","57","NaN","","","","","","","","","","","","","","",""
"","S2","","html-keyboard-response","372","362132","0.0-1.0-517.0","0","0","94528","","null","","","null","57","","NaN","","","","","","","","","","","","","",""
"","response","","html-keyboard-response","373","362275","0.0-1.0-518.0-0.0","0","0","94528","","139","","","75","57","","","2","57","training","adjacent","AB","1","2","Q.jpg","N.jpg","0","1","0","",""
"","feedback","","html-keyboard-response","374","363280","0.0-1.0-519.0-0.0","0","0","94528","","null","","","null","57","","","","","","","","","","","","","","","",""
"","time_out","","html-keyboard-response","375","365284","0.0-1.0-521.0-0.0","0","0","94528","","null","","","null","57","","","","","","","","","","","","","","","",""
"","ITI","","html-keyboard-response","376","366289","0.0-1.0-522.0","0","0","94528","","null","","","null","57","","","","","","","","","","","","","","","NaN",""
"","S1","","html-keyboard-response","377","366543","0.0-1.0-524.0","0","0","94528","","null","","","null","58","","","","","","","","","","","","","","","",""
"","ISI","","html-keyboard-response","378","367548","0.0-1.0-525.0","0","0","94528","","null","","","null","58","NaN","","","","","","","","","","","","","","",""
"","S2","","html-keyboard-response","379","367803","0.0-1.0-526.0","0","0","94528","","null","","","null","58","","NaN","","","","","","","","","","","","","",""
"","response","","html-keyboard-response","380","367980","0.0-1.0-527.0-0.0","0","0","94528","","172","","","68","58","","","2","58","training","adjacent","GF","7","6","R.jpg","L.jpg","1","0","0","",""
"","feedback","","html-keyboard-response","381","368985","0.0-1.0-528.0-0.0","0","0","94528","","null","","","null","58","","","","","","","","","","","","","","","",""
"","time_out","","html-keyboard-response","382","370989","0.0-1.0-530.0-0.0","0","0","94528","","null","","","null","58","","","","","","","","","","","","","","","",""
"","ITI","","html-keyboard-response","383","371995","0.0-1.0-531.0","0","0","94528","","null","","","null","58","","","","","","","","","","","","","","","NaN",""
"","S1","","html-keyboard-response","384","372249","0.0-1.0-533.0","0","0","94528","","null","","","null","59","","","","","","","","","","","","","","","",""
"","ISI","","html-keyboard-response","385","373253","0.0-1.0-534.0","0","0","94528","","null","","","null","59","NaN","","","","","","","","","","","","","","",""
"","S2","","html-keyboard-response","386","373507","0.0-1.0-535.0","0","0","94528","","null","","","null","59","","NaN","","","","","","","","","","","","","",""
"","response","","html-keyboard-response","387","374139","0.0-1.0-536.0-0.0","0","0","94528","","628","","","75","59","","","2","59","training","adjacent","ED","5","4","P.jpg","M.jpg","0","0","1","",""
"","feedback","","html-keyboard-response","388","375144","0.0-1.0-537.0-0.0","0","0","94528","","null","","","null","59","","","","","","","","","","","","","","","",""
"","ITI","","html-keyboard-response","389","376149","0.0-1.0-540.0","0","0","94528","","null","","","null","59","","","","","","","","","","","","","","","NaN",""
"","S1","","html-keyboard-response","390","376405","0.0-1.0-542.0","0","0","94528","","null","","","null","60","","","","","","","","","","","","","","","",""
"","ISI","","html-keyboard-response","391","377408","0.0-1.0-543.0","0","0","94528","","null","","","null","60","NaN","","","","","","","","","","","","","","",""
"","S2","","html-keyboard-response","392","377663","0.0-1.0-544.0","0","0","94528","","null","","","null","60","","NaN","","","","","","","","","","","","","",""
"","response","","html-keyboard-response","393","379417","0.0-1.0-545.0-0.0","0","0","94528","","null","","","null","60","","","2","60","training","adjacent","BA","2","1","N.jpg","Q.jpg","NaN","0","0","",""
"","too_slow_prompt","","html-keyboard-response","394","380421","0.0-1.0-547.0-0.0","1","0","94528","","null","","","null","","","","","","","","","","","","","","","","",""
"","time_out","","html-keyboard-response","395","382425","0.0-1.0-548.0-0.0","0","0","94528","","null","","","null","60","","","","","","","","","","","","","","","",""
"","ITI","","html-keyboard-response","396","383429","0.0-1.0-549.0","0","0","94528","","null","","","null","60","","","","","","","","","","","","","","","NaN",""
"","S1","","html-keyboard-response","397","383686","0.0-1.0-551.0","0","0","94528","","null","","","null","61","","","","","","","","","","","","","","","",""
"","ISI","","html-keyboard-response","398","384691","0.0-1.0-552.0","0","0","94528","","null","","","null","61","NaN","","","","","","","","","","","","","","",""
"","S2","","html-keyboard-response","399","384945","0.0-1.0-553.0","0","0","94528","","null","","","null","61","","NaN","","","","","","","","","","","","","",""
"","response","","html-keyboard-response","400","385384","0.0-1.0-554.0-0.0","0","0","94528","","435","","","75","61","","","2","61","training","adjacent","ED","5","4","P.jpg","M.jpg","0","0","1","",""
"","feedback","","html-keyboard-response","401","386389","0.0-1.0-555.0-0.0","0","0","94528","","null","","","null","61","","","","","","","","","","","","","","","",""
"","ITI","","html-keyboard-response","402","387394","0.0-1.0-558.0","0","0","94528","","null","","","null","61","","","","","","","","","","","","","","","NaN",""
"","S1","","html-keyboard-response","403","387648","0.0-1.0-560.0","0","0","94528","","null","","","null","62","","","","","","","","","","","","","","","",""
"","ISI","","html-keyboard-response","404","388653","0.0-1.0-561.0","0","0","94528","","null","","","null","62","NaN","","","","","","","","","","","","","","",""
"","S2","","html-keyboard-response","405","388908","0.0-1.0-562.0","0","0","94528","","null","","","null","62","","NaN","","","","","","","","","","","","","",""
"","response","","html-keyboard-response","406","389869","0.0-1.0-563.0-0.0","0","0","94528","","958","","","75","62","","","2","62","training","adjacent","BA","2","1","N.jpg","Q.jpg","0","0","1","",""
"","feedback","","html-keyboard-response","407","390875","0.0-1.0-564.0-0.0","0","0","94528","","null","","","null","62","","","","","","","","","","","","","","","",""
"","ITI","","html-keyboard-response","408","391880","0.0-1.0-567.0","0","0","94528","","null","","","null","62","","","","","","","","","","","","","","","NaN",""
"","S1","","html-keyboard-response","409","392135","0.0-1.0-569.0","0","0","94528","","null","","","null","63","","","","","","","","","","","","","","","",""
"","ISI","","html-keyboard-response","410","393139","0.0-1.0-570.0","0","0","94528","","null","","","null","63","NaN","","","","","","","","","","","","","","",""
"","S2","","html-keyboard-response","411","393396","0.0-1.0-571.0","0","0","94528","","null","","","null","63","","NaN","","","","","","","","","","","","","",""
"","response","","html-keyboard-response","412","393621","0.0-1.0-572.0-0.0","0","0","94528","","221","","","75","63","","","2","63","training","adjacent","EF","5","6","P.jpg","L.jpg","0","1","0","",""
"","feedback","","html-keyboard-response","413","394626","0.0-1.0-573.0-0.0","0","0","94528","","null","","","null","63","","","","","","","","","","","","","","","",""
"","time_out","","html-keyboard-response","414","396629","0.0-1.0-575.0-0.0","0","0","94528","","null","","","null","63","","","","","","","","","","","","","","","",""
"","ITI","","html-keyboard-response","415","397633","0.0-1.0-576.0","0","0","94528","","null","","","null","63","","","","","","","","","","","","","","","NaN",""
"","S1","","html-keyboard-response","416","397888","0.0-1.0-578.0","0","0","94528","","null","","","null","64","","","","","","","","","","","","","","","",""
"","ISI","","html-keyboard-response","417","398893","0.0-1.0-579.0","0","0","94528","","null","","","null","64","NaN","","","","","","","","","","","","","","",""
"","S2","","html-keyboard-response","418","399148","0.0-1.0-580.0","0","0","94528","","null","","","null","64","","NaN","","","","","","","","","","","","","",""
"","response","","html-keyboard-response","419","399285","0.0-1.0-581.0-0.0","0","0","94528","","133","","","68","64","","","2","64","training","adjacent","GF","7","6","R.jpg","L.jpg","1","0","0","",""
"","feedback","","html-keyboard-response","420","400289","0.0-1.0-582.0-0.0","0","0","94528","","null","","","null","64","","","","","","","","","","","","","","","",""
"","time_out","","html-keyboard-response","421","402293","0.0-1.0-584.0-0.0","0","0","94528","","null","","","null","64","","","","","","","","","","","","","","","",""
"","ITI","","html-keyboard-response","422","403297","0.0-1.0-585.0","0","0","94528","","null","","","null","64","","","","","","","","","","","","","","","NaN",""
"","S1","","html-keyboard-response","423","403552","0.0-1.0-587.0","0","0","94528","","null","","","null","65","","","","","","","","","","","","","","","",""
"","ISI","","html-keyboard-response","424","404556","0.0-1.0-588.0","0","0","94528","","null","","","null","65","NaN","","","","","","","","","","","","","","",""
"","S2","","html-keyboard-response","425","404812","0.0-1.0-589.0","0","0","94528","","null","","","null","65","","NaN","","","","","","","","","","","","","",""
"","response","","html-keyboard-response","426","405940","0.0-1.0-590.0-0.0","0","0","94528","","1124","","","68","65","","","2","65","training","adjacent","DE","4","5","M.jpg","P.jpg","1","1","1","",""
"","feedback","","html-keyboard-response","427","406944","0.0-1.0-591.0-0.0","0","0","94528","","null","","","null","65","","","","","","","","","","","","","","","",""
"","ITI","","html-keyboard-response","428","407948","0.0-1.0-594.0","0","0","94528","","null","","","null","65","","","","","","","","","","","","","","","NaN",""
"","S1","","html-keyboard-response","429","408202","0.0-1.0-596.0","0","0","94528","","null","","","null","66","","","","","","","","","","","","","","","",""
"","ISI","","html-keyboard-response","430","409206","0.0-1.0-597.0","0","0","94528","","null","","","null","66","NaN","","","","","","","","","","","","","","",""
"","S2","","html-keyboard-response","431","409460","0.0-1.0-598.0","0","0","94528","","null","","","null","66","","NaN","","","","","","","","","","","","","",""
"","response","","html-keyboard-response","432","409679","0.0-1.0-599.0-0.0","0","0","94528","","214","","","75","66","","","2","66","training","adjacent","EF","5","6","P.jpg","L.jpg","0","1","0","",""
"","feedback","","html-keyboard-response","433","410685","0.0-1.0-600.0-0.0","0","0","94528","","null","","","null","66","","","","","","","","","","","","","","","",""
"","time_out","","html-keyboard-response","434","412689","0.0-1.0-602.0-0.0","0","0","94528","","null","","","null","66","","","","","","","","","","","","","","","",""
"","ITI","","html-keyboard-response","435","413693","0.0-1.0-603.0","0","0","94528","","null","","","null","66","","","","","","","","","","","","","","","NaN",""
"","S1","","html-keyboard-response","436","413947","0.0-1.0-605.0","0","0","94528","","null","","","null","67","","","","","","","","","","","","","","","",""
"","ISI","","html-keyboard-response","437","414952","0.0-1.0-606.0","0","0","94528","","720","","","68","67","d","","","","","","","","","","","","","","",""
"","S2","","html-keyboard-response","438","415206","0.0-1.0-607.0","0","0","94528","","null","","","null","67","","NaN","","","","","","","","","","","","","",""
"","response","","html-keyboard-response","439","415258","0.0-1.0-608.0-0.0","0","0","94528","","48","","","68","67","","","2","67","training","adjacent","CD","3","4","O.jpg","M.jpg","1","1","1","",""
"","feedback","","html-keyboard-response","440","416263","0.0-1.0-609.0-0.0","0","0","94528","","null","","","null","67","","","","","","","","","","","","","","","",""
"","ITI","","html-keyboard-response","441","417270","0.0-1.0-612.0","0","0","94528","","null","","","null","67","","","","","","","","","","","","","","","NaN",""
"","S1","","html-keyboard-response","442","417524","0.0-1.0-614.0","0","0","94528","","null","","","null","68","","","","","","","","","","","","","","","",""
"","ISI","","html-keyboard-response","443","418529","0.0-1.0-615.0","0","0","94528","","null","","","null","68","NaN","","","","","","","","","","","","","","",""
"","S2","","html-keyboard-response","444","418786","0.0-1.0-616.0","0","0","94528","","null","","","null","68","","NaN","","","","","","","","","","","","","",""
"","response","","html-keyboard-response","445","419337","0.0-1.0-617.0-0.0","0","0","94528","","547","","","75","68","","","2","68","training","adjacent","CB","3","2","O.jpg","N.jpg","0","0","1","",""
"","feedback","","html-keyboard-response","446","420342","0.0-1.0-618.0-0.0","0","0","94528","","null","","","null","68","","","","","","","","","","","","","","","",""
"","ITI","","html-keyboard-response","447","421349","0.0-1.0-621.0","0","0","94528","","null","","","null","68","","","","","","","","","","","","","","","NaN",""
"","S1","","html-keyboard-response","448","421604","0.0-1.0-623.0","0","0","94528","","null","","","null","69","","","","","","","","","","","","","","","",""
"","ISI","","html-keyboard-response","449","422614","0.0-1.0-624.0","0","0","94528","","null","","","null","69","NaN","","","","","","","","","","","","","","",""
"","S2","","html-keyboard-response","450","422869","0.0-1.0-625.0","0","0","94528","","null","","","null","69","","NaN","","","","","","","","","","","","","",""
"","response","","html-keyboard-response","451","422979","0.0-1.0-626.0-0.0","0","0","94528","","104","","","68","69","","","2","69","training","adjacent","BC","2","3","N.jpg","O.jpg","1","1","1","",""
"","feedback","","html-keyboard-response","452","423983","0.0-1.0-627.0-0.0","0","0","94528","","null","","","null","69","","","","","","","","","","","","","","","",""
"","ITI","","html-keyboard-response","453","424987","0.0-1.0-630.0","0","0","94528","","null","","","null","69","","","","","","","","","","","","","","","NaN",""
"","S1","","html-keyboard-response","454","425242","0.0-1.0-632.0","0","0","94528","","null","","","null","70","","","","","","","","","","","","","","","",""
"","ISI","","html-keyboard-response","455","426246","0.0-1.0-633.0","0","0","94528","","null","","","null","70","NaN","","","","","","","","","","","","","","",""
"","S2","","html-keyboard-response","456","426502","0.0-1.0-634.0","0","0","94528","","null","","","null","70","","NaN","","","","","","","","","","","","","",""
"","response","","html-keyboard-response","457","426549","0.0-1.0-635.0-0.0","0","0","94528","","43","","","75","70","","","2","70","training","adjacent","FE","6","5","L.jpg","P.jpg","0","0","1","",""
"","feedback","","html-keyboard-response","458","427556","0.0-1.0-636.0-0.0","0","0","94528","","null","","","null","70","","","","","","","","","","","","","","","",""
"","ITI","","html-keyboard-response","459","428561","0.0-1.0-639.0","0","0","94528","","null","","","null","70","","","","","","","","","","","","","","","NaN",""
"","S1","","html-keyboard-response","460","428817","0.0-1.0-641.0","0","0","94528","","null","","","null","71","","","","","","","","","","","","","","","",""
"","ISI","","html-keyboard-response","461","429821","0.0-1.0-642.0","0","0","94528","","null","","","null","71","NaN","","","","","","","","","","","","","","",""
"","S2","","html-keyboard-response","462","429880","0.0-1.0-643.0","0","0","94528","","54","","","68","71","","d","2","71","training","adjacent","FG","6","7","L.jpg","R.jpg","1","1","1","",""
"","feedback","","html-keyboard-response","463","430884","0.0-1.0-645.0-0.0","0","0","94528","","null","","","null","71","","","","","","","","","","","","","","","",""
"","ITI","","html-keyboard-response","464","431888","0.0-1.0-648.0","0","0","94528","","null","","","null","71","","","","","","","","","","","","","","","NaN",""
"","S1","","html-keyboard-response","465","432143","0.0-1.0-650.0","0","0","94528","","null","","","null","72","","","","","","","","","","","","","","","",""
"","ISI","","html-keyboard-response","466","433147","0.0-1.0-651.0","0","0","94528","","null","","","null","72","NaN","","","","","","","","","","","","","","",""
"","S2","","html-keyboard-response","467","433213","0.0-1.0-652.0","0","0","94528","","60","","","75","72","","k","2","72","training","adjacent","AB","1","2","Q.jpg","N.jpg","0","1","0","",""
"","feedback","","html-keyboard-response","468","434218","0.0-1.0-654.0-0.0","0","0","94528","","null","","","null","72","","","","","","","","","","","","","","","",""
"","time_out","","html-keyboard-response","469","436223","0.0-1.0-656.0-0.0","0","0","94528","","null","","","null","72","","","","","","","","","","","","","","","",""
"","ITI","","html-keyboard-response","470","437227","0.0-1.0-657.0","0","0","94528","","null","","","null","72","","","","","","","","","","","","","","","NaN",""
"","S1","","html-keyboard-response","471","437481","0.0-1.0-659.0","0","0","94528","","null","","","null","73","","","","","","","","","","","","","","","",""
"","ISI","","html-keyboard-response","472","438486","0.0-1.0-660.0","0","0","94528","","null","","","null","73","NaN","","","","","","","","","","","","","","",""
"","S2","","html-keyboard-response","473","438740","0.0-1.0-661.0","0","0","94528","","null","","","null","73","","NaN","","","","","","","","","","","","","",""
"","response","","html-keyboard-response","474","438923","0.0-1.0-662.0-0.0","0","0","94528","","179","","","75","73","","","2","73","training","adjacent","BA","2","1","N.jpg","Q.jpg","0","0","1","",""
"","feedback","","html-keyboard-response","475","439927","0.0-1.0-663.0-0.0","0","0","94528","","null","","","null","73","","","","","","","","","","","","","","","",""
"","ITI","","html-keyboard-response","476","440933","0.0-1.0-666.0","0","0","94528","","null","","","null","73","","","","","","","","","","","","","","","NaN",""
"","S1","","html-keyboard-response","477","441187","0.0-1.0-668.0","0","0","94528","","null","","","null","74","","","","","","","","","","","","","","","",""
"","ISI","","html-keyboard-response","478","442191","0.0-1.0-669.0","0","0","94528","","null","","","null","74","NaN","","","","","","","","","","","","","","",""
"","S2","","html-keyboard-response","479","442446","0.0-1.0-670.0","0","0","94528","","null","","","null","74","","NaN","","","","","","","","","","","","","",""
"","response","","html-keyboard-response","480","443242","0.0-1.0-671.0-0.0","0","0","94528","","791","","","75","74","","","2","74","training","adjacent","EF","5","6","P.jpg","L.jpg","0","1","0","",""
"","feedback","","html-keyboard-response","481","444248","0.0-1.0-672.0-0.0","0","0","94528","","null","","","null","74","","","","","","","","","","","","","","","",""
"","time_out","","html-keyboard-response","482","446253","0.0-1.0-674.0-0.0","0","0","94528","","null","","","null","74","","","","","","","","","","","","","","","",""
"","ITI","","html-keyboard-response","483","447273","0.0-1.0-675.0","0","0","94528","","null","","","null","74","","","","","","","","","","","","","","","NaN",""
"","S1","","html-keyboard-response","484","447527","0.0-1.0-677.0","0","0","94528","","null","","","null","75","","","","","","","","","","","","","","","",""
"","ISI","","html-keyboard-response","485","448531","0.0-1.0-678.0","0","0","94528","","null","","","null","75","NaN","","","","","","","","","","","","","","",""
"","S2","","html-keyboard-response","486","448786","0.0-1.0-679.0","0","0","94528","","null","","","null","75","","NaN","","","","","","","","","","","","","",""
"","response","","html-keyboard-response","487","449515","0.0-1.0-680.0-0.0","0","0","94528","","725","","","75","75","","","2","75","training","adjacent","BA","2","1","N.jpg","Q.jpg","0","0","1","",""
"","feedback","","html-keyboard-response","488","450521","0.0-1.0-681.0-0.0","0","0","94528","","null","","","null","75","","","","","","","","","","","","","","","",""
"","ITI","","html-keyboard-response","489","451526","0.0-1.0-684.0","0","0","94528","","null","","","null","75","","","","","","","","","","","","","","","NaN",""
"","S1","","html-keyboard-response","490","451781","0.0-1.0-686.0","0","0","94528","","null","","","null","76","","","","","","","","","","","","","","","",""
"","ISI","","html-keyboard-response","491","452787","0.0-1.0-687.0","0","0","94528","","null","","","null","76","NaN","","","","","","","","","","","","","","",""
"","S2","","html-keyboard-response","492","453042","0.0-1.0-688.0","0","0","94528","","null","","","null","76","","NaN","","","","","","","","","","","","","",""
"","response","","html-keyboard-response","493","453792","0.0-1.0-689.0-0.0","0","0","94528","","745","","","68","76","","","2","76","training","adjacent","BC","2","3","N.jpg","O.jpg","1","1","1","",""
"","feedback","","html-keyboard-response","494","454798","0.0-1.0-690.0-0.0","0","0","94528","","null","","","null","76","","","","","","","","","","","","","","","",""
"","ITI","","html-keyboard-response","495","455802","0.0-1.0-693.0","0","0","94528","","null","","","null","76","","","","","","","","","","","","","","","NaN",""
"","S1","","html-keyboard-response","496","456057","0.0-1.0-695.0","0","0","94528","","null","","","null","77","","","","","","","","","","","","","","","",""
"","ISI","","html-keyboard-response","497","457062","0.0-1.0-696.0","0","0","94528","","null","","","null","77","NaN","","","","","","","","","","","","","","",""
"","S2","","html-keyboard-response","498","457316","0.0-1.0-697.0","0","0","94528","","null","","","null","77","","NaN","","","","","","","","","","","","","",""
"","response","","html-keyboard-response","499","457846","0.0-1.0-698.0-0.0","0","0","94528","","525","","","75","77","","","2","77","training","adjacent","FE","6","5","L.jpg","P.jpg","0","0","1","",""
"","feedback","","html-keyboard-response","500","458851","0.0-1.0-699.0-0.0","0","0","94528","","null","","","null","77","","","","","","","","","","","","","","","",""
"","ITI","","html-keyboard-response","501","459869","0.0-1.0-702.0","0","0","94528","","null","","","null","77","","","","","","","","","","","","","","","NaN",""
"","S1","","html-keyboard-response","502","460123","0.0-1.0-704.0","0","0","94528","","null","","","null","78","","","","","","","","","","","","","","","",""
"","ISI","","html-keyboard-response","503","461139","0.0-1.0-705.0","0","0","94528","","null","","","null","78","NaN","","","","","","","","","","","","","","",""
"","S2","","html-keyboard-response","504","461393","0.0-1.0-706.0","0","0","94528","","null","","","null","78","","NaN","","","","","","","","","","","","","",""
"","response","","html-keyboard-response","505","461870","0.0-1.0-707.0-0.0","0","0","94528","","473","","","68","78","","","2","78","training","adjacent","FG","6","7","L.jpg","R.jpg","1","1","1","",""
"","feedback","","html-keyboard-response","506","462875","0.0-1.0-708.0-0.0","0","0","94528","","null","","","null","78","","","","","","","","","","","","","","","",""
"","ITI","","html-keyboard-response","507","463880","0.0-1.0-711.0","0","0","94528","","null","","","null","78","","","","","","","","","","","","","","","NaN",""
"","S1","","html-keyboard-response","508","464136","0.0-1.0-713.0","0","0","94528","","null","","","null","79","","","","","","","","","","","","","","","",""
"","ISI","","html-keyboard-response","509","465139","0.0-1.0-714.0","0","0","94528","","null","","","null","79","NaN","","","","","","","","","","","","","","",""
"","S2","","html-keyboard-response","510","465395","0.0-1.0-715.0","0","0","94528","","null","","","null","79","","NaN","","","","","","","","","","","","","",""
"","response","","html-keyboard-response","511","465887","0.0-1.0-716.0-0.0","0","0","94528","","487","","","75","79","","","2","79","training","adjacent","DC","4","3","M.jpg","O.jpg","0","0","1","",""
"","feedback","","html-keyboard-response","512","466892","0.0-1.0-717.0-0.0","0","0","94528","","null","","","null","79","","","","","","","","","","","","","","","",""
"","ITI","","html-keyboard-response","513","467898","0.0-1.0-720.0","0","0","94528","","null","","","null","79","","","","","","","","","","","","","","","NaN",""
"","S1","","html-keyboard-response","514","468152","0.0-1.0-722.0","0","0","94528","","null","","","null","80","","","","","","","","","","","","","","","",""
"","ISI","","html-keyboard-response","515","469157","0.0-1.0-723.0","0","0","94528","","null","","","null","80","NaN","","","","","","","","","","","","","","",""
"","S2","","html-keyboard-response","516","469399","0.0-1.0-724.0","0","0","94528","","237","","","68","80","","d","2","80","training","adjacent","DC","4","3","M.jpg","O.jpg","1","0","0","",""
"","feedback","","html-keyboard-response","517","470406","0.0-1.0-726.0-0.0","0","0","94528","","null","","","null","80","","","","","","","","","","","","","","","",""
"","time_out","","html-keyboard-response","518","472411","0.0-1.0-728.0-0.0","0","0","94528","","null","","","null","80","","","","","","","","","","","","","","","",""
"","ITI","","html-keyboard-response","519","473415","0.0-1.0-729.0","0","0","94528","","null","","","null","80","","","","","","","","","","","","","","","NaN",""
"","S1","","html-keyboard-response","520","473670","0.0-1.0-731.0","0","0","94528","","null","","","null","81","","","","","","","","","","","","","","","",""
"","ISI","","html-keyboard-response","521","474675","0.0-1.0-732.0","0","0","94528","","null","","","null","81","NaN","","","","","","","","","","","","","","",""
"","S2","","html-keyboard-response","522","474930","0.0-1.0-733.0","0","0","94528","","null","","","null","81","","NaN","","","","","","","","","","","","","",""
"","response","","html-keyboard-response","523","474948","0.0-1.0-734.0-0.0","0","0","94528","","14","","","75","81","","","2","81","training","adjacent","AB","1","2","Q.jpg","N.jpg","0","1","0","",""
"","feedback","","html-keyboard-response","524","475953","0.0-1.0-735.0-0.0","0","0","94528","","null","","","null","81","","","","","","","","","","","","","","","",""
"","time_out","","html-keyboard-response","525","477959","0.0-1.0-737.0-0.0","0","0","94528","","null","","","null","81","","","","","","","","","","","","","","","",""
"","ITI","","html-keyboard-response","526","478964","0.0-1.0-738.0","0","0","94528","","null","","","null","81","","","","","","","","","","","","","","","NaN",""
"","S1","","html-keyboard-response","527","479218","0.0-1.0-740.0","0","0","94528","","null","","","null","82","","","","","","","","","","","","","","","",""
"","ISI","","html-keyboard-response","528","480222","0.0-1.0-741.0","0","0","94528","","null","","","null","82","NaN","","","","","","","","","","","","","","",""
"","S2","","html-keyboard-response","529","480312","0.0-1.0-742.0","0","0","94528","","85","","","68","82","","d","2","82","training","adjacent","AB","1","2","Q.jpg","N.jpg","1","1","1","",""
"","feedback","","html-keyboard-response","530","481318","0.0-1.0-744.0-0.0","0","0","94528","","null","","","null","82","","","","","","","","","","","","","","","",""
"","ITI","","html-keyboard-response","531","482324","0.0-1.0-747.0","0","0","94528","","null","","","null","82","","","","","","","","","","","","","","","NaN",""
"","S1","","html-keyboard-response","532","482578","0.0-1.0-749.0","0","0","94528","","null","","","null","83","","","","","","","","","","","","","","","",""
"","ISI","","html-keyboard-response","533","483582","0.0-1.0-750.0","0","0","94528","","null","","","null","83","NaN","","","","","","","","","","","","","","",""
"","S2","","html-keyboard-response","534","483838","0.0-1.0-751.0","0","0","94528","","null","","","null","83","","NaN","","","","","","","","","","","","","",""
"","response","","html-keyboard-response","535","484025","0.0-1.0-752.0-0.0","0","0","94528","","183","","","75","83","","","2","83","training","adjacent","CD","3","4","O.jpg","M.jpg","0","1","0","",""
"","feedback","","html-keyboard-response","536","485030","0.0-1.0-753.0-0.0","0","0","94528","","null","","","null","83","","","","","","","","","","","","","","","",""
"","time_out","","html-keyboard-response","537","487034","0.0-1.0-755.0-0.0","0","0","94528","","null","","","null","83","","","","","","","","","","","","","","","",""
"","ITI","","html-keyboard-response","538","488038","0.0-1.0-756.0","0","0","94528","","null","","","null","83","","","","","","","","","","","","","","","NaN",""
"","S1","","html-keyboard-response","539","488293","0.0-1.0-758.0","0","0","94528","","null","","","null","84","","","","","","","","","","","","","","","",""
"","ISI","","html-keyboard-response","540","489297","0.0-1.0-759.0","0","0","94528","","null","","","null","84","NaN","","","","","","","","","","","","","","",""
"","S2","","html-keyboard-response","541","489552","0.0-1.0-760.0","0","0","94528","","null","","","null","84","","NaN","","","","","","","","","","","","","",""
"","response","","html-keyboard-response","542","490022","0.0-1.0-761.0-0.0","0","0","94528","","465","","","68","84","","","2","84","training","adjacent","CD","3","4","O.jpg","M.jpg","1","1","1","",""
"","feedback","","html-keyboard-response","543","491027","0.0-1.0-762.0-0.0","0","0","94528","","null","","","null","84","","","","","","","","","","","","","","","",""
"","ITI","","html-keyboard-response","544","492033","0.0-1.0-765.0","0","0","94528","","null","","","null","84","","","","","","","","","","","","","","","NaN",""
"","S1","","html-keyboard-response","545","492287","0.0-1.0-767.0","0","0","94528","","null","","","null","85","","","","","","","","","","","","","","","",""
"","ISI","","html-keyboard-response","546","493292","0.0-1.0-768.0","0","0","94528","","null","","","null","85","NaN","","","","","","","","","","","","","","",""
"","S2","","html-keyboard-response","547","493546","0.0-1.0-769.0","0","0","94528","","null","","","null","85","","NaN","","","","","","","","","","","","","",""
"","response","","html-keyboard-response","548","493798","0.0-1.0-770.0-0.0","0","0","94528","","248","","","75","85","","","2","85","training","adjacent","GF","7","6","R.jpg","L.jpg","0","0","1","",""
"","feedback","","html-keyboard-response","549","494803","0.0-1.0-771.0-0.0","0","0","94528","","null","","","null","85","","","","","","","","","","","","","","","",""
"","ITI","","html-keyboard-response","550","495809","0.0-1.0-774.0","0","0","94528","","null","","","null","85","","","","","","","","","","","","","","","NaN",""
"","S1","","html-keyboard-response","551","496064","0.0-1.0-776.0","0","0","94528","","null","","","null","86","","","","","","","","","","","","","","","",""
"","ISI","","html-keyboard-response","552","497068","0.0-1.0-777.0","0","0","94528","","null","","","null","86","NaN","","","","","","","","","","","","","","",""
"","S2","","html-keyboard-response","553","497324","0.0-1.0-778.0","0","0","94528","","null","","","null","86","","NaN","","","","","","","","","","","","","",""
"","response","","html-keyboard-response","554","498025","0.0-1.0-779.0-0.0","0","0","94528","","696","","","68","86","","","2","86","training","adjacent","ED","5","4","P.jpg","M.jpg","1","0","0","",""
"","feedback","","html-keyboard-response","555","499030","0.0-1.0-780.0-0.0","0","0","94528","","null","","","null","86","","","","","","","","","","","","","","","",""
"","time_out","","html-keyboard-response","556","501034","0.0-1.0-782.0-0.0","0","0","94528","","null","","","null","86","","","","","","","","","","","","","","","",""
"","ITI","","html-keyboard-response","557","502207","0.0-1.0-783.0","0","0","94528","","null","","","null","86","","","","","","","","","","","","","","","NaN",""
"","S1","","html-keyboard-response","558","503204","0.0-1.0-785.0","0","0","94528","","null","","","null","87","","","","","","","","","","","","","","","",""
"","ISI","","html-keyboard-response","559","505203","0.0-1.0-786.0","0","0","94528","","null","","","null","87","NaN","","","","","","","","","","","","","","",""
"","S2","","html-keyboard-response","560","506201","0.0-1.0-787.0","0","0","94528","","null","","","null","87","","NaN","","","","","","","","","","","","","",""
"","response","","html-keyboard-response","561","508204","0.0-1.0-788.0-0.0","0","0","94528","","null","","","null","87","","","2","87","training","adjacent","BC","2","3","N.jpg","O.jpg","NaN","1","0","",""
"","too_slow_prompt","","html-keyboard-response","562","510285","0.0-1.0-790.0-0.0","1","0","94528","","null","","","null","","","","","","","","","","","","","","","","",""
"","time_out","","html-keyboard-response","563","513214","0.0-1.0-791.0-0.0","0","0","94528","","null","","","null","87","","","","","","","","","","","","","","","",""
"","ITI","","html-keyboard-response","564","515204","0.0-1.0-792.0","0","0","94528","","null","","","null","87","","","","","","","","","","","","","","","NaN",""
"","S1","","html-keyboard-response","565","516206","0.0-1.0-794.0","0","0","94528","","null","","","null","88","","","","","","","","","","","","","","","",""
"","ISI","","html-keyboard-response","566","518333","0.0-1.0-795.0","0","0","94528","","null","","","null","88","NaN","","","","","","","","","","","","","","",""
"","S2","","html-keyboard-response","567","519203","0.0-1.0-796.0","0","0","94528","","null","","","null","88","","NaN","","","","","","","","","","","","","",""
"","response","","html-keyboard-response","568","522094","0.0-1.0-797.0-0.0","0","0","94528","","null","","","null","88","","","2","88","training","adjacent","DE","4","5","M.jpg","P.jpg","NaN","1","0","",""
"","too_slow_prompt","","html-keyboard-response","569","523203","0.0-1.0-799.0-0.0","1","0","94528","","null","","","null","","","","","","","","","","","","","","","","",""
"","time_out","","html-keyboard-response","570","526204","0.0-1.0-800.0-0.0","0","0","94528","","null","","","null","88","","","","","","","","","","","","","","","",""
"","ITI","","html-keyboard-response","571","528202","0.0-1.0-801.0","0","0","94528","","null","","","null","88","","","","","","","","","","","","","","","NaN",""
"","S1","","html-keyboard-response","572","529203","0.0-1.0-803.0","0","0","94528","","null","","","null","89","","","","","","","","","","","","","","","",""
"","ISI","","html-keyboard-response","573","531203","0.0-1.0-804.0","0","0","94528","","null","","","null","89","NaN","","","","","","","","","","","","","","",""
"","S2","","html-keyboard-response","574","532204","0.0-1.0-805.0","0","0","94528","","null","","","null","89","","NaN","","","","","","","","","","","","","",""
"","response","","html-keyboard-response","575","534202","0.0-1.0-806.0-0.0","0","0","94528","","null","","","null","89","","","2","89","training","adjacent","CB","3","2","O.jpg","N.jpg","NaN","0","0","",""
"","too_slow_prompt","","html-keyboard-response","576","536202","0.0-1.0-808.0-0.0","1","0","94528","","null","","","null","","","","","","","","","","","","","","","","",""
"","time_out","","html-keyboard-response","577","539203","0.0-1.0-809.0-0.0","0","0","94528","","null","","","null","89","","","","","","","","","","","","","","","",""
"","ITI","","html-keyboard-response","578","541203","0.0-1.0-810.0","0","0","94528","","null","","","null","89","","","","","","","","","","","","","","","NaN",""
"","S1","","html-keyboard-response","579","542203","0.0-1.0-812.0","0","0","94528","","null","","","null","90","","","","","","","","","","","","","","","",""
"","ISI","","html-keyboard-response","580","544204","0.0-1.0-813.0","0","0","94528","","null","","","null","90","NaN","","","","","","","","","","","","","","",""
"","S2","","html-keyboard-response","581","545214","0.0-1.0-814.0","0","0","94528","","null","","","null","90","","NaN","","","","","","","","","","","","","",""
