"success","ttype","start_time","trial_type","trial_index","time_elapsed","internal_node_id","warning","missed_checkup","PID","view_history","rt","responses","repeat_instructions","key_press","index","keypress_isi","keypress_S2","block","trial_num","phase","group_type","pair_type","S1_stim","S2_stim","S1_img","S2_img","S1_chosen","S1_higher","accuracy","keypress_iti","total_bonus_tally"
"true","full_screen","d04142023hr1608","fullscreen","0","13708","0.0-0.0","0","0","62951","","","","","","","","","","","","","","","","","","","","","",""
"","instructions","","instructions","1","63210","0.0-1.0-0.0-0.0","0","0","62951","[{""page_index"":0,""viewing_time"":4741},{""page_index"":1,""viewing_time"":26796},{""page_index"":2,""viewing_time"":14624},{""page_index"":3,""viewing_time"":3339}]","49500","","","","","","","","","","","","","","","","","","","",""
"","comprehension_check","","survey-multi-choice","2","87965","0.0-1.0-0.0-1.0","0","0","62951","","24751","{""Q0"":""True"",""Q1"":""K"",""Q2"":""Once the second image appears and while the screen 'MAKE A CHOICE' is shown"",""Q3"":""Green mark"",""Q4"":""either D or K""}","0","","","","","","","","","","","","","","","","","",""
"","start_exp","","html-keyboard-response","3","90501","0.0-1.0-1.0","0","0","62951","","2532","","","32","","","","","","","","","","","","","","","","",""
"","S1","","html-keyboard-response","4","90755","0.0-1.0-2.0","0","0","62951","","null","","","null","0","","","","","","","","","","","","","","","",""
"","ISI","","html-keyboard-response","5","91759","0.0-1.0-3.0","0","0","62951","","null","","","null","0","NaN","","","","","","","","","","","","","","",""
"","S2","","html-keyboard-response","6","92013","0.0-1.0-4.0","0","0","62951","","null","","","null","0","","NaN","","","","","","","","","","","","","",""
"","response","","html-keyboard-response","7","93766","0.0-1.0-5.0-0.0","0","0","62951","","null","","","null","0","","","1","0","training","adjacent","GF","7","6","P.jpg","O.jpg","NaN","0","0","",""
"","too_slow_prompt","","html-keyboard-response","8","94771","0.0-1.0-7.0-0.0","1","0","62951","","null","","","null","","","","","","","","","","","","","","","","",""
"","time_out","","html-keyboard-response","9","96774","0.0-1.0-8.0-0.0","0","0","62951","","null","","","null","0","","","","","","","","","","","","","","","",""
"","ITI","","html-keyboard-response","10","97778","0.0-1.0-9.0","0","0","62951","","null","","","null","0","","","","","","","","","","","","","","","NaN",""
"","S1","","html-keyboard-response","11","98032","0.0-1.0-11.0","0","0","62951","","null","","","null","1","","","","","","","","","","","","","","","",""
"","ISI","","html-keyboard-response","12","99036","0.0-1.0-12.0","0","0","62951","","null","","","null","1","NaN","","","","","","","","","","","","","","",""
"","S2","","html-keyboard-response","13","99289","0.0-1.0-13.0","0","0","62951","","null","","","null","1","","NaN","","","","","","","","","","","","","",""
"","response","","html-keyboard-response","14","99550","0.0-1.0-14.0-0.0","0","0","62951","","259","","","68","1","","","1","1","training","adjacent","DE","4","5","M.jpg","R.jpg","0","1","0","",""
"","feedback","","html-keyboard-response","15","100552","0.0-1.0-15.0-0.0","0","0","62951","","null","","","null","1","","","","","","","","","","","","","","","",""
"","time_out","","html-keyboard-response","16","102554","0.0-1.0-17.0-0.0","0","0","62951","","null","","","null","1","","","","","","","","","","","","","","","",""
"","ITI","","html-keyboard-response","17","103559","0.0-1.0-18.0","0","0","62951","","null","","","null","1","","","","","","","","","","","","","","","NaN",""
"","S1","","html-keyboard-response","18","103812","0.0-1.0-20.0","0","0","62951","","null","","","null","2","","","","","","","","","","","","","","","",""
"","ISI","","html-keyboard-response","19","104815","0.0-1.0-21.0","0","0","62951","","null","","","null","2","NaN","","","","","","","","","","","","","","",""
"","S2","","html-keyboard-response","20","105049","0.0-1.0-22.0","0","0","62951","","232","","","68","2","","d","1","2","training","adjacent","BA","2","1","N.jpg","L.jpg","0","0","1","",""
"","feedback","","html-keyboard-response","21","106053","0.0-1.0-24.0-0.0","0","0","62951","","null","","","null","2","","","","","","","","","","","","","","","",""
"","ITI","","html-keyboard-response","22","107056","0.0-1.0-27.0","0","0","62951","","null","","","null","2","","","","","","","","","","","","","","","NaN",""
"","S1","","html-keyboard-response","23","107309","0.0-1.0-29.0","0","0","62951","","null","","","null","3","","","","","","","","","","","","","","","",""
"","ISI","","html-keyboard-response","24","108312","0.0-1.0-30.0","0","0","62951","","null","","","null","3","NaN","","","","","","","","","","","","","","",""
"","S2","","html-keyboard-response","25","108566","0.0-1.0-31.0","0","0","62951","","null","","","null","3","","NaN","","","","","","","","","","","","","",""
"","response","","html-keyboard-response","26","108980","0.0-1.0-32.0-0.0","0","0","62951","","412","","","75","3","","","1","3","training","adjacent","DE","4","5","M.jpg","R.jpg","1","1","1","",""
"","feedback","","html-keyboard-response","27","109984","0.0-1.0-33.0-0.0","0","0","62951","","null","","","null","3","","","","","","","","","","","","","","","",""
"","ITI","","html-keyboard-response","28","110987","0.0-1.0-36.0","0","0","62951","","null","","","null","3","","","","","","","","","","","","","","","NaN",""
"","S1","","html-keyboard-response","29","111240","0.0-1.0-38.0","0","0","62951","","null","","","null","4","","","","","","","","","","","","","","","",""
"","ISI","","html-keyboard-response","30","112243","0.0-1.0-39.0","0","0","62951","","null","","","null","4","NaN","","","","","","","","","","","","","","",""
"","S2","","html-keyboard-response","31","112498","0.0-1.0-40.0","0","0","62951","","null","","","null","4","","NaN","","","","","","","","","","","","","",""
"","response","","html-keyboard-response","32","112836","0.0-1.0-41.0-0.0","0","0","62951","","336","","","68","4","","","1","4","training","adjacent","DC","4","3","M.jpg","Q.jpg","0","0","1","",""
"","feedback","","html-keyboard-response","33","113839","0.0-1.0-42.0-0.0","0","0","62951","","null","","","null","4","","","","","","","","","","","","","","","",""
"","ITI","","html-keyboard-response","34","114842","0.0-1.0-45.0","0","0","62951","","null","","","null","4","","","","","","","","","","","","","","","NaN",""
"","S1","","html-keyboard-response","35","115097","0.0-1.0-47.0","0","0","62951","","null","","","null","5","","","","","","","","","","","","","","","",""
"","ISI","","html-keyboard-response","36","116099","0.0-1.0-48.0","0","0","62951","","null","","","null","5","NaN","","","","","","","","","","","","","","",""
"","S2","","html-keyboard-response","37","116353","0.0-1.0-49.0","0","0","62951","","null","","","null","5","","NaN","","","","","","","","","","","","","",""
"","response","","html-keyboard-response","38","116676","0.0-1.0-50.0-0.0","0","0","62951","","321","","","75","5","","","1","5","training","adjacent","GF","7","6","P.jpg","O.jpg","1","0","0","",""
"","feedback","","html-keyboard-response","39","117680","0.0-1.0-51.0-0.0","0","0","62951","","null","","","null","5","","","","","","","","","","","","","","","",""
"","time_out","","html-keyboard-response","40","119685","0.0-1.0-53.0-0.0","0","0","62951","","null","","","null","5","","","","","","","","","","","","","","","",""
"","ITI","","html-keyboard-response","41","120689","0.0-1.0-54.0","0","0","62951","","null","","","null","5","","","","","","","","","","","","","","","NaN",""
"","S1","","html-keyboard-response","42","120943","0.0-1.0-56.0","0","0","62951","","null","","","null","6","","","","","","","","","","","","","","","",""
"","ISI","","html-keyboard-response","43","121946","0.0-1.0-57.0","0","0","62951","","null","","","null","6","NaN","","","","","","","","","","","","","","",""
"","S2","","html-keyboard-response","44","122201","0.0-1.0-58.0","0","0","62951","","null","","","null","6","","NaN","","","","","","","","","","","","","",""
"","response","","html-keyboard-response","45","122489","0.0-1.0-59.0-0.0","0","0","62951","","287","","","68","6","","","1","6","training","adjacent","ED","5","4","R.jpg","M.jpg","0","0","1","",""
"","feedback","","html-keyboard-response","46","123490","0.0-1.0-60.0-0.0","0","0","62951","","null","","","null","6","","","","","","","","","","","","","","","",""
"","ITI","","html-keyboard-response","47","124493","0.0-1.0-63.0","0","0","62951","","null","","","null","6","","","","","","","","","","","","","","","NaN",""
"","S1","","html-keyboard-response","48","124745","0.0-1.0-65.0","0","0","62951","","null","","","null","7","","","","","","","","","","","","","","","",""
"","ISI","","html-keyboard-response","49","125754","0.0-1.0-66.0","0","0","62951","","null","","","null","7","NaN","","","","","","","","","","","","","","",""
"","S2","","html-keyboard-response","50","126008","0.0-1.0-67.0","0","0","62951","","null","","","null","7","","NaN","","","","","","","","","","","","","",""
"","response","","html-keyboard-response","51","126346","0.0-1.0-68.0-0.0","0","0","62951","","336","","","75","7","","","1","7","training","adjacent","FG","6","7","O.jpg","P.jpg","1","1","1","",""
"","feedback","","html-keyboard-response","52","127349","0.0-1.0-69.0-0.0","0","0","62951","","null","","","null","7","","","","","","","","","","","","","","","",""
"","ITI","","html-keyboard-response","53","128353","0.0-1.0-72.0","0","0","62951","","null","","","null","7","","","","","","","","","","","","","","","NaN",""
"","S1","","html-keyboard-response","54","128605","0.0-1.0-74.0","0","0","62951","","null","","","null","8","","","","","","","","","","","","","","","",""
"","ISI","","html-keyboard-response","55","129608","0.0-1.0-75.0","0","0","62951","","null","","","null","8","NaN","","","","","","","","","","","","","","",""
"","S2","","html-keyboard-response","56","129862","0.0-1.0-76.0","0","0","62951","","null","","","null","8","","NaN","","","","","","","","","","","","","",""
"","response","","html-keyboard-response","57","130402","0.0-1.0-77.0-0.0","0","0","62951","","538","","","68","8","","","1","8","training","adjacent","CD","3","4","Q.jpg","M.jpg","0","1","0","",""
"","feedback","","html-keyboard-response","58","131405","0.0-1.0-78.0-0.0","0","0","62951","","null","","","null","8","","","","","","","","","","","","","","","",""
"","time_out","","html-keyboard-response","59","133409","0.0-1.0-80.0-0.0","0","0","62951","","null","","","null","8","","","","","","","","","","","","","","","",""
"","ITI","","html-keyboard-response","60","134411","0.0-1.0-81.0","0","0","62951","","null","","","null","8","","","","","","","","","","","","","","","NaN",""
"","S1","","html-keyboard-response","61","134666","0.0-1.0-83.0","0","0","62951","","null","","","null","9","","","","","","","","","","","","","","","",""
"","ISI","","html-keyboard-response","62","135669","0.0-1.0-84.0","0","0","62951","","null","","","null","9","NaN","","","","","","","","","","","","","","",""
"","S2","","html-keyboard-response","63","135922","0.0-1.0-85.0","0","0","62951","","null","","","null","9","","NaN","","","","","","","","","","","","","",""
"","response","","html-keyboard-response","64","136140","0.0-1.0-86.0-0.0","0","0","62951","","215","","","75","9","","","1","9","training","adjacent","ED","5","4","R.jpg","M.jpg","1","0","0","",""
"","feedback","","html-keyboard-response","65","137143","0.0-1.0-87.0-0.0","0","0","62951","","null","","","null","9","","","","","","","","","","","","","","","",""
"","time_out","","html-keyboard-response","66","139146","0.0-1.0-89.0-0.0","0","0","62951","","null","","","null","9","","","","","","","","","","","","","","","",""
"","ITI","","html-keyboard-response","67","140149","0.0-1.0-90.0","0","0","62951","","null","","","null","9","","","","","","","","","","","","","","","NaN",""
"","S1","","html-keyboard-response","68","140403","0.0-1.0-92.0","0","0","62951","","null","","","null","10","","","","","","","","","","","","","","","",""
"","ISI","","html-keyboard-response","69","141407","0.0-1.0-93.0","0","0","62951","","null","","","null","10","NaN","","","","","","","","","","","","","","",""
"","S2","","html-keyboard-response","70","141659","0.0-1.0-94.0","0","0","62951","","null","","","null","10","","NaN","","","","","","","","","","","","","",""
"","response","","html-keyboard-response","71","141875","0.0-1.0-95.0-0.0","0","0","62951","","215","","","68","10","","","1","10","training","adjacent","EF","5","6","R.jpg","O.jpg","0","1","0","",""
"","feedback","","html-keyboard-response","72","142879","0.0-1.0-96.0-0.0","0","0","62951","","null","","","null","10","","","","","","","","","","","","","","","",""
"","time_out","","html-keyboard-response","73","144883","0.0-1.0-98.0-0.0","0","0","62951","","null","","","null","10","","","","","","","","","","","","","","","",""
"","ITI","","html-keyboard-response","74","145887","0.0-1.0-99.0","0","0","62951","","null","","","null","10","","","","","","","","","","","","","","","NaN",""
"","S1","","html-keyboard-response","75","146139","0.0-1.0-101.0","0","0","62951","","null","","","null","11","","","","","","","","","","","","","","","",""
"","ISI","","html-keyboard-response","76","147143","0.0-1.0-102.0","0","0","62951","","null","","","null","11","NaN","","","","","","","","","","","","","","",""
"","S2","","html-keyboard-response","77","147397","0.0-1.0-103.0","0","0","62951","","null","","","null","11","","NaN","","","","","","","","","","","","","",""
"","response","","html-keyboard-response","78","147690","0.0-1.0-104.0-0.0","0","0","62951","","291","","","75","11","","","1","11","training","adjacent","BC","2","3","N.jpg","Q.jpg","1","1","1","",""
"","feedback","","html-keyboard-response","79","148693","0.0-1.0-105.0-0.0","0","0","62951","","null","","","null","11","","","","","","","","","","","","","","","",""
"","ITI","","html-keyboard-response","80","149696","0.0-1.0-108.0","0","0","62951","","null","","","null","11","","","","","","","","","","","","","","","NaN",""
"","S1","","html-keyboard-response","81","149949","0.0-1.0-110.0","0","0","62951","","null","","","null","12","","","","","","","","","","","","","","","",""
"","ISI","","html-keyboard-response","82","150952","0.0-1.0-111.0","0","0","62951","","null","","","null","12","NaN","","","","","","","","","","","","","","",""
"","S2","","html-keyboard-response","83","151206","0.0-1.0-112.0","0","0","62951","","null","","","null","12","","NaN","","","","","","","","","","","","","",""
"","response","","html-keyboard-response","84","151965","0.0-1.0-113.0-0.0","0","0","62951","","757","","","68","12","","","1","12","training","adjacent","CB","3","2","Q.jpg","N.jpg","0","0","1","",""
"","feedback","","html-keyboard-response","85","152970","0.0-1.0-114.0-0.0","0","0","62951","","null","","","null","12","","","","","","","","","","","","","","","",""
"","ITI","","html-keyboard-response","86","153973","0.0-1.0-117.0","0","0","62951","","null","","","null","12","","","","","","","","","","","","","","","NaN",""
"","S1","","html-keyboard-response","87","154226","0.0-1.0-119.0","0","0","62951","","null","","","null","13","","","","","","","","","","","","","","","",""
"","ISI","","html-keyboard-response","88","155229","0.0-1.0-120.0","0","0","62951","","null","","","null","13","NaN","","","","","","","","","","","","","","",""
"","S2","","html-keyboard-response","89","155483","0.0-1.0-121.0","0","0","62951","","null","","","null","13","","NaN","","","","","","","","","","","","","",""
"","response","","html-keyboard-response","90","156010","0.0-1.0-122.0-0.0","0","0","62951","","525","","","75","13","","","1","13","training","adjacent","FE","6","5","O.jpg","R.jpg","1","0","0","",""
"","feedback","","html-keyboard-response","91","157013","0.0-1.0-123.0-0.0","0","0","62951","","null","","","null","13","","","","","","","","","","","","","","","",""
"","time_out","","html-keyboard-response","92","159016","0.0-1.0-125.0-0.0","0","0","62951","","null","","","null","13","","","","","","","","","","","","","","","",""
"","ITI","","html-keyboard-response","93","160020","0.0-1.0-126.0","0","0","62951","","null","","","null","13","","","","","","","","","","","","","","","NaN",""
"","S1","","html-keyboard-response","94","160273","0.0-1.0-128.0","0","0","62951","","null","","","null","14","","","","","","","","","","","","","","","",""
"","ISI","","html-keyboard-response","95","161276","0.0-1.0-129.0","0","0","62951","","null","","","null","14","NaN","","","","","","","","","","","","","","",""
"","S2","","html-keyboard-response","96","161529","0.0-1.0-130.0","0","0","62951","","null","","","null","14","","NaN","","","","","","","","","","","","","",""
"","response","","html-keyboard-response","97","162140","0.0-1.0-131.0-0.0","0","0","62951","","608","","","68","14","","","1","14","training","adjacent","EF","5","6","R.jpg","O.jpg","0","1","0","",""
"","feedback","","html-keyboard-response","98","163143","0.0-1.0-132.0-0.0","0","0","62951","","null","","","null","14","","","","","","","","","","","","","","","",""
"","time_out","","html-keyboard-response","99","165146","0.0-1.0-134.0-0.0","0","0","62951","","null","","","null","14","","","","","","","","","","","","","","","",""
"","ITI","","html-keyboard-response","100","166149","0.0-1.0-135.0","0","0","62951","","null","","","null","14","","","","","","","","","","","","","","","NaN",""
"","S1","","html-keyboard-response","101","166404","0.0-1.0-137.0","0","0","62951","","null","","","null","15","","","","","","","","","","","","","","","",""
"","ISI","","html-keyboard-response","102","167407","0.0-1.0-138.0","0","0","62951","","null","","","null","15","NaN","","","","","","","","","","","","","","",""
"","S2","","html-keyboard-response","103","167662","0.0-1.0-139.0","0","0","62951","","null","","","null","15","","NaN","","","","","","","","","","","","","",""
"","response","","html-keyboard-response","104","168252","0.0-1.0-140.0-0.0","0","0","62951","","588","","","75","15","","","1","15","training","adjacent","EF","5","6","R.jpg","O.jpg","1","1","1","",""
"","feedback","","html-keyboard-response","105","169255","0.0-1.0-141.0-0.0","0","0","62951","","null","","","null","15","","","","","","","","","","","","","","","",""
"","ITI","","html-keyboard-response","106","170258","0.0-1.0-144.0","0","0","62951","","null","","","null","15","","","","","","","","","","","","","","","NaN",""
"","S1","","html-keyboard-response","107","170512","0.0-1.0-146.0","0","0","62951","","null","","","null","16","","","","","","","","","","","","","","","",""
"","ISI","","html-keyboard-response","108","171515","0.0-1.0-147.0","0","0","62951","","null","","","null","16","NaN","","","","","","","","","","","","","","",""
"","S2","","html-keyboard-response","109","171769","0.0-1.0-148.0","0","0","62951","","null","","","null","16","","NaN","","","","","","","","","","","","","",""
"","response","","html-keyboard-response","110","172171","0.0-1.0-149.0-0.0","0","0","62951","","400","","","75","16","","","1","16","training","adjacent","FG","6","7","O.jpg","P.jpg","1","1","1","",""
"","feedback","","html-keyboard-response","111","173174","0.0-1.0-150.0-0.0","0","0","62951","","null","","","null","16","","","","","","","","","","","","","","","",""
"","ITI","","html-keyboard-response","112","174178","0.0-1.0-153.0","0","0","62951","","null","","","null","16","","","","","","","","","","","","","","","NaN",""
"","S1","","html-keyboard-response","113","174431","0.0-1.0-155.0","0","0","62951","","null","","","null","17","","","","","","","","","","","","","","","",""
"","ISI","","html-keyboard-response","114","175434","0.0-1.0-156.0","0","0","62951","","null","","","null","17","NaN","","","","","","","","","","","","","","",""
"","S2","","html-keyboard-response","115","175688","0.0-1.0-157.0","0","0","62951","","null","","","null","17","","NaN","","","","","","","","","","","","","",""
"","response","","html-keyboard-response","116","176155","0.0-1.0-158.0-0.0","0","0","62951","","465","","","68","17","","","1","17","training","adjacent","CD","3","4","Q.jpg","M.jpg","0","1","0","",""
"","feedback","","html-keyboard-response","117","177158","0.0-1.0-159.0-0.0","0","0","62951","","null","","","null","17","","","","","","","","","","","","","","","",""
"","time_out","","html-keyboard-response","118","179161","0.0-1.0-161.0-0.0","0","0","62951","","null","","","null","17","","","","","","","","","","","","","","","",""
"","ITI","","html-keyboard-response","119","180176","0.0-1.0-162.0","0","0","62951","","null","","","null","17","","","","","","","","","","","","","","","NaN",""
"","S1","","html-keyboard-response","120","180430","0.0-1.0-164.0","0","0","62951","","null","","","null","18","","","","","","","","","","","","","","","",""
"","ISI","","html-keyboard-response","121","181434","0.0-1.0-165.0","0","0","62951","","null","","","null","18","NaN","","","","","","","","","","","","","","",""
"","S2","","html-keyboard-response","122","181688","0.0-1.0-166.0","0","0","62951","","null","","","null","18","","NaN","","","","","","","","","","","","","",""
"","response","","html-keyboard-response","123","182163","0.0-1.0-167.0-0.0","0","0","62951","","472","","","75","18","","","1","18","training","adjacent","FE","6","5","O.jpg","R.jpg","1","0","0","",""
"","feedback","","html-keyboard-response","124","183167","0.0-1.0-168.0-0.0","0","0","62951","","null","","","null","18","","","","","","","","","","","","","","","",""
"","time_out","","html-keyboard-response","125","185170","0.0-1.0-170.0-0.0","0","0","62951","","null","","","null","18","","","","","","","","","","","","","","","",""
"","ITI","","html-keyboard-response","126","186173","0.0-1.0-171.0","0","0","62951","","null","","","null","18","","","","","","","","","","","","","","","NaN",""
"","S1","","html-keyboard-response","127","186426","0.0-1.0-173.0","0","0","62951","","null","","","null","19","","","","","","","","","","","","","","","",""
"","ISI","","html-keyboard-response","128","187429","0.0-1.0-174.0","0","0","62951","","null","","","null","19","NaN","","","","","","","","","","","","","","",""
"","S2","","html-keyboard-response","129","187683","0.0-1.0-175.0","0","0","62951","","null","","","null","19","","NaN","","","","","","","","","","","","","",""
"","response","","html-keyboard-response","130","187867","0.0-1.0-176.0-0.0","0","0","62951","","182","","","68","19","","","1","19","training","adjacent","BC","2","3","N.jpg","Q.jpg","0","1","0","",""
"","feedback","","html-keyboard-response","131","188871","0.0-1.0-177.0-0.0","0","0","62951","","null","","","null","19","","","","","","","","","","","","","","","",""
"","time_out","","html-keyboard-response","132","190874","0.0-1.0-179.0-0.0","0","0","62951","","null","","","null","19","","","","","","","","","","","","","","","",""
"","ITI","","html-keyboard-response","133","191877","0.0-1.0-180.0","0","0","62951","","null","","","null","19","","","","","","","","","","","","","","","NaN",""
"","S1","","html-keyboard-response","134","192131","0.0-1.0-182.0","0","0","62951","","null","","","null","20","","","","","","","","","","","","","","","",""
"","ISI","","html-keyboard-response","135","193134","0.0-1.0-183.0","0","0","62951","","null","","","null","20","NaN","","","","","","","","","","","","","","",""
"","S2","","html-keyboard-response","136","193388","0.0-1.0-184.0","0","0","62951","","null","","","null","20","","NaN","","","","","","","","","","","","","",""
"","response","","html-keyboard-response","137","193705","0.0-1.0-185.0-0.0","0","0","62951","","315","","","75","20","","","1","20","training","adjacent","CB","3","2","Q.jpg","N.jpg","1","0","0","",""
"","feedback","","html-keyboard-response","138","194708","0.0-1.0-186.0-0.0","0","0","62951","","null","","","null","20","","","","","","","","","","","","","","","",""
"","time_out","","html-keyboard-response","139","196712","0.0-1.0-188.0-0.0","0","0","62951","","null","","","null","20","","","","","","","","","","","","","","","",""
"","ITI","","html-keyboard-response","140","197715","0.0-1.0-189.0","0","0","62951","","null","","","null","20","","","","","","","","","","","","","","","NaN",""
"","S1","","html-keyboard-response","141","197969","0.0-1.0-191.0","0","0","62951","","null","","","null","21","","","","","","","","","","","","","","","",""
"","ISI","","html-keyboard-response","142","198971","0.0-1.0-192.0","0","0","62951","","null","","","null","21","NaN","","","","","","","","","","","","","","",""
"","S2","","html-keyboard-response","143","199228","0.0-1.0-193.0","0","0","62951","","null","","","null","21","","NaN","","","","","","","","","","","","","",""
"","response","","html-keyboard-response","144","199875","0.0-1.0-194.0-0.0","0","0","62951","","645","","","68","21","","","1","21","training","adjacent","AB","1","2","L.jpg","N.jpg","0","1","0","",""
"","feedback","","html-keyboard-response","145","200879","0.0-1.0-195.0-0.0","0","0","62951","","null","","","null","21","","","","","","","","","","","","","","","",""
"","time_out","","html-keyboard-response","146","202883","0.0-1.0-197.0-0.0","0","0","62951","","null","","","null","21","","","","","","","","","","","","","","","",""
"","ITI","","html-keyboard-response","147","203886","0.0-1.0-198.0","0","0","62951","","null","","","null","21","","","","","","","","","","","","","","","NaN",""
"","S1","","html-keyboard-response","148","204140","0.0-1.0-200.0","0","0","62951","","null","","","null","22","","","","","","","","","","","","","","","",""
"","ISI","","html-keyboard-response","149","205144","0.0-1.0-201.0","0","0","62951","","null","","","null","22","NaN","","","","","","","","","","","","","","",""
"","S2","","html-keyboard-response","150","205397","0.0-1.0-202.0","0","0","62951","","null","","","null","22","","NaN","","","","","","","","","","","","","",""
"","response","","html-keyboard-response","151","205675","0.0-1.0-203.0-0.0","0","0","62951","","275","","","75","22","","","1","22","training","adjacent","DC","4","3","M.jpg","Q.jpg","1","0","0","",""
"","feedback","","html-keyboard-response","152","206679","0.0-1.0-204.0-0.0","0","0","62951","","null","","","null","22","","","","","","","","","","","","","","","",""
"","time_out","","html-keyboard-response","153","208682","0.0-1.0-206.0-0.0","0","0","62951","","null","","","null","22","","","","","","","","","","","","","","","",""
"","ITI","","html-keyboard-response","154","209686","0.0-1.0-207.0","0","0","62951","","null","","","null","22","","","","","","","","","","","","","","","NaN",""
"","S1","","html-keyboard-response","155","209939","0.0-1.0-209.0","0","0","62951","","null","","","null","23","","","","","","","","","","","","","","","",""
"","ISI","","html-keyboard-response","156","210942","0.0-1.0-210.0","0","0","62951","","null","","","null","23","NaN","","","","","","","","","","","","","","",""
"","S2","","html-keyboard-response","157","211207","0.0-1.0-211.0","0","0","62951","","null","","","null","23","","NaN","","","","","","","","","","","","","",""
"","response","","html-keyboard-response","158","211523","0.0-1.0-212.0-0.0","0","0","62951","","314","","","68","23","","","1","23","training","adjacent","BA","2","1","N.jpg","L.jpg","0","0","1","",""
"","feedback","","html-keyboard-response","159","212527","0.0-1.0-213.0-0.0","0","0","62951","","null","","","null","23","","","","","","","","","","","","","","","",""
"","ITI","","html-keyboard-response","160","213530","0.0-1.0-216.0","0","0","62951","","null","","","null","23","","","","","","","","","","","","","","","NaN",""
"","S1","","html-keyboard-response","161","213783","0.0-1.0-218.0","0","0","62951","","null","","","null","24","","","","","","","","","","","","","","","",""
"","ISI","","html-keyboard-response","162","214794","0.0-1.0-219.0","0","0","62951","","null","","","null","24","NaN","","","","","","","","","","","","","","",""
"","S2","","html-keyboard-response","163","215058","0.0-1.0-220.0","0","0","62951","","null","","","null","24","","NaN","","","","","","","","","","","","","",""
"","response","","html-keyboard-response","164","215427","0.0-1.0-221.0-0.0","0","0","62951","","368","","","68","24","","","1","24","training","adjacent","FE","6","5","O.jpg","R.jpg","0","0","1","",""
"","feedback","","html-keyboard-response","165","216443","0.0-1.0-222.0-0.0","0","0","62951","","null","","","null","24","","","","","","","","","","","","","","","",""
"","ITI","","html-keyboard-response","166","217447","0.0-1.0-225.0","0","0","62951","","null","","","null","24","","","","","","","","","","","","","","","NaN",""
"","S1","","html-keyboard-response","167","217700","0.0-1.0-227.0","0","0","62951","","null","","","null","25","","","","","","","","","","","","","","","",""
"","ISI","","html-keyboard-response","168","218703","0.0-1.0-228.0","0","0","62951","","null","","","null","25","NaN","","","","","","","","","","","","","","",""
"","S2","","html-keyboard-response","169","218957","0.0-1.0-229.0","0","0","62951","","null","","","null","25","","NaN","","","","","","","","","","","","","",""
"","response","","html-keyboard-response","170","219363","0.0-1.0-230.0-0.0","0","0","62951","","403","","","68","25","","","1","25","training","adjacent","AB","1","2","L.jpg","N.jpg","0","1","0","",""
"","feedback","","html-keyboard-response","171","220366","0.0-1.0-231.0-0.0","0","0","62951","","null","","","null","25","","","","","","","","","","","","","","","",""
"","time_out","","html-keyboard-response","172","222370","0.0-1.0-233.0-0.0","0","0","62951","","null","","","null","25","","","","","","","","","","","","","","","",""
"","ITI","","html-keyboard-response","173","223373","0.0-1.0-234.0","0","0","62951","","null","","","null","25","","","","","","","","","","","","","","","NaN",""
"","S1","","html-keyboard-response","174","223628","0.0-1.0-236.0","0","0","62951","","null","","","null","26","","","","","","","","","","","","","","","",""
"","ISI","","html-keyboard-response","175","224631","0.0-1.0-237.0","0","0","62951","","null","","","null","26","NaN","","","","","","","","","","","","","","",""
"","S2","","html-keyboard-response","176","224885","0.0-1.0-238.0","0","0","62951","","null","","","null","26","","NaN","","","","","","","","","","","","","",""
"","response","","html-keyboard-response","177","225129","0.0-1.0-239.0-0.0","0","0","62951","","243","","","75","26","","","1","26","training","adjacent","DE","4","5","M.jpg","R.jpg","1","1","1","",""
"","feedback","","html-keyboard-response","178","226132","0.0-1.0-240.0-0.0","0","0","62951","","null","","","null","26","","","","","","","","","","","","","","","",""
"","ITI","","html-keyboard-response","179","227135","0.0-1.0-243.0","0","0","62951","","null","","","null","26","","","","","","","","","","","","","","","NaN",""
"","S1","","html-keyboard-response","180","227390","0.0-1.0-245.0","0","0","62951","","null","","","null","27","","","","","","","","","","","","","","","",""
"","ISI","","html-keyboard-response","181","228393","0.0-1.0-246.0","0","0","62951","","null","","","null","27","NaN","","","","","","","","","","","","","","",""
"","S2","","html-keyboard-response","182","228647","0.0-1.0-247.0","0","0","62951","","null","","","null","27","","NaN","","","","","","","","","","","","","",""
"","response","","html-keyboard-response","183","228842","0.0-1.0-248.0-0.0","0","0","62951","","192","","","75","27","","","1","27","training","adjacent","BC","2","3","N.jpg","Q.jpg","1","1","1","",""
"","feedback","","html-keyboard-response","184","229845","0.0-1.0-249.0-0.0","0","0","62951","","null","","","null","27","","","","","","","","","","","","","","","",""
"","ITI","","html-keyboard-response","185","230849","0.0-1.0-252.0","0","0","62951","","null","","","null","27","","","","","","","","","","","","","","","NaN",""
"","S1","","html-keyboard-response","186","231102","0.0-1.0-254.0","0","0","62951","","null","","","null","28","","","","","","","","","","","","","","","",""
"","ISI","","html-keyboard-response","187","232105","0.0-1.0-255.0","0","0","62951","","null","","","null","28","NaN","","","","","","","","","","","","","","",""
"","S2","","html-keyboard-response","188","232358","0.0-1.0-256.0","0","0","62951","","null","","","null","28","","NaN","","","","","","","","","","","","","",""
"","response","","html-keyboard-response","189","232514","0.0-1.0-257.0-0.0","0","0","62951","","153","","","75","28","","","1","28","training","adjacent","FG","6","7","O.jpg","P.jpg","1","1","1","",""
"","feedback","","html-keyboard-response","190","233517","0.0-1.0-258.0-0.0","0","0","62951","","null","","","null","28","","","","","","","","","","","","","","","",""
"","ITI","","html-keyboard-response","191","234520","0.0-1.0-261.0","0","0","62951","","null","","","null","28","","","","","","","","","","","","","","","NaN",""
"","S1","","html-keyboard-response","192","234774","0.0-1.0-263.0","0","0","62951","","null","","","null","29","","","","","","","","","","","","","","","",""
"","ISI","","html-keyboard-response","193","235778","0.0-1.0-264.0","0","0","62951","","null","","","null","29","NaN","","","","","","","","","","","","","","",""
"","S2","","html-keyboard-response","194","236032","0.0-1.0-265.0","0","0","62951","","null","","","null","29","","NaN","","","","","","","","","","","","","",""
"","response","","html-keyboard-response","195","236091","0.0-1.0-266.0-0.0","0","0","62951","","56","","","68","29","","","1","29","training","adjacent","EF","5","6","R.jpg","O.jpg","0","1","0","",""
"","feedback","","html-keyboard-response","196","237095","0.0-1.0-267.0-0.0","0","0","62951","","null","","","null","29","","","","","","","","","","","","","","","",""
"","time_out","","html-keyboard-response","197","239099","0.0-1.0-269.0-0.0","0","0","62951","","null","","","null","29","","","","","","","","","","","","","","","",""
"","ITI","","html-keyboard-response","198","240102","0.0-1.0-270.0","0","0","62951","","null","","","null","29","","","","","","","","","","","","","","","NaN",""
"","S1","","html-keyboard-response","199","240355","0.0-1.0-272.0","0","0","62951","","null","","","null","30","","","","","","","","","","","","","","","",""
"","ISI","","html-keyboard-response","200","241358","0.0-1.0-273.0","0","0","62951","","null","","","null","30","NaN","","","","","","","","","","","","","","",""
"","S2","","html-keyboard-response","201","241612","0.0-1.0-274.0","0","0","62951","","null","","","null","30","","NaN","","","","","","","","","","","","","",""
"","response","","html-keyboard-response","202","241834","0.0-1.0-275.0-0.0","0","0","62951","","221","","","75","30","","","1","30","training","adjacent","FG","6","7","O.jpg","P.jpg","1","1","1","",""
"","feedback","","html-keyboard-response","203","242838","0.0-1.0-276.0-0.0","0","0","62951","","null","","","null","30","","","","","","","","","","","","","","","",""
"","ITI","","html-keyboard-response","204","243841","0.0-1.0-279.0","0","0","62951","","null","","","null","30","","","","","","","","","","","","","","","NaN",""
"","S1","","html-keyboard-response","205","244094","0.0-1.0-281.0","0","0","62951","","null","","","null","31","","","","","","","","","","","","","","","",""
"","ISI","","html-keyboard-response","206","245098","0.0-1.0-282.0","0","0","62951","","null","","","null","31","NaN","","","","","","","","","","","","","","",""
"","S2","","html-keyboard-response","207","245352","0.0-1.0-283.0","0","0","62951","","null","","","null","31","","NaN","","","","","","","","","","","","","",""
"","response","","html-keyboard-response","208","245698","0.0-1.0-284.0-0.0","0","0","62951","","345","","","75","31","","","1","31","training","adjacent","BC","2","3","N.jpg","Q.jpg","1","1","1","",""
"","feedback","","html-keyboard-response","209","246702","0.0-1.0-285.0-0.0","0","0","62951","","null","","","null","31","","","","","","","","","","","","","","","",""
"","ITI","","html-keyboard-response","210","247705","0.0-1.0-288.0","0","0","62951","","null","","","null","31","","","","","","","","","","","","","","","NaN",""
"","S1","","html-keyboard-response","211","247959","0.0-1.0-290.0","0","0","62951","","null","","","null","32","","","","","","","","","","","","","","","",""
"","ISI","","html-keyboard-response","212","248963","0.0-1.0-291.0","0","0","62951","","null","","","null","32","NaN","","","","","","","","","","","","","","",""
"","S2","","html-keyboard-response","213","249216","0.0-1.0-292.0","0","0","62951","","null","","","null","32","","NaN","","","","","","","","","","","","","",""
"","response","","html-keyboard-response","214","249745","0.0-1.0-293.0-0.0","0","0","62951","","528","","","68","32","","","1","32","training","adjacent","CD","3","4","Q.jpg","M.jpg","0","1","0","",""
"","feedback","","html-keyboard-response","215","250748","0.0-1.0-294.0-0.0","0","0","62951","","null","","","null","32","","","","","","","","","","","","","","","",""
"","time_out","","html-keyboard-response","216","252752","0.0-1.0-296.0-0.0","0","0","62951","","null","","","null","32","","","","","","","","","","","","","","","",""
"","ITI","","html-keyboard-response","217","253755","0.0-1.0-297.0","0","0","62951","","null","","","null","32","","","","","","","","","","","","","","","NaN",""
"","S1","","html-keyboard-response","218","254010","0.0-1.0-299.0","0","0","62951","","null","","","null","33","","","","","","","","","","","","","","","",""
"","ISI","","html-keyboard-response","219","255013","0.0-1.0-300.0","0","0","62951","","null","","","null","33","NaN","","","","","","","","","","","","","","",""
"","S2","","html-keyboard-response","220","255267","0.0-1.0-301.0","0","0","62951","","null","","","null","33","","NaN","","","","","","","","","","","","","",""
"","response","","html-keyboard-response","221","255699","0.0-1.0-302.0-0.0","0","0","62951","","429","","","75","33","","","1","33","training","adjacent","AB","1","2","L.jpg","N.jpg","1","1","1","",""
"","feedback","","html-keyboard-response","222","256703","0.0-1.0-303.0-0.0","0","0","62951","","null","","","null","33","","","","","","","","","","","","","","","",""
"","ITI","","html-keyboard-response","223","257707","0.0-1.0-306.0","0","0","62951","","null","","","null","33","","","","","","","","","","","","","","","NaN",""
"","S1","","html-keyboard-response","224","257962","0.0-1.0-308.0","0","0","62951","","null","","","null","34","","","","","","","","","","","","","","","",""
"","ISI","","html-keyboard-response","225","258965","0.0-1.0-309.0","0","0","62951","","null","","","null","34","NaN","","","","","","","","","","","","","","",""
"","S2","","html-keyboard-response","226","259218","0.0-1.0-310.0","0","0","62951","","null","","","null","34","","NaN","","","","","","","","","","","","","",""
"","response","","html-keyboard-response","227","259579","0.0-1.0-311.0-0.0","0","0","62951","","358","","","75","34","","","1","34","training","adjacent","ED","5","4","R.jpg","M.jpg","1","0","0","",""
"","feedback","","html-keyboard-response","228","260582","0.0-1.0-312.0-0.0","0","0","62951","","null","","","null","34","","","","","","","","","","","","","","","",""
"","time_out","","html-keyboard-response","229","262585","0.0-1.0-314.0-0.0","0","0","62951","","null","","","null","34","","","","","","","","","","","","","","","",""
"","ITI","","html-keyboard-response","230","263588","0.0-1.0-315.0","0","0","62951","","null","","","null","34","","","","","","","","","","","","","","","NaN",""
"","S1","","html-keyboard-response","231","263841","0.0-1.0-317.0","0","0","62951","","null","","","null","35","","","","","","","","","","","","","","","",""
"","ISI","","html-keyboard-response","232","264845","0.0-1.0-318.0","0","0","62951","","null","","","null","35","NaN","","","","","","","","","","","","","","",""
"","S2","","html-keyboard-response","233","265099","0.0-1.0-319.0","0","0","62951","","null","","","null","35","","NaN","","","","","","","","","","","","","",""
"","response","","html-keyboard-response","234","265597","0.0-1.0-320.0-0.0","0","0","62951","","495","","","68","35","","","1","35","training","adjacent","GF","7","6","P.jpg","O.jpg","0","0","1","",""
"","feedback","","html-keyboard-response","235","266600","0.0-1.0-321.0-0.0","0","0","62951","","null","","","null","35","","","","","","","","","","","","","","","",""
"","ITI","","html-keyboard-response","236","267603","0.0-1.0-324.0","0","0","62951","","null","","","null","35","","","","","","","","","","","","","","","NaN",""
"","S1","","html-keyboard-response","237","267857","0.0-1.0-326.0","0","0","62951","","null","","","null","36","","","","","","","","","","","","","","","",""
"","ISI","","html-keyboard-response","238","268860","0.0-1.0-327.0","0","0","62951","","null","","","null","36","NaN","","","","","","","","","","","","","","",""
"","S2","","html-keyboard-response","239","269114","0.0-1.0-328.0","0","0","62951","","null","","","null","36","","NaN","","","","","","","","","","","","","",""
"","response","","html-keyboard-response","240","269716","0.0-1.0-329.0-0.0","0","0","62951","","599","","","75","36","","","1","36","training","adjacent","CB","3","2","Q.jpg","N.jpg","1","0","0","",""
"","feedback","","html-keyboard-response","241","270720","0.0-1.0-330.0-0.0","0","0","62951","","null","","","null","36","","","","","","","","","","","","","","","",""
"","time_out","","html-keyboard-response","242","272723","0.0-1.0-332.0-0.0","0","0","62951","","null","","","null","36","","","","","","","","","","","","","","","",""
"","ITI","","html-keyboard-response","243","273726","0.0-1.0-333.0","0","0","62951","","null","","","null","36","","","","","","","","","","","","","","","NaN",""
"","S1","","html-keyboard-response","244","273980","0.0-1.0-335.0","0","0","62951","","null","","","null","37","","","","","","","","","","","","","","","",""
"","ISI","","html-keyboard-response","245","274982","0.0-1.0-336.0","0","0","62951","","null","","","null","37","NaN","","","","","","","","","","","","","","",""
"","S2","","html-keyboard-response","246","275236","0.0-1.0-337.0","0","0","62951","","null","","","null","37","","NaN","","","","","","","","","","","","","",""
"","response","","html-keyboard-response","247","275628","0.0-1.0-338.0-0.0","0","0","62951","","389","","","68","37","","","1","37","training","adjacent","BA","2","1","N.jpg","L.jpg","0","0","1","",""
"","feedback","","html-keyboard-response","248","276631","0.0-1.0-339.0-0.0","0","0","62951","","null","","","null","37","","","","","","","","","","","","","","","",""
"","ITI","","html-keyboard-response","249","277636","0.0-1.0-342.0","0","0","62951","","null","","","null","37","","","","","","","","","","","","","","","NaN",""
"","S1","","html-keyboard-response","250","277890","0.0-1.0-344.0","0","0","62951","","null","","","null","38","","","","","","","","","","","","","","","",""
"","ISI","","html-keyboard-response","251","278893","0.0-1.0-345.0","0","0","62951","","null","","","null","38","NaN","","","","","","","","","","","","","","",""
"","S2","","html-keyboard-response","252","279147","0.0-1.0-346.0","0","0","62951","","null","","","null","38","","NaN","","","","","","","","","","","","","",""
"","response","","html-keyboard-response","253","279506","0.0-1.0-347.0-0.0","0","0","62951","","356","","","75","38","","","1","38","training","adjacent","AB","1","2","L.jpg","N.jpg","1","1","1","",""
"","feedback","","html-keyboard-response","254","280509","0.0-1.0-348.0-0.0","0","0","62951","","null","","","null","38","","","","","","","","","","","","","","","",""
"","ITI","","html-keyboard-response","255","281513","0.0-1.0-351.0","0","0","62951","","null","","","null","38","","","","","","","","","","","","","","","NaN",""
"","S1","","html-keyboard-response","256","281768","0.0-1.0-353.0","0","0","62951","","null","","","null","39","","","","","","","","","","","","","","","",""
"","ISI","","html-keyboard-response","257","282770","0.0-1.0-354.0","0","0","62951","","null","","","null","39","NaN","","","","","","","","","","","","","","",""
"","S2","","html-keyboard-response","258","283024","0.0-1.0-355.0","0","0","62951","","null","","","null","39","","NaN","","","","","","","","","","","","","",""
"","response","","html-keyboard-response","259","283443","0.0-1.0-356.0-0.0","0","0","62951","","416","","","68","39","","","1","39","training","adjacent","BA","2","1","N.jpg","L.jpg","0","0","1","",""
"","feedback","","html-keyboard-response","260","284447","0.0-1.0-357.0-0.0","0","0","62951","","null","","","null","39","","","","","","","","","","","","","","","",""
"","ITI","","html-keyboard-response","261","285451","0.0-1.0-360.0","0","0","62951","","null","","","null","39","","","","","","","","","","","","","","","NaN",""
"","S1","","html-keyboard-response","262","285704","0.0-1.0-362.0","0","0","62951","","null","","","null","40","","","","","","","","","","","","","","","",""
"","ISI","","html-keyboard-response","263","286708","0.0-1.0-363.0","0","0","62951","","null","","","null","40","NaN","","","","","","","","","","","","","","",""
"","S2","","html-keyboard-response","264","286962","0.0-1.0-364.0","0","0","62951","","null","","","null","40","","NaN","","","","","","","","","","","","","",""
"","response","","html-keyboard-response","265","287347","0.0-1.0-365.0-0.0","0","0","62951","","384","","","75","40","","","1","40","training","adjacent","DC","4","3","M.jpg","Q.jpg","1","0","0","",""
"","feedback","","html-keyboard-response","266","288351","0.0-1.0-366.0-0.0","0","0","62951","","null","","","null","40","","","","","","","","","","","","","","","",""
"","time_out","","html-keyboard-response","267","290355","0.0-1.0-368.0-0.0","0","0","62951","","null","","","null","40","","","","","","","","","","","","","","","",""
"","ITI","","html-keyboard-response","268","291358","0.0-1.0-369.0","0","0","62951","","null","","","null","40","","","","","","","","","","","","","","","NaN",""
"","S1","","html-keyboard-response","269","291612","0.0-1.0-371.0","0","0","62951","","null","","","null","41","","","","","","","","","","","","","","","",""
"","ISI","","html-keyboard-response","270","292614","0.0-1.0-372.0","0","0","62951","","null","","","null","41","NaN","","","","","","","","","","","","","","",""
"","S2","","html-keyboard-response","271","292869","0.0-1.0-373.0","0","0","62951","","null","","","null","41","","NaN","","","","","","","","","","","","","",""
"","response","","html-keyboard-response","272","293291","0.0-1.0-374.0-0.0","0","0","62951","","420","","","68","41","","","1","41","training","adjacent","DE","4","5","M.jpg","R.jpg","0","1","0","",""
"","feedback","","html-keyboard-response","273","294294","0.0-1.0-375.0-0.0","0","0","62951","","null","","","null","41","","","","","","","","","","","","","","","",""
"","time_out","","html-keyboard-response","274","296297","0.0-1.0-377.0-0.0","0","0","62951","","null","","","null","41","","","","","","","","","","","","","","","",""
"","ITI","","html-keyboard-response","275","297301","0.0-1.0-378.0","0","0","62951","","null","","","null","41","","","","","","","","","","","","","","","NaN",""
"","S1","","html-keyboard-response","276","297555","0.0-1.0-380.0","0","0","62951","","null","","","null","42","","","","","","","","","","","","","","","",""
"","ISI","","html-keyboard-response","277","298559","0.0-1.0-381.0","0","0","62951","","null","","","null","42","NaN","","","","","","","","","","","","","","",""
"","S2","","html-keyboard-response","278","298812","0.0-1.0-382.0","0","0","62951","","null","","","null","42","","NaN","","","","","","","","","","","","","",""
"","response","","html-keyboard-response","279","299292","0.0-1.0-383.0-0.0","0","0","62951","","478","","","68","42","","","1","42","training","adjacent","CD","3","4","Q.jpg","M.jpg","0","1","0","",""
"","feedback","","html-keyboard-response","280","300295","0.0-1.0-384.0-0.0","0","0","62951","","null","","","null","42","","","","","","","","","","","","","","","",""
"","time_out","","html-keyboard-response","281","302299","0.0-1.0-386.0-0.0","0","0","62951","","null","","","null","42","","","","","","","","","","","","","","","",""
"","ITI","","html-keyboard-response","282","303302","0.0-1.0-387.0","0","0","62951","","null","","","null","42","","","","","","","","","","","","","","","NaN",""
"","S1","","html-keyboard-response","283","303555","0.0-1.0-389.0","0","0","62951","","null","","","null","43","","","","","","","","","","","","","","","",""
"","ISI","","html-keyboard-response","284","304559","0.0-1.0-390.0","0","0","62951","","null","","","null","43","NaN","","","","","","","","","","","","","","",""
"","S2","","html-keyboard-response","285","304812","0.0-1.0-391.0","0","0","62951","","null","","","null","43","","NaN","","","","","","","","","","","","","",""
"","response","","html-keyboard-response","286","305243","0.0-1.0-392.0-0.0","0","0","62951","","428","","","75","43","","","1","43","training","adjacent","ED","5","4","R.jpg","M.jpg","1","0","0","",""
"","feedback","","html-keyboard-response","287","306246","0.0-1.0-393.0-0.0","0","0","62951","","null","","","null","43","","","","","","","","","","","","","","","",""
"","time_out","","html-keyboard-response","288","308249","0.0-1.0-395.0-0.0","0","0","62951","","null","","","null","43","","","","","","","","","","","","","","","",""
"","ITI","","html-keyboard-response","289","309253","0.0-1.0-396.0","0","0","62951","","null","","","null","43","","","","","","","","","","","","","","","NaN",""
"","S1","","html-keyboard-response","290","309515","0.0-1.0-398.0","0","0","62951","","null","","","null","44","","","","","","","","","","","","","","","",""
"","ISI","","html-keyboard-response","291","310518","0.0-1.0-399.0","0","0","62951","","null","","","null","44","NaN","","","","","","","","","","","","","","",""
"","S2","","html-keyboard-response","292","310773","0.0-1.0-400.0","0","0","62951","","null","","","null","44","","NaN","","","","","","","","","","","","","",""
"","response","","html-keyboard-response","293","311163","0.0-1.0-401.0-0.0","0","0","62951","","389","","","68","44","","","1","44","training","adjacent","GF","7","6","P.jpg","O.jpg","0","0","1","",""
"","feedback","","html-keyboard-response","294","312166","0.0-1.0-402.0-0.0","0","0","62951","","null","","","null","44","","","","","","","","","","","","","","","",""
"","ITI","","html-keyboard-response","295","313169","0.0-1.0-405.0","0","0","62951","","null","","","null","44","","","","","","","","","","","","","","","NaN",""
"","S1","","html-keyboard-response","296","313423","0.0-1.0-407.0","0","0","62951","","null","","","null","45","","","","","","","","","","","","","","","",""
"","ISI","","html-keyboard-response","297","314425","0.0-1.0-408.0","0","0","62951","","null","","","null","45","NaN","","","","","","","","","","","","","","",""
"","S2","","html-keyboard-response","298","314679","0.0-1.0-409.0","0","0","62951","","null","","","null","45","","NaN","","","","","","","","","","","","","",""
"","response","","html-keyboard-response","299","315139","0.0-1.0-410.0-0.0","0","0","62951","","457","","","68","45","","","1","45","training","adjacent","FE","6","5","O.jpg","R.jpg","0","0","1","",""
"","feedback","","html-keyboard-response","300","316141","0.0-1.0-411.0-0.0","0","0","62951","","null","","","null","45","","","","","","","","","","","","","","","",""
"","ITI","","html-keyboard-response","301","317144","0.0-1.0-414.0","0","0","62951","","null","","","null","45","","","","","","","","","","","","","","","NaN",""
"","S1","","html-keyboard-response","302","317398","0.0-1.0-416.0","0","0","62951","","null","","","null","46","","","","","","","","","","","","","","","",""
"","ISI","","html-keyboard-response","303","318402","0.0-1.0-417.0","0","0","62951","","null","","","null","46","NaN","","","","","","","","","","","","","","",""
"","S2","","html-keyboard-response","304","318656","0.0-1.0-418.0","0","0","62951","","null","","","null","46","","NaN","","","","","","","","","","","","","",""
"","response","","html-keyboard-response","305","319354","0.0-1.0-419.0-0.0","0","0","62951","","696","","","68","46","","","1","46","training","adjacent","CB","3","2","Q.jpg","N.jpg","0","0","1","",""
"","feedback","","html-keyboard-response","306","320358","0.0-1.0-420.0-0.0","0","0","62951","","null","","","null","46","","","","","","","","","","","","","","","",""
"","ITI","","html-keyboard-response","307","321362","0.0-1.0-423.0","0","0","62951","","null","","","null","46","","","","","","","","","","","","","","","NaN",""
"","S1","","html-keyboard-response","308","321616","0.0-1.0-425.0","0","0","62951","","null","","","null","47","","","","","","","","","","","","","","","",""
"","ISI","","html-keyboard-response","309","322619","0.0-1.0-426.0","0","0","62951","","null","","","null","47","NaN","","","","","","","","","","","","","","",""
"","S2","","html-keyboard-response","310","322874","0.0-1.0-427.0","0","0","62951","","null","","","null","47","","NaN","","","","","","","","","","","","","",""
"","response","","html-keyboard-response","311","323619","0.0-1.0-428.0-0.0","0","0","62951","","743","","","68","47","","","1","47","training","adjacent","DC","4","3","M.jpg","Q.jpg","0","0","1","",""
"","feedback","","html-keyboard-response","312","324623","0.0-1.0-429.0-0.0","0","0","62951","","null","","","null","47","","","","","","","","","","","","","","","",""
"","ITI","","html-keyboard-response","313","325626","0.0-1.0-432.0","0","0","62951","","null","","","null","47","","","","","","","","","","","","","","","NaN",""
"","block_over","","html-keyboard-response","314","454227","0.0-1.0-433.0-0.0","0","0","62951","","128597","","","32","47","","","","","","","","","","","","","","","",""
"","S1","","html-keyboard-response","315","454481","0.0-1.0-434.0","0","0","62951","","null","","","null","48","","","","","","","","","","","","","","","",""
"","ISI","","html-keyboard-response","316","455485","0.0-1.0-435.0","0","0","62951","","null","","","null","48","NaN","","","","","","","","","","","","","","",""
"","S2","","html-keyboard-response","317","455738","0.0-1.0-436.0","0","0","62951","","null","","","null","48","","NaN","","","","","","","","","","","","","",""
"","response","","html-keyboard-response","318","456915","0.0-1.0-437.0-0.0","0","0","62951","","1174","","","68","48","","","2","48","training","adjacent","FE","6","5","O.jpg","R.jpg","0","0","1","",""
"","feedback","","html-keyboard-response","319","457918","0.0-1.0-438.0-0.0","0","0","62951","","null","","","null","48","","","","","","","","","","","","","","","",""
"","ITI","","html-keyboard-response","320","458922","0.0-1.0-441.0","0","0","62951","","null","","","null","48","","","","","","","","","","","","","","","NaN",""
"","S1","","html-keyboard-response","321","459175","0.0-1.0-443.0","0","0","62951","","null","","","null","49","","","","","","","","","","","","","","","",""
"","ISI","","html-keyboard-response","322","460179","0.0-1.0-444.0","0","0","62951","","null","","","null","49","NaN","","","","","","","","","","","","","","",""
"","S2","","html-keyboard-response","323","460432","0.0-1.0-445.0","0","0","62951","","null","","","null","49","","NaN","","","","","","","","","","","","","",""
"","response","","html-keyboard-response","324","461014","0.0-1.0-446.0-0.0","0","0","62951","","579","","","68","49","","","2","49","training","adjacent","FG","6","7","O.jpg","P.jpg","0","1","0","",""
"","feedback","","html-keyboard-response","325","462018","0.0-1.0-447.0-0.0","0","0","62951","","null","","","null","49","","","","","","","","","","","","","","","",""
"","time_out","","html-keyboard-response","326","464022","0.0-1.0-449.0-0.0","0","0","62951","","null","","","null","49","","","","","","","","","","","","","","","",""
"","ITI","","html-keyboard-response","327","465025","0.0-1.0-450.0","0","0","62951","","null","","","null","49","","","","","","","","","","","","","","","NaN",""
"","S1","","html-keyboard-response","328","465278","0.0-1.0-452.0","0","0","62951","","null","","","null","50","","","","","","","","","","","","","","","",""
"","ISI","","html-keyboard-response","329","466282","0.0-1.0-453.0","0","0","62951","","null","","","null","50","NaN","","","","","","","","","","","","","","",""
"","S2","","html-keyboard-response","330","466536","0.0-1.0-454.0","0","0","62951","","null","","","null","50","","NaN","","","","","","","","","","","","","",""
"","response","","html-keyboard-response","331","466945","0.0-1.0-455.0-0.0","0","0","62951","","408","","","75","50","","","2","50","training","adjacent","GF","7","6","P.jpg","O.jpg","1","0","0","",""
"","feedback","","html-keyboard-response","332","467949","0.0-1.0-456.0-0.0","0","0","62951","","null","","","null","50","","","","","","","","","","","","","","","",""
"","time_out","","html-keyboard-response","333","469952","0.0-1.0-458.0-0.0","0","0","62951","","null","","","null","50","","","","","","","","","","","","","","","",""
"","ITI","","html-keyboard-response","334","470956","0.0-1.0-459.0","0","0","62951","","null","","","null","50","","","","","","","","","","","","","","","NaN",""
"","S1","","html-keyboard-response","335","471209","0.0-1.0-461.0","0","0","62951","","null","","","null","51","","","","","","","","","","","","","","","",""
"","ISI","","html-keyboard-response","336","472212","0.0-1.0-462.0","0","0","62951","","null","","","null","51","NaN","","","","","","","","","","","","","","",""
"","S2","","html-keyboard-response","337","472467","0.0-1.0-463.0","0","0","62951","","null","","","null","51","","NaN","","","","","","","","","","","","","",""
"","response","","html-keyboard-response","338","472605","0.0-1.0-464.0-0.0","0","0","62951","","135","","","68","51","","","2","51","training","adjacent","CD","3","4","Q.jpg","M.jpg","0","1","0","",""
"","feedback","","html-keyboard-response","339","473608","0.0-1.0-465.0-0.0","0","0","62951","","null","","","null","51","","","","","","","","","","","","","","","",""
"","time_out","","html-keyboard-response","340","475610","0.0-1.0-467.0-0.0","0","0","62951","","null","","","null","51","","","","","","","","","","","","","","","",""
"","ITI","","html-keyboard-response","341","476614","0.0-1.0-468.0","0","0","62951","","null","","","null","51","","","","","","","","","","","","","","","NaN",""
"","S1","","html-keyboard-response","342","476868","0.0-1.0-470.0","0","0","62951","","null","","","null","52","","","","","","","","","","","","","","","",""
"","ISI","","html-keyboard-response","343","477872","0.0-1.0-471.0","0","0","62951","","null","","","null","52","NaN","","","","","","","","","","","","","","",""
"","S2","","html-keyboard-response","344","478125","0.0-1.0-472.0","0","0","62951","","null","","","null","52","","NaN","","","","","","","","","","","","","",""
"","response","","html-keyboard-response","345","478291","0.0-1.0-473.0-0.0","0","0","62951","","164","","","75","52","","","2","52","training","adjacent","CB","3","2","Q.jpg","N.jpg","1","0","0","",""
"","feedback","","html-keyboard-response","346","479295","0.0-1.0-474.0-0.0","0","0","62951","","null","","","null","52","","","","","","","","","","","","","","","",""
"","time_out","","html-keyboard-response","347","481298","0.0-1.0-476.0-0.0","0","0","62951","","null","","","null","52","","","","","","","","","","","","","","","",""
"","ITI","","html-keyboard-response","348","482301","0.0-1.0-477.0","0","0","62951","","null","","","null","52","","","","","","","","","","","","","","","NaN",""
"","S1","","html-keyboard-response","349","482554","0.0-1.0-479.0","0","0","62951","","null","","","null","53","","","","","","","","","","","","","","","",""
"","ISI","","html-keyboard-response","350","483557","0.0-1.0-480.0","0","0","62951","","null","","","null","53","NaN","","","","","","","","","","","","","","",""
"","S2","","html-keyboard-response","351","483811","0.0-1.0-481.0","0","0","62951","","null","","","null","53","","NaN","","","","","","","","","","","","","",""
"","response","","html-keyboard-response","352","484085","0.0-1.0-482.0-0.0","0","0","62951","","272","","","68","53","","","2","53","training","adjacent","EF","5","6","R.jpg","O.jpg","0","1","0","",""
"","feedback","","html-keyboard-response","353","485090","0.0-1.0-483.0-0.0","0","0","62951","","null","","","null","53","","","","","","","","","","","","","","","",""
"","time_out","","html-keyboard-response","354","487103","0.0-1.0-485.0-0.0","0","0","62951","","null","","","null","53","","","","","","","","","","","","","","","",""
"","ITI","","html-keyboard-response","355","488105","0.0-1.0-486.0","0","0","62951","","null","","","null","53","","","","","","","","","","","","","","","NaN",""
"","S1","","html-keyboard-response","356","488358","0.0-1.0-488.0","0","0","62951","","null","","","null","54","","","","","","","","","","","","","","","",""
"","ISI","","html-keyboard-response","357","489361","0.0-1.0-489.0","0","0","62951","","null","","","null","54","NaN","","","","","","","","","","","","","","",""
"","S2","","html-keyboard-response","358","489614","0.0-1.0-490.0","0","0","62951","","null","","","null","54","","NaN","","","","","","","","","","","","","",""
"","response","","html-keyboard-response","359","489860","0.0-1.0-491.0-0.0","0","0","62951","","244","","","75","54","","","2","54","training","adjacent","AB","1","2","L.jpg","N.jpg","1","1","1","",""
"","feedback","","html-keyboard-response","360","490863","0.0-1.0-492.0-0.0","0","0","62951","","null","","","null","54","","","","","","","","","","","","","","","",""
"","ITI","","html-keyboard-response","361","491867","0.0-1.0-495.0","0","0","62951","","376","","","174","54","","","","","","","","","","","","","","","",""
"","S1","","html-keyboard-response","362","492120","0.0-1.0-497.0","0","0","62951","","null","","","null","55","","","","","","","","","","","","","","","",""
"","ISI","","html-keyboard-response","363","493124","0.0-1.0-498.0","0","0","62951","","4","","","174","55","","","","","","","","","","","","","","","",""
"","S2","","html-keyboard-response","364","493379","0.0-1.0-499.0","0","0","62951","","null","","","null","55","","NaN","","","","","","","","","","","","","",""
"","response","","html-keyboard-response","365","494300","0.0-1.0-500.0-0.0","0","0","62951","","918","","","68","55","","","2","55","training","adjacent","DC","4","3","M.jpg","Q.jpg","0","0","1","",""
"","feedback","","html-keyboard-response","366","495303","0.0-1.0-501.0-0.0","0","0","62951","","null","","","null","55","","","","","","","","","","","","","","","",""
"","ITI","","html-keyboard-response","367","496306","0.0-1.0-504.0","0","0","62951","","null","","","null","55","","","","","","","","","","","","","","","NaN",""
"","S1","","html-keyboard-response","368","496560","0.0-1.0-506.0","0","0","62951","","null","","","null","56","","","","","","","","","","","","","","","",""
"","ISI","","html-keyboard-response","369","497563","0.0-1.0-507.0","0","0","62951","","null","","","null","56","NaN","","","","","","","","","","","","","","",""
"","S2","","html-keyboard-response","370","497817","0.0-1.0-508.0","0","0","62951","","null","","","null","56","","NaN","","","","","","","","","","","","","",""
"","response","","html-keyboard-response","371","498091","0.0-1.0-509.0-0.0","0","0","62951","","271","","","75","56","","","2","56","training","adjacent","DE","4","5","M.jpg","R.jpg","1","1","1","",""
"","feedback","","html-keyboard-response","372","499095","0.0-1.0-510.0-0.0","0","0","62951","","null","","","null","56","","","","","","","","","","","","","","","",""
"","ITI","","html-keyboard-response","373","500098","0.0-1.0-513.0","0","0","62951","","null","","","null","56","","","","","","","","","","","","","","","NaN",""
"","S1","","html-keyboard-response","374","500351","0.0-1.0-515.0","0","0","62951","","null","","","null","57","","","","","","","","","","","","","","","",""
"","ISI","","html-keyboard-response","375","501354","0.0-1.0-516.0","0","0","62951","","null","","","null","57","NaN","","","","","","","","","","","","","","",""
"","S2","","html-keyboard-response","376","501608","0.0-1.0-517.0","0","0","62951","","null","","","null","57","","NaN","","","","","","","","","","","","","",""
"","response","","html-keyboard-response","377","501988","0.0-1.0-518.0-0.0","0","0","62951","","377","","","75","57","","","2","57","training","adjacent","GF","7","6","P.jpg","O.jpg","1","0","0","",""
"","feedback","","html-keyboard-response","378","502991","0.0-1.0-519.0-0.0","0","0","62951","","null","","","null","57","","","","","","","","","","","","","","","",""
"","time_out","","html-keyboard-response","379","504995","0.0-1.0-521.0-0.0","0","0","62951","","null","","","null","57","","","","","","","","","","","","","","","",""
"","ITI","","html-keyboard-response","380","505998","0.0-1.0-522.0","0","0","62951","","null","","","null","57","","","","","","","","","","","","","","","NaN",""
"","S1","","html-keyboard-response","381","506251","0.0-1.0-524.0","0","0","62951","","null","","","null","58","","","","","","","","","","","","","","","",""
"","ISI","","html-keyboard-response","382","507254","0.0-1.0-525.0","0","0","62951","","null","","","null","58","NaN","","","","","","","","","","","","","","",""
"","S2","","html-keyboard-response","383","507508","0.0-1.0-526.0","0","0","62951","","null","","","null","58","","NaN","","","","","","","","","","","","","",""
"","response","","html-keyboard-response","384","507972","0.0-1.0-527.0-0.0","0","0","62951","","462","","","68","58","","","2","58","training","adjacent","EF","5","6","R.jpg","O.jpg","0","1","0","",""
"","feedback","","html-keyboard-response","385","508976","0.0-1.0-528.0-0.0","0","0","62951","","null","","","null","58","","","","","","","","","","","","","","","",""
"","time_out","","html-keyboard-response","386","510979","0.0-1.0-530.0-0.0","0","0","62951","","null","","","null","58","","","","","","","","","","","","","","","",""
"","ITI","","html-keyboard-response","387","511983","0.0-1.0-531.0","0","0","62951","","null","","","null","58","","","","","","","","","","","","","","","NaN",""
"","S1","","html-keyboard-response","388","512236","0.0-1.0-533.0","0","0","62951","","null","","","null","59","","","","","","","","","","","","","","","",""
"","ISI","","html-keyboard-response","389","513238","0.0-1.0-534.0","0","0","62951","","null","","","null","59","NaN","","","","","","","","","","","","","","",""
"","S2","","html-keyboard-response","390","513491","0.0-1.0-535.0","0","0","62951","","null","","","null","59","","NaN","","","","","","","","","","","","","",""
"","response","","html-keyboard-response","391","513924","0.0-1.0-536.0-0.0","0","0","62951","","430","","","75","59","","","2","59","training","adjacent","BA","2","1","N.jpg","L.jpg","1","0","0","",""
"","feedback","","html-keyboard-response","392","514927","0.0-1.0-537.0-0.0","0","0","62951","","null","","","null","59","","","","","","","","","","","","","","","",""
"","time_out","","html-keyboard-response","393","516939","0.0-1.0-539.0-0.0","0","0","62951","","null","","","null","59","","","","","","","","","","","","","","","",""
"","ITI","","html-keyboard-response","394","517942","0.0-1.0-540.0","0","0","62951","","null","","","null","59","","","","","","","","","","","","","","","NaN",""
"","S1","","html-keyboard-response","395","518196","0.0-1.0-542.0","0","0","62951","","null","","","null","60","","","","","","","","","","","","","","","",""
"","ISI","","html-keyboard-response","396","519201","0.0-1.0-543.0","0","0","62951","","532","","","68","60","d","","","","","","","","","","","","","","",""
"","S2","","html-keyboard-response","397","519454","0.0-1.0-544.0","0","0","62951","","null","","","null","60","","NaN","","","","","","","","","","","","","",""
"","response","","html-keyboard-response","398","519771","0.0-1.0-545.0-0.0","0","0","62951","","314","","","68","60","","","2","60","training","adjacent","BA","2","1","N.jpg","L.jpg","0","0","1","",""
"","feedback","","html-keyboard-response","399","520775","0.0-1.0-546.0-0.0","0","0","62951","","null","","","null","60","","","","","","","","","","","","","","","",""
"","ITI","","html-keyboard-response","400","521779","0.0-1.0-549.0","0","0","62951","","null","","","null","60","","","","","","","","","","","","","","","NaN",""
"","S1","","html-keyboard-response","401","522033","0.0-1.0-551.0","0","0","62951","","null","","","null","61","","","","","","","","","","","","","","","",""
"","ISI","","html-keyboard-response","402","523036","0.0-1.0-552.0","0","0","62951","","null","","","null","61","NaN","","","","","","","","","","","","","","",""
"","S2","","html-keyboard-response","403","523289","0.0-1.0-553.0","0","0","62951","","null","","","null","61","","NaN","","","","","","","","","","","","","",""
"","response","","html-keyboard-response","404","523754","0.0-1.0-554.0-0.0","0","0","62951","","462","","","75","61","","","2","61","training","adjacent","BA","2","1","N.jpg","L.jpg","1","0","0","",""
"","feedback","","html-keyboard-response","405","524758","0.0-1.0-555.0-0.0","0","0","62951","","null","","","null","61","","","","","","","","","","","","","","","",""
"","time_out","","html-keyboard-response","406","526762","0.0-1.0-557.0-0.0","0","0","62951","","null","","","null","61","","","","","","","","","","","","","","","",""
"","ITI","","html-keyboard-response","407","527766","0.0-1.0-558.0","0","0","62951","","null","","","null","61","","","","","","","","","","","","","","","NaN",""
"","S1","","html-keyboard-response","408","528020","0.0-1.0-560.0","0","0","62951","","null","","","null","62","","","","","","","","","","","","","","","",""
"","ISI","","html-keyboard-response","409","529022","0.0-1.0-561.0","0","0","62951","","null","","","null","62","NaN","","","","","","","","","","","","","","",""
"","S2","","html-keyboard-response","410","529277","0.0-1.0-562.0","0","0","62951","","null","","","null","62","","NaN","","","","","","","","","","","","","",""
"","response","","html-keyboard-response","411","529786","0.0-1.0-563.0-0.0","0","0","62951","","507","","","75","62","","","2","62","training","adjacent","BC","2","3","N.jpg","Q.jpg","1","1","1","",""
"","feedback","","html-keyboard-response","412","530790","0.0-1.0-564.0-0.0","0","0","62951","","null","","","null","62","","","","","","","","","","","","","","","",""
"","ITI","","html-keyboard-response","413","531793","0.0-1.0-567.0","0","0","62951","","null","","","null","62","","","","","","","","","","","","","","","NaN",""
"","S1","","html-keyboard-response","414","532047","0.0-1.0-569.0","0","0","62951","","null","","","null","63","","","","","","","","","","","","","","","",""
"","ISI","","html-keyboard-response","415","533050","0.0-1.0-570.0","0","0","62951","","null","","","null","63","NaN","","","","","","","","","","","","","","",""
"","S2","","html-keyboard-response","416","533304","0.0-1.0-571.0","0","0","62951","","null","","","null","63","","NaN","","","","","","","","","","","","","",""
"","response","","html-keyboard-response","417","533818","0.0-1.0-572.0-0.0","0","0","62951","","511","","","68","63","","","2","63","training","adjacent","FG","6","7","O.jpg","P.jpg","0","1","0","",""
"","feedback","","html-keyboard-response","418","534825","0.0-1.0-573.0-0.0","0","0","62951","","null","","","null","63","","","","","","","","","","","","","","","",""
"","time_out","","html-keyboard-response","419","536829","0.0-1.0-575.0-0.0","0","0","62951","","null","","","null","63","","","","","","","","","","","","","","","",""
"","ITI","","html-keyboard-response","420","537832","0.0-1.0-576.0","0","0","62951","","null","","","null","63","","","","","","","","","","","","","","","NaN",""
"","S1","","html-keyboard-response","421","538085","0.0-1.0-578.0","0","0","62951","","null","","","null","64","","","","","","","","","","","","","","","",""
"","ISI","","html-keyboard-response","422","539089","0.0-1.0-579.0","0","0","62951","","null","","","null","64","NaN","","","","","","","","","","","","","","",""
"","S2","","html-keyboard-response","423","539343","0.0-1.0-580.0","0","0","62951","","null","","","null","64","","NaN","","","","","","","","","","","","","",""
"","response","","html-keyboard-response","424","539682","0.0-1.0-581.0-0.0","0","0","62951","","336","","","68","64","","","2","64","training","adjacent","CB","3","2","Q.jpg","N.jpg","0","0","1","",""
"","feedback","","html-keyboard-response","425","540686","0.0-1.0-582.0-0.0","0","0","62951","","null","","","null","64","","","","","","","","","","","","","","","",""
"","ITI","","html-keyboard-response","426","541689","0.0-1.0-585.0","0","0","62951","","null","","","null","64","","","","","","","","","","","","","","","NaN",""
"","S1","","html-keyboard-response","427","541943","0.0-1.0-587.0","0","0","62951","","null","","","null","65","","","","","","","","","","","","","","","",""
"","ISI","","html-keyboard-response","428","542946","0.0-1.0-588.0","0","0","62951","","null","","","null","65","NaN","","","","","","","","","","","","","","",""
"","S2","","html-keyboard-response","429","543200","0.0-1.0-589.0","0","0","62951","","null","","","null","65","","NaN","","","","","","","","","","","","","",""
"","response","","html-keyboard-response","430","543429","0.0-1.0-590.0-0.0","0","0","62951","","226","","","75","65","","","2","65","training","adjacent","BC","2","3","N.jpg","Q.jpg","1","1","1","",""
"","feedback","","html-keyboard-response","431","544433","0.0-1.0-591.0-0.0","0","0","62951","","null","","","null","65","","","","","","","","","","","","","","","",""
"","ITI","","html-keyboard-response","432","545437","0.0-1.0-594.0","0","0","62951","","null","","","null","65","","","","","","","","","","","","","","","NaN",""
"","S1","","html-keyboard-response","433","545691","0.0-1.0-596.0","0","0","62951","","null","","","null","66","","","","","","","","","","","","","","","",""
"","ISI","","html-keyboard-response","434","546695","0.0-1.0-597.0","0","0","62951","","null","","","null","66","NaN","","","","","","","","","","","","","","",""
"","S2","","html-keyboard-response","435","546948","0.0-1.0-598.0","0","0","62951","","null","","","null","66","","NaN","","","","","","","","","","","","","",""
"","response","","html-keyboard-response","436","547228","0.0-1.0-599.0-0.0","0","0","62951","","278","","","68","66","","","2","66","training","adjacent","AB","1","2","L.jpg","N.jpg","0","1","0","",""
"","feedback","","html-keyboard-response","437","548232","0.0-1.0-600.0-0.0","0","0","62951","","null","","","null","66","","","","","","","","","","","","","","","",""
"","time_out","","html-keyboard-response","438","550236","0.0-1.0-602.0-0.0","0","0","62951","","null","","","null","66","","","","","","","","","","","","","","","",""
"","ITI","","html-keyboard-response","439","551238","0.0-1.0-603.0","0","0","62951","","null","","","null","66","","","","","","","","","","","","","","","NaN",""
"","S1","","html-keyboard-response","440","551492","0.0-1.0-605.0","0","0","62951","","null","","","null","67","","","","","","","","","","","","","","","",""
"","ISI","","html-keyboard-response","441","552495","0.0-1.0-606.0","0","0","62951","","null","","","null","67","NaN","","","","","","","","","","","","","","",""
"","S2","","html-keyboard-response","442","552748","0.0-1.0-607.0","0","0","62951","","null","","","null","67","","NaN","","","","","","","","","","","","","",""
"","response","","html-keyboard-response","443","553123","0.0-1.0-608.0-0.0","0","0","62951","","372","","","75","67","","","2","67","training","adjacent","DC","4","3","M.jpg","Q.jpg","1","0","0","",""
"","feedback","","html-keyboard-response","444","554127","0.0-1.0-609.0-0.0","0","0","62951","","null","","","null","67","","","","","","","","","","","","","","","",""
"","time_out","","html-keyboard-response","445","556130","0.0-1.0-611.0-0.0","0","0","62951","","null","","","null","67","","","","","","","","","","","","","","","",""
"","ITI","","html-keyboard-response","446","557133","0.0-1.0-612.0","0","0","62951","","null","","","null","67","","","","","","","","","","","","","","","NaN",""
"","S1","","html-keyboard-response","447","557387","0.0-1.0-614.0","0","0","62951","","null","","","null","68","","","","","","","","","","","","","","","",""
"","ISI","","html-keyboard-response","448","558390","0.0-1.0-615.0","0","0","62951","","null","","","null","68","NaN","","","","","","","","","","","","","","",""
"","S2","","html-keyboard-response","449","558644","0.0-1.0-616.0","0","0","62951","","null","","","null","68","","NaN","","","","","","","","","","","","","",""
"","response","","html-keyboard-response","450","559228","0.0-1.0-617.0-0.0","0","0","62951","","581","","","68","68","","","2","68","training","adjacent","FG","6","7","O.jpg","P.jpg","0","1","0","",""
"","feedback","","html-keyboard-response","451","560231","0.0-1.0-618.0-0.0","0","0","62951","","null","","","null","68","","","","","","","","","","","","","","","",""
"","time_out","","html-keyboard-response","452","562234","0.0-1.0-620.0-0.0","0","0","62951","","null","","","null","68","","","","","","","","","","","","","","","",""
"","ITI","","html-keyboard-response","453","563246","0.0-1.0-621.0","0","0","62951","","null","","","null","68","","","","","","","","","","","","","","","NaN",""
"","S1","","html-keyboard-response","454","563500","0.0-1.0-623.0","0","0","62951","","null","","","null","69","","","","","","","","","","","","","","","",""
"","ISI","","html-keyboard-response","455","564503","0.0-1.0-624.0","0","0","62951","","null","","","null","69","NaN","","","","","","","","","","","","","","",""
"","S2","","html-keyboard-response","456","564756","0.0-1.0-625.0","0","0","62951","","null","","","null","69","","NaN","","","","","","","","","","","","","",""
"","response","","html-keyboard-response","457","565539","0.0-1.0-626.0-0.0","0","0","62951","","780","","","68","69","","","2","69","training","adjacent","ED","5","4","R.jpg","M.jpg","0","0","1","",""
"","feedback","","html-keyboard-response","458","566543","0.0-1.0-627.0-0.0","0","0","62951","","null","","","null","69","","","","","","","","","","","","","","","",""
"","ITI","","html-keyboard-response","459","567547","0.0-1.0-630.0","0","0","62951","","null","","","null","69","","","","","","","","","","","","","","","NaN",""
"","S1","","html-keyboard-response","460","567802","0.0-1.0-632.0","0","0","62951","","null","","","null","70","","","","","","","","","","","","","","","",""
"","ISI","","html-keyboard-response","461","568805","0.0-1.0-633.0","0","0","62951","","null","","","null","70","NaN","","","","","","","","","","","","","","",""
"","S2","","html-keyboard-response","462","569059","0.0-1.0-634.0","0","0","62951","","null","","","null","70","","NaN","","","","","","","","","","","","","",""
"","response","","html-keyboard-response","463","569620","0.0-1.0-635.0-0.0","0","0","62951","","559","","","68","70","","","2","70","training","adjacent","FE","6","5","O.jpg","R.jpg","0","0","1","",""
"","feedback","","html-keyboard-response","464","570627","0.0-1.0-636.0-0.0","0","0","62951","","null","","","null","70","","","","","","","","","","","","","","","",""
"","ITI","","html-keyboard-response","465","571631","0.0-1.0-639.0","0","0","62951","","null","","","null","70","","","","","","","","","","","","","","","NaN",""
"","S1","","html-keyboard-response","466","571884","0.0-1.0-641.0","0","0","62951","","null","","","null","71","","","","","","","","","","","","","","","",""
"","ISI","","html-keyboard-response","467","572888","0.0-1.0-642.0","0","0","62951","","null","","","null","71","NaN","","","","","","","","","","","","","","",""
"","S2","","html-keyboard-response","468","573142","0.0-1.0-643.0","0","0","62951","","null","","","null","71","","NaN","","","","","","","","","","","","","",""
"","response","","html-keyboard-response","469","573700","0.0-1.0-644.0-0.0","0","0","62951","","556","","","68","71","","","2","71","training","adjacent","GF","7","6","P.jpg","O.jpg","0","0","1","",""
"","feedback","","html-keyboard-response","470","574703","0.0-1.0-645.0-0.0","0","0","62951","","null","","","null","71","","","","","","","","","","","","","","","",""
"","ITI","","html-keyboard-response","471","575707","0.0-1.0-648.0","0","0","62951","","null","","","null","71","","","","","","","","","","","","","","","NaN",""
"","S1","","html-keyboard-response","472","575961","0.0-1.0-650.0","0","0","62951","","null","","","null","72","","","","","","","","","","","","","","","",""
"","ISI","","html-keyboard-response","473","576964","0.0-1.0-651.0","0","0","62951","","null","","","null","72","NaN","","","","","","","","","","","","","","",""
"","S2","","html-keyboard-response","474","577218","0.0-1.0-652.0","0","0","62951","","null","","","null","72","","NaN","","","","","","","","","","","","","",""
"","response","","html-keyboard-response","475","577579","0.0-1.0-653.0-0.0","0","0","62951","","358","","","75","72","","","2","72","training","adjacent","AB","1","2","L.jpg","N.jpg","1","1","1","",""
"","feedback","","html-keyboard-response","476","578583","0.0-1.0-654.0-0.0","0","0","62951","","null","","","null","72","","","","","","","","","","","","","","","",""
"","ITI","","html-keyboard-response","477","579586","0.0-1.0-657.0","0","0","62951","","null","","","null","72","","","","","","","","","","","","","","","NaN",""
"","S1","","html-keyboard-response","478","579840","0.0-1.0-659.0","0","0","62951","","null","","","null","73","","","","","","","","","","","","","","","",""
"","ISI","","html-keyboard-response","479","580843","0.0-1.0-660.0","0","0","62951","","null","","","null","73","NaN","","","","","","","","","","","","","","",""
"","S2","","html-keyboard-response","480","581097","0.0-1.0-661.0","0","0","62951","","null","","","null","73","","NaN","","","","","","","","","","","","","",""
"","response","","html-keyboard-response","481","581361","0.0-1.0-662.0-0.0","0","0","62951","","264","","","75","73","","","2","73","training","adjacent","CB","3","2","Q.jpg","N.jpg","1","0","0","",""
"","feedback","","html-keyboard-response","482","582364","0.0-1.0-663.0-0.0","0","0","62951","","null","","","null","73","","","","","","","","","","","","","","","",""
"","time_out","","html-keyboard-response","483","584367","0.0-1.0-665.0-0.0","0","0","62951","","null","","","null","73","","","","","","","","","","","","","","","",""
"","ITI","","html-keyboard-response","484","585370","0.0-1.0-666.0","0","0","62951","","null","","","null","73","","","","","","","","","","","","","","","NaN",""
"","S1","","html-keyboard-response","485","585624","0.0-1.0-668.0","0","0","62951","","null","","","null","74","","","","","","","","","","","","","","","",""
"","ISI","","html-keyboard-response","486","586627","0.0-1.0-669.0","0","0","62951","","null","","","null","74","NaN","","","","","","","","","","","","","","",""
"","S2","","html-keyboard-response","487","586880","0.0-1.0-670.0","0","0","62951","","null","","","null","74","","NaN","","","","","","","","","","","","","",""
"","response","","html-keyboard-response","488","587363","0.0-1.0-671.0-0.0","0","0","62951","","480","","","75","74","","","2","74","training","adjacent","BC","2","3","N.jpg","Q.jpg","1","1","1","",""
"","feedback","","html-keyboard-response","489","588368","0.0-1.0-672.0-0.0","0","0","62951","","null","","","null","74","","","","","","","","","","","","","","","",""
"","ITI","","html-keyboard-response","490","589371","0.0-1.0-675.0","0","0","62951","","null","","","null","74","","","","","","","","","","","","","","","NaN",""
"","S1","","html-keyboard-response","491","589625","0.0-1.0-677.0","0","0","62951","","null","","","null","75","","","","","","","","","","","","","","","",""
"","ISI","","html-keyboard-response","492","590628","0.0-1.0-678.0","0","0","62951","","null","","","null","75","NaN","","","","","","","","","","","","","","",""
"","S2","","html-keyboard-response","493","590882","0.0-1.0-679.0","0","0","62951","","null","","","null","75","","NaN","","","","","","","","","","","","","",""
"","response","","html-keyboard-response","494","591340","0.0-1.0-680.0-0.0","0","0","62951","","455","","","75","75","","","2","75","training","adjacent","DC","4","3","M.jpg","Q.jpg","1","0","0","",""
"","feedback","","html-keyboard-response","495","592344","0.0-1.0-681.0-0.0","0","0","62951","","null","","","null","75","","","","","","","","","","","","","","","",""
"","time_out","","html-keyboard-response","496","594348","0.0-1.0-683.0-0.0","0","0","62951","","null","","","null","75","","","","","","","","","","","","","","","",""
"","ITI","","html-keyboard-response","497","595351","0.0-1.0-684.0","0","0","62951","","null","","","null","75","","","","","","","","","","","","","","","NaN",""
"","S1","","html-keyboard-response","498","595605","0.0-1.0-686.0","0","0","62951","","null","","","null","76","","","","","","","","","","","","","","","",""
"","ISI","","html-keyboard-response","499","596608","0.0-1.0-687.0","0","0","62951","","null","","","null","76","NaN","","","","","","","","","","","","","","",""
"","S2","","html-keyboard-response","500","596861","0.0-1.0-688.0","0","0","62951","","null","","","null","76","","NaN","","","","","","","","","","","","","",""
"","response","","html-keyboard-response","501","597316","0.0-1.0-689.0-0.0","0","0","62951","","452","","","68","76","","","2","76","training","adjacent","FG","6","7","O.jpg","P.jpg","0","1","0","",""
"","feedback","","html-keyboard-response","502","598319","0.0-1.0-690.0-0.0","0","0","62951","","null","","","null","76","","","","","","","","","","","","","","","",""
"","time_out","","html-keyboard-response","503","600322","0.0-1.0-692.0-0.0","0","0","62951","","null","","","null","76","","","","","","","","","","","","","","","",""
"","ITI","","html-keyboard-response","504","601325","0.0-1.0-693.0","0","0","62951","","null","","","null","76","","","","","","","","","","","","","","","NaN",""
"","S1","","html-keyboard-response","505","601580","0.0-1.0-695.0","0","0","62951","","null","","","null","77","","","","","","","","","","","","","","","",""
"","ISI","","html-keyboard-response","506","602583","0.0-1.0-696.0","0","0","62951","","null","","","null","77","NaN","","","","","","","","","","","","","","",""
"","S2","","html-keyboard-response","507","602836","0.0-1.0-697.0","0","0","62951","","null","","","null","77","","NaN","","","","","","","","","","","","","",""
"","response","","html-keyboard-response","508","603093","0.0-1.0-698.0-0.0","0","0","62951","","254","","","75","77","","","2","77","training","adjacent","CD","3","4","Q.jpg","M.jpg","1","1","1","",""
"","feedback","","html-keyboard-response","509","604096","0.0-1.0-699.0-0.0","0","0","62951","","null","","","null","77","","","","","","","","","","","","","","","",""
"","ITI","","html-keyboard-response","510","605100","0.0-1.0-702.0","0","0","62951","","null","","","null","77","","","","","","","","","","","","","","","NaN",""
"","S1","","html-keyboard-response","511","605354","0.0-1.0-704.0","0","0","62951","","null","","","null","78","","","","","","","","","","","","","","","",""
"","ISI","","html-keyboard-response","512","606358","0.0-1.0-705.0","0","0","62951","","null","","","null","78","NaN","","","","","","","","","","","","","","",""
"","S2","","html-keyboard-response","513","606612","0.0-1.0-706.0","0","0","62951","","null","","","null","78","","NaN","","","","","","","","","","","","","",""
"","response","","html-keyboard-response","514","607067","0.0-1.0-707.0-0.0","0","0","62951","","452","","","68","78","","","2","78","training","adjacent","DE","4","5","M.jpg","R.jpg","0","1","0","",""
"","feedback","","html-keyboard-response","515","608070","0.0-1.0-708.0-0.0","0","0","62951","","null","","","null","78","","","","","","","","","","","","","","","",""
"","time_out","","html-keyboard-response","516","610073","0.0-1.0-710.0-0.0","0","0","62951","","null","","","null","78","","","","","","","","","","","","","","","",""
"","ITI","","html-keyboard-response","517","611077","0.0-1.0-711.0","0","0","62951","","null","","","null","78","","","","","","","","","","","","","","","NaN",""
"","S1","","html-keyboard-response","518","611330","0.0-1.0-713.0","0","0","62951","","null","","","null","79","","","","","","","","","","","","","","","",""
"","ISI","","html-keyboard-response","519","612334","0.0-1.0-714.0","0","0","62951","","null","","","null","79","NaN","","","","","","","","","","","","","","",""
"","S2","","html-keyboard-response","520","612588","0.0-1.0-715.0","0","0","62951","","null","","","null","79","","NaN","","","","","","","","","","","","","",""
"","response","","html-keyboard-response","521","612844","0.0-1.0-716.0-0.0","0","0","62951","","253","","","75","79","","","2","79","training","adjacent","CB","3","2","Q.jpg","N.jpg","1","0","0","",""
"","feedback","","html-keyboard-response","522","613848","0.0-1.0-717.0-0.0","0","0","62951","","null","","","null","79","","","","","","","","","","","","","","","",""
"","time_out","","html-keyboard-response","523","615852","0.0-1.0-719.0-0.0","0","0","62951","","null","","","null","79","","","","","","","","","","","","","","","",""
"","ITI","","html-keyboard-response","524","616855","0.0-1.0-720.0","0","0","62951","","null","","","null","79","","","","","","","","","","","","","","","NaN",""
"","S1","","html-keyboard-response","525","617108","0.0-1.0-722.0","0","0","62951","","null","","","null","80","","","","","","","","","","","","","","","",""
"","ISI","","html-keyboard-response","526","618111","0.0-1.0-723.0","0","0","62951","","null","","","null","80","NaN","","","","","","","","","","","","","","",""
"","S2","","html-keyboard-response","527","618364","0.0-1.0-724.0","0","0","62951","","null","","","null","80","","NaN","","","","","","","","","","","","","",""
"","response","","html-keyboard-response","528","618604","0.0-1.0-725.0-0.0","0","0","62951","","237","","","68","80","","","2","80","training","adjacent","GF","7","6","P.jpg","O.jpg","0","0","1","",""
"","feedback","","html-keyboard-response","529","619608","0.0-1.0-726.0-0.0","0","0","62951","","null","","","null","80","","","","","","","","","","","","","","","",""
"","ITI","","html-keyboard-response","530","620611","0.0-1.0-729.0","0","0","62951","","null","","","null","80","","","","","","","","","","","","","","","NaN",""
"","S1","","html-keyboard-response","531","620864","0.0-1.0-731.0","0","0","62951","","null","","","null","81","","","","","","","","","","","","","","","",""
"","ISI","","html-keyboard-response","532","621867","0.0-1.0-732.0","0","0","62951","","null","","","null","81","NaN","","","","","","","","","","","","","","",""
"","S2","","html-keyboard-response","533","622121","0.0-1.0-733.0","0","0","62951","","null","","","null","81","","NaN","","","","","","","","","","","","","",""
"","response","","html-keyboard-response","534","622500","0.0-1.0-734.0-0.0","0","0","62951","","376","","","68","81","","","2","81","training","adjacent","BC","2","3","N.jpg","Q.jpg","0","1","0","",""
"","feedback","","html-keyboard-response","535","623504","0.0-1.0-735.0-0.0","0","0","62951","","null","","","null","81","","","","","","","","","","","","","","","",""
"","time_out","","html-keyboard-response","536","625507","0.0-1.0-737.0-0.0","0","0","62951","","null","","","null","81","","","","","","","","","","","","","","","",""
"","ITI","","html-keyboard-response","537","626509","0.0-1.0-738.0","0","0","62951","","null","","","null","81","","","","","","","","","","","","","","","NaN",""
"","S1","","html-keyboard-response","538","626763","0.0-1.0-740.0","0","0","62951","","null","","","null","82","","","","","","","","","","","","","","","",""
"","ISI","","html-keyboard-response","539","627767","0.0-1.0-741.0","0","0","62951","","null","","","null","82","NaN","","","","","","","","","","","","","","",""
"","S2","","html-keyboard-response","540","628021","0.0-1.0-742.0","0","0","62951","","null","","","null","82","","NaN","","","","","","","","","","","","","",""
"","response","","html-keyboard-response","541","628300","0.0-1.0-743.0-0.0","0","0","62951","","276","","","75","82","","","2","82","training","adjacent","CD","3","4","Q.jpg","M.jpg","1","1","1","",""
"","feedback","","html-keyboard-response","542","629303","0.0-1.0-744.0-0.0","0","0","62951","","null","","","null","82","","","","","","","","","","","","","","","",""
"","ITI","","html-keyboard-response","543","630307","0.0-1.0-747.0","0","0","62951","","null","","","null","82","","","","","","","","","","","","","","","NaN",""
"","S1","","html-keyboard-response","544","630561","0.0-1.0-749.0","0","0","62951","","null","","","null","83","","","","","","","","","","","","","","","",""
"","ISI","","html-keyboard-response","545","631565","0.0-1.0-750.0","0","0","62951","","null","","","null","83","NaN","","","","","","","","","","","","","","",""
"","S2","","html-keyboard-response","546","631820","0.0-1.0-751.0","0","0","62951","","null","","","null","83","","NaN","","","","","","","","","","","","","",""
"","response","","html-keyboard-response","547","632156","0.0-1.0-752.0-0.0","0","0","62951","","333","","","68","83","","","2","83","training","adjacent","DE","4","5","M.jpg","R.jpg","0","1","0","",""
"","feedback","","html-keyboard-response","548","633161","0.0-1.0-753.0-0.0","0","0","62951","","null","","","null","83","","","","","","","","","","","","","","","",""
"","time_out","","html-keyboard-response","549","635164","0.0-1.0-755.0-0.0","0","0","62951","","null","","","null","83","","","","","","","","","","","","","","","",""
"","ITI","","html-keyboard-response","550","636167","0.0-1.0-756.0","0","0","62951","","null","","","null","83","","","","","","","","","","","","","","","NaN",""
"","S1","","html-keyboard-response","551","636420","0.0-1.0-758.0","0","0","62951","","null","","","null","84","","","","","","","","","","","","","","","",""
"","ISI","","html-keyboard-response","552","637425","0.0-1.0-759.0","0","0","62951","","null","","","null","84","NaN","","","","","","","","","","","","","","",""
"","S2","","html-keyboard-response","553","637679","0.0-1.0-760.0","0","0","62951","","null","","","null","84","","NaN","","","","","","","","","","","","","",""
"","response","","html-keyboard-response","554","637939","0.0-1.0-761.0-0.0","0","0","62951","","258","","","75","84","","","2","84","training","adjacent","CD","3","4","Q.jpg","M.jpg","1","1","1","",""
"","feedback","","html-keyboard-response","555","638942","0.0-1.0-762.0-0.0","0","0","62951","","null","","","null","84","","","","","","","","","","","","","","","",""
"","ITI","","html-keyboard-response","556","639946","0.0-1.0-765.0","0","0","62951","","null","","","null","84","","","","","","","","","","","","","","","NaN",""
"","S1","","html-keyboard-response","557","640199","0.0-1.0-767.0","0","0","62951","","null","","","null","85","","","","","","","","","","","","","","","",""
"","ISI","","html-keyboard-response","558","641201","0.0-1.0-768.0","0","0","62951","","null","","","null","85","NaN","","","","","","","","","","","","","","",""
"","S2","","html-keyboard-response","559","641468","0.0-1.0-769.0","0","0","62951","","null","","","null","85","","NaN","","","","","","","","","","","","","",""
"","response","","html-keyboard-response","560","641627","0.0-1.0-770.0-0.0","0","0","62951","","156","","","68","85","","","2","85","training","adjacent","ED","5","4","R.jpg","M.jpg","0","0","1","",""
"","feedback","","html-keyboard-response","561","642631","0.0-1.0-771.0-0.0","0","0","62951","","null","","","null","85","","","","","","","","","","","","","","","",""
"","ITI","","html-keyboard-response","562","643635","0.0-1.0-774.0","0","0","62951","","null","","","null","85","","","","","","","","","","","","","","","NaN",""
"","S1","","html-keyboard-response","563","643888","0.0-1.0-776.0","0","0","62951","","null","","","null","86","","","","","","","","","","","","","","","",""
"","ISI","","html-keyboard-response","564","644891","0.0-1.0-777.0","0","0","62951","","null","","","null","86","NaN","","","","","","","","","","","","","","",""
"","S2","","html-keyboard-response","565","645145","0.0-1.0-778.0","0","0","62951","","null","","","null","86","","NaN","","","","","","","","","","","","","",""
"","response","","html-keyboard-response","566","645410","0.0-1.0-779.0-0.0","0","0","62951","","263","","","75","86","","","2","86","training","adjacent","FE","6","5","O.jpg","R.jpg","1","0","0","",""
"","feedback","","html-keyboard-response","567","646414","0.0-1.0-780.0-0.0","0","0","62951","","null","","","null","86","","","","","","","","","","","","","","","",""
"","time_out","","html-keyboard-response","568","648416","0.0-1.0-782.0-0.0","0","0","62951","","null","","","null","86","","","","","","","","","","","","","","","",""
"","ITI","","html-keyboard-response","569","649420","0.0-1.0-783.0","0","0","62951","","null","","","null","86","","","","","","","","","","","","","","","NaN",""
"","S1","","html-keyboard-response","570","649675","0.0-1.0-785.0","0","0","62951","","null","","","null","87","","","","","","","","","","","","","","","",""
"","ISI","","html-keyboard-response","571","650678","0.0-1.0-786.0","0","0","62951","","null","","","null","87","NaN","","","","","","","","","","","","","","",""
"","S2","","html-keyboard-response","572","650932","0.0-1.0-787.0","0","0","62951","","null","","","null","87","","NaN","","","","","","","","","","","","","",""
"","response","","html-keyboard-response","573","651156","0.0-1.0-788.0-0.0","0","0","62951","","221","","","75","87","","","2","87","training","adjacent","AB","1","2","L.jpg","N.jpg","1","1","1","",""
"","feedback","","html-keyboard-response","574","652160","0.0-1.0-789.0-0.0","0","0","62951","","null","","","null","87","","","","","","","","","","","","","","","",""
"","ITI","","html-keyboard-response","575","653164","0.0-1.0-792.0","0","0","62951","","null","","","null","87","","","","","","","","","","","","","","","NaN",""
"","S1","","html-keyboard-response","576","653418","0.0-1.0-794.0","0","0","62951","","null","","","null","88","","","","","","","","","","","","","","","",""
"","ISI","","html-keyboard-response","577","654420","0.0-1.0-795.0","0","0","62951","","null","","","null","88","NaN","","","","","","","","","","","","","","",""
"","S2","","html-keyboard-response","578","654674","0.0-1.0-796.0","0","0","62951","","null","","","null","88","","NaN","","","","","","","","","","","","","",""
"","response","","html-keyboard-response","579","654972","0.0-1.0-797.0-0.0","0","0","62951","","295","","","68","88","","","2","88","training","adjacent","ED","5","4","R.jpg","M.jpg","0","0","1","",""
"","feedback","","html-keyboard-response","580","655976","0.0-1.0-798.0-0.0","0","0","62951","","null","","","null","88","","","","","","","","","","","","","","","",""
"","ITI","","html-keyboard-response","581","656980","0.0-1.0-801.0","0","0","62951","","null","","","null","88","","","","","","","","","","","","","","","NaN",""
"","S1","","html-keyboard-response","582","657232","0.0-1.0-803.0","0","0","62951","","null","","","null","89","","","","","","","","","","","","","","","",""
