"success","ttype","start_time","trial_type","trial_index","time_elapsed","internal_node_id","warning","missed_checkup","PID","view_history","rt","responses","repeat_instructions","key_press","index","keypress_isi","keypress_S2","block","trial_num","phase","group_type","pair_type","S1_stim","S2_stim","S1_img","S2_img","S1_chosen","S1_higher","accuracy","keypress_iti","total_bonus_tally"
"true","full_screen","d03032023hr2139","fullscreen","0","2117","0.0-0.0","0","0","57363","","","","","","","","","","","","","","","","","","","","","",""
"","instructions","","instructions","1","16971","0.0-1.0-0.0-0.0","0","0","57363","[{""page_index"":0,""viewing_time"":5237},{""page_index"":1,""viewing_time"":5068},{""page_index"":2,""viewing_time"":3741},{""page_index"":3,""viewing_time"":807}]","14854","","","","","","","","","","","","","","","","","","","",""
"","comprehension_check","","survey-multi-choice","2","29644","0.0-1.0-0.0-1.0","0","0","57363","","12668","{""Q0"":""True"",""Q1"":""K"",""Q2"":""Only when the screen 'MAKE A CHOICE' is shown"",""Q3"":""Green mark"",""Q4"":""either D or K""}","1","","","","","","","","","","","","","","","","","",""
"","missed_instruction_checkup","","html-keyboard-response","3","30981","0.0-1.0-0.0-2.0-0.0","0","1","57363","","1335","","","32","","","","","","","","","","","","","","","","",""
"","instructions","","instructions","4","40835","0.0-1.0-0.1-0.1","0","0","57363","[{""page_index"":0,""viewing_time"":1693},{""page_index"":1,""viewing_time"":6729},{""page_index"":2,""viewing_time"":887},{""page_index"":3,""viewing_time"":544}]","9854","","","","","","","","","","","","","","","","","","","",""
"","comprehension_check","","survey-multi-choice","5","48003","0.0-1.0-0.1-1.1","0","0","57363","","7162","{""Q0"":""True"",""Q1"":""K"",""Q2"":""Once the second image appears and while the screen 'MAKE A CHOICE' is shown"",""Q3"":""Green mark"",""Q4"":""either D or K""}","0","","","","","","","","","","","","","","","","","",""
"","start_exp","","html-keyboard-response","6","49233","0.0-1.0-1.0","0","0","57363","","1228","","","32","","","","","","","","","","","","","","","","",""
"","S1","","html-keyboard-response","7","49485","0.0-1.0-2.0","0","0","57363","","null","","","null","0","","","","","","","","","","","","","","","",""
"","ISI","","html-keyboard-response","8","49988","0.0-1.0-3.0","0","0","57363","","null","","","null","0","NaN","","","","","","","","","","","","","","",""
"","S2","","html-keyboard-response","9","50242","0.0-1.0-4.0","0","0","57363","","null","","","null","0","","NaN","","","","","","","","","","","","","",""
"","response","","html-keyboard-response","10","51674","0.0-1.0-5.0-0.0","0","0","57363","","1430","","","68","0","","","1","0","training","adjacent","DC","4","3","O.jpg","P.jpg","0","0","1","",""
"","feedback","","html-keyboard-response","11","52675","0.0-1.0-6.0-0.0","0","0","57363","","null","","","null","0","","","","","","","","","","","","","","","",""
"","ITI","","html-keyboard-response","12","53677","0.0-1.0-9.0","0","0","57363","","null","","","null","0","","","","","","","","","","","","","","","NaN",""
"","S1","","html-keyboard-response","13","53930","0.0-1.0-11.0","0","0","57363","","null","","","null","1","","","","","","","","","","","","","","","",""
"","ISI","","html-keyboard-response","14","54432","0.0-1.0-12.0","0","0","57363","","null","","","null","1","NaN","","","","","","","","","","","","","","",""
"","S2","","html-keyboard-response","15","54685","0.0-1.0-13.0","0","0","57363","","null","","","null","1","","NaN","","","","","","","","","","","","","",""
"","response","","html-keyboard-response","16","55037","0.0-1.0-14.0-0.0","0","0","57363","","349","","","75","1","","","1","1","training","adjacent","BA","2","1","L.jpg","Q.jpg","1","0","0","",""
"","feedback","","html-keyboard-response","17","56042","0.0-1.0-15.0-0.0","0","0","57363","","null","","","null","1","","","","","","","","","","","","","","","",""
"","time_out","","html-keyboard-response","18","58044","0.0-1.0-17.0-0.0","0","0","57363","","null","","","null","1","","","","","","","","","","","","","","","",""
"","ITI","","html-keyboard-response","19","59046","0.0-1.0-18.0","0","0","57363","","null","","","null","1","","","","","","","","","","","","","","","NaN",""
"","S1","","html-keyboard-response","20","59298","0.0-1.0-20.0","0","0","57363","","null","","","null","2","","","","","","","","","","","","","","","",""
"","ISI","","html-keyboard-response","21","59801","0.0-1.0-21.0","0","0","57363","","null","","","null","2","NaN","","","","","","","","","","","","","","",""
"","S2","","html-keyboard-response","22","60053","0.0-1.0-22.0","0","0","57363","","null","","","null","2","","NaN","","","","","","","","","","","","","",""
"","response","","html-keyboard-response","23","60804","0.0-1.0-23.0-0.0","0","0","57363","","750","","","75","2","","","1","2","training","adjacent","DE","4","5","O.jpg","N.jpg","1","1","1","",""
"","feedback","","html-keyboard-response","24","61806","0.0-1.0-24.0-0.0","0","0","57363","","null","","","null","2","","","","","","","","","","","","","","","",""
"","ITI","","html-keyboard-response","25","62808","0.0-1.0-27.0","0","0","57363","","null","","","null","2","","","","","","","","","","","","","","","NaN",""
"","S1","","html-keyboard-response","26","63061","0.0-1.0-29.0","0","0","57363","","null","","","null","3","","","","","","","","","","","","","","","",""
"","ISI","","html-keyboard-response","27","63563","0.0-1.0-30.0","0","0","57363","","null","","","null","3","NaN","","","","","","","","","","","","","","",""
"","S2","","html-keyboard-response","28","63816","0.0-1.0-31.0","0","0","57363","","null","","","null","3","","NaN","","","","","","","","","","","","","",""
"","response","","html-keyboard-response","29","63976","0.0-1.0-32.0-0.0","0","0","57363","","158","","","75","3","","","1","3","training","adjacent","CB","3","2","P.jpg","L.jpg","1","0","0","",""
"","feedback","","html-keyboard-response","30","64978","0.0-1.0-33.0-0.0","0","0","57363","","null","","","null","3","","","","","","","","","","","","","","","",""
"","time_out","","html-keyboard-response","31","66980","0.0-1.0-35.0-0.0","0","0","57363","","null","","","null","3","","","","","","","","","","","","","","","",""
"","ITI","","html-keyboard-response","32","67982","0.0-1.0-36.0","0","0","57363","","null","","","null","3","","","","","","","","","","","","","","","NaN",""
"","S1","","html-keyboard-response","33","68233","0.0-1.0-38.0","0","0","57363","","null","","","null","4","","","","","","","","","","","","","","","",""
"","ISI","","html-keyboard-response","34","68735","0.0-1.0-39.0","0","0","57363","","null","","","null","4","NaN","","","","","","","","","","","","","","",""
"","S2","","html-keyboard-response","35","68987","0.0-1.0-40.0","0","0","57363","","null","","","null","4","","NaN","","","","","","","","","","","","","",""
"","response","","html-keyboard-response","36","69287","0.0-1.0-41.0-0.0","0","0","57363","","298","","","68","4","","","1","4","training","adjacent","FE","6","5","M.jpg","N.jpg","0","0","1","",""
"","feedback","","html-keyboard-response","37","70290","0.0-1.0-42.0-0.0","0","0","57363","","null","","","null","4","","","","","","","","","","","","","","","",""
"","ITI","","html-keyboard-response","38","71292","0.0-1.0-45.0","0","0","57363","","null","","","null","4","","","","","","","","","","","","","","","NaN",""
"","S1","","html-keyboard-response","39","71543","0.0-1.0-47.0","0","0","57363","","null","","","null","5","","","","","","","","","","","","","","","",""
"","ISI","","html-keyboard-response","40","72045","0.0-1.0-48.0","0","0","57363","","null","","","null","5","NaN","","","","","","","","","","","","","","",""
"","S2","","html-keyboard-response","41","72297","0.0-1.0-49.0","0","0","57363","","null","","","null","5","","NaN","","","","","","","","","","","","","",""
"","response","","html-keyboard-response","42","72482","0.0-1.0-50.0-0.0","0","0","57363","","183","","","68","5","","","1","5","training","adjacent","DE","4","5","O.jpg","N.jpg","0","1","0","",""
"","feedback","","html-keyboard-response","43","73484","0.0-1.0-51.0-0.0","0","0","57363","","null","","","null","5","","","","","","","","","","","","","","","",""
"","time_out","","html-keyboard-response","44","75486","0.0-1.0-53.0-0.0","0","0","57363","","null","","","null","5","","","","","","","","","","","","","","","",""
"","ITI","","html-keyboard-response","45","76488","0.0-1.0-54.0","0","0","57363","","null","","","null","5","","","","","","","","","","","","","","","NaN",""
"","S1","","html-keyboard-response","46","76740","0.0-1.0-56.0","0","0","57363","","null","","","null","6","","","","","","","","","","","","","","","",""
"","ISI","","html-keyboard-response","47","77241","0.0-1.0-57.0","0","0","57363","","null","","","null","6","NaN","","","","","","","","","","","","","","",""
"","S2","","html-keyboard-response","48","77493","0.0-1.0-58.0","0","0","57363","","null","","","null","6","","NaN","","","","","","","","","","","","","",""
"","response","","html-keyboard-response","49","77753","0.0-1.0-59.0-0.0","0","0","57363","","258","","","75","6","","","1","6","training","adjacent","GF","7","6","R.jpg","M.jpg","1","0","0","",""
"","feedback","","html-keyboard-response","50","78755","0.0-1.0-60.0-0.0","0","0","57363","","null","","","null","6","","","","","","","","","","","","","","","",""
"","time_out","","html-keyboard-response","51","80757","0.0-1.0-62.0-0.0","0","0","57363","","null","","","null","6","","","","","","","","","","","","","","","",""
"","ITI","","html-keyboard-response","52","81758","0.0-1.0-63.0","0","0","57363","","null","","","null","6","","","","","","","","","","","","","","","NaN",""
"","S1","","html-keyboard-response","53","82012","0.0-1.0-65.0","0","0","57363","","null","","","null","7","","","","","","","","","","","","","","","",""
"","ISI","","html-keyboard-response","54","82513","0.0-1.0-66.0","0","0","57363","","null","","","null","7","NaN","","","","","","","","","","","","","","",""
"","S2","","html-keyboard-response","55","82765","0.0-1.0-67.0","0","0","57363","","null","","","null","7","","NaN","","","","","","","","","","","","","",""
"","response","","html-keyboard-response","56","83092","0.0-1.0-68.0-0.0","0","0","57363","","326","","","75","7","","","1","7","training","adjacent","ED","5","4","N.jpg","O.jpg","1","0","0","",""
"","feedback","","html-keyboard-response","57","84095","0.0-1.0-69.0-0.0","0","0","57363","","null","","","null","7","","","","","","","","","","","","","","","",""
"","time_out","","html-keyboard-response","58","86098","0.0-1.0-71.0-0.0","0","0","57363","","null","","","null","7","","","","","","","","","","","","","","","",""
"","ITI","","html-keyboard-response","59","87101","0.0-1.0-72.0","0","0","57363","","null","","","null","7","","","","","","","","","","","","","","","NaN",""
"","S1","","html-keyboard-response","60","87354","0.0-1.0-74.0","0","0","57363","","null","","","null","8","","","","","","","","","","","","","","","",""
"","ISI","","html-keyboard-response","61","87855","0.0-1.0-75.0","0","0","57363","","null","","","null","8","NaN","","","","","","","","","","","","","","",""
"","S2","","html-keyboard-response","62","88107","0.0-1.0-76.0","0","0","57363","","null","","","null","8","","NaN","","","","","","","","","","","","","",""
"","response","","html-keyboard-response","63","88181","0.0-1.0-77.0-0.0","0","0","57363","","73","","","68","8","","","1","8","training","adjacent","EF","5","6","N.jpg","M.jpg","0","1","0","",""
"","feedback","","html-keyboard-response","64","89183","0.0-1.0-78.0-0.0","0","0","57363","","null","","","null","8","","","","","","","","","","","","","","","",""
"","time_out","","html-keyboard-response","65","91185","0.0-1.0-80.0-0.0","0","0","57363","","null","","","null","8","","","","","","","","","","","","","","","",""
"","ITI","","html-keyboard-response","66","92188","0.0-1.0-81.0","0","0","57363","","null","","","null","8","","","","","","","","","","","","","","","NaN",""
"","S1","","html-keyboard-response","67","92441","0.0-1.0-83.0","0","0","57363","","null","","","null","9","","","","","","","","","","","","","","","",""
"","ISI","","html-keyboard-response","68","92942","0.0-1.0-84.0","0","0","57363","","null","","","null","9","NaN","","","","","","","","","","","","","","",""
"","S2","","html-keyboard-response","69","93194","0.0-1.0-85.0","0","0","57363","","null","","","null","9","","NaN","","","","","","","","","","","","","",""
"","response","","html-keyboard-response","70","93422","0.0-1.0-86.0-0.0","0","0","57363","","227","","","68","9","","","1","9","training","adjacent","CB","3","2","P.jpg","L.jpg","0","0","1","",""
"","feedback","","html-keyboard-response","71","94424","0.0-1.0-87.0-0.0","0","0","57363","","null","","","null","9","","","","","","","","","","","","","","","",""
"","ITI","","html-keyboard-response","72","95426","0.0-1.0-90.0","0","0","57363","","null","","","null","9","","","","","","","","","","","","","","","NaN",""
"","S1","","html-keyboard-response","73","95677","0.0-1.0-92.0","0","0","57363","","null","","","null","10","","","","","","","","","","","","","","","",""
"","ISI","","html-keyboard-response","74","96179","0.0-1.0-93.0","0","0","57363","","null","","","null","10","NaN","","","","","","","","","","","","","","",""
"","S2","","html-keyboard-response","75","96431","0.0-1.0-94.0","0","0","57363","","null","","","null","10","","NaN","","","","","","","","","","","","","",""
"","response","","html-keyboard-response","76","96528","0.0-1.0-95.0-0.0","0","0","57363","","95","","","68","10","","","1","10","training","adjacent","CB","3","2","P.jpg","L.jpg","0","0","1","",""
"","feedback","","html-keyboard-response","77","97531","0.0-1.0-96.0-0.0","0","0","57363","","null","","","null","10","","","","","","","","","","","","","","","",""
"","ITI","","html-keyboard-response","78","98537","0.0-1.0-99.0","0","0","57363","","null","","","null","10","","","","","","","","","","","","","","","NaN",""
"","S1","","html-keyboard-response","79","98789","0.0-1.0-101.0","0","0","57363","","null","","","null","11","","","","","","","","","","","","","","","",""
"","ISI","","html-keyboard-response","80","99291","0.0-1.0-102.0","0","0","57363","","null","","","null","11","NaN","","","","","","","","","","","","","","",""
"","S2","","html-keyboard-response","81","99544","0.0-1.0-103.0","0","0","57363","","null","","","null","11","","NaN","","","","","","","","","","","","","",""
"","response","","html-keyboard-response","82","99662","0.0-1.0-104.0-0.0","0","0","57363","","118","","","68","11","","","1","11","training","adjacent","ED","5","4","N.jpg","O.jpg","0","0","1","",""
"","feedback","","html-keyboard-response","83","100665","0.0-1.0-105.0-0.0","0","0","57363","","null","","","null","11","","","","","","","","","","","","","","","",""
"","ITI","","html-keyboard-response","84","101667","0.0-1.0-108.0","0","0","57363","","null","","","null","11","","","","","","","","","","","","","","","NaN",""
"","S1","","html-keyboard-response","85","101919","0.0-1.0-110.0","0","0","57363","","null","","","null","12","","","","","","","","","","","","","","","",""
"","ISI","","html-keyboard-response","86","102421","0.0-1.0-111.0","0","0","57363","","null","","","null","12","NaN","","","","","","","","","","","","","","",""
"","S2","","html-keyboard-response","87","102673","0.0-1.0-112.0","0","0","57363","","null","","","null","12","","NaN","","","","","","","","","","","","","",""
"","response","","html-keyboard-response","88","103049","0.0-1.0-113.0-0.0","0","0","57363","","374","","","75","12","","","1","12","training","adjacent","CD","3","4","P.jpg","O.jpg","1","1","1","",""
"","feedback","","html-keyboard-response","89","104064","0.0-1.0-114.0-0.0","0","0","57363","","null","","","null","12","","","","","","","","","","","","","","","",""
"","ITI","","html-keyboard-response","90","105066","0.0-1.0-117.0","0","0","57363","","null","","","null","12","","","","","","","","","","","","","","","NaN",""
"","S1","","html-keyboard-response","91","105319","0.0-1.0-119.0","0","0","57363","","null","","","null","13","","","","","","","","","","","","","","","",""
"","ISI","","html-keyboard-response","92","105821","0.0-1.0-120.0","0","0","57363","","null","","","null","13","NaN","","","","","","","","","","","","","","",""
"","S2","","html-keyboard-response","93","106074","0.0-1.0-121.0","0","0","57363","","null","","","null","13","","NaN","","","","","","","","","","","","","",""
"","response","","html-keyboard-response","94","106280","0.0-1.0-122.0-0.0","0","0","57363","","204","","","68","13","","","1","13","training","adjacent","GF","7","6","R.jpg","M.jpg","0","0","1","",""
"","feedback","","html-keyboard-response","95","107282","0.0-1.0-123.0-0.0","0","0","57363","","null","","","null","13","","","","","","","","","","","","","","","",""
"","ITI","","html-keyboard-response","96","108283","0.0-1.0-126.0","0","0","57363","","null","","","null","13","","","","","","","","","","","","","","","NaN",""
"","S1","","html-keyboard-response","97","108535","0.0-1.0-128.0","0","0","57363","","null","","","null","14","","","","","","","","","","","","","","","",""
"","ISI","","html-keyboard-response","98","109036","0.0-1.0-129.0","0","0","57363","","null","","","null","14","NaN","","","","","","","","","","","","","","",""
"","S2","","html-keyboard-response","99","109296","0.0-1.0-130.0","0","0","57363","","null","","","null","14","","NaN","","","","","","","","","","","","","",""
"","response","","html-keyboard-response","100","109343","0.0-1.0-131.0-0.0","0","0","57363","","46","","","75","14","","","1","14","training","adjacent","BA","2","1","L.jpg","Q.jpg","1","0","0","",""
"","feedback","","html-keyboard-response","101","110345","0.0-1.0-132.0-0.0","0","0","57363","","null","","","null","14","","","","","","","","","","","","","","","",""
"","time_out","","html-keyboard-response","102","112347","0.0-1.0-134.0-0.0","0","0","57363","","null","","","null","14","","","","","","","","","","","","","","","",""
"","ITI","","html-keyboard-response","103","113350","0.0-1.0-135.0","0","0","57363","","null","","","null","14","","","","","","","","","","","","","","","NaN",""
"","S1","","html-keyboard-response","104","113604","0.0-1.0-137.0","0","0","57363","","null","","","null","15","","","","","","","","","","","","","","","",""
"","ISI","","html-keyboard-response","105","114105","0.0-1.0-138.0","0","0","57363","","null","","","null","15","NaN","","","","","","","","","","","","","","",""
"","S2","","html-keyboard-response","106","114357","0.0-1.0-139.0","0","0","57363","","null","","","null","15","","NaN","","","","","","","","","","","","","",""
"","response","","html-keyboard-response","107","114719","0.0-1.0-140.0-0.0","0","0","57363","","361","","","75","15","","","1","15","training","adjacent","GF","7","6","R.jpg","M.jpg","1","0","0","",""
"","feedback","","html-keyboard-response","108","115722","0.0-1.0-141.0-0.0","0","0","57363","","null","","","null","15","","","","","","","","","","","","","","","",""
"","time_out","","html-keyboard-response","109","117723","0.0-1.0-143.0-0.0","0","0","57363","","null","","","null","15","","","","","","","","","","","","","","","",""
"","ITI","","html-keyboard-response","110","118726","0.0-1.0-144.0","0","0","57363","","null","","","null","15","","","","","","","","","","","","","","","NaN",""
"","S1","","html-keyboard-response","111","118979","0.0-1.0-146.0","0","0","57363","","null","","","null","16","","","","","","","","","","","","","","","",""
"","ISI","","html-keyboard-response","112","119482","0.0-1.0-147.0","0","0","57363","","null","","","null","16","NaN","","","","","","","","","","","","","","",""
"","S2","","html-keyboard-response","113","119734","0.0-1.0-148.0","0","0","57363","","null","","","null","16","","NaN","","","","","","","","","","","","","",""
"","response","","html-keyboard-response","114","119972","0.0-1.0-149.0-0.0","0","0","57363","","236","","","68","16","","","1","16","training","adjacent","AB","1","2","Q.jpg","L.jpg","0","1","0","",""
"","feedback","","html-keyboard-response","115","120977","0.0-1.0-150.0-0.0","0","0","57363","","null","","","null","16","","","","","","","","","","","","","","","",""
"","time_out","","html-keyboard-response","116","122979","0.0-1.0-152.0-0.0","0","0","57363","","null","","","null","16","","","","","","","","","","","","","","","",""
"","ITI","","html-keyboard-response","117","123981","0.0-1.0-153.0","0","0","57363","","null","","","null","16","","","","","","","","","","","","","","","NaN",""
"","S1","","html-keyboard-response","118","124233","0.0-1.0-155.0","0","0","57363","","null","","","null","17","","","","","","","","","","","","","","","",""
"","ISI","","html-keyboard-response","119","124735","0.0-1.0-156.0","0","0","57363","","null","","","null","17","NaN","","","","","","","","","","","","","","",""
"","S2","","html-keyboard-response","120","124987","0.0-1.0-157.0","0","0","57363","","null","","","null","17","","NaN","","","","","","","","","","","","","",""
"","response","","html-keyboard-response","121","125045","0.0-1.0-158.0-0.0","0","0","57363","","57","","","75","17","","","1","17","training","adjacent","AB","1","2","Q.jpg","L.jpg","1","1","1","",""
"","feedback","","html-keyboard-response","122","126048","0.0-1.0-159.0-0.0","0","0","57363","","null","","","null","17","","","","","","","","","","","","","","","",""
"","ITI","","html-keyboard-response","123","127050","0.0-1.0-162.0","0","0","57363","","null","","","null","17","","","","","","","","","","","","","","","NaN",""
"","S1","","html-keyboard-response","124","127302","0.0-1.0-164.0","0","0","57363","","null","","","null","18","","","","","","","","","","","","","","","",""
"","ISI","","html-keyboard-response","125","127805","0.0-1.0-165.0","0","0","57363","","null","","","null","18","NaN","","","","","","","","","","","","","","",""
"","S2","","html-keyboard-response","126","128057","0.0-1.0-166.0","0","0","57363","","null","","","null","18","","NaN","","","","","","","","","","","","","",""
"","response","","html-keyboard-response","127","128216","0.0-1.0-167.0-0.0","0","0","57363","","157","","","68","18","","","1","18","training","adjacent","BC","2","3","L.jpg","P.jpg","0","1","0","",""
"","feedback","","html-keyboard-response","128","129217","0.0-1.0-168.0-0.0","0","0","57363","","null","","","null","18","","","","","","","","","","","","","","","",""
"","time_out","","html-keyboard-response","129","131222","0.0-1.0-170.0-0.0","0","0","57363","","null","","","null","18","","","","","","","","","","","","","","","",""
"","ITI","","html-keyboard-response","130","132225","0.0-1.0-171.0","0","0","57363","","null","","","null","18","","","","","","","","","","","","","","","NaN",""
"","S1","","html-keyboard-response","131","132476","0.0-1.0-173.0","0","0","57363","","null","","","null","19","","","","","","","","","","","","","","","",""
"","ISI","","html-keyboard-response","132","132979","0.0-1.0-174.0","0","0","57363","","null","","","null","19","NaN","","","","","","","","","","","","","","",""
"","S2","","html-keyboard-response","133","133232","0.0-1.0-175.0","0","0","57363","","null","","","null","19","","NaN","","","","","","","","","","","","","",""
"","response","","html-keyboard-response","134","134028","0.0-1.0-176.0-0.0","0","0","57363","","796","","","68","19","","","1","19","training","adjacent","EF","5","6","N.jpg","M.jpg","0","1","0","",""
"","feedback","","html-keyboard-response","135","135031","0.0-1.0-177.0-0.0","0","0","57363","","null","","","null","19","","","","","","","","","","","","","","","",""
"","time_out","","html-keyboard-response","136","137033","0.0-1.0-179.0-0.0","0","0","57363","","null","","","null","19","","","","","","","","","","","","","","","",""
"","ITI","","html-keyboard-response","137","138035","0.0-1.0-180.0","0","0","57363","","null","","","null","19","","","","","","","","","","","","","","","NaN",""
"","S1","","html-keyboard-response","138","138287","0.0-1.0-182.0","0","0","57363","","null","","","null","20","","","","","","","","","","","","","","","",""
"","ISI","","html-keyboard-response","139","138789","0.0-1.0-183.0","0","0","57363","","null","","","null","20","NaN","","","","","","","","","","","","","","",""
"","S2","","html-keyboard-response","140","139042","0.0-1.0-184.0","0","0","57363","","null","","","null","20","","NaN","","","","","","","","","","","","","",""
"","response","","html-keyboard-response","141","139855","0.0-1.0-185.0-0.0","0","0","57363","","811","","","68","20","","","1","20","training","adjacent","FE","6","5","M.jpg","N.jpg","0","0","1","",""
"","feedback","","html-keyboard-response","142","140861","0.0-1.0-186.0-0.0","0","0","57363","","null","","","null","20","","","","","","","","","","","","","","","",""
"","ITI","","html-keyboard-response","143","141863","0.0-1.0-189.0","0","0","57363","","null","","","null","20","","","","","","","","","","","","","","","NaN",""
"","S1","","html-keyboard-response","144","142116","0.0-1.0-191.0","0","0","57363","","null","","","null","21","","","","","","","","","","","","","","","",""
"","ISI","","html-keyboard-response","145","142617","0.0-1.0-192.0","0","0","57363","","null","","","null","21","NaN","","","","","","","","","","","","","","",""
"","S2","","html-keyboard-response","146","142869","0.0-1.0-193.0","0","0","57363","","null","","","null","21","","NaN","","","","","","","","","","","","","",""
"","response","","html-keyboard-response","147","142999","0.0-1.0-194.0-0.0","0","0","57363","","130","","","75","21","","","1","21","training","adjacent","BC","2","3","L.jpg","P.jpg","1","1","1","",""
"","feedback","","html-keyboard-response","148","144002","0.0-1.0-195.0-0.0","0","0","57363","","null","","","null","21","","","","","","","","","","","","","","","",""
"","ITI","","html-keyboard-response","149","145005","0.0-1.0-198.0","0","0","57363","","null","","","null","21","","","","","","","","","","","","","","","NaN",""
"","S1","","html-keyboard-response","150","145258","0.0-1.0-200.0","0","0","57363","","null","","","null","22","","","","","","","","","","","","","","","",""
"","ISI","","html-keyboard-response","151","145760","0.0-1.0-201.0","0","0","57363","","null","","","null","22","NaN","","","","","","","","","","","","","","",""
"","S2","","html-keyboard-response","152","146013","0.0-1.0-202.0","0","0","57363","","null","","","null","22","","NaN","","","","","","","","","","","","","",""
"","response","","html-keyboard-response","153","146134","0.0-1.0-203.0-0.0","0","0","57363","","120","","","68","22","","","1","22","training","adjacent","BA","2","1","L.jpg","Q.jpg","0","0","1","",""
"","feedback","","html-keyboard-response","154","147136","0.0-1.0-204.0-0.0","0","0","57363","","null","","","null","22","","","","","","","","","","","","","","","",""
"","ITI","","html-keyboard-response","155","148139","0.0-1.0-207.0","0","0","57363","","null","","","null","22","","","","","","","","","","","","","","","NaN",""
"","S1","","html-keyboard-response","156","148391","0.0-1.0-209.0","0","0","57363","","null","","","null","23","","","","","","","","","","","","","","","",""
"","ISI","","html-keyboard-response","157","148892","0.0-1.0-210.0","0","0","57363","","null","","","null","23","NaN","","","","","","","","","","","","","","",""
"","S2","","html-keyboard-response","158","149145","0.0-1.0-211.0","0","0","57363","","null","","","null","23","","NaN","","","","","","","","","","","","","",""
"","response","","html-keyboard-response","159","149527","0.0-1.0-212.0-0.0","0","0","57363","","381","","","75","23","","","1","23","training","adjacent","GF","7","6","R.jpg","M.jpg","1","0","0","",""
"","feedback","","html-keyboard-response","160","150530","0.0-1.0-213.0-0.0","0","0","57363","","null","","","null","23","","","","","","","","","","","","","","","",""
"","time_out","","html-keyboard-response","161","152532","0.0-1.0-215.0-0.0","0","0","57363","","null","","","null","23","","","","","","","","","","","","","","","",""
"","ITI","","html-keyboard-response","162","153535","0.0-1.0-216.0","0","0","57363","","null","","","null","23","","","","","","","","","","","","","","","NaN",""
"","S1","","html-keyboard-response","163","153787","0.0-1.0-218.0","0","0","57363","","null","","","null","24","","","","","","","","","","","","","","","",""
"","ISI","","html-keyboard-response","164","154289","0.0-1.0-219.0","0","0","57363","","null","","","null","24","NaN","","","","","","","","","","","","","","",""
"","S2","","html-keyboard-response","165","154541","0.0-1.0-220.0","0","0","57363","","null","","","null","24","","NaN","","","","","","","","","","","","","",""
"","response","","html-keyboard-response","166","154681","0.0-1.0-221.0-0.0","0","0","57363","","137","","","75","24","","","1","24","training","adjacent","BC","2","3","L.jpg","P.jpg","1","1","1","",""
"","feedback","","html-keyboard-response","167","155685","0.0-1.0-222.0-0.0","0","0","57363","","null","","","null","24","","","","","","","","","","","","","","","",""
"","ITI","","html-keyboard-response","168","156686","0.0-1.0-225.0","0","0","57363","","null","","","null","24","","","","","","","","","","","","","","","NaN",""
"","S1","","html-keyboard-response","169","156938","0.0-1.0-227.0","0","0","57363","","null","","","null","25","","","","","","","","","","","","","","","",""
"","ISI","","html-keyboard-response","170","157439","0.0-1.0-228.0","0","0","57363","","null","","","null","25","NaN","","","","","","","","","","","","","","",""
"","S2","","html-keyboard-response","171","157692","0.0-1.0-229.0","0","0","57363","","null","","","null","25","","NaN","","","","","","","","","","","","","",""
"","response","","html-keyboard-response","172","157918","0.0-1.0-230.0-0.0","0","0","57363","","225","","","68","25","","","1","25","training","adjacent","FG","6","7","M.jpg","R.jpg","0","1","0","",""
"","feedback","","html-keyboard-response","173","158921","0.0-1.0-231.0-0.0","0","0","57363","","null","","","null","25","","","","","","","","","","","","","","","",""
"","time_out","","html-keyboard-response","174","160923","0.0-1.0-233.0-0.0","0","0","57363","","null","","","null","25","","","","","","","","","","","","","","","",""
"","ITI","","html-keyboard-response","175","161939","0.0-1.0-234.0","0","0","57363","","null","","","null","25","","","","","","","","","","","","","","","NaN",""
"","S1","","html-keyboard-response","176","162191","0.0-1.0-236.0","0","0","57363","","null","","","null","26","","","","","","","","","","","","","","","",""
"","ISI","","html-keyboard-response","177","162694","0.0-1.0-237.0","0","0","57363","","null","","","null","26","NaN","","","","","","","","","","","","","","",""
"","S2","","html-keyboard-response","178","162946","0.0-1.0-238.0","0","0","57363","","null","","","null","26","","NaN","","","","","","","","","","","","","",""
"","response","","html-keyboard-response","179","163299","0.0-1.0-239.0-0.0","0","0","57363","","352","","","75","26","","","1","26","training","adjacent","DE","4","5","O.jpg","N.jpg","1","1","1","",""
"","feedback","","html-keyboard-response","180","164301","0.0-1.0-240.0-0.0","0","0","57363","","null","","","null","26","","","","","","","","","","","","","","","",""
"","ITI","","html-keyboard-response","181","165304","0.0-1.0-243.0","0","0","57363","","null","","","null","26","","","","","","","","","","","","","","","NaN",""
"","S1","","html-keyboard-response","182","165557","0.0-1.0-245.0","0","0","57363","","null","","","null","27","","","","","","","","","","","","","","","",""
"","ISI","","html-keyboard-response","183","166058","0.0-1.0-246.0","0","0","57363","","null","","","null","27","NaN","","","","","","","","","","","","","","",""
"","S2","","html-keyboard-response","184","166310","0.0-1.0-247.0","0","0","57363","","null","","","null","27","","NaN","","","","","","","","","","","","","",""
"","response","","html-keyboard-response","185","166393","0.0-1.0-248.0-0.0","0","0","57363","","82","","","75","27","","","1","27","training","adjacent","FE","6","5","M.jpg","N.jpg","1","0","0","",""
"","feedback","","html-keyboard-response","186","167395","0.0-1.0-249.0-0.0","0","0","57363","","null","","","null","27","","","","","","","","","","","","","","","",""
"","time_out","","html-keyboard-response","187","169397","0.0-1.0-251.0-0.0","0","0","57363","","null","","","null","27","","","","","","","","","","","","","","","",""
"","ITI","","html-keyboard-response","188","170399","0.0-1.0-252.0","0","0","57363","","null","","","null","27","","","","","","","","","","","","","","","NaN",""
"","S1","","html-keyboard-response","189","170651","0.0-1.0-254.0","0","0","57363","","null","","","null","28","","","","","","","","","","","","","","","",""
"","ISI","","html-keyboard-response","190","171152","0.0-1.0-255.0","0","0","57363","","null","","","null","28","NaN","","","","","","","","","","","","","","",""
"","S2","","html-keyboard-response","191","171405","0.0-1.0-256.0","0","0","57363","","null","","","null","28","","NaN","","","","","","","","","","","","","",""
"","response","","html-keyboard-response","192","172117","0.0-1.0-257.0-0.0","0","0","57363","","711","","","75","28","","","1","28","training","adjacent","CD","3","4","P.jpg","O.jpg","1","1","1","",""
"","feedback","","html-keyboard-response","193","173118","0.0-1.0-258.0-0.0","0","0","57363","","null","","","null","28","","","","","","","","","","","","","","","",""
"","ITI","","html-keyboard-response","194","174120","0.0-1.0-261.0","0","0","57363","","null","","","null","28","","","","","","","","","","","","","","","NaN",""
"","S1","","html-keyboard-response","195","174372","0.0-1.0-263.0","0","0","57363","","null","","","null","29","","","","","","","","","","","","","","","",""
"","ISI","","html-keyboard-response","196","174875","0.0-1.0-264.0","0","0","57363","","null","","","null","29","NaN","","","","","","","","","","","","","","",""
"","S2","","html-keyboard-response","197","175127","0.0-1.0-265.0","0","0","57363","","null","","","null","29","","NaN","","","","","","","","","","","","","",""
"","response","","html-keyboard-response","198","175416","0.0-1.0-266.0-0.0","0","0","57363","","288","","","75","29","","","1","29","training","adjacent","FG","6","7","M.jpg","R.jpg","1","1","1","",""
"","feedback","","html-keyboard-response","199","176418","0.0-1.0-267.0-0.0","0","0","57363","","null","","","null","29","","","","","","","","","","","","","","","",""
"","ITI","","html-keyboard-response","200","177420","0.0-1.0-270.0","0","0","57363","","null","","","null","29","","","","","","","","","","","","","","","NaN",""
"","S1","","html-keyboard-response","201","177673","0.0-1.0-272.0","0","0","57363","","null","","","null","30","","","","","","","","","","","","","","","",""
"","ISI","","html-keyboard-response","202","178175","0.0-1.0-273.0","0","0","57363","","null","","","null","30","NaN","","","","","","","","","","","","","","",""
"","S2","","html-keyboard-response","203","178428","0.0-1.0-274.0","0","0","57363","","null","","","null","30","","NaN","","","","","","","","","","","","","",""
"","response","","html-keyboard-response","204","178454","0.0-1.0-275.0-0.0","0","0","57363","","25","","","75","30","","","1","30","training","adjacent","AB","1","2","Q.jpg","L.jpg","1","1","1","",""
"","feedback","","html-keyboard-response","205","179456","0.0-1.0-276.0-0.0","0","0","57363","","null","","","null","30","","","","","","","","","","","","","","","",""
"","ITI","","html-keyboard-response","206","180458","0.0-1.0-279.0","0","0","57363","","null","","","null","30","","","","","","","","","","","","","","","NaN",""
"","S1","","html-keyboard-response","207","180709","0.0-1.0-281.0","0","0","57363","","null","","","null","31","","","","","","","","","","","","","","","",""
"","ISI","","html-keyboard-response","208","181211","0.0-1.0-282.0","0","0","57363","","null","","","null","31","NaN","","","","","","","","","","","","","","",""
"","S2","","html-keyboard-response","209","181463","0.0-1.0-283.0","0","0","57363","","null","","","null","31","","NaN","","","","","","","","","","","","","",""
"","response","","html-keyboard-response","210","181681","0.0-1.0-284.0-0.0","0","0","57363","","216","","","68","31","","","1","31","training","adjacent","ED","5","4","N.jpg","O.jpg","0","0","1","",""
"","feedback","","html-keyboard-response","211","182683","0.0-1.0-285.0-0.0","0","0","57363","","null","","","null","31","","","","","","","","","","","","","","","",""
"","ITI","","html-keyboard-response","212","183685","0.0-1.0-288.0","0","0","57363","","null","","","null","31","","","","","","","","","","","","","","","NaN",""
"","S1","","html-keyboard-response","213","183937","0.0-1.0-290.0","0","0","57363","","null","","","null","32","","","","","","","","","","","","","","","",""
"","ISI","","html-keyboard-response","214","184439","0.0-1.0-291.0","0","0","57363","","null","","","null","32","NaN","","","","","","","","","","","","","","",""
"","S2","","html-keyboard-response","215","184690","0.0-1.0-292.0","0","0","57363","","null","","","null","32","","NaN","","","","","","","","","","","","","",""
"","response","","html-keyboard-response","216","185147","0.0-1.0-293.0-0.0","0","0","57363","","455","","","75","32","","","1","32","training","adjacent","DC","4","3","O.jpg","P.jpg","1","0","0","",""
"","feedback","","html-keyboard-response","217","186149","0.0-1.0-294.0-0.0","0","0","57363","","null","","","null","32","","","","","","","","","","","","","","","",""
"","time_out","","html-keyboard-response","218","188151","0.0-1.0-296.0-0.0","0","0","57363","","null","","","null","32","","","","","","","","","","","","","","","",""
"","ITI","","html-keyboard-response","219","189153","0.0-1.0-297.0","0","0","57363","","null","","","null","32","","","","","","","","","","","","","","","NaN",""
"","S1","","html-keyboard-response","220","189406","0.0-1.0-299.0","0","0","57363","","null","","","null","33","","","","","","","","","","","","","","","",""
"","ISI","","html-keyboard-response","221","189908","0.0-1.0-300.0","0","0","57363","","null","","","null","33","NaN","","","","","","","","","","","","","","",""
"","S2","","html-keyboard-response","222","190175","0.0-1.0-301.0","0","0","57363","","null","","","null","33","","NaN","","","","","","","","","","","","","",""
"","response","","html-keyboard-response","223","190390","0.0-1.0-302.0-0.0","0","0","57363","","213","","","75","33","","","1","33","training","adjacent","CD","3","4","P.jpg","O.jpg","1","1","1","",""
"","feedback","","html-keyboard-response","224","191392","0.0-1.0-303.0-0.0","0","0","57363","","null","","","null","33","","","","","","","","","","","","","","","",""
"","ITI","","html-keyboard-response","225","192395","0.0-1.0-306.0","0","0","57363","","null","","","null","33","","","","","","","","","","","","","","","NaN",""
"","S1","","html-keyboard-response","226","192648","0.0-1.0-308.0","0","0","57363","","null","","","null","34","","","","","","","","","","","","","","","",""
"","ISI","","html-keyboard-response","227","193150","0.0-1.0-309.0","0","0","57363","","null","","","null","34","NaN","","","","","","","","","","","","","","",""
"","S2","","html-keyboard-response","228","193402","0.0-1.0-310.0","0","0","57363","","null","","","null","34","","NaN","","","","","","","","","","","","","",""
"","response","","html-keyboard-response","229","193774","0.0-1.0-311.0-0.0","0","0","57363","","370","","","68","34","","","1","34","training","adjacent","CD","3","4","P.jpg","O.jpg","0","1","0","",""
"","feedback","","html-keyboard-response","230","194776","0.0-1.0-312.0-0.0","0","0","57363","","null","","","null","34","","","","","","","","","","","","","","","",""
"","time_out","","html-keyboard-response","231","196778","0.0-1.0-314.0-0.0","0","0","57363","","null","","","null","34","","","","","","","","","","","","","","","",""
"","ITI","","html-keyboard-response","232","197780","0.0-1.0-315.0","0","0","57363","","null","","","null","34","","","","","","","","","","","","","","","NaN",""
"","S1","","html-keyboard-response","233","198032","0.0-1.0-317.0","0","0","57363","","null","","","null","35","","","","","","","","","","","","","","","",""
"","ISI","","html-keyboard-response","234","198534","0.0-1.0-318.0","0","0","57363","","null","","","null","35","NaN","","","","","","","","","","","","","","",""
"","S2","","html-keyboard-response","235","198787","0.0-1.0-319.0","0","0","57363","","null","","","null","35","","NaN","","","","","","","","","","","","","",""
"","response","","html-keyboard-response","236","198894","0.0-1.0-320.0-0.0","0","0","57363","","107","","","68","35","","","1","35","training","adjacent","EF","5","6","N.jpg","M.jpg","0","1","0","",""
"","feedback","","html-keyboard-response","237","199896","0.0-1.0-321.0-0.0","0","0","57363","","null","","","null","35","","","","","","","","","","","","","","","",""
"","time_out","","html-keyboard-response","238","201897","0.0-1.0-323.0-0.0","0","0","57363","","null","","","null","35","","","","","","","","","","","","","","","",""
"","ITI","","html-keyboard-response","239","202899","0.0-1.0-324.0","0","0","57363","","null","","","null","35","","","","","","","","","","","","","","","NaN",""
"","S1","","html-keyboard-response","240","203152","0.0-1.0-326.0","0","0","57363","","null","","","null","36","","","","","","","","","","","","","","","",""
"","ISI","","html-keyboard-response","241","203654","0.0-1.0-327.0","0","0","57363","","null","","","null","36","NaN","","","","","","","","","","","","","","",""
"","S2","","html-keyboard-response","242","203907","0.0-1.0-328.0","0","0","57363","","null","","","null","36","","NaN","","","","","","","","","","","","","",""
"","response","","html-keyboard-response","243","204038","0.0-1.0-329.0-0.0","0","0","57363","","130","","","68","36","","","1","36","training","adjacent","CB","3","2","P.jpg","L.jpg","0","0","1","",""
"","feedback","","html-keyboard-response","244","205041","0.0-1.0-330.0-0.0","0","0","57363","","null","","","null","36","","","","","","","","","","","","","","","",""
"","ITI","","html-keyboard-response","245","206044","0.0-1.0-333.0","0","0","57363","","null","","","null","36","","","","","","","","","","","","","","","NaN",""
"","S1","","html-keyboard-response","246","206296","0.0-1.0-335.0","0","0","57363","","null","","","null","37","","","","","","","","","","","","","","","",""
"","ISI","","html-keyboard-response","247","206798","0.0-1.0-336.0","0","0","57363","","null","","","null","37","NaN","","","","","","","","","","","","","","",""
"","S2","","html-keyboard-response","248","207051","0.0-1.0-337.0","0","0","57363","","null","","","null","37","","NaN","","","","","","","","","","","","","",""
"","response","","html-keyboard-response","249","207182","0.0-1.0-338.0-0.0","0","0","57363","","130","","","75","37","","","1","37","training","adjacent","FG","6","7","M.jpg","R.jpg","1","1","1","",""
"","feedback","","html-keyboard-response","250","208184","0.0-1.0-339.0-0.0","0","0","57363","","null","","","null","37","","","","","","","","","","","","","","","",""
"","ITI","","html-keyboard-response","251","209186","0.0-1.0-342.0","0","0","57363","","null","","","null","37","","","","","","","","","","","","","","","NaN",""
"","S1","","html-keyboard-response","252","209450","0.0-1.0-344.0","0","0","57363","","null","","","null","38","","","","","","","","","","","","","","","",""
"","ISI","","html-keyboard-response","253","209953","0.0-1.0-345.0","0","0","57363","","null","","","null","38","NaN","","","","","","","","","","","","","","",""
"","S2","","html-keyboard-response","254","210206","0.0-1.0-346.0","0","0","57363","","null","","","null","38","","NaN","","","","","","","","","","","","","",""
"","response","","html-keyboard-response","255","210451","0.0-1.0-347.0-0.0","0","0","57363","","244","","","75","38","","","1","38","training","adjacent","ED","5","4","N.jpg","O.jpg","1","0","0","",""
"","feedback","","html-keyboard-response","256","211455","0.0-1.0-348.0-0.0","0","0","57363","","null","","","null","38","","","","","","","","","","","","","","","",""
"","time_out","","html-keyboard-response","257","213457","0.0-1.0-350.0-0.0","0","0","57363","","null","","","null","38","","","","","","","","","","","","","","","",""
"","ITI","","html-keyboard-response","258","214459","0.0-1.0-351.0","0","0","57363","","null","","","null","38","","","","","","","","","","","","","","","NaN",""
"","S1","","html-keyboard-response","259","214711","0.0-1.0-353.0","0","0","57363","","null","","","null","39","","","","","","","","","","","","","","","",""
"","ISI","","html-keyboard-response","260","215213","0.0-1.0-354.0","0","0","57363","","null","","","null","39","NaN","","","","","","","","","","","","","","",""
"","S2","","html-keyboard-response","261","215467","0.0-1.0-355.0","0","0","57363","","null","","","null","39","","NaN","","","","","","","","","","","","","",""
"","response","","html-keyboard-response","262","215791","0.0-1.0-356.0-0.0","0","0","57363","","323","","","68","39","","","1","39","training","adjacent","EF","5","6","N.jpg","M.jpg","0","1","0","",""
"","feedback","","html-keyboard-response","263","216794","0.0-1.0-357.0-0.0","0","0","57363","","null","","","null","39","","","","","","","","","","","","","","","",""
"","time_out","","html-keyboard-response","264","218796","0.0-1.0-359.0-0.0","0","0","57363","","null","","","null","39","","","","","","","","","","","","","","","",""
"","ITI","","html-keyboard-response","265","219798","0.0-1.0-360.0","0","0","57363","","null","","","null","39","","","","","","","","","","","","","","","NaN",""
"","S1","","html-keyboard-response","266","220051","0.0-1.0-362.0","0","0","57363","","null","","","null","40","","","","","","","","","","","","","","","",""
"","ISI","","html-keyboard-response","267","220554","0.0-1.0-363.0","0","0","57363","","null","","","null","40","NaN","","","","","","","","","","","","","","",""
"","S2","","html-keyboard-response","268","220805","0.0-1.0-364.0","0","0","57363","","null","","","null","40","","NaN","","","","","","","","","","","","","",""
"","response","","html-keyboard-response","269","221078","0.0-1.0-365.0-0.0","0","0","57363","","272","","","75","40","","","1","40","training","adjacent","DE","4","5","O.jpg","N.jpg","1","1","1","",""
"","feedback","","html-keyboard-response","270","222080","0.0-1.0-366.0-0.0","0","0","57363","","null","","","null","40","","","","","","","","","","","","","","","",""
"","ITI","","html-keyboard-response","271","223082","0.0-1.0-369.0","0","0","57363","","null","","","null","40","","","","","","","","","","","","","","","NaN",""
"","S1","","html-keyboard-response","272","223334","0.0-1.0-371.0","0","0","57363","","null","","","null","41","","","","","","","","","","","","","","","",""
"","ISI","","html-keyboard-response","273","223837","0.0-1.0-372.0","0","0","57363","","null","","","null","41","NaN","","","","","","","","","","","","","","",""
"","S2","","html-keyboard-response","274","224001","0.0-1.0-373.0","0","0","57363","","163","","","75","41","","k","1","41","training","adjacent","AB","1","2","Q.jpg","L.jpg","1","1","1","",""
"","feedback","","html-keyboard-response","275","225003","0.0-1.0-375.0-0.0","0","0","57363","","null","","","null","41","","","","","","","","","","","","","","","",""
"","ITI","","html-keyboard-response","276","226006","0.0-1.0-378.0","0","0","57363","","null","","","null","41","","","","","","","","","","","","","","","NaN",""
"","S1","","html-keyboard-response","277","226258","0.0-1.0-380.0","0","0","57363","","null","","","null","42","","","","","","","","","","","","","","","",""
"","ISI","","html-keyboard-response","278","226760","0.0-1.0-381.0","0","0","57363","","null","","","null","42","NaN","","","","","","","","","","","","","","",""
"","S2","","html-keyboard-response","279","227012","0.0-1.0-382.0","0","0","57363","","null","","","null","42","","NaN","","","","","","","","","","","","","",""
"","response","","html-keyboard-response","280","227418","0.0-1.0-383.0-0.0","0","0","57363","","406","","","68","42","","","1","42","training","adjacent","DC","4","3","O.jpg","P.jpg","0","0","1","",""
"","feedback","","html-keyboard-response","281","228421","0.0-1.0-384.0-0.0","0","0","57363","","null","","","null","42","","","","","","","","","","","","","","","",""
"","ITI","","html-keyboard-response","282","229432","0.0-1.0-387.0","0","0","57363","","null","","","null","42","","","","","","","","","","","","","","","NaN",""
"","S1","","html-keyboard-response","283","229685","0.0-1.0-389.0","0","0","57363","","null","","","null","43","","","","","","","","","","","","","","","",""
"","ISI","","html-keyboard-response","284","230187","0.0-1.0-390.0","0","0","57363","","null","","","null","43","NaN","","","","","","","","","","","","","","",""
"","S2","","html-keyboard-response","285","230439","0.0-1.0-391.0","0","0","57363","","null","","","null","43","","NaN","","","","","","","","","","","","","",""
"","response","","html-keyboard-response","286","230735","0.0-1.0-392.0-0.0","0","0","57363","","294","","","75","43","","","1","43","training","adjacent","FG","6","7","M.jpg","R.jpg","1","1","1","",""
"","feedback","","html-keyboard-response","287","231739","0.0-1.0-393.0-0.0","0","0","57363","","null","","","null","43","","","","","","","","","","","","","","","",""
"","ITI","","html-keyboard-response","288","232741","0.0-1.0-396.0","0","0","57363","","null","","","null","43","","","","","","","","","","","","","","","NaN",""
"","S1","","html-keyboard-response","289","232994","0.0-1.0-398.0","0","0","57363","","null","","","null","44","","","","","","","","","","","","","","","",""
"","ISI","","html-keyboard-response","290","233496","0.0-1.0-399.0","0","0","57363","","null","","","null","44","NaN","","","","","","","","","","","","","","",""
"","S2","","html-keyboard-response","291","233748","0.0-1.0-400.0","0","0","57363","","null","","","null","44","","NaN","","","","","","","","","","","","","",""
"","response","","html-keyboard-response","292","233867","0.0-1.0-401.0-0.0","0","0","57363","","119","","","75","44","","","1","44","training","adjacent","BC","2","3","L.jpg","P.jpg","1","1","1","",""
"","feedback","","html-keyboard-response","293","234869","0.0-1.0-402.0-0.0","0","0","57363","","null","","","null","44","","","","","","","","","","","","","","","",""
"","ITI","","html-keyboard-response","294","235870","0.0-1.0-405.0","0","0","57363","","null","","","null","44","","","","","","","","","","","","","","","NaN",""
"","S1","","html-keyboard-response","295","236123","0.0-1.0-407.0","0","0","57363","","null","","","null","45","","","","","","","","","","","","","","","",""
"","ISI","","html-keyboard-response","296","236625","0.0-1.0-408.0","0","0","57363","","null","","","null","45","NaN","","","","","","","","","","","","","","",""
"","S2","","html-keyboard-response","297","236877","0.0-1.0-409.0","0","0","57363","","null","","","null","45","","NaN","","","","","","","","","","","","","",""
"","response","","html-keyboard-response","298","237106","0.0-1.0-410.0-0.0","0","0","57363","","227","","","75","45","","","1","45","training","adjacent","FE","6","5","M.jpg","N.jpg","1","0","0","",""
"","feedback","","html-keyboard-response","299","238109","0.0-1.0-411.0-0.0","0","0","57363","","null","","","null","45","","","","","","","","","","","","","","","",""
"","time_out","","html-keyboard-response","300","240111","0.0-1.0-413.0-0.0","0","0","57363","","null","","","null","45","","","","","","","","","","","","","","","",""
"","ITI","","html-keyboard-response","301","241113","0.0-1.0-414.0","0","0","57363","","null","","","null","45","","","","","","","","","","","","","","","NaN",""
"","S1","","html-keyboard-response","302","241366","0.0-1.0-416.0","0","0","57363","","null","","","null","46","","","","","","","","","","","","","","","",""
"","ISI","","html-keyboard-response","303","241868","0.0-1.0-417.0","0","0","57363","","null","","","null","46","NaN","","","","","","","","","","","","","","",""
"","S2","","html-keyboard-response","304","242133","0.0-1.0-418.0","0","0","57363","","null","","","null","46","","NaN","","","","","","","","","","","","","",""
"","response","","html-keyboard-response","305","242241","0.0-1.0-419.0-0.0","0","0","57363","","108","","","68","46","","","1","46","training","adjacent","DC","4","3","O.jpg","P.jpg","0","0","1","",""
"","feedback","","html-keyboard-response","306","243245","0.0-1.0-420.0-0.0","0","0","57363","","null","","","null","46","","","","","","","","","","","","","","","",""
"","ITI","","html-keyboard-response","307","244248","0.0-1.0-423.0","0","0","57363","","null","","","null","46","","","","","","","","","","","","","","","NaN",""
"","S1","","html-keyboard-response","308","244502","0.0-1.0-425.0","0","0","57363","","null","","","null","47","","","","","","","","","","","","","","","",""
"","ISI","","html-keyboard-response","309","245004","0.0-1.0-426.0","0","0","57363","","null","","","null","47","NaN","","","","","","","","","","","","","","",""
"","S2","","html-keyboard-response","310","245256","0.0-1.0-427.0","0","0","57363","","null","","","null","47","","NaN","","","","","","","","","","","","","",""
"","response","","html-keyboard-response","311","246075","0.0-1.0-428.0-0.0","0","0","57363","","819","","","68","47","","","1","47","training","adjacent","BA","2","1","L.jpg","Q.jpg","0","0","1","",""
"","feedback","","html-keyboard-response","312","247079","0.0-1.0-429.0-0.0","0","0","57363","","null","","","null","47","","","","","","","","","","","","","","","",""
"","ITI","","html-keyboard-response","313","248082","0.0-1.0-432.0","0","0","57363","","null","","","null","47","","","","","","","","","","","","","","","NaN",""
"","block_over","","html-keyboard-response","314","249827","0.0-1.0-433.0-0.0","0","0","57363","","1743","","","32","47","","","","","","","","","","","","","","","",""
"","S1","","html-keyboard-response","315","250080","0.0-1.0-434.0","0","0","57363","","null","","","null","48","","","","","","","","","","","","","","","",""
"","ISI","","html-keyboard-response","316","250582","0.0-1.0-435.0","0","0","57363","","null","","","null","48","NaN","","","","","","","","","","","","","","",""
"","S2","","html-keyboard-response","317","250835","0.0-1.0-436.0","0","0","57363","","null","","","null","48","","NaN","","","","","","","","","","","","","",""
"","response","","html-keyboard-response","318","250895","0.0-1.0-437.0-0.0","0","0","57363","","57","","","75","48","","","2","48","training","adjacent","BA","2","1","L.jpg","Q.jpg","1","0","0","",""
"","feedback","","html-keyboard-response","319","251898","0.0-1.0-438.0-0.0","0","0","57363","","null","","","null","48","","","","","","","","","","","","","","","",""
"","time_out","","html-keyboard-response","320","253900","0.0-1.0-440.0-0.0","0","0","57363","","null","","","null","48","","","","","","","","","","","","","","","",""
"","ITI","","html-keyboard-response","321","254902","0.0-1.0-441.0","0","0","57363","","null","","","null","48","","","","","","","","","","","","","","","NaN",""
"","S1","","html-keyboard-response","322","255155","0.0-1.0-443.0","0","0","57363","","null","","","null","49","","","","","","","","","","","","","","","",""
"","ISI","","html-keyboard-response","323","255660","0.0-1.0-444.0","0","0","57363","","null","","","null","49","NaN","","","","","","","","","","","","","","",""
"","S2","","html-keyboard-response","324","255912","0.0-1.0-445.0","0","0","57363","","null","","","null","49","","NaN","","","","","","","","","","","","","",""
"","response","","html-keyboard-response","325","255932","0.0-1.0-446.0-0.0","0","0","57363","","19","","","75","49","","","2","49","training","adjacent","DC","4","3","O.jpg","P.jpg","1","0","0","",""
"","feedback","","html-keyboard-response","326","256934","0.0-1.0-447.0-0.0","0","0","57363","","null","","","null","49","","","","","","","","","","","","","","","",""
"","time_out","","html-keyboard-response","327","258937","0.0-1.0-449.0-0.0","0","0","57363","","null","","","null","49","","","","","","","","","","","","","","","",""
"","ITI","","html-keyboard-response","328","259940","0.0-1.0-450.0","0","0","57363","","null","","","null","49","","","","","","","","","","","","","","","NaN",""
"","S1","","html-keyboard-response","329","260191","0.0-1.0-452.0","0","0","57363","","null","","","null","50","","","","","","","","","","","","","","","",""
"","ISI","","html-keyboard-response","330","260694","0.0-1.0-453.0","0","0","57363","","null","","","null","50","NaN","","","","","","","","","","","","","","",""
"","S2","","html-keyboard-response","331","260946","0.0-1.0-454.0","0","0","57363","","null","","","null","50","","NaN","","","","","","","","","","","","","",""
"","response","","html-keyboard-response","332","261000","0.0-1.0-455.0-0.0","0","0","57363","","53","","","68","50","","","2","50","training","adjacent","DE","4","5","O.jpg","N.jpg","0","1","0","",""
"","feedback","","html-keyboard-response","333","262002","0.0-1.0-456.0-0.0","0","0","57363","","null","","","null","50","","","","","","","","","","","","","","","",""
"","time_out","","html-keyboard-response","334","264004","0.0-1.0-458.0-0.0","0","0","57363","","null","","","null","50","","","","","","","","","","","","","","","",""
"","ITI","","html-keyboard-response","335","265005","0.0-1.0-459.0","0","0","57363","","null","","","null","50","","","","","","","","","","","","","","","NaN",""
"","S1","","html-keyboard-response","336","265258","0.0-1.0-461.0","0","0","57363","","null","","","null","51","","","","","","","","","","","","","","","",""
"","ISI","","html-keyboard-response","337","265760","0.0-1.0-462.0","0","0","57363","","null","","","null","51","NaN","","","","","","","","","","","","","","",""
"","S2","","html-keyboard-response","338","266016","0.0-1.0-463.0","0","0","57363","","null","","","null","51","","NaN","","","","","","","","","","","","","",""
"","response","","html-keyboard-response","339","266328","0.0-1.0-464.0-0.0","0","0","57363","","311","","","75","51","","","2","51","training","adjacent","EF","5","6","N.jpg","M.jpg","1","1","1","",""
"","feedback","","html-keyboard-response","340","267331","0.0-1.0-465.0-0.0","0","0","57363","","null","","","null","51","","","","","","","","","","","","","","","",""
"","ITI","","html-keyboard-response","341","268333","0.0-1.0-468.0","0","0","57363","","null","","","null","51","","","","","","","","","","","","","","","NaN",""
"","S1","","html-keyboard-response","342","268587","0.0-1.0-470.0","0","0","57363","","null","","","null","52","","","","","","","","","","","","","","","",""
"","ISI","","html-keyboard-response","343","269088","0.0-1.0-471.0","0","0","57363","","null","","","null","52","NaN","","","","","","","","","","","","","","",""
"","S2","","html-keyboard-response","344","269339","0.0-1.0-472.0","0","0","57363","","null","","","null","52","","NaN","","","","","","","","","","","","","",""
"","response","","html-keyboard-response","345","269682","0.0-1.0-473.0-0.0","0","0","57363","","341","","","68","52","","","2","52","training","adjacent","FE","6","5","M.jpg","N.jpg","0","0","1","",""
"","feedback","","html-keyboard-response","346","270684","0.0-1.0-474.0-0.0","0","0","57363","","null","","","null","52","","","","","","","","","","","","","","","",""
"","ITI","","html-keyboard-response","347","271685","0.0-1.0-477.0","0","0","57363","","null","","","null","52","","","","","","","","","","","","","","","NaN",""
"","S1","","html-keyboard-response","348","271939","0.0-1.0-479.0","0","0","57363","","null","","","null","53","","","","","","","","","","","","","","","",""
"","ISI","","html-keyboard-response","349","272440","0.0-1.0-480.0","0","0","57363","","null","","","null","53","NaN","","","","","","","","","","","","","","",""
"","S2","","html-keyboard-response","350","272694","0.0-1.0-481.0","0","0","57363","","null","","","null","53","","NaN","","","","","","","","","","","","","",""
"","response","","html-keyboard-response","351","272822","0.0-1.0-482.0-0.0","0","0","57363","","127","","","75","53","","","2","53","training","adjacent","BC","2","3","L.jpg","P.jpg","1","1","1","",""
"","feedback","","html-keyboard-response","352","273824","0.0-1.0-483.0-0.0","0","0","57363","","null","","","null","53","","","","","","","","","","","","","","","",""
"","ITI","","html-keyboard-response","353","274827","0.0-1.0-486.0","0","0","57363","","null","","","null","53","","","","","","","","","","","","","","","NaN",""
"","S1","","html-keyboard-response","354","275079","0.0-1.0-488.0","0","0","57363","","null","","","null","54","","","","","","","","","","","","","","","",""
"","ISI","","html-keyboard-response","355","275581","0.0-1.0-489.0","0","0","57363","","null","","","null","54","NaN","","","","","","","","","","","","","","",""
"","S2","","html-keyboard-response","356","275833","0.0-1.0-490.0","0","0","57363","","null","","","null","54","","NaN","","","","","","","","","","","","","",""
"","response","","html-keyboard-response","357","276059","0.0-1.0-491.0-0.0","0","0","57363","","225","","","68","54","","","2","54","training","adjacent","FG","6","7","M.jpg","R.jpg","0","1","0","",""
"","feedback","","html-keyboard-response","358","277062","0.0-1.0-492.0-0.0","0","0","57363","","null","","","null","54","","","","","","","","","","","","","","","",""
"","time_out","","html-keyboard-response","359","279064","0.0-1.0-494.0-0.0","0","0","57363","","null","","","null","54","","","","","","","","","","","","","","","",""
"","ITI","","html-keyboard-response","360","280067","0.0-1.0-495.0","0","0","57363","","null","","","null","54","","","","","","","","","","","","","","","NaN",""
"","S1","","html-keyboard-response","361","280319","0.0-1.0-497.0","0","0","57363","","null","","","null","55","","","","","","","","","","","","","","","",""
"","ISI","","html-keyboard-response","362","280820","0.0-1.0-498.0","0","0","57363","","null","","","null","55","NaN","","","","","","","","","","","","","","",""
"","S2","","html-keyboard-response","363","281072","0.0-1.0-499.0","0","0","57363","","null","","","null","55","","NaN","","","","","","","","","","","","","",""
"","response","","html-keyboard-response","364","281135","0.0-1.0-500.0-0.0","0","0","57363","","62","","","68","55","","","2","55","training","adjacent","CB","3","2","P.jpg","L.jpg","0","0","1","",""
"","feedback","","html-keyboard-response","365","282137","0.0-1.0-501.0-0.0","0","0","57363","","null","","","null","55","","","","","","","","","","","","","","","",""
"","ITI","","html-keyboard-response","366","283139","0.0-1.0-504.0","0","0","57363","","null","","","null","55","","","","","","","","","","","","","","","NaN",""
"","S1","","html-keyboard-response","367","283392","0.0-1.0-506.0","0","0","57363","","null","","","null","56","","","","","","","","","","","","","","","",""
"","ISI","","html-keyboard-response","368","283893","0.0-1.0-507.0","0","0","57363","","null","","","null","56","NaN","","","","","","","","","","","","","","",""
"","S2","","html-keyboard-response","369","284145","0.0-1.0-508.0","0","0","57363","","null","","","null","56","","NaN","","","","","","","","","","","","","",""
"","response","","html-keyboard-response","370","284344","0.0-1.0-509.0-0.0","0","0","57363","","197","","","68","56","","","2","56","training","adjacent","BC","2","3","L.jpg","P.jpg","0","1","0","",""
"","feedback","","html-keyboard-response","371","285346","0.0-1.0-510.0-0.0","0","0","57363","","null","","","null","56","","","","","","","","","","","","","","","",""
"","time_out","","html-keyboard-response","372","287349","0.0-1.0-512.0-0.0","0","0","57363","","null","","","null","56","","","","","","","","","","","","","","","",""
"","ITI","","html-keyboard-response","373","288352","0.0-1.0-513.0","0","0","57363","","null","","","null","56","","","","","","","","","","","","","","","NaN",""
"","S1","","html-keyboard-response","374","288604","0.0-1.0-515.0","0","0","57363","","null","","","null","57","","","","","","","","","","","","","","","",""
"","ISI","","html-keyboard-response","375","289106","0.0-1.0-516.0","0","0","57363","","null","","","null","57","NaN","","","","","","","","","","","","","","",""
"","S2","","html-keyboard-response","376","289357","0.0-1.0-517.0","0","0","57363","","null","","","null","57","","NaN","","","","","","","","","","","","","",""
"","response","","html-keyboard-response","377","289476","0.0-1.0-518.0-0.0","0","0","57363","","117","","","75","57","","","2","57","training","adjacent","FG","6","7","M.jpg","R.jpg","1","1","1","",""
"","feedback","","html-keyboard-response","378","290478","0.0-1.0-519.0-0.0","0","0","57363","","null","","","null","57","","","","","","","","","","","","","","","",""
"","ITI","","html-keyboard-response","379","291481","0.0-1.0-522.0","0","0","57363","","null","","","null","57","","","","","","","","","","","","","","","NaN",""
"","S1","","html-keyboard-response","380","291733","0.0-1.0-524.0","0","0","57363","","null","","","null","58","","","","","","","","","","","","","","","",""
"","ISI","","html-keyboard-response","381","292236","0.0-1.0-525.0","0","0","57363","","null","","","null","58","NaN","","","","","","","","","","","","","","",""
"","S2","","html-keyboard-response","382","292487","0.0-1.0-526.0","0","0","57363","","null","","","null","58","","NaN","","","","","","","","","","","","","",""
"","response","","html-keyboard-response","383","292672","0.0-1.0-527.0-0.0","0","0","57363","","183","","","75","58","","","2","58","training","adjacent","FG","6","7","M.jpg","R.jpg","1","1","1","",""
"","feedback","","html-keyboard-response","384","293685","0.0-1.0-528.0-0.0","0","0","57363","","null","","","null","58","","","","","","","","","","","","","","","",""
"","ITI","","html-keyboard-response","385","294688","0.0-1.0-531.0","0","0","57363","","null","","","null","58","","","","","","","","","","","","","","","NaN",""
"","S1","","html-keyboard-response","386","294941","0.0-1.0-533.0","0","0","57363","","null","","","null","59","","","","","","","","","","","","","","","",""
"","ISI","","html-keyboard-response","387","295454","0.0-1.0-534.0","0","0","57363","","null","","","null","59","NaN","","","","","","","","","","","","","","",""
"","S2","","html-keyboard-response","388","295706","0.0-1.0-535.0","0","0","57363","","null","","","null","59","","NaN","","","","","","","","","","","","","",""
"","response","","html-keyboard-response","389","296111","0.0-1.0-536.0-0.0","0","0","57363","","403","","","75","59","","","2","59","training","adjacent","BC","2","3","L.jpg","P.jpg","1","1","1","",""
"","feedback","","html-keyboard-response","390","297113","0.0-1.0-537.0-0.0","0","0","57363","","null","","","null","59","","","","","","","","","","","","","","","",""
"","ITI","","html-keyboard-response","391","298116","0.0-1.0-540.0","0","0","57363","","null","","","null","59","","","","","","","","","","","","","","","NaN",""
"","S1","","html-keyboard-response","392","298370","0.0-1.0-542.0","0","0","57363","","null","","","null","60","","","","","","","","","","","","","","","",""
"","ISI","","html-keyboard-response","393","298872","0.0-1.0-543.0","0","0","57363","","null","","","null","60","NaN","","","","","","","","","","","","","","",""
"","S2","","html-keyboard-response","394","299124","0.0-1.0-544.0","0","0","57363","","null","","","null","60","","NaN","","","","","","","","","","","","","",""
"","response","","html-keyboard-response","395","299182","0.0-1.0-545.0-0.0","0","0","57363","","56","","","68","60","","","2","60","training","adjacent","CB","3","2","P.jpg","L.jpg","0","0","1","",""
"","feedback","","html-keyboard-response","396","300185","0.0-1.0-546.0-0.0","0","0","57363","","null","","","null","60","","","","","","","","","","","","","","","",""
"","ITI","","html-keyboard-response","397","301187","0.0-1.0-549.0","0","0","57363","","null","","","null","60","","","","","","","","","","","","","","","NaN",""
"","S1","","html-keyboard-response","398","301440","0.0-1.0-551.0","0","0","57363","","null","","","null","61","","","","","","","","","","","","","","","",""
"","ISI","","html-keyboard-response","399","301942","0.0-1.0-552.0","0","0","57363","","null","","","null","61","NaN","","","","","","","","","","","","","","",""
"","S2","","html-keyboard-response","400","302196","0.0-1.0-553.0","0","0","57363","","null","","","null","61","","NaN","","","","","","","","","","","","","",""
"","response","","html-keyboard-response","401","302290","0.0-1.0-554.0-0.0","0","0","57363","","94","","","75","61","","","2","61","training","adjacent","FE","6","5","M.jpg","N.jpg","1","0","0","",""
"","feedback","","html-keyboard-response","402","303292","0.0-1.0-555.0-0.0","0","0","57363","","null","","","null","61","","","","","","","","","","","","","","","",""
"","time_out","","html-keyboard-response","403","305295","0.0-1.0-557.0-0.0","0","0","57363","","null","","","null","61","","","","","","","","","","","","","","","",""
"","ITI","","html-keyboard-response","404","306299","0.0-1.0-558.0","0","0","57363","","null","","","null","61","","","","","","","","","","","","","","","NaN",""
"","S1","","html-keyboard-response","405","306553","0.0-1.0-560.0","0","0","57363","","null","","","null","62","","","","","","","","","","","","","","","",""
"","ISI","","html-keyboard-response","406","307055","0.0-1.0-561.0","0","0","57363","","null","","","null","62","NaN","","","","","","","","","","","","","","",""
"","S2","","html-keyboard-response","407","307307","0.0-1.0-562.0","0","0","57363","","null","","","null","62","","NaN","","","","","","","","","","","","","",""
"","response","","html-keyboard-response","408","307446","0.0-1.0-563.0-0.0","0","0","57363","","138","","","75","62","","","2","62","training","adjacent","BC","2","3","L.jpg","P.jpg","1","1","1","",""
"","feedback","","html-keyboard-response","409","308449","0.0-1.0-564.0-0.0","0","0","57363","","null","","","null","62","","","","","","","","","","","","","","","",""
"","ITI","","html-keyboard-response","410","309451","0.0-1.0-567.0","0","0","57363","","null","","","null","62","","","","","","","","","","","","","","","NaN",""
"","S1","","html-keyboard-response","411","309704","0.0-1.0-569.0","0","0","57363","","null","","","null","63","","","","","","","","","","","","","","","",""
"","ISI","","html-keyboard-response","412","310206","0.0-1.0-570.0","0","0","57363","","null","","","null","63","NaN","","","","","","","","","","","","","","",""
"","S2","","html-keyboard-response","413","310459","0.0-1.0-571.0","0","0","57363","","null","","","null","63","","NaN","","","","","","","","","","","","","",""
"","response","","html-keyboard-response","414","310787","0.0-1.0-572.0-0.0","0","0","57363","","326","","","68","63","","","2","63","training","adjacent","ED","5","4","N.jpg","O.jpg","0","0","1","",""
"","feedback","","html-keyboard-response","415","311789","0.0-1.0-573.0-0.0","0","0","57363","","null","","","null","63","","","","","","","","","","","","","","","",""
"","ITI","","html-keyboard-response","416","312791","0.0-1.0-576.0","0","0","57363","","null","","","null","63","","","","","","","","","","","","","","","NaN",""
"","S1","","html-keyboard-response","417","313044","0.0-1.0-578.0","0","0","57363","","null","","","null","64","","","","","","","","","","","","","","","",""
"","ISI","","html-keyboard-response","418","313545","0.0-1.0-579.0","0","0","57363","","null","","","null","64","NaN","","","","","","","","","","","","","","",""
"","S2","","html-keyboard-response","419","313797","0.0-1.0-580.0","0","0","57363","","null","","","null","64","","NaN","","","","","","","","","","","","","",""
"","response","","html-keyboard-response","420","313914","0.0-1.0-581.0-0.0","0","0","57363","","116","","","75","64","","","2","64","training","adjacent","DC","4","3","O.jpg","P.jpg","1","0","0","",""
"","feedback","","html-keyboard-response","421","314916","0.0-1.0-582.0-0.0","0","0","57363","","null","","","null","64","","","","","","","","","","","","","","","",""
"","time_out","","html-keyboard-response","422","316918","0.0-1.0-584.0-0.0","0","0","57363","","null","","","null","64","","","","","","","","","","","","","","","",""
"","ITI","","html-keyboard-response","423","317921","0.0-1.0-585.0","0","0","57363","","null","","","null","64","","","","","","","","","","","","","","","NaN",""
"","S1","","html-keyboard-response","424","318173","0.0-1.0-587.0","0","0","57363","","null","","","null","65","","","","","","","","","","","","","","","",""
"","ISI","","html-keyboard-response","425","318675","0.0-1.0-588.0","0","0","57363","","null","","","null","65","NaN","","","","","","","","","","","","","","",""
"","S2","","html-keyboard-response","426","318927","0.0-1.0-589.0","0","0","57363","","null","","","null","65","","NaN","","","","","","","","","","","","","",""
"","response","","html-keyboard-response","427","319022","0.0-1.0-590.0-0.0","0","0","57363","","93","","","68","65","","","2","65","training","adjacent","BA","2","1","L.jpg","Q.jpg","0","0","1","",""
"","feedback","","html-keyboard-response","428","320024","0.0-1.0-591.0-0.0","0","0","57363","","null","","","null","65","","","","","","","","","","","","","","","",""
"","ITI","","html-keyboard-response","429","321026","0.0-1.0-594.0","0","0","57363","","null","","","null","65","","","","","","","","","","","","","","","NaN",""
"","S1","","html-keyboard-response","430","321279","0.0-1.0-596.0","0","0","57363","","null","","","null","66","","","","","","","","","","","","","","","",""
"","ISI","","html-keyboard-response","431","321781","0.0-1.0-597.0","0","0","57363","","null","","","null","66","NaN","","","","","","","","","","","","","","",""
"","S2","","html-keyboard-response","432","322033","0.0-1.0-598.0","0","0","57363","","null","","","null","66","","NaN","","","","","","","","","","","","","",""
"","response","","html-keyboard-response","433","322220","0.0-1.0-599.0-0.0","0","0","57363","","187","","","68","66","","","2","66","training","adjacent","FE","6","5","M.jpg","N.jpg","0","0","1","",""
"","feedback","","html-keyboard-response","434","323223","0.0-1.0-600.0-0.0","0","0","57363","","null","","","null","66","","","","","","","","","","","","","","","",""
"","ITI","","html-keyboard-response","435","324225","0.0-1.0-603.0","0","0","57363","","null","","","null","66","","","","","","","","","","","","","","","NaN",""
"","S1","","html-keyboard-response","436","324477","0.0-1.0-605.0","0","0","57363","","null","","","null","67","","","","","","","","","","","","","","","",""
"","ISI","","html-keyboard-response","437","324979","0.0-1.0-606.0","0","0","57363","","null","","","null","67","NaN","","","","","","","","","","","","","","",""
"","S2","","html-keyboard-response","438","325232","0.0-1.0-607.0","0","0","57363","","null","","","null","67","","NaN","","","","","","","","","","","","","",""
"","response","","html-keyboard-response","439","325247","0.0-1.0-608.0-0.0","0","0","57363","","13","","","75","67","","","2","67","training","adjacent","DE","4","5","O.jpg","N.jpg","1","1","1","",""
"","feedback","","html-keyboard-response","440","326250","0.0-1.0-609.0-0.0","0","0","57363","","null","","","null","67","","","","","","","","","","","","","","","",""
"","ITI","","html-keyboard-response","441","327253","0.0-1.0-612.0","0","0","57363","","null","","","null","67","","","","","","","","","","","","","","","NaN",""
"","S1","","html-keyboard-response","442","327505","0.0-1.0-614.0","0","0","57363","","null","","","null","68","","","","","","","","","","","","","","","",""
"","ISI","","html-keyboard-response","443","328008","0.0-1.0-615.0","0","0","57363","","null","","","null","68","NaN","","","","","","","","","","","","","","",""
"","S2","","html-keyboard-response","444","328261","0.0-1.0-616.0","0","0","57363","","null","","","null","68","","NaN","","","","","","","","","","","","","",""
"","response","","html-keyboard-response","445","328364","0.0-1.0-617.0-0.0","0","0","57363","","102","","","75","68","","","2","68","training","adjacent","AB","1","2","Q.jpg","L.jpg","1","1","1","",""
"","feedback","","html-keyboard-response","446","329367","0.0-1.0-618.0-0.0","0","0","57363","","null","","","null","68","","","","","","","","","","","","","","","",""
"","ITI","","html-keyboard-response","447","330369","0.0-1.0-621.0","0","0","57363","","null","","","null","68","","","","","","","","","","","","","","","NaN",""
"","S1","","html-keyboard-response","448","330622","0.0-1.0-623.0","0","0","57363","","null","","","null","69","","","","","","","","","","","","","","","",""
"","ISI","","html-keyboard-response","449","331126","0.0-1.0-624.0","0","0","57363","","null","","","null","69","NaN","","","","","","","","","","","","","","",""
"","S2","","html-keyboard-response","450","331378","0.0-1.0-625.0","0","0","57363","","null","","","null","69","","NaN","","","","","","","","","","","","","",""
"","response","","html-keyboard-response","451","331452","0.0-1.0-626.0-0.0","0","0","57363","","72","","","75","69","","","2","69","training","adjacent","AB","1","2","Q.jpg","L.jpg","1","1","1","",""
"","feedback","","html-keyboard-response","452","332454","0.0-1.0-627.0-0.0","0","0","57363","","null","","","null","69","","","","","","","","","","","","","","","",""
"","ITI","","html-keyboard-response","453","333456","0.0-1.0-630.0","0","0","57363","","null","","","null","69","","","","","","","","","","","","","","","NaN",""
"","S1","","html-keyboard-response","454","333710","0.0-1.0-632.0","0","0","57363","","null","","","null","70","","","","","","","","","","","","","","","",""
"","ISI","","html-keyboard-response","455","334212","0.0-1.0-633.0","0","0","57363","","null","","","null","70","NaN","","","","","","","","","","","","","","",""
"","S2","","html-keyboard-response","456","334464","0.0-1.0-634.0","0","0","57363","","null","","","null","70","","NaN","","","","","","","","","","","","","",""
"","response","","html-keyboard-response","457","334543","0.0-1.0-635.0-0.0","0","0","57363","","79","","","68","70","","","2","70","training","adjacent","GF","7","6","R.jpg","M.jpg","0","0","1","",""
"","feedback","","html-keyboard-response","458","335545","0.0-1.0-636.0-0.0","0","0","57363","","null","","","null","70","","","","","","","","","","","","","","","",""
"","ITI","","html-keyboard-response","459","336558","0.0-1.0-639.0","0","0","57363","","null","","","null","70","","","","","","","","","","","","","","","NaN",""
"","S1","","html-keyboard-response","460","336812","0.0-1.0-641.0","0","0","57363","","null","","","null","71","","","","","","","","","","","","","","","",""
"","ISI","","html-keyboard-response","461","337314","0.0-1.0-642.0","0","0","57363","","null","","","null","71","NaN","","","","","","","","","","","","","","",""
"","S2","","html-keyboard-response","462","337566","0.0-1.0-643.0","0","0","57363","","null","","","null","71","","NaN","","","","","","","","","","","","","",""
"","response","","html-keyboard-response","463","337838","0.0-1.0-644.0-0.0","0","0","57363","","269","","","75","71","","","2","71","training","adjacent","ED","5","4","N.jpg","O.jpg","1","0","0","",""
"","feedback","","html-keyboard-response","464","338840","0.0-1.0-645.0-0.0","0","0","57363","","null","","","null","71","","","","","","","","","","","","","","","",""
"","time_out","","html-keyboard-response","465","340842","0.0-1.0-647.0-0.0","0","0","57363","","null","","","null","71","","","","","","","","","","","","","","","",""
"","ITI","","html-keyboard-response","466","341844","0.0-1.0-648.0","0","0","57363","","null","","","null","71","","","","","","","","","","","","","","","NaN",""
"","S1","","html-keyboard-response","467","342097","0.0-1.0-650.0","0","0","57363","","null","","","null","72","","","","","","","","","","","","","","","",""
"","ISI","","html-keyboard-response","468","342599","0.0-1.0-651.0","0","0","57363","","439","","","75","72","k","","","","","","","","","","","","","","",""
"","S2","","html-keyboard-response","469","342851","0.0-1.0-652.0","0","0","57363","","null","","","null","72","","NaN","","","","","","","","","","","","","",""
"","response","","html-keyboard-response","470","343091","0.0-1.0-653.0-0.0","0","0","57363","","238","","","75","72","","","2","72","training","adjacent","AB","1","2","Q.jpg","L.jpg","1","1","1","",""
"","feedback","","html-keyboard-response","471","344093","0.0-1.0-654.0-0.0","0","0","57363","","null","","","null","72","","","","","","","","","","","","","","","",""
"","ITI","","html-keyboard-response","472","345095","0.0-1.0-657.0","0","0","57363","","null","","","null","72","","","","","","","","","","","","","","","NaN",""
"","S1","","html-keyboard-response","473","345348","0.0-1.0-659.0","0","0","57363","","null","","","null","73","","","","","","","","","","","","","","","",""
"","ISI","","html-keyboard-response","474","345850","0.0-1.0-660.0","0","0","57363","","null","","","null","73","NaN","","","","","","","","","","","","","","",""
"","S2","","html-keyboard-response","475","346103","0.0-1.0-661.0","0","0","57363","","null","","","null","73","","NaN","","","","","","","","","","","","","",""
"","response","","html-keyboard-response","476","346126","0.0-1.0-662.0-0.0","0","0","57363","","21","","","68","73","","","2","73","training","adjacent","BA","2","1","L.jpg","Q.jpg","0","0","1","",""
"","feedback","","html-keyboard-response","477","347128","0.0-1.0-663.0-0.0","0","0","57363","","null","","","null","73","","","","","","","","","","","","","","","",""
"","ITI","","html-keyboard-response","478","348132","0.0-1.0-666.0","0","0","57363","","null","","","null","73","","","","","","","","","","","","","","","NaN",""
"","S1","","html-keyboard-response","479","348383","0.0-1.0-668.0","0","0","57363","","null","","","null","74","","","","","","","","","","","","","","","",""
"","ISI","","html-keyboard-response","480","348885","0.0-1.0-669.0","0","0","57363","","null","","","null","74","NaN","","","","","","","","","","","","","","",""
"","S2","","html-keyboard-response","481","349106","0.0-1.0-670.0","0","0","57363","","220","","","68","74","","d","2","74","training","adjacent","DE","4","5","O.jpg","N.jpg","0","1","0","",""
"","feedback","","html-keyboard-response","482","350108","0.0-1.0-672.0-0.0","0","0","57363","","null","","","null","74","","","","","","","","","","","","","","","",""
"","time_out","","html-keyboard-response","483","352116","0.0-1.0-674.0-0.0","0","0","57363","","null","","","null","74","","","","","","","","","","","","","","","",""
"","ITI","","html-keyboard-response","484","353119","0.0-1.0-675.0","0","0","57363","","null","","","null","74","","","","","","","","","","","","","","","NaN",""
"","S1","","html-keyboard-response","485","353371","0.0-1.0-677.0","0","0","57363","","null","","","null","75","","","","","","","","","","","","","","","",""
"","ISI","","html-keyboard-response","486","353873","0.0-1.0-678.0","0","0","57363","","null","","","null","75","NaN","","","","","","","","","","","","","","",""
"","S2","","html-keyboard-response","487","354126","0.0-1.0-679.0","0","0","57363","","null","","","null","75","","NaN","","","","","","","","","","","","","",""
"","response","","html-keyboard-response","488","354252","0.0-1.0-680.0-0.0","0","0","57363","","125","","","68","75","","","2","75","training","adjacent","FG","6","7","M.jpg","R.jpg","0","1","0","",""
"","feedback","","html-keyboard-response","489","355254","0.0-1.0-681.0-0.0","0","0","57363","","null","","","null","75","","","","","","","","","","","","","","","",""
"","time_out","","html-keyboard-response","490","357256","0.0-1.0-683.0-0.0","0","0","57363","","null","","","null","75","","","","","","","","","","","","","","","",""
"","ITI","","html-keyboard-response","491","358259","0.0-1.0-684.0","0","0","57363","","null","","","null","75","","","","","","","","","","","","","","","NaN",""
"","S1","","html-keyboard-response","492","358511","0.0-1.0-686.0","0","0","57363","","null","","","null","76","","","","","","","","","","","","","","","",""
"","ISI","","html-keyboard-response","493","359014","0.0-1.0-687.0","0","0","57363","","null","","","null","76","NaN","","","","","","","","","","","","","","",""
"","S2","","html-keyboard-response","494","359266","0.0-1.0-688.0","0","0","57363","","null","","","null","76","","NaN","","","","","","","","","","","","","",""
"","response","","html-keyboard-response","495","359638","0.0-1.0-689.0-0.0","0","0","57363","","372","","","68","76","","","2","76","training","adjacent","CD","3","4","P.jpg","O.jpg","0","1","0","",""
"","feedback","","html-keyboard-response","496","360641","0.0-1.0-690.0-0.0","0","0","57363","","null","","","null","76","","","","","","","","","","","","","","","",""
"","time_out","","html-keyboard-response","497","362644","0.0-1.0-692.0-0.0","0","0","57363","","null","","","null","76","","","","","","","","","","","","","","","",""
"","ITI","","html-keyboard-response","498","363647","0.0-1.0-693.0","0","0","57363","","null","","","null","76","","","","","","","","","","","","","","","NaN",""
"","S1","","html-keyboard-response","499","363900","0.0-1.0-695.0","0","0","57363","","null","","","null","77","","","","","","","","","","","","","","","",""
"","ISI","","html-keyboard-response","500","364402","0.0-1.0-696.0","0","0","57363","","null","","","null","77","NaN","","","","","","","","","","","","","","",""
"","S2","","html-keyboard-response","501","364655","0.0-1.0-697.0","0","0","57363","","null","","","null","77","","NaN","","","","","","","","","","","","","",""
"","response","","html-keyboard-response","502","364706","0.0-1.0-698.0-0.0","0","0","57363","","51","","","75","77","","","2","77","training","adjacent","CB","3","2","P.jpg","L.jpg","1","0","0","",""
"","feedback","","html-keyboard-response","503","365710","0.0-1.0-699.0-0.0","0","0","57363","","null","","","null","77","","","","","","","","","","","","","","","",""
"","time_out","","html-keyboard-response","504","367713","0.0-1.0-701.0-0.0","0","0","57363","","null","","","null","77","","","","","","","","","","","","","","","",""
"","ITI","","html-keyboard-response","505","368715","0.0-1.0-702.0","0","0","57363","","null","","","null","77","","","","","","","","","","","","","","","NaN",""
"","S1","","html-keyboard-response","506","368968","0.0-1.0-704.0","0","0","57363","","null","","","null","78","","","","","","","","","","","","","","","",""
"","ISI","","html-keyboard-response","507","369470","0.0-1.0-705.0","0","0","57363","","null","","","null","78","NaN","","","","","","","","","","","","","","",""
"","S2","","html-keyboard-response","508","369723","0.0-1.0-706.0","0","0","57363","","null","","","null","78","","NaN","","","","","","","","","","","","","",""
"","response","","html-keyboard-response","509","369814","0.0-1.0-707.0-0.0","0","0","57363","","90","","","68","78","","","2","78","training","adjacent","FE","6","5","M.jpg","N.jpg","0","0","1","",""
"","feedback","","html-keyboard-response","510","370817","0.0-1.0-708.0-0.0","0","0","57363","","null","","","null","78","","","","","","","","","","","","","","","",""
"","ITI","","html-keyboard-response","511","371820","0.0-1.0-711.0","0","0","57363","","null","","","null","78","","","","","","","","","","","","","","","NaN",""
"","S1","","html-keyboard-response","512","372072","0.0-1.0-713.0","0","0","57363","","null","","","null","79","","","","","","","","","","","","","","","",""
"","ISI","","html-keyboard-response","513","372574","0.0-1.0-714.0","0","0","57363","","null","","","null","79","NaN","","","","","","","","","","","","","","",""
"","S2","","html-keyboard-response","514","372826","0.0-1.0-715.0","0","0","57363","","null","","","null","79","","NaN","","","","","","","","","","","","","",""
"","response","","html-keyboard-response","515","373331","0.0-1.0-716.0-0.0","0","0","57363","","503","","","68","79","","","2","79","training","adjacent","CD","3","4","P.jpg","O.jpg","0","1","0","",""
"","feedback","","html-keyboard-response","516","374333","0.0-1.0-717.0-0.0","0","0","57363","","null","","","null","79","","","","","","","","","","","","","","","",""
"","time_out","","html-keyboard-response","517","376336","0.0-1.0-719.0-0.0","0","0","57363","","null","","","null","79","","","","","","","","","","","","","","","",""
"","ITI","","html-keyboard-response","518","377339","0.0-1.0-720.0","0","0","57363","","null","","","null","79","","","","","","","","","","","","","","","NaN",""
"","S1","","html-keyboard-response","519","377591","0.0-1.0-722.0","0","0","57363","","null","","","null","80","","","","","","","","","","","","","","","",""
"","ISI","","html-keyboard-response","520","378093","0.0-1.0-723.0","0","0","57363","","null","","","null","80","NaN","","","","","","","","","","","","","","",""
"","S2","","html-keyboard-response","521","378345","0.0-1.0-724.0","0","0","57363","","null","","","null","80","","NaN","","","","","","","","","","","","","",""
"","response","","html-keyboard-response","522","378713","0.0-1.0-725.0-0.0","0","0","57363","","366","","","68","80","","","2","80","training","adjacent","GF","7","6","R.jpg","M.jpg","0","0","1","",""
"","feedback","","html-keyboard-response","523","379716","0.0-1.0-726.0-0.0","0","0","57363","","null","","","null","80","","","","","","","","","","","","","","","",""
"","ITI","","html-keyboard-response","524","380717","0.0-1.0-729.0","0","0","57363","","null","","","null","80","","","","","","","","","","","","","","","NaN",""
"","S1","","html-keyboard-response","525","380969","0.0-1.0-731.0","0","0","57363","","null","","","null","81","","","","","","","","","","","","","","","",""
"","ISI","","html-keyboard-response","526","381471","0.0-1.0-732.0","0","0","57363","","null","","","null","81","NaN","","","","","","","","","","","","","","",""
"","S2","","html-keyboard-response","527","381724","0.0-1.0-733.0","0","0","57363","","null","","","null","81","","NaN","","","","","","","","","","","","","",""
"","response","","html-keyboard-response","528","382315","0.0-1.0-734.0-0.0","0","0","57363","","590","","","75","81","","","2","81","training","adjacent","CD","3","4","P.jpg","O.jpg","1","1","1","",""
"","feedback","","html-keyboard-response","529","383316","0.0-1.0-735.0-0.0","0","0","57363","","null","","","null","81","","","","","","","","","","","","","","","",""
"","ITI","","html-keyboard-response","530","384318","0.0-1.0-738.0","0","0","57363","","null","","","null","81","","","","","","","","","","","","","","","NaN",""
"","S1","","html-keyboard-response","531","384570","0.0-1.0-740.0","0","0","57363","","null","","","null","82","","","","","","","","","","","","","","","",""
"","ISI","","html-keyboard-response","532","385074","0.0-1.0-741.0","0","0","57363","","null","","","null","82","NaN","","","","","","","","","","","","","","",""
"","S2","","html-keyboard-response","533","385327","0.0-1.0-742.0","0","0","57363","","null","","","null","82","","NaN","","","","","","","","","","","","","",""
"","response","","html-keyboard-response","534","385403","0.0-1.0-743.0-0.0","0","0","57363","","75","","","68","82","","","2","82","training","adjacent","DC","4","3","O.jpg","P.jpg","0","0","1","",""
"","feedback","","html-keyboard-response","535","386405","0.0-1.0-744.0-0.0","0","0","57363","","null","","","null","82","","","","","","","","","","","","","","","",""
"","ITI","","html-keyboard-response","536","387409","0.0-1.0-747.0","0","0","57363","","null","","","null","82","","","","","","","","","","","","","","","NaN",""
"","S1","","html-keyboard-response","537","387661","0.0-1.0-749.0","0","0","57363","","null","","","null","83","","","","","","","","","","","","","","","",""
"","ISI","","html-keyboard-response","538","388164","0.0-1.0-750.0","0","0","57363","","null","","","null","83","NaN","","","","","","","","","","","","","","",""
"","S2","","html-keyboard-response","539","388416","0.0-1.0-751.0","0","0","57363","","null","","","null","83","","NaN","","","","","","","","","","","","","",""
"","response","","html-keyboard-response","540","388457","0.0-1.0-752.0-0.0","0","0","57363","","40","","","75","83","","","2","83","training","adjacent","GF","7","6","R.jpg","M.jpg","1","0","0","",""
"","feedback","","html-keyboard-response","541","389460","0.0-1.0-753.0-0.0","0","0","57363","","null","","","null","83","","","","","","","","","","","","","","","",""
"","time_out","","html-keyboard-response","542","391462","0.0-1.0-755.0-0.0","0","0","57363","","null","","","null","83","","","","","","","","","","","","","","","",""
"","ITI","","html-keyboard-response","543","392465","0.0-1.0-756.0","0","0","57363","","null","","","null","83","","","","","","","","","","","","","","","NaN",""
"","S1","","html-keyboard-response","544","392717","0.0-1.0-758.0","0","0","57363","","null","","","null","84","","","","","","","","","","","","","","","",""
"","ISI","","html-keyboard-response","545","393219","0.0-1.0-759.0","0","0","57363","","null","","","null","84","NaN","","","","","","","","","","","","","","",""
"","S2","","html-keyboard-response","546","393472","0.0-1.0-760.0","0","0","57363","","null","","","null","84","","NaN","","","","","","","","","","","","","",""
"","response","","html-keyboard-response","547","393948","0.0-1.0-761.0-0.0","0","0","57363","","476","","","75","84","","","2","84","training","adjacent","CD","3","4","P.jpg","O.jpg","1","1","1","",""
"","feedback","","html-keyboard-response","548","394952","0.0-1.0-762.0-0.0","0","0","57363","","null","","","null","84","","","","","","","","","","","","","","","",""
"","ITI","","html-keyboard-response","549","395954","0.0-1.0-765.0","0","0","57363","","null","","","null","84","","","","","","","","","","","","","","","NaN",""
"","S1","","html-keyboard-response","550","396205","0.0-1.0-767.0","0","0","57363","","null","","","null","85","","","","","","","","","","","","","","","",""
"","ISI","","html-keyboard-response","551","396708","0.0-1.0-768.0","0","0","57363","","null","","","null","85","NaN","","","","","","","","","","","","","","",""
"","S2","","html-keyboard-response","552","396962","0.0-1.0-769.0","0","0","57363","","null","","","null","85","","NaN","","","","","","","","","","","","","",""
"","response","","html-keyboard-response","553","397029","0.0-1.0-770.0-0.0","0","0","57363","","66","","","68","85","","","2","85","training","adjacent","CB","3","2","P.jpg","L.jpg","0","0","1","",""
"","feedback","","html-keyboard-response","554","398031","0.0-1.0-771.0-0.0","0","0","57363","","null","","","null","85","","","","","","","","","","","","","","","",""
"","ITI","","html-keyboard-response","555","399034","0.0-1.0-774.0","0","0","57363","","null","","","null","85","","","","","","","","","","","","","","","NaN",""
"","S1","","html-keyboard-response","556","399287","0.0-1.0-776.0","0","0","57363","","null","","","null","86","","","","","","","","","","","","","","","",""
"","ISI","","html-keyboard-response","557","399790","0.0-1.0-777.0","0","0","57363","","null","","","null","86","NaN","","","","","","","","","","","","","","",""
"","S2","","html-keyboard-response","558","400042","0.0-1.0-778.0","0","0","57363","","null","","","null","86","","NaN","","","","","","","","","","","","","",""
"","response","","html-keyboard-response","559","400226","0.0-1.0-779.0-0.0","0","0","57363","","181","","","68","86","","","2","86","training","adjacent","BA","2","1","L.jpg","Q.jpg","0","0","1","",""
"","feedback","","html-keyboard-response","560","401228","0.0-1.0-780.0-0.0","0","0","57363","","null","","","null","86","","","","","","","","","","","","","","","",""
"","ITI","","html-keyboard-response","561","402231","0.0-1.0-783.0","0","0","57363","","null","","","null","86","","","","","","","","","","","","","","","NaN",""
"","S1","","html-keyboard-response","562","402483","0.0-1.0-785.0","0","0","57363","","null","","","null","87","","","","","","","","","","","","","","","",""
"","ISI","","html-keyboard-response","563","402985","0.0-1.0-786.0","0","0","57363","","null","","","null","87","NaN","","","","","","","","","","","","","","",""
"","S2","","html-keyboard-response","564","403237","0.0-1.0-787.0","0","0","57363","","null","","","null","87","","NaN","","","","","","","","","","","","","",""
"","response","","html-keyboard-response","565","403416","0.0-1.0-788.0-0.0","0","0","57363","","177","","","75","87","","","2","87","training","adjacent","EF","5","6","N.jpg","M.jpg","1","1","1","",""
"","feedback","","html-keyboard-response","566","404418","0.0-1.0-789.0-0.0","0","0","57363","","null","","","null","87","","","","","","","","","","","","","","","",""
"","ITI","","html-keyboard-response","567","405419","0.0-1.0-792.0","0","0","57363","","null","","","null","87","","","","","","","","","","","","","","","NaN",""
"","S1","","html-keyboard-response","568","405672","0.0-1.0-794.0","0","0","57363","","null","","","null","88","","","","","","","","","","","","","","","",""
"","ISI","","html-keyboard-response","569","406175","0.0-1.0-795.0","0","0","57363","","null","","","null","88","NaN","","","","","","","","","","","","","","",""
"","S2","","html-keyboard-response","570","406427","0.0-1.0-796.0","0","0","57363","","null","","","null","88","","NaN","","","","","","","","","","","","","",""
"","response","","html-keyboard-response","571","406509","0.0-1.0-797.0-0.0","0","0","57363","","82","","","68","88","","","2","88","training","adjacent","EF","5","6","N.jpg","M.jpg","0","1","0","",""
"","feedback","","html-keyboard-response","572","407511","0.0-1.0-798.0-0.0","0","0","57363","","null","","","null","88","","","","","","","","","","","","","","","",""
"","time_out","","html-keyboard-response","573","409513","0.0-1.0-800.0-0.0","0","0","57363","","null","","","null","88","","","","","","","","","","","","","","","",""
"","ITI","","html-keyboard-response","574","410514","0.0-1.0-801.0","0","0","57363","","null","","","null","88","","","","","","","","","","","","","","","NaN",""
"","S1","","html-keyboard-response","575","410767","0.0-1.0-803.0","0","0","57363","","null","","","null","89","","","","","","","","","","","","","","","",""
"","ISI","","html-keyboard-response","576","411268","0.0-1.0-804.0","0","0","57363","","null","","","null","89","NaN","","","","","","","","","","","","","","",""
"","S2","","html-keyboard-response","577","411523","0.0-1.0-805.0","0","0","57363","","null","","","null","89","","NaN","","","","","","","","","","","","","",""
"","response","","html-keyboard-response","578","411635","0.0-1.0-806.0-0.0","0","0","57363","","110","","","75","89","","","2","89","training","adjacent","DC","4","3","O.jpg","P.jpg","1","0","0","",""
"","feedback","","html-keyboard-response","579","412637","0.0-1.0-807.0-0.0","0","0","57363","","null","","","null","89","","","","","","","","","","","","","","","",""
"","time_out","","html-keyboard-response","580","414640","0.0-1.0-809.0-0.0","0","0","57363","","null","","","null","89","","","","","","","","","","","","","","","",""
"","ITI","","html-keyboard-response","581","415641","0.0-1.0-810.0","0","0","57363","","null","","","null","89","","","","","","","","","","","","","","","NaN",""
