"success","ttype","start_time","trial_type","trial_index","time_elapsed","internal_node_id","warning","missed_checkup","PID","view_history","rt","responses","repeat_instructions","key_press","index","keypress_isi","keypress_S2","block","trial_num","phase","group_type","pair_type","S1_stim","S2_stim","S1_img","S2_img","S1_chosen","S1_higher","accuracy","keypress_iti","total_bonus_tally"
"true","full_screen","d08012022hr1352","fullscreen","0","11799","0.0-0.0","0","0","67616","","","","","","","","","","","","","","","","","","","","","",""
"","instructions","","instructions","1","49599","0.0-1.0-0.0-0.0","0","0","67616","[{""page_index"":0,""viewing_time"":6572},{""page_index"":1,""viewing_time"":21536},{""page_index"":2,""viewing_time"":7712},{""page_index"":3,""viewing_time"":1976}]","37797","","","","","","","","","","","","","","","","","","","",""
"","comprehension_check","","survey-multi-choice","2","71399","0.0-1.0-0.0-1.0","0","0","67616","","21790","{""Q0"":""True"",""Q1"":""D"",""Q2"":""When you see the prompt 'MAKE A CHOICE' after the second image was presented"",""Q3"":""Green mark"",""Q4"":""either D or K""}","0","","","","","","","","","","","","","","","","","",""
"","start_exp","","html-keyboard-response","3","74590","0.0-1.0-1.0","0","0","67616","","3185","","","32","","","","","","","","","","","","","","","","",""
"","S1","","html-keyboard-response","4","74848","0.0-1.0-2.0","0","0","67616","","null","","","null","0","","","","","","","","","","","","","","","",""
"","ISI","","html-keyboard-response","5","76856","0.0-1.0-3.0","0","0","67616","","null","","","null","0","NaN","","","","","","","","","","","","","","",""
"","S2","","html-keyboard-response","6","77111","0.0-1.0-4.0","0","0","67616","","null","","","null","0","","NaN","","","","","","","","","","","","","",""
"","response","","html-keyboard-response","7","77524","0.0-1.0-5.0","0","0","67616","","409","","","68","0","","","1","0","training","adjacent","GF","7","6","L.jpg","M.jpg","1","0","0","",""
"","feedback","","html-keyboard-response","8","78533","0.0-1.0-6.0-0.0","0","0","67616","","null","","","null","0","","","","","","","","","","","","","","","",""
"","time_out","","html-keyboard-response","9","80539","0.0-1.0-8.0-0.0","0","0","67616","","null","","","null","0","","","","","","","","","","","","","","","",""
"","ITI","","html-keyboard-response","10","81546","0.0-1.0-9.0","0","0","67616","","null","","","null","0","","","","","","","","","","","","","","","NaN",""
"","S1","","html-keyboard-response","11","81801","0.0-1.0-11.0","0","0","67616","","null","","","null","1","","","","","","","","","","","","","","","",""
"","ISI","","html-keyboard-response","12","83805","0.0-1.0-12.0","0","0","67616","","null","","","null","1","NaN","","","","","","","","","","","","","","",""
"","S2","","html-keyboard-response","13","84060","0.0-1.0-13.0","0","0","67616","","null","","","null","1","","NaN","","","","","","","","","","","","","",""
"","response","","html-keyboard-response","14","84699","0.0-1.0-14.0","0","0","67616","","636","","","75","1","","","1","1","training","adjacent","BA","2","1","Q.jpg","R.jpg","0","0","1","",""
"","feedback","","html-keyboard-response","15","85708","0.0-1.0-15.0-0.0","0","0","67616","","null","","","null","1","","","","","","","","","","","","","","","",""
"","ITI","","html-keyboard-response","16","86712","0.0-1.0-18.0","0","0","67616","","341","","","32","1","","","","","","","","","","","","","","","space",""
"","S1","","html-keyboard-response","17","86968","0.0-1.0-20.0","0","0","67616","","null","","","null","2","","","","","","","","","","","","","","","",""
"","ISI","","html-keyboard-response","18","88974","0.0-1.0-21.0","0","0","67616","","null","","","null","2","NaN","","","","","","","","","","","","","","",""
"","S2","","html-keyboard-response","19","89233","0.0-1.0-22.0","0","0","67616","","null","","","null","2","","NaN","","","","","","","","","","","","","",""
"","response","","html-keyboard-response","20","89915","0.0-1.0-23.0","0","0","67616","","679","","","75","2","","","1","2","training","adjacent","CB","3","2","N.jpg","Q.jpg","0","0","1","",""
"","feedback","","html-keyboard-response","21","90920","0.0-1.0-24.0-0.0","0","0","67616","","null","","","null","2","","","","","","","","","","","","","","","",""
"","ITI","","html-keyboard-response","22","91927","0.0-1.0-27.0","0","0","67616","","null","","","null","2","","","","","","","","","","","","","","","NaN",""
"","S1","","html-keyboard-response","23","92186","0.0-1.0-29.0","0","0","67616","","null","","","null","3","","","","","","","","","","","","","","","",""
"","ISI","","html-keyboard-response","24","94192","0.0-1.0-30.0","0","0","67616","","null","","","null","3","NaN","","","","","","","","","","","","","","",""
"","S2","","html-keyboard-response","25","94449","0.0-1.0-31.0","0","0","67616","","null","","","null","3","","NaN","","","","","","","","","","","","","",""
"","response","","html-keyboard-response","26","95387","0.0-1.0-32.0","0","0","67616","","935","","","68","3","","","1","3","training","adjacent","CD","3","4","N.jpg","P.jpg","1","1","1","",""
"","feedback","","html-keyboard-response","27","96391","0.0-1.0-33.0-0.0","0","0","67616","","null","","","null","3","","","","","","","","","","","","","","","",""
"","ITI","","html-keyboard-response","28","97399","0.0-1.0-36.0","0","0","67616","","null","","","null","3","","","","","","","","","","","","","","","NaN",""
"","S1","","html-keyboard-response","29","97654","0.0-1.0-38.0","0","0","67616","","null","","","null","4","","","","","","","","","","","","","","","",""
"","ISI","","html-keyboard-response","30","99659","0.0-1.0-39.0","0","0","67616","","null","","","null","4","NaN","","","","","","","","","","","","","","",""
"","S2","","html-keyboard-response","31","99918","0.0-1.0-40.0","0","0","67616","","null","","","null","4","","NaN","","","","","","","","","","","","","",""
"","response","","html-keyboard-response","32","100411","0.0-1.0-41.0","0","0","67616","","490","","","68","4","","","1","4","training","adjacent","CD","3","4","N.jpg","P.jpg","1","1","1","",""
"","feedback","","html-keyboard-response","33","101419","0.0-1.0-42.0-0.0","0","0","67616","","null","","","null","4","","","","","","","","","","","","","","","",""
"","ITI","","html-keyboard-response","34","102426","0.0-1.0-45.0","0","0","67616","","null","","","null","4","","","","","","","","","","","","","","","NaN",""
"","S1","","html-keyboard-response","35","102681","0.0-1.0-47.0","0","0","67616","","null","","","null","5","","","","","","","","","","","","","","","",""
"","ISI","","html-keyboard-response","36","104689","0.0-1.0-48.0","0","0","67616","","null","","","null","5","NaN","","","","","","","","","","","","","","",""
"","S2","","html-keyboard-response","37","104945","0.0-1.0-49.0","0","0","67616","","null","","","null","5","","NaN","","","","","","","","","","","","","",""
"","response","","html-keyboard-response","38","105306","0.0-1.0-50.0","0","0","67616","","358","","","68","5","","","1","5","training","adjacent","BC","2","3","Q.jpg","N.jpg","1","1","1","",""
"","feedback","","html-keyboard-response","39","106315","0.0-1.0-51.0-0.0","0","0","67616","","null","","","null","5","","","","","","","","","","","","","","","",""
"","ITI","","html-keyboard-response","40","107322","0.0-1.0-54.0","0","0","67616","","null","","","null","5","","","","","","","","","","","","","","","NaN",""
"","S1","","html-keyboard-response","41","107580","0.0-1.0-56.0","0","0","67616","","null","","","null","6","","","","","","","","","","","","","","","",""
"","ISI","","html-keyboard-response","42","109587","0.0-1.0-57.0","0","0","67616","","null","","","null","6","NaN","","","","","","","","","","","","","","",""
"","S2","","html-keyboard-response","43","109844","0.0-1.0-58.0","0","0","67616","","null","","","null","6","","NaN","","","","","","","","","","","","","",""
"","response","","html-keyboard-response","44","110426","0.0-1.0-59.0","0","0","67616","","580","","","75","6","","","1","6","training","adjacent","AB","1","2","R.jpg","Q.jpg","0","1","0","",""
"","feedback","","html-keyboard-response","45","111434","0.0-1.0-60.0-0.0","0","0","67616","","null","","","null","6","","","","","","","","","","","","","","","",""
"","time_out","","html-keyboard-response","46","113443","0.0-1.0-62.0-0.0","0","0","67616","","null","","","null","6","","","","","","","","","","","","","","","",""
"","ITI","","html-keyboard-response","47","114447","0.0-1.0-63.0","0","0","67616","","null","","","null","6","","","","","","","","","","","","","","","NaN",""
"","S1","","html-keyboard-response","48","114702","0.0-1.0-65.0","0","0","67616","","null","","","null","7","","","","","","","","","","","","","","","",""
"","ISI","","html-keyboard-response","49","116711","0.0-1.0-66.0","0","0","67616","","null","","","null","7","NaN","","","","","","","","","","","","","","",""
"","S2","","html-keyboard-response","50","116966","0.0-1.0-67.0","0","0","67616","","null","","","null","7","","NaN","","","","","","","","","","","","","",""
"","response","","html-keyboard-response","51","117914","0.0-1.0-68.0","0","0","67616","","944","","","68","7","","","1","7","training","adjacent","EF","5","6","O.jpg","M.jpg","1","1","1","",""
"","feedback","","html-keyboard-response","52","118921","0.0-1.0-69.0-0.0","0","0","67616","","null","","","null","7","","","","","","","","","","","","","","","",""
"","ITI","","html-keyboard-response","53","119927","0.0-1.0-72.0","0","0","67616","","null","","","null","7","","","","","","","","","","","","","","","NaN",""
"","S1","","html-keyboard-response","54","120182","0.0-1.0-74.0","0","0","67616","","null","","","null","8","","","","","","","","","","","","","","","",""
"","ISI","","html-keyboard-response","55","122189","0.0-1.0-75.0","0","0","67616","","null","","","null","8","NaN","","","","","","","","","","","","","","",""
"","S2","","html-keyboard-response","56","122446","0.0-1.0-76.0","0","0","67616","","null","","","null","8","","NaN","","","","","","","","","","","","","",""
"","response","","html-keyboard-response","57","123130","0.0-1.0-77.0","0","0","67616","","681","","","68","8","","","1","8","training","adjacent","FG","6","7","M.jpg","L.jpg","1","1","1","",""
"","feedback","","html-keyboard-response","58","124135","0.0-1.0-78.0-0.0","0","0","67616","","null","","","null","8","","","","","","","","","","","","","","","",""
"","ITI","","html-keyboard-response","59","125140","0.0-1.0-81.0","0","0","67616","","null","","","null","8","","","","","","","","","","","","","","","NaN",""
"","S1","","html-keyboard-response","60","125397","0.0-1.0-83.0","0","0","67616","","null","","","null","9","","","","","","","","","","","","","","","",""
"","ISI","","html-keyboard-response","61","127403","0.0-1.0-84.0","0","0","67616","","null","","","null","9","NaN","","","","","","","","","","","","","","",""
"","S2","","html-keyboard-response","62","127659","0.0-1.0-85.0","0","0","67616","","null","","","null","9","","NaN","","","","","","","","","","","","","",""
"","response","","html-keyboard-response","63","127993","0.0-1.0-86.0","0","0","67616","","332","","","68","9","","","1","9","training","adjacent","BA","2","1","Q.jpg","R.jpg","1","0","0","",""
"","feedback","","html-keyboard-response","64","128998","0.0-1.0-87.0-0.0","0","0","67616","","null","","","null","9","","","","","","","","","","","","","","","",""
"","time_out","","html-keyboard-response","65","131002","0.0-1.0-89.0-0.0","0","0","67616","","null","","","null","9","","","","","","","","","","","","","","","",""
"","ITI","","html-keyboard-response","66","132006","0.0-1.0-90.0","0","0","67616","","null","","","null","9","","","","","","","","","","","","","","","NaN",""
"","S1","","html-keyboard-response","67","132262","0.0-1.0-92.0","0","0","67616","","null","","","null","10","","","","","","","","","","","","","","","",""
"","ISI","","html-keyboard-response","68","134270","0.0-1.0-93.0","0","0","67616","","null","","","null","10","NaN","","","","","","","","","","","","","","",""
"","S2","","html-keyboard-response","69","134526","0.0-1.0-94.0","0","0","67616","","null","","","null","10","","NaN","","","","","","","","","","","","","",""
"","response","","html-keyboard-response","70","134938","0.0-1.0-95.0","0","0","67616","","408","","","75","10","","","1","10","training","adjacent","ED","5","4","O.jpg","P.jpg","0","0","1","",""
"","feedback","","html-keyboard-response","71","135942","0.0-1.0-96.0-0.0","0","0","67616","","null","","","null","10","","","","","","","","","","","","","","","",""
"","ITI","","html-keyboard-response","72","136946","0.0-1.0-99.0","0","0","67616","","null","","","null","10","","","","","","","","","","","","","","","NaN",""
"","S1","","html-keyboard-response","73","137204","0.0-1.0-101.0","0","0","67616","","null","","","null","11","","","","","","","","","","","","","","","",""
"","ISI","","html-keyboard-response","74","139210","0.0-1.0-102.0","0","0","67616","","null","","","null","11","NaN","","","","","","","","","","","","","","",""
"","S2","","html-keyboard-response","75","139465","0.0-1.0-103.0","0","0","67616","","null","","","null","11","","NaN","","","","","","","","","","","","","",""
"","response","","html-keyboard-response","76","140185","0.0-1.0-104.0","0","0","67616","","717","","","75","11","","","1","11","training","adjacent","AB","1","2","R.jpg","Q.jpg","0","1","0","",""
"","feedback","","html-keyboard-response","77","141189","0.0-1.0-105.0-0.0","0","0","67616","","null","","","null","11","","","","","","","","","","","","","","","",""
"","time_out","","html-keyboard-response","78","143197","0.0-1.0-107.0-0.0","0","0","67616","","null","","","null","11","","","","","","","","","","","","","","","",""
"","ITI","","html-keyboard-response","79","144202","0.0-1.0-108.0","0","0","67616","","null","","","null","11","","","","","","","","","","","","","","","NaN",""
"","S1","","html-keyboard-response","80","144458","0.0-1.0-110.0","0","0","67616","","null","","","null","12","","","","","","","","","","","","","","","",""
"","ISI","","html-keyboard-response","81","146463","0.0-1.0-111.0","0","0","67616","","null","","","null","12","NaN","","","","","","","","","","","","","","",""
"","S2","","html-keyboard-response","82","146721","0.0-1.0-112.0","0","0","67616","","null","","","null","12","","NaN","","","","","","","","","","","","","",""
"","response","","html-keyboard-response","83","147512","0.0-1.0-113.0","0","0","67616","","788","","","75","12","","","1","12","training","adjacent","DC","4","3","P.jpg","N.jpg","0","0","1","",""
"","feedback","","html-keyboard-response","84","148517","0.0-1.0-114.0-0.0","0","0","67616","","null","","","null","12","","","","","","","","","","","","","","","",""
"","ITI","","html-keyboard-response","85","149525","0.0-1.0-117.0","0","0","67616","","null","","","null","12","","","","","","","","","","","","","","","NaN",""
"","S1","","html-keyboard-response","86","149780","0.0-1.0-119.0","0","0","67616","","null","","","null","13","","","","","","","","","","","","","","","",""
"","ISI","","html-keyboard-response","87","151788","0.0-1.0-120.0","0","0","67616","","null","","","null","13","NaN","","","","","","","","","","","","","","",""
"","S2","","html-keyboard-response","88","152044","0.0-1.0-121.0","0","0","67616","","null","","","null","13","","NaN","","","","","","","","","","","","","",""
"","response","","html-keyboard-response","89","152920","0.0-1.0-122.0","0","0","67616","","873","","","68","13","","","1","13","training","adjacent","CB","3","2","N.jpg","Q.jpg","1","0","0","",""
"","feedback","","html-keyboard-response","90","153925","0.0-1.0-123.0-0.0","0","0","67616","","null","","","null","13","","","","","","","","","","","","","","","",""
"","time_out","","html-keyboard-response","91","155933","0.0-1.0-125.0-0.0","0","0","67616","","null","","","null","13","","","","","","","","","","","","","","","",""
"","ITI","","html-keyboard-response","92","156938","0.0-1.0-126.0","0","0","67616","","null","","","null","13","","","","","","","","","","","","","","","NaN",""
"","S1","","html-keyboard-response","93","157193","0.0-1.0-128.0","0","0","67616","","null","","","null","14","","","","","","","","","","","","","","","",""
"","ISI","","html-keyboard-response","94","159201","0.0-1.0-129.0","0","0","67616","","null","","","null","14","NaN","","","","","","","","","","","","","","",""
"","S2","","html-keyboard-response","95","159459","0.0-1.0-130.0","0","0","67616","","null","","","null","14","","NaN","","","","","","","","","","","","","",""
"","response","","html-keyboard-response","96","159864","0.0-1.0-131.0","0","0","67616","","402","","","75","14","","","1","14","training","adjacent","BC","2","3","Q.jpg","N.jpg","0","1","0","",""
"","feedback","","html-keyboard-response","97","160873","0.0-1.0-132.0-0.0","0","0","67616","","null","","","null","14","","","","","","","","","","","","","","","",""
"","time_out","","html-keyboard-response","98","162878","0.0-1.0-134.0-0.0","0","0","67616","","null","","","null","14","","","","","","","","","","","","","","","",""
"","ITI","","html-keyboard-response","99","163886","0.0-1.0-135.0","0","0","67616","","null","","","null","14","","","","","","","","","","","","","","","NaN",""
"","S1","","html-keyboard-response","100","164141","0.0-1.0-137.0","0","0","67616","","null","","","null","15","","","","","","","","","","","","","","","",""
"","ISI","","html-keyboard-response","101","166149","0.0-1.0-138.0","0","0","67616","","null","","","null","15","NaN","","","","","","","","","","","","","","",""
"","S2","","html-keyboard-response","102","166405","0.0-1.0-139.0","0","0","67616","","null","","","null","15","","NaN","","","","","","","","","","","","","",""
"","response","","html-keyboard-response","103","166807","0.0-1.0-140.0","0","0","67616","","399","","","75","15","","","1","15","training","adjacent","EF","5","6","O.jpg","M.jpg","0","1","0","",""
"","feedback","","html-keyboard-response","104","167815","0.0-1.0-141.0-0.0","0","0","67616","","null","","","null","15","","","","","","","","","","","","","","","",""
"","time_out","","html-keyboard-response","105","169823","0.0-1.0-143.0-0.0","0","0","67616","","null","","","null","15","","","","","","","","","","","","","","","",""
"","ITI","","html-keyboard-response","106","170828","0.0-1.0-144.0","0","0","67616","","null","","","null","15","","","","","","","","","","","","","","","NaN",""
"","S1","","html-keyboard-response","107","171083","0.0-1.0-146.0","0","0","67616","","null","","","null","16","","","","","","","","","","","","","","","",""
"","ISI","","html-keyboard-response","108","173092","0.0-1.0-147.0","0","0","67616","","null","","","null","16","NaN","","","","","","","","","","","","","","",""
"","S2","","html-keyboard-response","109","173347","0.0-1.0-148.0","0","0","67616","","null","","","null","16","","NaN","","","","","","","","","","","","","",""
"","response","","html-keyboard-response","110","174295","0.0-1.0-149.0","0","0","67616","","944","","","68","16","","","1","16","training","adjacent","CB","3","2","N.jpg","Q.jpg","1","0","0","",""
"","feedback","","html-keyboard-response","111","175298","0.0-1.0-150.0-0.0","0","0","67616","","null","","","null","16","","","","","","","","","","","","","","","",""
"","time_out","","html-keyboard-response","112","177303","0.0-1.0-152.0-0.0","0","0","67616","","null","","","null","16","","","","","","","","","","","","","","","",""
"","ITI","","html-keyboard-response","113","178309","0.0-1.0-153.0","0","0","67616","","null","","","null","16","","","","","","","","","","","","","","","NaN",""
"","S1","","html-keyboard-response","114","178566","0.0-1.0-155.0","0","0","67616","","null","","","null","17","","","","","","","","","","","","","","","",""
"","ISI","","html-keyboard-response","115","180574","0.0-1.0-156.0","0","0","67616","","null","","","null","17","NaN","","","","","","","","","","","","","","",""
"","S2","","html-keyboard-response","116","180830","0.0-1.0-157.0","0","0","67616","","null","","","null","17","","NaN","","","","","","","","","","","","","",""
"","response","","html-keyboard-response","117","181559","0.0-1.0-158.0","0","0","67616","","726","","","68","17","","","1","17","training","adjacent","FE","6","5","M.jpg","O.jpg","1","0","0","",""
"","feedback","","html-keyboard-response","118","182565","0.0-1.0-159.0-0.0","0","0","67616","","null","","","null","17","","","","","","","","","","","","","","","",""
"","time_out","","html-keyboard-response","119","184574","0.0-1.0-161.0-0.0","0","0","67616","","null","","","null","17","","","","","","","","","","","","","","","",""
"","ITI","","html-keyboard-response","120","185578","0.0-1.0-162.0","0","0","67616","","null","","","null","17","","","","","","","","","","","","","","","NaN",""
"","S1","","html-keyboard-response","121","185833","0.0-1.0-164.0","0","0","67616","","null","","","null","18","","","","","","","","","","","","","","","",""
"","ISI","","html-keyboard-response","122","187842","0.0-1.0-165.0","0","0","67616","","null","","","null","18","NaN","","","","","","","","","","","","","","",""
"","S2","","html-keyboard-response","123","188097","0.0-1.0-166.0","0","0","67616","","null","","","null","18","","NaN","","","","","","","","","","","","","",""
"","response","","html-keyboard-response","124","188631","0.0-1.0-167.0","0","0","67616","","531","","","68","18","","","1","18","training","adjacent","FG","6","7","M.jpg","L.jpg","1","1","1","",""
"","feedback","","html-keyboard-response","125","189635","0.0-1.0-168.0-0.0","0","0","67616","","null","","","null","18","","","","","","","","","","","","","","","",""
"","ITI","","html-keyboard-response","126","190640","0.0-1.0-171.0","0","0","67616","","null","","","null","18","","","","","","","","","","","","","","","NaN",""
"","S1","","html-keyboard-response","127","190895","0.0-1.0-173.0","0","0","67616","","null","","","null","19","","","","","","","","","","","","","","","",""
"","ISI","","html-keyboard-response","128","192903","0.0-1.0-174.0","0","0","67616","","null","","","null","19","NaN","","","","","","","","","","","","","","",""
"","S2","","html-keyboard-response","129","193159","0.0-1.0-175.0","0","0","67616","","null","","","null","19","","NaN","","","","","","","","","","","","","",""
"","response","","html-keyboard-response","130","193558","0.0-1.0-176.0","0","0","67616","","396","","","75","19","","","1","19","training","adjacent","FE","6","5","M.jpg","O.jpg","0","0","1","",""
"","feedback","","html-keyboard-response","131","194564","0.0-1.0-177.0-0.0","0","0","67616","","null","","","null","19","","","","","","","","","","","","","","","",""
"","ITI","","html-keyboard-response","132","195568","0.0-1.0-180.0","0","0","67616","","null","","","null","19","","","","","","","","","","","","","","","NaN",""
"","S1","","html-keyboard-response","133","195823","0.0-1.0-182.0","0","0","67616","","null","","","null","20","","","","","","","","","","","","","","","",""
"","ISI","","html-keyboard-response","134","197831","0.0-1.0-183.0","0","0","67616","","null","","","null","20","NaN","","","","","","","","","","","","","","",""
"","S2","","html-keyboard-response","135","198087","0.0-1.0-184.0","0","0","67616","","null","","","null","20","","NaN","","","","","","","","","","","","","",""
"","response","","html-keyboard-response","136","199191","0.0-1.0-185.0","0","0","67616","","1101","","","75","20","","","1","20","training","adjacent","AB","1","2","R.jpg","Q.jpg","0","1","0","",""
"","feedback","","html-keyboard-response","137","200194","0.0-1.0-186.0-0.0","0","0","67616","","null","","","null","20","","","","","","","","","","","","","","","",""
"","time_out","","html-keyboard-response","138","202198","0.0-1.0-188.0-0.0","0","0","67616","","null","","","null","20","","","","","","","","","","","","","","","",""
"","ITI","","html-keyboard-response","139","203202","0.0-1.0-189.0","0","0","67616","","null","","","null","20","","","","","","","","","","","","","","","NaN",""
"","S1","","html-keyboard-response","140","203462","0.0-1.0-191.0","0","0","67616","","null","","","null","21","","","","","","","","","","","","","","","",""
"","ISI","","html-keyboard-response","141","205465","0.0-1.0-192.0","0","0","67616","","null","","","null","21","NaN","","","","","","","","","","","","","","",""
"","S2","","html-keyboard-response","142","205720","0.0-1.0-193.0","0","0","67616","","null","","","null","21","","NaN","","","","","","","","","","","","","",""
"","response","","html-keyboard-response","143","206581","0.0-1.0-194.0","0","0","67616","","858","","","68","21","","","1","21","training","adjacent","DE","4","5","P.jpg","O.jpg","1","1","1","",""
"","feedback","","html-keyboard-response","144","207586","0.0-1.0-195.0-0.0","0","0","67616","","null","","","null","21","","","","","","","","","","","","","","","",""
"","ITI","","html-keyboard-response","145","208593","0.0-1.0-198.0","0","0","67616","","null","","","null","21","","","","","","","","","","","","","","","NaN",""
"","S1","","html-keyboard-response","146","208849","0.0-1.0-200.0","0","0","67616","","null","","","null","22","","","","","","","","","","","","","","","",""
"","ISI","","html-keyboard-response","147","210857","0.0-1.0-201.0","0","0","67616","","null","","","null","22","NaN","","","","","","","","","","","","","","",""
"","S2","","html-keyboard-response","148","211113","0.0-1.0-202.0","0","0","67616","","null","","","null","22","","NaN","","","","","","","","","","","","","",""
"","response","","html-keyboard-response","149","211766","0.0-1.0-203.0","0","0","67616","","650","","","75","22","","","1","22","training","adjacent","GF","7","6","L.jpg","M.jpg","0","0","1","",""
"","feedback","","html-keyboard-response","150","212773","0.0-1.0-204.0-0.0","0","0","67616","","null","","","null","22","","","","","","","","","","","","","","","",""
"","ITI","","html-keyboard-response","151","213777","0.0-1.0-207.0","0","0","67616","","null","","","null","22","","","","","","","","","","","","","","","NaN",""
"","S1","","html-keyboard-response","152","214033","0.0-1.0-209.0","0","0","67616","","null","","","null","23","","","","","","","","","","","","","","","",""
"","ISI","","html-keyboard-response","153","216041","0.0-1.0-210.0","0","0","67616","","null","","","null","23","NaN","","","","","","","","","","","","","","",""
"","S2","","html-keyboard-response","154","216297","0.0-1.0-211.0","0","0","67616","","null","","","null","23","","NaN","","","","","","","","","","","","","",""
"","response","","html-keyboard-response","155","217301","0.0-1.0-212.0","0","0","67616","","1002","","","75","23","","","1","23","training","adjacent","BC","2","3","Q.jpg","N.jpg","0","1","0","",""
"","feedback","","html-keyboard-response","156","218305","0.0-1.0-213.0-0.0","0","0","67616","","null","","","null","23","","","","","","","","","","","","","","","",""
"","time_out","","html-keyboard-response","157","220313","0.0-1.0-215.0-0.0","0","0","67616","","null","","","null","23","","","","","","","","","","","","","","","",""
"","ITI","","html-keyboard-response","158","221318","0.0-1.0-216.0","0","0","67616","","null","","","null","23","","","","","","","","","","","","","","","NaN",""
"","S1","","html-keyboard-response","159","221573","0.0-1.0-218.0","0","0","67616","","null","","","null","24","","","","","","","","","","","","","","","",""
"","ISI","","html-keyboard-response","160","223580","0.0-1.0-219.0","0","0","67616","","null","","","null","24","NaN","","","","","","","","","","","","","","",""
"","S2","","html-keyboard-response","161","223837","0.0-1.0-220.0","0","0","67616","","null","","","null","24","","NaN","","","","","","","","","","","","","",""
"","response","","html-keyboard-response","162","224213","0.0-1.0-221.0","0","0","67616","","373","","","75","24","","","1","24","training","adjacent","GF","7","6","L.jpg","M.jpg","0","0","1","",""
"","feedback","","html-keyboard-response","163","225218","0.0-1.0-222.0-0.0","0","0","67616","","null","","","null","24","","","","","","","","","","","","","","","",""
"","ITI","","html-keyboard-response","164","226222","0.0-1.0-225.0","0","0","67616","","null","","","null","24","","","","","","","","","","","","","","","NaN",""
"","S1","","html-keyboard-response","165","226478","0.0-1.0-227.0","0","0","67616","","null","","","null","25","","","","","","","","","","","","","","","",""
"","ISI","","html-keyboard-response","166","228485","0.0-1.0-228.0","0","0","67616","","null","","","null","25","NaN","","","","","","","","","","","","","","",""
"","S2","","html-keyboard-response","167","228740","0.0-1.0-229.0","0","0","67616","","null","","","null","25","","NaN","","","","","","","","","","","","","",""
"","response","","html-keyboard-response","168","229684","0.0-1.0-230.0","0","0","67616","","941","","","75","25","","","1","25","training","adjacent","EF","5","6","O.jpg","M.jpg","0","1","0","",""
"","feedback","","html-keyboard-response","169","230688","0.0-1.0-231.0-0.0","0","0","67616","","null","","","null","25","","","","","","","","","","","","","","","",""
"","time_out","","html-keyboard-response","170","232695","0.0-1.0-233.0-0.0","0","0","67616","","null","","","null","25","","","","","","","","","","","","","","","",""
"","ITI","","html-keyboard-response","171","233699","0.0-1.0-234.0","0","0","67616","","null","","","null","25","","","","","","","","","","","","","","","NaN",""
"","S1","","html-keyboard-response","172","233954","0.0-1.0-236.0","0","0","67616","","null","","","null","26","","","","","","","","","","","","","","","",""
"","ISI","","html-keyboard-response","173","235958","0.0-1.0-237.0","0","0","67616","","null","","","null","26","NaN","","","","","","","","","","","","","","",""
"","S2","","html-keyboard-response","174","236218","0.0-1.0-238.0","0","0","67616","","null","","","null","26","","NaN","","","","","","","","","","","","","",""
"","response","","html-keyboard-response","175","236916","0.0-1.0-239.0","0","0","67616","","695","","","75","26","","","1","26","training","adjacent","AB","1","2","R.jpg","Q.jpg","0","1","0","",""
"","feedback","","html-keyboard-response","176","237920","0.0-1.0-240.0-0.0","0","0","67616","","null","","","null","26","","","","","","","","","","","","","","","",""
"","time_out","","html-keyboard-response","177","239927","0.0-1.0-242.0-0.0","0","0","67616","","null","","","null","26","","","","","","","","","","","","","","","",""
"","ITI","","html-keyboard-response","178","240931","0.0-1.0-243.0","0","0","67616","","null","","","null","26","","","","","","","","","","","","","","","NaN",""
"","S1","","html-keyboard-response","179","241187","0.0-1.0-245.0","0","0","67616","","null","","","null","27","","","","","","","","","","","","","","","",""
"","ISI","","html-keyboard-response","180","243195","0.0-1.0-246.0","0","0","67616","","null","","","null","27","NaN","","","","","","","","","","","","","","",""
"","S2","","html-keyboard-response","181","243451","0.0-1.0-247.0","0","0","67616","","null","","","null","27","","NaN","","","","","","","","","","","","","",""
"","response","","html-keyboard-response","182","243764","0.0-1.0-248.0","0","0","67616","","310","","","68","27","","","1","27","training","adjacent","FG","6","7","M.jpg","L.jpg","1","1","1","",""
"","feedback","","html-keyboard-response","183","244768","0.0-1.0-249.0-0.0","0","0","67616","","null","","","null","27","","","","","","","","","","","","","","","",""
"","ITI","","html-keyboard-response","184","245773","0.0-1.0-252.0","0","0","67616","","null","","","null","27","","","","","","","","","","","","","","","NaN",""
"","S1","","html-keyboard-response","185","246028","0.0-1.0-254.0","0","0","67616","","null","","","null","28","","","","","","","","","","","","","","","",""
"","ISI","","html-keyboard-response","186","248036","0.0-1.0-255.0","0","0","67616","","null","","","null","28","NaN","","","","","","","","","","","","","","",""
"","S2","","html-keyboard-response","187","248292","0.0-1.0-256.0","0","0","67616","","null","","","null","28","","NaN","","","","","","","","","","","","","",""
"","response","","html-keyboard-response","188","249716","0.0-1.0-257.0","0","0","67616","","1421","","","75","28","","","1","28","training","adjacent","ED","5","4","O.jpg","P.jpg","0","0","1","",""
"","feedback","","html-keyboard-response","189","250720","0.0-1.0-258.0-0.0","0","0","67616","","null","","","null","28","","","","","","","","","","","","","","","",""
"","ITI","","html-keyboard-response","190","251728","0.0-1.0-261.0","0","0","67616","","null","","","null","28","","","","","","","","","","","","","","","NaN",""
"","S1","","html-keyboard-response","191","251984","0.0-1.0-263.0","0","0","67616","","null","","","null","29","","","","","","","","","","","","","","","",""
"","ISI","","html-keyboard-response","192","253992","0.0-1.0-264.0","0","0","67616","","null","","","null","29","NaN","","","","","","","","","","","","","","",""
"","S2","","html-keyboard-response","193","254248","0.0-1.0-265.0","0","0","67616","","null","","","null","29","","NaN","","","","","","","","","","","","","",""
"","response","","html-keyboard-response","194","254803","0.0-1.0-266.0","0","0","67616","","552","","","68","29","","","1","29","training","adjacent","FE","6","5","M.jpg","O.jpg","1","0","0","",""
"","feedback","","html-keyboard-response","195","255811","0.0-1.0-267.0-0.0","0","0","67616","","null","","","null","29","","","","","","","","","","","","","","","",""
"","time_out","","html-keyboard-response","196","257816","0.0-1.0-269.0-0.0","0","0","67616","","null","","","null","29","","","","","","","","","","","","","","","",""
"","ITI","","html-keyboard-response","197","258822","0.0-1.0-270.0","0","0","67616","","null","","","null","29","","","","","","","","","","","","","","","NaN",""
"","S1","","html-keyboard-response","198","259077","0.0-1.0-272.0","0","0","67616","","null","","","null","30","","","","","","","","","","","","","","","",""
"","ISI","","html-keyboard-response","199","261085","0.0-1.0-273.0","0","0","67616","","null","","","null","30","NaN","","","","","","","","","","","","","","",""
"","S2","","html-keyboard-response","200","261341","0.0-1.0-274.0","0","0","67616","","null","","","null","30","","NaN","","","","","","","","","","","","","",""
"","response","","html-keyboard-response","201","261523","0.0-1.0-275.0","0","0","67616","","179","","","75","30","","","1","30","training","adjacent","DE","4","5","P.jpg","O.jpg","0","1","0","",""
"","feedback","","html-keyboard-response","202","262531","0.0-1.0-276.0-0.0","0","0","67616","","null","","","null","30","","","","","","","","","","","","","","","",""
"","time_out","","html-keyboard-response","203","264539","0.0-1.0-278.0-0.0","0","0","67616","","null","","","null","30","","","","","","","","","","","","","","","",""
"","ITI","","html-keyboard-response","204","265544","0.0-1.0-279.0","0","0","67616","","null","","","null","30","","","","","","","","","","","","","","","NaN",""
"","S1","","html-keyboard-response","205","265800","0.0-1.0-281.0","0","0","67616","","null","","","null","31","","","","","","","","","","","","","","","",""
"","ISI","","html-keyboard-response","206","267807","0.0-1.0-282.0","0","0","67616","","72","","","68","31","d","","","","","","","","","","","","","","",""
"","S2","","html-keyboard-response","207","268063","0.0-1.0-283.0","0","0","67616","","null","","","null","31","","NaN","","","","","","","","","","","","","",""
"","response","","html-keyboard-response","208","268203","0.0-1.0-284.0","0","0","67616","","137","","","68","31","","","1","31","training","adjacent","BA","2","1","Q.jpg","R.jpg","1","0","0","",""
"","feedback","","html-keyboard-response","209","269206","0.0-1.0-285.0-0.0","0","0","67616","","null","","","null","31","","","","","","","","","","","","","","","",""
"","time_out","","html-keyboard-response","210","271214","0.0-1.0-287.0-0.0","0","0","67616","","null","","","null","31","","","","","","","","","","","","","","","",""
"","ITI","","html-keyboard-response","211","272219","0.0-1.0-288.0","0","0","67616","","null","","","null","31","","","","","","","","","","","","","","","NaN",""
"","S1","","html-keyboard-response","212","272474","0.0-1.0-290.0","0","0","67616","","null","","","null","32","","","","","","","","","","","","","","","",""
"","ISI","","html-keyboard-response","213","274483","0.0-1.0-291.0","0","0","67616","","null","","","null","32","NaN","","","","","","","","","","","","","","",""
"","S2","","html-keyboard-response","214","274740","0.0-1.0-292.0","0","0","67616","","null","","","null","32","","NaN","","","","","","","","","","","","","",""
"","response","","html-keyboard-response","215","274866","0.0-1.0-293.0","0","0","67616","","123","","","75","32","","","1","32","training","adjacent","DE","4","5","P.jpg","O.jpg","0","1","0","",""
"","feedback","","html-keyboard-response","216","275870","0.0-1.0-294.0-0.0","0","0","67616","","null","","","null","32","","","","","","","","","","","","","","","",""
"","time_out","","html-keyboard-response","217","277878","0.0-1.0-296.0-0.0","0","0","67616","","null","","","null","32","","","","","","","","","","","","","","","",""
"","ITI","","html-keyboard-response","218","278883","0.0-1.0-297.0","0","0","67616","","49","","","68","32","","","","","","","","","","","","","","","d",""
"","S1","","html-keyboard-response","219","279140","0.0-1.0-299.0","0","0","67616","","null","","","null","33","","","","","","","","","","","","","","","",""
"","ISI","","html-keyboard-response","220","281146","0.0-1.0-300.0","0","0","67616","","515","","","68","33","d","","","","","","","","","","","","","","",""
"","S2","","html-keyboard-response","221","281402","0.0-1.0-301.0","0","0","67616","","null","","","null","33","","NaN","","","","","","","","","","","","","",""
"","response","","html-keyboard-response","222","281522","0.0-1.0-302.0","0","0","67616","","117","","","68","33","","","1","33","training","adjacent","FG","6","7","M.jpg","L.jpg","1","1","1","",""
"","feedback","","html-keyboard-response","223","282526","0.0-1.0-303.0-0.0","0","0","67616","","null","","","null","33","","","","","","","","","","","","","","","",""
"","ITI","","html-keyboard-response","224","283532","0.0-1.0-306.0","0","0","67616","","null","","","null","33","","","","","","","","","","","","","","","NaN",""
"","S1","","html-keyboard-response","225","283788","0.0-1.0-308.0","0","0","67616","","null","","","null","34","","","","","","","","","","","","","","","",""
"","ISI","","html-keyboard-response","226","285796","0.0-1.0-309.0","0","0","67616","","null","","","null","34","NaN","","","","","","","","","","","","","","",""
"","S2","","html-keyboard-response","227","286052","0.0-1.0-310.0","0","0","67616","","null","","","null","34","","NaN","","","","","","","","","","","","","",""
"","response","","html-keyboard-response","228","286962","0.0-1.0-311.0","0","0","67616","","907","","","68","34","","","1","34","training","adjacent","DC","4","3","P.jpg","N.jpg","1","0","0","",""
"","feedback","","html-keyboard-response","229","287967","0.0-1.0-312.0-0.0","0","0","67616","","null","","","null","34","","","","","","","","","","","","","","","",""
"","time_out","","html-keyboard-response","230","289970","0.0-1.0-314.0-0.0","0","0","67616","","null","","","null","34","","","","","","","","","","","","","","","",""
"","ITI","","html-keyboard-response","231","290974","0.0-1.0-315.0","0","0","67616","","null","","","null","34","","","","","","","","","","","","","","","NaN",""
"","S1","","html-keyboard-response","232","291231","0.0-1.0-317.0","0","0","67616","","null","","","null","35","","","","","","","","","","","","","","","",""
"","ISI","","html-keyboard-response","233","293234","0.0-1.0-318.0","0","0","67616","","null","","","null","35","NaN","","","","","","","","","","","","","","",""
"","S2","","html-keyboard-response","234","293493","0.0-1.0-319.0","0","0","67616","","null","","","null","35","","NaN","","","","","","","","","","","","","",""
"","response","","html-keyboard-response","235","295409","0.0-1.0-320.0","0","0","67616","","1913","","","75","35","","","1","35","training","adjacent","DE","4","5","P.jpg","O.jpg","0","1","0","",""
"","feedback","","html-keyboard-response","236","296413","0.0-1.0-321.0-0.0","0","0","67616","","null","","","null","35","","","","","","","","","","","","","","","",""
"","time_out","","html-keyboard-response","237","298421","0.0-1.0-323.0-0.0","0","0","67616","","null","","","null","35","","","","","","","","","","","","","","","",""
"","ITI","","html-keyboard-response","238","299426","0.0-1.0-324.0","0","0","67616","","null","","","null","35","","","","","","","","","","","","","","","NaN",""
"","S1","","html-keyboard-response","239","299681","0.0-1.0-326.0","0","0","67616","","null","","","null","36","","","","","","","","","","","","","","","",""
"","ISI","","html-keyboard-response","240","301684","0.0-1.0-327.0","0","0","67616","","null","","","null","36","NaN","","","","","","","","","","","","","","",""
"","S2","","html-keyboard-response","241","301938","0.0-1.0-328.0","0","0","67616","","null","","","null","36","","NaN","","","","","","","","","","","","","",""
"","response","","html-keyboard-response","242","303249","0.0-1.0-329.0","0","0","67616","","1308","","","75","36","","","1","36","training","adjacent","CB","3","2","N.jpg","Q.jpg","0","0","1","",""
"","feedback","","html-keyboard-response","243","304254","0.0-1.0-330.0-0.0","0","0","67616","","null","","","null","36","","","","","","","","","","","","","","","",""
"","ITI","","html-keyboard-response","244","305259","0.0-1.0-333.0","0","0","67616","","null","","","null","36","","","","","","","","","","","","","","","NaN",""
"","S1","","html-keyboard-response","245","305516","0.0-1.0-335.0","0","0","67616","","null","","","null","37","","","","","","","","","","","","","","","",""
"","ISI","","html-keyboard-response","246","307523","0.0-1.0-336.0","0","0","67616","","null","","","null","37","NaN","","","","","","","","","","","","","","",""
"","S2","","html-keyboard-response","247","307778","0.0-1.0-337.0","0","0","67616","","null","","","null","37","","NaN","","","","","","","","","","","","","",""
"","response","","html-keyboard-response","248","308496","0.0-1.0-338.0","0","0","67616","","716","","","68","37","","","1","37","training","adjacent","ED","5","4","O.jpg","P.jpg","1","0","0","",""
"","feedback","","html-keyboard-response","249","309505","0.0-1.0-339.0-0.0","0","0","67616","","null","","","null","37","","","","","","","","","","","","","","","",""
"","time_out","","html-keyboard-response","250","311510","0.0-1.0-341.0-0.0","0","0","67616","","null","","","null","37","","","","","","","","","","","","","","","",""
"","ITI","","html-keyboard-response","251","312517","0.0-1.0-342.0","0","0","67616","","null","","","null","37","","","","","","","","","","","","","","","NaN",""
"","S1","","html-keyboard-response","252","312776","0.0-1.0-344.0","0","0","67616","","null","","","null","38","","","","","","","","","","","","","","","",""
"","ISI","","html-keyboard-response","253","314785","0.0-1.0-345.0","0","0","67616","","null","","","null","38","NaN","","","","","","","","","","","","","","",""
"","S2","","html-keyboard-response","254","315040","0.0-1.0-346.0","0","0","67616","","null","","","null","38","","NaN","","","","","","","","","","","","","",""
"","response","","html-keyboard-response","255","315568","0.0-1.0-347.0","0","0","67616","","526","","","68","38","","","1","38","training","adjacent","CD","3","4","N.jpg","P.jpg","1","1","1","",""
"","feedback","","html-keyboard-response","256","316573","0.0-1.0-348.0-0.0","0","0","67616","","null","","","null","38","","","","","","","","","","","","","","","",""
"","ITI","","html-keyboard-response","257","317577","0.0-1.0-351.0","0","0","67616","","null","","","null","38","","","","","","","","","","","","","","","NaN",""
"","S1","","html-keyboard-response","258","317836","0.0-1.0-353.0","0","0","67616","","null","","","null","39","","","","","","","","","","","","","","","",""
"","ISI","","html-keyboard-response","259","319841","0.0-1.0-354.0","0","0","67616","","null","","","null","39","NaN","","","","","","","","","","","","","","",""
"","S2","","html-keyboard-response","260","320096","0.0-1.0-355.0","0","0","67616","","null","","","null","39","","NaN","","","","","","","","","","","","","",""
"","response","","html-keyboard-response","261","320912","0.0-1.0-356.0","0","0","67616","","813","","","68","39","","","1","39","training","adjacent","CD","3","4","N.jpg","P.jpg","1","1","1","",""
"","feedback","","html-keyboard-response","262","321916","0.0-1.0-357.0-0.0","0","0","67616","","null","","","null","39","","","","","","","","","","","","","","","",""
"","ITI","","html-keyboard-response","263","322923","0.0-1.0-360.0","0","0","67616","","null","","","null","39","","","","","","","","","","","","","","","NaN",""
"","S1","","html-keyboard-response","264","323178","0.0-1.0-362.0","0","0","67616","","null","","","null","40","","","","","","","","","","","","","","","",""
"","ISI","","html-keyboard-response","265","325187","0.0-1.0-363.0","0","0","67616","","null","","","null","40","NaN","","","","","","","","","","","","","","",""
"","S2","","html-keyboard-response","266","325440","0.0-1.0-364.0","0","0","67616","","null","","","null","40","","NaN","","","","","","","","","","","","","",""
"","response","","html-keyboard-response","267","326032","0.0-1.0-365.0","0","0","67616","","589","","","75","40","","","1","40","training","adjacent","GF","7","6","L.jpg","M.jpg","0","0","1","",""
"","feedback","","html-keyboard-response","268","327038","0.0-1.0-366.0-0.0","0","0","67616","","null","","","null","40","","","","","","","","","","","","","","","",""
"","ITI","","html-keyboard-response","269","328043","0.0-1.0-369.0","0","0","67616","","null","","","null","40","","","","","","","","","","","","","","","NaN",""
"","S1","","html-keyboard-response","270","328302","0.0-1.0-371.0","0","0","67616","","null","","","null","41","","","","","","","","","","","","","","","",""
"","ISI","","html-keyboard-response","271","330306","0.0-1.0-372.0","0","0","67616","","null","","","null","41","NaN","","","","","","","","","","","","","","",""
"","S2","","html-keyboard-response","272","330562","0.0-1.0-373.0","0","0","67616","","null","","","null","41","","NaN","","","","","","","","","","","","","",""
"","response","","html-keyboard-response","273","330928","0.0-1.0-374.0","0","0","67616","","362","","","68","41","","","1","41","training","adjacent","BA","2","1","Q.jpg","R.jpg","1","0","0","",""
"","feedback","","html-keyboard-response","274","331932","0.0-1.0-375.0-0.0","0","0","67616","","null","","","null","41","","","","","","","","","","","","","","","",""
"","time_out","","html-keyboard-response","275","333935","0.0-1.0-377.0-0.0","0","0","67616","","null","","","null","41","","","","","","","","","","","","","","","",""
"","ITI","","html-keyboard-response","276","334939","0.0-1.0-378.0","0","0","67616","","null","","","null","41","","","","","","","","","","","","","","","NaN",""
"","S1","","html-keyboard-response","277","335194","0.0-1.0-380.0","0","0","67616","","null","","","null","42","","","","","","","","","","","","","","","",""
"","ISI","","html-keyboard-response","278","337202","0.0-1.0-381.0","0","0","67616","","null","","","null","42","NaN","","","","","","","","","","","","","","",""
"","S2","","html-keyboard-response","279","337458","0.0-1.0-382.0","0","0","67616","","null","","","null","42","","NaN","","","","","","","","","","","","","",""
"","response","","html-keyboard-response","280","337743","0.0-1.0-383.0","0","0","67616","","282","","","68","42","","","1","42","training","adjacent","BC","2","3","Q.jpg","N.jpg","1","1","1","",""
"","feedback","","html-keyboard-response","281","338748","0.0-1.0-384.0-0.0","0","0","67616","","null","","","null","42","","","","","","","","","","","","","","","",""
"","ITI","","html-keyboard-response","282","339756","0.0-1.0-387.0","0","0","67616","","null","","","null","42","","","","","","","","","","","","","","","NaN",""
"","S1","","html-keyboard-response","283","340014","0.0-1.0-389.0","0","0","67616","","null","","","null","43","","","","","","","","","","","","","","","",""
"","ISI","","html-keyboard-response","284","342020","0.0-1.0-390.0","0","0","67616","","null","","","null","43","NaN","","","","","","","","","","","","","","",""
"","S2","","html-keyboard-response","285","342276","0.0-1.0-391.0","0","0","67616","","null","","","null","43","","NaN","","","","","","","","","","","","","",""
"","response","","html-keyboard-response","286","343215","0.0-1.0-392.0","0","0","67616","","937","","","68","43","","","1","43","training","adjacent","ED","5","4","O.jpg","P.jpg","1","0","0","",""
"","feedback","","html-keyboard-response","287","344220","0.0-1.0-393.0-0.0","0","0","67616","","null","","","null","43","","","","","","","","","","","","","","","",""
"","time_out","","html-keyboard-response","288","346229","0.0-1.0-395.0-0.0","0","0","67616","","null","","","null","43","","","","","","","","","","","","","","","",""
"","ITI","","html-keyboard-response","289","347233","0.0-1.0-396.0","0","0","67616","","null","","","null","43","","","","","","","","","","","","","","","NaN",""
"","S1","","html-keyboard-response","290","347488","0.0-1.0-398.0","0","0","67616","","null","","","null","44","","","","","","","","","","","","","","","",""
"","ISI","","html-keyboard-response","291","349492","0.0-1.0-399.0","0","0","67616","","null","","","null","44","NaN","","","","","","","","","","","","","","",""
"","S2","","html-keyboard-response","292","349747","0.0-1.0-400.0","0","0","67616","","null","","","null","44","","NaN","","","","","","","","","","","","","",""
"","response","","html-keyboard-response","293","350031","0.0-1.0-401.0","0","0","67616","","281","","","75","44","","","1","44","training","adjacent","DC","4","3","P.jpg","N.jpg","0","0","1","",""
"","feedback","","html-keyboard-response","294","351035","0.0-1.0-402.0-0.0","0","0","67616","","null","","","null","44","","","","","","","","","","","","","","","",""
"","ITI","","html-keyboard-response","295","352040","0.0-1.0-405.0","0","0","67616","","null","","","null","44","","","","","","","","","","","","","","","NaN",""
"","S1","","html-keyboard-response","296","352295","0.0-1.0-407.0","0","0","67616","","null","","","null","45","","","","","","","","","","","","","","","",""
"","ISI","","html-keyboard-response","297","354303","0.0-1.0-408.0","0","0","67616","","364","","","68","45","d","","","","","","","","","","","","","","",""
"","S2","","html-keyboard-response","298","354559","0.0-1.0-409.0","0","0","67616","","null","","","null","45","","NaN","","","","","","","","","","","","","",""
"","response","","html-keyboard-response","299","355030","0.0-1.0-410.0","0","0","67616","","468","","","75","45","","","1","45","training","adjacent","DC","4","3","P.jpg","N.jpg","0","0","1","",""
"","feedback","","html-keyboard-response","300","356039","0.0-1.0-411.0-0.0","0","0","67616","","null","","","null","45","","","","","","","","","","","","","","","",""
"","ITI","","html-keyboard-response","301","357043","0.0-1.0-414.0","0","0","67616","","null","","","null","45","","","","","","","","","","","","","","","NaN",""
"","S1","","html-keyboard-response","302","357301","0.0-1.0-416.0","0","0","67616","","null","","","null","46","","","","","","","","","","","","","","","",""
"","ISI","","html-keyboard-response","303","359307","0.0-1.0-417.0","0","0","67616","","null","","","null","46","NaN","","","","","","","","","","","","","","",""
"","S2","","html-keyboard-response","304","359562","0.0-1.0-418.0","0","0","67616","","null","","","null","46","","NaN","","","","","","","","","","","","","",""
"","response","","html-keyboard-response","305","360014","0.0-1.0-419.0","0","0","67616","","449","","","75","46","","","1","46","training","adjacent","EF","5","6","O.jpg","M.jpg","0","1","0","",""
"","feedback","","html-keyboard-response","306","361019","0.0-1.0-420.0-0.0","0","0","67616","","null","","","null","46","","","","","","","","","","","","","","","",""
"","time_out","","html-keyboard-response","307","363027","0.0-1.0-422.0-0.0","0","0","67616","","null","","","null","46","","","","","","","","","","","","","","","",""
"","ITI","","html-keyboard-response","308","364032","0.0-1.0-423.0","0","0","67616","","null","","","null","46","","","","","","","","","","","","","","","NaN",""
"","S1","","html-keyboard-response","309","364287","0.0-1.0-425.0","0","0","67616","","null","","","null","47","","","","","","","","","","","","","","","",""
"","ISI","","html-keyboard-response","310","366296","0.0-1.0-426.0","0","0","67616","","null","","","null","47","NaN","","","","","","","","","","","","","","",""
"","S2","","html-keyboard-response","311","366550","0.0-1.0-427.0","0","0","67616","","null","","","null","47","","NaN","","","","","","","","","","","","","",""
"","response","","html-keyboard-response","312","367309","0.0-1.0-428.0","0","0","67616","","756","","","75","47","","","1","47","training","adjacent","FE","6","5","M.jpg","O.jpg","0","0","1","",""
"","feedback","","html-keyboard-response","313","368313","0.0-1.0-429.0-0.0","0","0","67616","","null","","","null","47","","","","","","","","","","","","","","","",""
"","ITI","","html-keyboard-response","314","369320","0.0-1.0-432.0","0","0","67616","","null","","","null","47","","","","","","","","","","","","","","","NaN",""
"","block_over","","html-keyboard-response","315","404588","0.0-1.0-433.0-0.0","0","0","67616","","35264","","","32","47","","","","","","","","","","","","","","","",""
"","S1","","html-keyboard-response","316","404843","0.0-1.0-434.0","0","0","67616","","null","","","null","48","","","","","","","","","","","","","","","",""
"","ISI","","html-keyboard-response","317","406847","0.0-1.0-435.0","0","0","67616","","null","","","null","48","NaN","","","","","","","","","","","","","","",""
"","S2","","html-keyboard-response","318","407102","0.0-1.0-436.0","0","0","67616","","null","","","null","48","","NaN","","","","","","","","","","","","","",""
"","response","","html-keyboard-response","319","407612","0.0-1.0-437.0","0","0","67616","","506","","","75","48","","","2","48","training","adjacent","AB","1","2","R.jpg","Q.jpg","0","1","0","",""
"","feedback","","html-keyboard-response","320","408617","0.0-1.0-438.0-0.0","0","0","67616","","null","","","null","48","","","","","","","","","","","","","","","",""
"","time_out","","html-keyboard-response","321","410620","0.0-1.0-440.0-0.0","0","0","67616","","null","","","null","48","","","","","","","","","","","","","","","",""
"","ITI","","html-keyboard-response","322","411628","0.0-1.0-441.0","0","0","67616","","null","","","null","48","","","","","","","","","","","","","","","NaN",""
"","S1","","html-keyboard-response","323","411886","0.0-1.0-443.0","0","0","67616","","null","","","null","49","","","","","","","","","","","","","","","",""
"","ISI","","html-keyboard-response","324","413894","0.0-1.0-444.0","0","0","67616","","null","","","null","49","NaN","","","","","","","","","","","","","","",""
"","S2","","html-keyboard-response","325","414149","0.0-1.0-445.0","0","0","67616","","null","","","null","49","","NaN","","","","","","","","","","","","","",""
"","response","","html-keyboard-response","326","414604","0.0-1.0-446.0","0","0","67616","","452","","","75","49","","","2","49","training","adjacent","BA","2","1","Q.jpg","R.jpg","0","0","1","",""
"","feedback","","html-keyboard-response","327","415611","0.0-1.0-447.0-0.0","0","0","67616","","null","","","null","49","","","","","","","","","","","","","","","",""
"","ITI","","html-keyboard-response","328","416616","0.0-1.0-450.0","0","0","67616","","null","","","null","49","","","","","","","","","","","","","","","NaN",""
"","S1","","html-keyboard-response","329","416872","0.0-1.0-452.0","0","0","67616","","null","","","null","50","","","","","","","","","","","","","","","",""
"","ISI","","html-keyboard-response","330","418880","0.0-1.0-453.0","0","0","67616","","null","","","null","50","NaN","","","","","","","","","","","","","","",""
"","S2","","html-keyboard-response","331","419136","0.0-1.0-454.0","0","0","67616","","null","","","null","50","","NaN","","","","","","","","","","","","","",""
"","response","","html-keyboard-response","332","420107","0.0-1.0-455.0","0","0","67616","","968","","","68","50","","","2","50","training","adjacent","EF","5","6","O.jpg","M.jpg","1","1","1","",""
"","feedback","","html-keyboard-response","333","421110","0.0-1.0-456.0-0.0","0","0","67616","","null","","","null","50","","","","","","","","","","","","","","","",""
"","ITI","","html-keyboard-response","334","422118","0.0-1.0-459.0","0","0","67616","","null","","","null","50","","","","","","","","","","","","","","","NaN",""
"","S1","","html-keyboard-response","335","422375","0.0-1.0-461.0","0","0","67616","","null","","","null","51","","","","","","","","","","","","","","","",""
"","ISI","","html-keyboard-response","336","424383","0.0-1.0-462.0","0","0","67616","","null","","","null","51","NaN","","","","","","","","","","","","","","",""
"","S2","","html-keyboard-response","337","424639","0.0-1.0-463.0","0","0","67616","","null","","","null","51","","NaN","","","","","","","","","","","","","",""
"","response","","html-keyboard-response","338","425290","0.0-1.0-464.0","0","0","67616","","648","","","68","51","","","2","51","training","adjacent","ED","5","4","O.jpg","P.jpg","1","0","0","",""
"","feedback","","html-keyboard-response","339","426299","0.0-1.0-465.0-0.0","0","0","67616","","null","","","null","51","","","","","","","","","","","","","","","",""
"","time_out","","html-keyboard-response","340","428307","0.0-1.0-467.0-0.0","0","0","67616","","null","","","null","51","","","","","","","","","","","","","","","",""
"","ITI","","html-keyboard-response","341","429313","0.0-1.0-468.0","0","0","67616","","null","","","null","51","","","","","","","","","","","","","","","NaN",""
"","S1","","html-keyboard-response","342","429573","0.0-1.0-470.0","0","0","67616","","null","","","null","52","","","","","","","","","","","","","","","",""
"","ISI","","html-keyboard-response","343","431581","0.0-1.0-471.0","0","0","67616","","null","","","null","52","NaN","","","","","","","","","","","","","","",""
"","S2","","html-keyboard-response","344","431837","0.0-1.0-472.0","0","0","67616","","null","","","null","52","","NaN","","","","","","","","","","","","","",""
"","response","","html-keyboard-response","345","432874","0.0-1.0-473.0","0","0","67616","","1034","","","68","52","","","2","52","training","adjacent","DC","4","3","P.jpg","N.jpg","1","0","0","",""
"","feedback","","html-keyboard-response","346","433878","0.0-1.0-474.0-0.0","0","0","67616","","null","","","null","52","","","","","","","","","","","","","","","",""
"","time_out","","html-keyboard-response","347","435882","0.0-1.0-476.0-0.0","0","0","67616","","null","","","null","52","","","","","","","","","","","","","","","",""
"","ITI","","html-keyboard-response","348","436887","0.0-1.0-477.0","0","0","67616","","null","","","null","52","","","","","","","","","","","","","","","NaN",""
"","S1","","html-keyboard-response","349","437142","0.0-1.0-479.0","0","0","67616","","null","","","null","53","","","","","","","","","","","","","","","",""
"","ISI","","html-keyboard-response","350","439146","0.0-1.0-480.0","0","0","67616","","null","","","null","53","NaN","","","","","","","","","","","","","","",""
"","S2","","html-keyboard-response","351","439405","0.0-1.0-481.0","0","0","67616","","null","","","null","53","","NaN","","","","","","","","","","","","","",""
"","response","","html-keyboard-response","352","440810","0.0-1.0-482.0","0","0","67616","","1402","","","75","53","","","2","53","training","adjacent","FE","6","5","M.jpg","O.jpg","0","0","1","",""
"","feedback","","html-keyboard-response","353","441815","0.0-1.0-483.0-0.0","0","0","67616","","null","","","null","53","","","","","","","","","","","","","","","",""
"","ITI","","html-keyboard-response","354","442819","0.0-1.0-486.0","0","0","67616","","null","","","null","53","","","","","","","","","","","","","","","NaN",""
"","S1","","html-keyboard-response","355","443074","0.0-1.0-488.0","0","0","67616","","null","","","null","54","","","","","","","","","","","","","","","",""
"","ISI","","html-keyboard-response","356","445083","0.0-1.0-489.0","0","0","67616","","null","","","null","54","NaN","","","","","","","","","","","","","","",""
"","S2","","html-keyboard-response","357","445338","0.0-1.0-490.0","0","0","67616","","null","","","null","54","","NaN","","","","","","","","","","","","","",""
"","response","","html-keyboard-response","358","446250","0.0-1.0-491.0","0","0","67616","","909","","","68","54","","","2","54","training","adjacent","FE","6","5","M.jpg","O.jpg","1","0","0","",""
"","feedback","","html-keyboard-response","359","447254","0.0-1.0-492.0-0.0","0","0","67616","","null","","","null","54","","","","","","","","","","","","","","","",""
"","time_out","","html-keyboard-response","360","449262","0.0-1.0-494.0-0.0","0","0","67616","","null","","","null","54","","","","","","","","","","","","","","","",""
"","ITI","","html-keyboard-response","361","450268","0.0-1.0-495.0","0","0","67616","","null","","","null","54","","","","","","","","","","","","","","","NaN",""
"","S1","","html-keyboard-response","362","450524","0.0-1.0-497.0","0","0","67616","","null","","","null","55","","","","","","","","","","","","","","","",""
"","ISI","","html-keyboard-response","363","452530","0.0-1.0-498.0","0","0","67616","","null","","","null","55","NaN","","","","","","","","","","","","","","",""
"","S2","","html-keyboard-response","364","452786","0.0-1.0-499.0","0","0","67616","","null","","","null","55","","NaN","","","","","","","","","","","","","",""
"","response","","html-keyboard-response","365","453225","0.0-1.0-500.0","0","0","67616","","437","","","68","55","","","2","55","training","adjacent","CD","3","4","N.jpg","P.jpg","1","1","1","",""
"","feedback","","html-keyboard-response","366","454231","0.0-1.0-501.0-0.0","0","0","67616","","null","","","null","55","","","","","","","","","","","","","","","",""
"","ITI","","html-keyboard-response","367","455235","0.0-1.0-504.0","0","0","67616","","null","","","null","55","","","","","","","","","","","","","","","NaN",""
"","S1","","html-keyboard-response","368","455491","0.0-1.0-506.0","0","0","67616","","null","","","null","56","","","","","","","","","","","","","","","",""
"","ISI","","html-keyboard-response","369","457495","0.0-1.0-507.0","0","0","67616","","null","","","null","56","NaN","","","","","","","","","","","","","","",""
"","S2","","html-keyboard-response","370","457755","0.0-1.0-508.0","0","0","67616","","null","","","null","56","","NaN","","","","","","","","","","","","","",""
"","response","","html-keyboard-response","371","458569","0.0-1.0-509.0","0","0","67616","","811","","","75","56","","","2","56","training","adjacent","DC","4","3","P.jpg","N.jpg","0","0","1","",""
"","feedback","","html-keyboard-response","372","459573","0.0-1.0-510.0-0.0","0","0","67616","","null","","","null","56","","","","","","","","","","","","","","","",""
"","ITI","","html-keyboard-response","373","460581","0.0-1.0-513.0","0","0","67616","","null","","","null","56","","","","","","","","","","","","","","","NaN",""
"","S1","","html-keyboard-response","374","460837","0.0-1.0-515.0","0","0","67616","","null","","","null","57","","","","","","","","","","","","","","","",""
"","ISI","","html-keyboard-response","375","462845","0.0-1.0-516.0","0","0","67616","","null","","","null","57","NaN","","","","","","","","","","","","","","",""
"","S2","","html-keyboard-response","376","463101","0.0-1.0-517.0","0","0","67616","","null","","","null","57","","NaN","","","","","","","","","","","","","",""
"","response","","html-keyboard-response","377","463688","0.0-1.0-518.0","0","0","67616","","585","","","68","57","","","2","57","training","adjacent","FG","6","7","M.jpg","L.jpg","1","1","1","",""
"","feedback","","html-keyboard-response","378","464695","0.0-1.0-519.0-0.0","0","0","67616","","null","","","null","57","","","","","","","","","","","","","","","",""
"","ITI","","html-keyboard-response","379","465701","0.0-1.0-522.0","0","0","67616","","null","","","null","57","","","","","","","","","","","","","","","NaN",""
"","S1","","html-keyboard-response","380","465957","0.0-1.0-524.0","0","0","67616","","null","","","null","58","","","","","","","","","","","","","","","",""
"","ISI","","html-keyboard-response","381","467965","0.0-1.0-525.0","0","0","67616","","null","","","null","58","NaN","","","","","","","","","","","","","","",""
"","S2","","html-keyboard-response","382","468220","0.0-1.0-526.0","0","0","67616","","null","","","null","58","","NaN","","","","","","","","","","","","","",""
"","response","","html-keyboard-response","383","469033","0.0-1.0-527.0","0","0","67616","","809","","","68","58","","","2","58","training","adjacent","FG","6","7","M.jpg","L.jpg","1","1","1","",""
"","feedback","","html-keyboard-response","384","470037","0.0-1.0-528.0-0.0","0","0","67616","","null","","","null","58","","","","","","","","","","","","","","","",""
"","ITI","","html-keyboard-response","385","471044","0.0-1.0-531.0","0","0","67616","","null","","","null","58","","","","","","","","","","","","","","","NaN",""
"","S1","","html-keyboard-response","386","471302","0.0-1.0-533.0","0","0","67616","","null","","","null","59","","","","","","","","","","","","","","","",""
"","ISI","","html-keyboard-response","387","473305","0.0-1.0-534.0","0","0","67616","","null","","","null","59","NaN","","","","","","","","","","","","","","",""
"","S2","","html-keyboard-response","388","473560","0.0-1.0-535.0","0","0","67616","","null","","","null","59","","NaN","","","","","","","","","","","","","",""
"","response","","html-keyboard-response","389","474056","0.0-1.0-536.0","0","0","67616","","493","","","68","59","","","2","59","training","adjacent","CB","3","2","N.jpg","Q.jpg","1","0","0","",""
"","feedback","","html-keyboard-response","390","475064","0.0-1.0-537.0-0.0","0","0","67616","","null","","","null","59","","","","","","","","","","","","","","","",""
"","time_out","","html-keyboard-response","391","477072","0.0-1.0-539.0-0.0","0","0","67616","","null","","","null","59","","","","","","","","","","","","","","","",""
"","ITI","","html-keyboard-response","392","478077","0.0-1.0-540.0","0","0","67616","","null","","","null","59","","","","","","","","","","","","","","","NaN",""
"","S1","","html-keyboard-response","393","478332","0.0-1.0-542.0","0","0","67616","","null","","","null","60","","","","","","","","","","","","","","","",""
"","ISI","","html-keyboard-response","394","480340","0.0-1.0-543.0","0","0","67616","","null","","","null","60","NaN","","","","","","","","","","","","","","",""
"","S2","","html-keyboard-response","395","480596","0.0-1.0-544.0","0","0","67616","","null","","","null","60","","NaN","","","","","","","","","","","","","",""
"","response","","html-keyboard-response","396","481639","0.0-1.0-545.0","0","0","67616","","1040","","","68","60","","","2","60","training","adjacent","AB","1","2","R.jpg","Q.jpg","1","1","1","",""
"","feedback","","html-keyboard-response","397","482645","0.0-1.0-546.0-0.0","0","0","67616","","null","","","null","60","","","","","","","","","","","","","","","",""
"","ITI","","html-keyboard-response","398","483649","0.0-1.0-549.0","0","0","67616","","null","","","null","60","","","","","","","","","","","","","","","NaN",""
"","S1","","html-keyboard-response","399","483905","0.0-1.0-551.0","0","0","67616","","null","","","null","61","","","","","","","","","","","","","","","",""
"","ISI","","html-keyboard-response","400","485913","0.0-1.0-552.0","0","0","67616","","null","","","null","61","NaN","","","","","","","","","","","","","","",""
"","S2","","html-keyboard-response","401","486169","0.0-1.0-553.0","0","0","67616","","null","","","null","61","","NaN","","","","","","","","","","","","","",""
"","response","","html-keyboard-response","402","487112","0.0-1.0-554.0","0","0","67616","","940","","","75","61","","","2","61","training","adjacent","DE","4","5","P.jpg","O.jpg","0","1","0","",""
"","feedback","","html-keyboard-response","403","488117","0.0-1.0-555.0-0.0","0","0","67616","","null","","","null","61","","","","","","","","","","","","","","","",""
"","time_out","","html-keyboard-response","404","490124","0.0-1.0-557.0-0.0","0","0","67616","","null","","","null","61","","","","","","","","","","","","","","","",""
"","ITI","","html-keyboard-response","405","491132","0.0-1.0-558.0","0","0","67616","","null","","","null","61","","","","","","","","","","","","","","","NaN",""
"","S1","","html-keyboard-response","406","491387","0.0-1.0-560.0","0","0","67616","","null","","","null","62","","","","","","","","","","","","","","","",""
"","ISI","","html-keyboard-response","407","493395","0.0-1.0-561.0","0","0","67616","","null","","","null","62","NaN","","","","","","","","","","","","","","",""
"","S2","","html-keyboard-response","408","493653","0.0-1.0-562.0","0","0","67616","","null","","","null","62","","NaN","","","","","","","","","","","","","",""
"","response","","html-keyboard-response","409","494855","0.0-1.0-563.0","0","0","67616","","1199","","","75","62","","","2","62","training","adjacent","AB","1","2","R.jpg","Q.jpg","0","1","0","",""
"","feedback","","html-keyboard-response","410","495858","0.0-1.0-564.0-0.0","0","0","67616","","null","","","null","62","","","","","","","","","","","","","","","",""
"","time_out","","html-keyboard-response","411","497865","0.0-1.0-566.0-0.0","0","0","67616","","null","","","null","62","","","","","","","","","","","","","","","",""
"","ITI","","html-keyboard-response","412","498869","0.0-1.0-567.0","0","0","67616","","null","","","null","62","","","","","","","","","","","","","","","NaN",""
"","S1","","html-keyboard-response","413","499125","0.0-1.0-569.0","0","0","67616","","null","","","null","63","","","","","","","","","","","","","","","",""
"","ISI","","html-keyboard-response","414","501133","0.0-1.0-570.0","0","0","67616","","null","","","null","63","NaN","","","","","","","","","","","","","","",""
"","S2","","html-keyboard-response","415","501389","0.0-1.0-571.0","0","0","67616","","null","","","null","63","","NaN","","","","","","","","","","","","","",""
"","response","","html-keyboard-response","416","502247","0.0-1.0-572.0","0","0","67616","","855","","","68","63","","","2","63","training","adjacent","BC","2","3","Q.jpg","N.jpg","1","1","1","",""
"","feedback","","html-keyboard-response","417","503251","0.0-1.0-573.0-0.0","0","0","67616","","null","","","null","63","","","","","","","","","","","","","","","",""
"","ITI","","html-keyboard-response","418","504256","0.0-1.0-576.0","0","0","67616","","null","","","null","63","","","","","","","","","","","","","","","NaN",""
"","S1","","html-keyboard-response","419","504514","0.0-1.0-578.0","0","0","67616","","null","","","null","64","","","","","","","","","","","","","","","",""
"","ISI","","html-keyboard-response","420","506518","0.0-1.0-579.0","0","0","67616","","null","","","null","64","NaN","","","","","","","","","","","","","","",""
"","S2","","html-keyboard-response","421","506775","0.0-1.0-580.0","0","0","67616","","null","","","null","64","","NaN","","","","","","","","","","","","","",""
"","response","","html-keyboard-response","422","507303","0.0-1.0-581.0","0","0","67616","","525","","","68","64","","","2","64","training","adjacent","CD","3","4","N.jpg","P.jpg","1","1","1","",""
"","feedback","","html-keyboard-response","423","508308","0.0-1.0-582.0-0.0","0","0","67616","","null","","","null","64","","","","","","","","","","","","","","","",""
"","ITI","","html-keyboard-response","424","509312","0.0-1.0-585.0","0","0","67616","","null","","","null","64","","","","","","","","","","","","","","","NaN",""
"","S1","","html-keyboard-response","425","509567","0.0-1.0-587.0","0","0","67616","","null","","","null","65","","","","","","","","","","","","","","","",""
"","ISI","","html-keyboard-response","426","511576","0.0-1.0-588.0","0","0","67616","","null","","","null","65","NaN","","","","","","","","","","","","","","",""
"","S2","","html-keyboard-response","427","511831","0.0-1.0-589.0","0","0","67616","","null","","","null","65","","NaN","","","","","","","","","","","","","",""
"","response","","html-keyboard-response","428","512838","0.0-1.0-590.0","0","0","67616","","1004","","","75","65","","","2","65","training","adjacent","BA","2","1","Q.jpg","R.jpg","0","0","1","",""
"","feedback","","html-keyboard-response","429","513842","0.0-1.0-591.0-0.0","0","0","67616","","null","","","null","65","","","","","","","","","","","","","","","",""
"","ITI","","html-keyboard-response","430","514850","0.0-1.0-594.0","0","0","67616","","null","","","null","65","","","","","","","","","","","","","","","NaN",""
"","S1","","html-keyboard-response","431","515105","0.0-1.0-596.0","0","0","67616","","null","","","null","66","","","","","","","","","","","","","","","",""
"","ISI","","html-keyboard-response","432","517113","0.0-1.0-597.0","0","0","67616","","null","","","null","66","NaN","","","","","","","","","","","","","","",""
"","S2","","html-keyboard-response","433","517369","0.0-1.0-598.0","0","0","67616","","null","","","null","66","","NaN","","","","","","","","","","","","","",""
"","response","","html-keyboard-response","434","518213","0.0-1.0-599.0","0","0","67616","","842","","","75","66","","","2","66","training","adjacent","FE","6","5","M.jpg","O.jpg","0","0","1","",""
"","feedback","","html-keyboard-response","435","519218","0.0-1.0-600.0-0.0","0","0","67616","","null","","","null","66","","","","","","","","","","","","","","","",""
"","ITI","","html-keyboard-response","436","520221","0.0-1.0-603.0","0","0","67616","","null","","","null","66","","","","","","","","","","","","","","","NaN",""
"","S1","","html-keyboard-response","437","520480","0.0-1.0-605.0","0","0","67616","","null","","","null","67","","","","","","","","","","","","","","","",""
"","ISI","","html-keyboard-response","438","522489","0.0-1.0-606.0","0","0","67616","","null","","","null","67","NaN","","","","","","","","","","","","","","",""
"","S2","","html-keyboard-response","439","522744","0.0-1.0-607.0","0","0","67616","","null","","","null","67","","NaN","","","","","","","","","","","","","",""
"","response","","html-keyboard-response","440","523782","0.0-1.0-608.0","0","0","67616","","1035","","","75","67","","","2","67","training","adjacent","CB","3","2","N.jpg","Q.jpg","0","0","1","",""
"","feedback","","html-keyboard-response","441","524787","0.0-1.0-609.0-0.0","0","0","67616","","null","","","null","67","","","","","","","","","","","","","","","",""
"","ITI","","html-keyboard-response","442","525792","0.0-1.0-612.0","0","0","67616","","null","","","null","67","","","","","","","","","","","","","","","NaN",""
"","S1","","html-keyboard-response","443","526047","0.0-1.0-614.0","0","0","67616","","null","","","null","68","","","","","","","","","","","","","","","",""
"","ISI","","html-keyboard-response","444","528055","0.0-1.0-615.0","0","0","67616","","null","","","null","68","NaN","","","","","","","","","","","","","","",""
"","S2","","html-keyboard-response","445","528310","0.0-1.0-616.0","0","0","67616","","null","","","null","68","","NaN","","","","","","","","","","","","","",""
"","response","","html-keyboard-response","446","529189","0.0-1.0-617.0","0","0","67616","","876","","","68","68","","","2","68","training","adjacent","CB","3","2","N.jpg","Q.jpg","1","0","0","",""
"","feedback","","html-keyboard-response","447","530193","0.0-1.0-618.0-0.0","0","0","67616","","null","","","null","68","","","","","","","","","","","","","","","",""
"","time_out","","html-keyboard-response","448","532200","0.0-1.0-620.0-0.0","0","0","67616","","null","","","null","68","","","","","","","","","","","","","","","",""
"","ITI","","html-keyboard-response","449","533206","0.0-1.0-621.0","0","0","67616","","null","","","null","68","","","","","","","","","","","","","","","NaN",""
"","S1","","html-keyboard-response","450","533465","0.0-1.0-623.0","0","0","67616","","null","","","null","69","","","","","","","","","","","","","","","",""
"","ISI","","html-keyboard-response","451","535471","0.0-1.0-624.0","0","0","67616","","null","","","null","69","NaN","","","","","","","","","","","","","","",""
"","S2","","html-keyboard-response","452","535729","0.0-1.0-625.0","0","0","67616","","null","","","null","69","","NaN","","","","","","","","","","","","","",""
"","response","","html-keyboard-response","453","536805","0.0-1.0-626.0","0","0","67616","","1073","","","75","69","","","2","69","training","adjacent","DE","4","5","P.jpg","O.jpg","0","1","0","",""
"","feedback","","html-keyboard-response","454","537809","0.0-1.0-627.0-0.0","0","0","67616","","null","","","null","69","","","","","","","","","","","","","","","",""
"","time_out","","html-keyboard-response","455","539815","0.0-1.0-629.0-0.0","0","0","67616","","null","","","null","69","","","","","","","","","","","","","","","",""
"","ITI","","html-keyboard-response","456","540820","0.0-1.0-630.0","0","0","67616","","null","","","null","69","","","","","","","","","","","","","","","NaN",""
"","S1","","html-keyboard-response","457","541075","0.0-1.0-632.0","0","0","67616","","null","","","null","70","","","","","","","","","","","","","","","",""
"","ISI","","html-keyboard-response","458","543080","0.0-1.0-633.0","0","0","67616","","null","","","null","70","NaN","","","","","","","","","","","","","","",""
"","S2","","html-keyboard-response","459","543339","0.0-1.0-634.0","0","0","67616","","null","","","null","70","","NaN","","","","","","","","","","","","","",""
"","response","","html-keyboard-response","460","544453","0.0-1.0-635.0","0","0","67616","","1111","","","75","70","","","2","70","training","adjacent","GF","7","6","L.jpg","M.jpg","0","0","1","",""
"","feedback","","html-keyboard-response","461","545458","0.0-1.0-636.0-0.0","0","0","67616","","null","","","null","70","","","","","","","","","","","","","","","",""
"","ITI","","html-keyboard-response","462","546462","0.0-1.0-639.0","0","0","67616","","null","","","null","70","","","","","","","","","","","","","","","NaN",""
"","S1","","html-keyboard-response","463","546717","0.0-1.0-641.0","0","0","67616","","null","","","null","71","","","","","","","","","","","","","","","",""
"","ISI","","html-keyboard-response","464","548726","0.0-1.0-642.0","0","0","67616","","null","","","null","71","NaN","","","","","","","","","","","","","","",""
"","S2","","html-keyboard-response","465","548981","0.0-1.0-643.0","0","0","67616","","null","","","null","71","","NaN","","","","","","","","","","","","","",""
"","response","","html-keyboard-response","466","550277","0.0-1.0-644.0","0","0","67616","","1293","","","68","71","","","2","71","training","adjacent","EF","5","6","O.jpg","M.jpg","1","1","1","",""
"","feedback","","html-keyboard-response","467","551281","0.0-1.0-645.0-0.0","0","0","67616","","null","","","null","71","","","","","","","","","","","","","","","",""
"","ITI","","html-keyboard-response","468","552287","0.0-1.0-648.0","0","0","67616","","null","","","null","71","","","","","","","","","","","","","","","NaN",""
"","S1","","html-keyboard-response","469","552545","0.0-1.0-650.0","0","0","67616","","null","","","null","72","","","","","","","","","","","","","","","",""
"","ISI","","html-keyboard-response","470","554551","0.0-1.0-651.0","0","0","67616","","null","","","null","72","NaN","","","","","","","","","","","","","","",""
"","S2","","html-keyboard-response","471","554809","0.0-1.0-652.0","0","0","67616","","null","","","null","72","","NaN","","","","","","","","","","","","","",""
"","response","","html-keyboard-response","472","555940","0.0-1.0-653.0","0","0","67616","","1128","","","75","72","","","2","72","training","adjacent","BC","2","3","Q.jpg","N.jpg","0","1","0","",""
"","feedback","","html-keyboard-response","473","556944","0.0-1.0-654.0-0.0","0","0","67616","","null","","","null","72","","","","","","","","","","","","","","","",""
"","time_out","","html-keyboard-response","474","558948","0.0-1.0-656.0-0.0","0","0","67616","","null","","","null","72","","","","","","","","","","","","","","","",""
"","ITI","","html-keyboard-response","475","559952","0.0-1.0-657.0","0","0","67616","","null","","","null","72","","","","","","","","","","","","","","","NaN",""
"","S1","","html-keyboard-response","476","560208","0.0-1.0-659.0","0","0","67616","","null","","","null","73","","","","","","","","","","","","","","","",""
"","ISI","","html-keyboard-response","477","562216","0.0-1.0-660.0","0","0","67616","","null","","","null","73","NaN","","","","","","","","","","","","","","",""
"","S2","","html-keyboard-response","478","562471","0.0-1.0-661.0","0","0","67616","","null","","","null","73","","NaN","","","","","","","","","","","","","",""
"","response","","html-keyboard-response","479","562884","0.0-1.0-662.0","0","0","67616","","410","","","68","73","","","2","73","training","adjacent","CD","3","4","N.jpg","P.jpg","1","1","1","",""
"","feedback","","html-keyboard-response","480","563888","0.0-1.0-663.0-0.0","0","0","67616","","null","","","null","73","","","","","","","","","","","","","","","",""
"","ITI","","html-keyboard-response","481","564892","0.0-1.0-666.0","0","0","67616","","null","","","null","73","","","","","","","","","","","","","","","NaN",""
"","S1","","html-keyboard-response","482","565150","0.0-1.0-668.0","0","0","67616","","null","","","null","74","","","","","","","","","","","","","","","",""
"","ISI","","html-keyboard-response","483","567156","0.0-1.0-669.0","0","0","67616","","null","","","null","74","NaN","","","","","","","","","","","","","","",""
"","S2","","html-keyboard-response","484","567410","0.0-1.0-670.0","0","0","67616","","null","","","null","74","","NaN","","","","","","","","","","","","","",""
"","response","","html-keyboard-response","485","568548","0.0-1.0-671.0","0","0","67616","","1135","","","68","74","","","2","74","training","adjacent","GF","7","6","L.jpg","M.jpg","1","0","0","",""
"","feedback","","html-keyboard-response","486","569553","0.0-1.0-672.0-0.0","0","0","67616","","null","","","null","74","","","","","","","","","","","","","","","",""
"","time_out","","html-keyboard-response","487","571561","0.0-1.0-674.0-0.0","0","0","67616","","null","","","null","74","","","","","","","","","","","","","","","",""
"","ITI","","html-keyboard-response","488","572566","0.0-1.0-675.0","0","0","67616","","null","","","null","74","","","","","","","","","","","","","","","NaN",""
"","S1","","html-keyboard-response","489","572821","0.0-1.0-677.0","0","0","67616","","null","","","null","75","","","","","","","","","","","","","","","",""
"","ISI","","html-keyboard-response","490","574826","0.0-1.0-678.0","0","0","67616","","null","","","null","75","NaN","","","","","","","","","","","","","","",""
"","S2","","html-keyboard-response","491","575085","0.0-1.0-679.0","0","0","67616","","null","","","null","75","","NaN","","","","","","","","","","","","","",""
"","response","","html-keyboard-response","492","575523","0.0-1.0-680.0","0","0","67616","","435","","","75","75","","","2","75","training","adjacent","BA","2","1","Q.jpg","R.jpg","0","0","1","",""
"","feedback","","html-keyboard-response","493","576530","0.0-1.0-681.0-0.0","0","0","67616","","null","","","null","75","","","","","","","","","","","","","","","",""
"","ITI","","html-keyboard-response","494","577535","0.0-1.0-684.0","0","0","67616","","null","","","null","75","","","","","","","","","","","","","","","NaN",""
"","S1","","html-keyboard-response","495","577790","0.0-1.0-686.0","0","0","67616","","null","","","null","76","","","","","","","","","","","","","","","",""
"","ISI","","html-keyboard-response","496","579798","0.0-1.0-687.0","0","0","67616","","null","","","null","76","NaN","","","","","","","","","","","","","","",""
"","S2","","html-keyboard-response","497","580053","0.0-1.0-688.0","0","0","67616","","null","","","null","76","","NaN","","","","","","","","","","","","","",""
"","response","","html-keyboard-response","498","580610","0.0-1.0-689.0","0","0","67616","","555","","","75","76","","","2","76","training","adjacent","CB","3","2","N.jpg","Q.jpg","0","0","1","",""
"","feedback","","html-keyboard-response","499","581619","0.0-1.0-690.0-0.0","0","0","67616","","null","","","null","76","","","","","","","","","","","","","","","",""
"","ITI","","html-keyboard-response","500","582625","0.0-1.0-693.0","0","0","67616","","null","","","null","76","","","","","","","","","","","","","","","NaN",""
"","S1","","html-keyboard-response","501","582881","0.0-1.0-695.0","0","0","67616","","null","","","null","77","","","","","","","","","","","","","","","",""
"","ISI","","html-keyboard-response","502","584888","0.0-1.0-696.0","0","0","67616","","null","","","null","77","NaN","","","","","","","","","","","","","","",""
"","S2","","html-keyboard-response","503","585144","0.0-1.0-697.0","0","0","67616","","null","","","null","77","","NaN","","","","","","","","","","","","","",""
"","response","","html-keyboard-response","504","586339","0.0-1.0-698.0","0","0","67616","","1192","","","75","77","","","2","77","training","adjacent","DE","4","5","P.jpg","O.jpg","0","1","0","",""
"","feedback","","html-keyboard-response","505","587343","0.0-1.0-699.0-0.0","0","0","67616","","null","","","null","77","","","","","","","","","","","","","","","",""
"","time_out","","html-keyboard-response","506","589347","0.0-1.0-701.0-0.0","0","0","67616","","null","","","null","77","","","","","","","","","","","","","","","",""
"","ITI","","html-keyboard-response","507","590352","0.0-1.0-702.0","0","0","67616","","null","","","null","77","","","","","","","","","","","","","","","NaN",""
"","S1","","html-keyboard-response","508","590607","0.0-1.0-704.0","0","0","67616","","null","","","null","78","","","","","","","","","","","","","","","",""
"","ISI","","html-keyboard-response","509","592615","0.0-1.0-705.0","0","0","67616","","null","","","null","78","NaN","","","","","","","","","","","","","","",""
"","S2","","html-keyboard-response","510","592870","0.0-1.0-706.0","0","0","67616","","null","","","null","78","","NaN","","","","","","","","","","","","","",""
"","response","","html-keyboard-response","511","593378","0.0-1.0-707.0","0","0","67616","","504","","","68","78","","","2","78","training","adjacent","FG","6","7","M.jpg","L.jpg","1","1","1","",""
"","feedback","","html-keyboard-response","512","594382","0.0-1.0-708.0-0.0","0","0","67616","","null","","","null","78","","","","","","","","","","","","","","","",""
"","ITI","","html-keyboard-response","513","595390","0.0-1.0-711.0","0","0","67616","","null","","","null","78","","","","","","","","","","","","","","","NaN",""
"","S1","","html-keyboard-response","514","595645","0.0-1.0-713.0","0","0","67616","","null","","","null","79","","","","","","","","","","","","","","","",""
"","ISI","","html-keyboard-response","515","597654","0.0-1.0-714.0","0","0","67616","","null","","","null","79","NaN","","","","","","","","","","","","","","",""
"","S2","","html-keyboard-response","516","597909","0.0-1.0-715.0","0","0","67616","","null","","","null","79","","NaN","","","","","","","","","","","","","",""
"","response","","html-keyboard-response","517","598466","0.0-1.0-716.0","0","0","67616","","554","","","75","79","","","2","79","training","adjacent","DC","4","3","P.jpg","N.jpg","0","0","1","",""
"","feedback","","html-keyboard-response","518","599475","0.0-1.0-717.0-0.0","0","0","67616","","null","","","null","79","","","","","","","","","","","","","","","",""
"","ITI","","html-keyboard-response","519","600481","0.0-1.0-720.0","0","0","67616","","null","","","null","79","","","","","","","","","","","","","","","NaN",""
"","S1","","html-keyboard-response","520","600736","0.0-1.0-722.0","0","0","67616","","null","","","null","80","","","","","","","","","","","","","","","",""
"","ISI","","html-keyboard-response","521","602739","0.0-1.0-723.0","0","0","67616","","null","","","null","80","NaN","","","","","","","","","","","","","","",""
"","S2","","html-keyboard-response","522","602994","0.0-1.0-724.0","0","0","67616","","null","","","null","80","","NaN","","","","","","","","","","","","","",""
"","response","","html-keyboard-response","523","603618","0.0-1.0-725.0","0","0","67616","","621","","","75","80","","","2","80","training","adjacent","GF","7","6","L.jpg","M.jpg","0","0","1","",""
"","feedback","","html-keyboard-response","524","604623","0.0-1.0-726.0-0.0","0","0","67616","","null","","","null","80","","","","","","","","","","","","","","","",""
"","ITI","","html-keyboard-response","525","605629","0.0-1.0-729.0","0","0","67616","","null","","","null","80","","","","","","","","","","","","","","","NaN",""
"","S1","","html-keyboard-response","526","605885","0.0-1.0-731.0","0","0","67616","","null","","","null","81","","","","","","","","","","","","","","","",""
"","ISI","","html-keyboard-response","527","607891","0.0-1.0-732.0","0","0","67616","","null","","","null","81","NaN","","","","","","","","","","","","","","",""
"","S2","","html-keyboard-response","528","608149","0.0-1.0-733.0","0","0","67616","","null","","","null","81","","NaN","","","","","","","","","","","","","",""
"","response","","html-keyboard-response","529","609282","0.0-1.0-734.0","0","0","67616","","1130","","","68","81","","","2","81","training","adjacent","DE","4","5","P.jpg","O.jpg","1","1","1","",""
"","feedback","","html-keyboard-response","530","610286","0.0-1.0-735.0-0.0","0","0","67616","","null","","","null","81","","","","","","","","","","","","","","","",""
"","ITI","","html-keyboard-response","531","611289","0.0-1.0-738.0","0","0","67616","","null","","","null","81","","","","","","","","","","","","","","","NaN",""
"","S1","","html-keyboard-response","532","611544","0.0-1.0-740.0","0","0","67616","","null","","","null","82","","","","","","","","","","","","","","","",""
"","ISI","","html-keyboard-response","533","613553","0.0-1.0-741.0","0","0","67616","","null","","","null","82","NaN","","","","","","","","","","","","","","",""
"","S2","","html-keyboard-response","534","613808","0.0-1.0-742.0","0","0","67616","","null","","","null","82","","NaN","","","","","","","","","","","","","",""
"","response","","html-keyboard-response","535","614529","0.0-1.0-743.0","0","0","67616","","718","","","75","82","","","2","82","training","adjacent","GF","7","6","L.jpg","M.jpg","0","0","1","",""
"","feedback","","html-keyboard-response","536","615538","0.0-1.0-744.0-0.0","0","0","67616","","null","","","null","82","","","","","","","","","","","","","","","",""
"","ITI","","html-keyboard-response","537","616542","0.0-1.0-747.0","0","0","67616","","null","","","null","82","","","","","","","","","","","","","","","NaN",""
"","S1","","html-keyboard-response","538","616800","0.0-1.0-749.0","0","0","67616","","null","","","null","83","","","","","","","","","","","","","","","",""
"","ISI","","html-keyboard-response","539","618804","0.0-1.0-750.0","0","0","67616","","null","","","null","83","NaN","","","","","","","","","","","","","","",""
"","S2","","html-keyboard-response","540","619059","0.0-1.0-751.0","0","0","67616","","null","","","null","83","","NaN","","","","","","","","","","","","","",""
"","response","","html-keyboard-response","541","619521","0.0-1.0-752.0","0","0","67616","","458","","","68","83","","","2","83","training","adjacent","BC","2","3","Q.jpg","N.jpg","1","1","1","",""
"","feedback","","html-keyboard-response","542","620530","0.0-1.0-753.0-0.0","0","0","67616","","null","","","null","83","","","","","","","","","","","","","","","",""
"","ITI","","html-keyboard-response","543","621534","0.0-1.0-756.0","0","0","67616","","null","","","null","83","","","","","","","","","","","","","","","NaN",""
"","S1","","html-keyboard-response","544","621792","0.0-1.0-758.0","0","0","67616","","null","","","null","84","","","","","","","","","","","","","","","",""
"","ISI","","html-keyboard-response","545","623798","0.0-1.0-759.0","0","0","67616","","null","","","null","84","NaN","","","","","","","","","","","","","","",""
"","S2","","html-keyboard-response","546","624056","0.0-1.0-760.0","0","0","67616","","null","","","null","84","","NaN","","","","","","","","","","","","","",""
"","response","","html-keyboard-response","547","624609","0.0-1.0-761.0","0","0","67616","","550","","","68","84","","","2","84","training","adjacent","ED","5","4","O.jpg","P.jpg","1","0","0","",""
"","feedback","","html-keyboard-response","548","625614","0.0-1.0-762.0-0.0","0","0","67616","","null","","","null","84","","","","","","","","","","","","","","","",""
"","time_out","","html-keyboard-response","549","627623","0.0-1.0-764.0-0.0","0","0","67616","","null","","","null","84","","","","","","","","","","","","","","","",""
"","ITI","","html-keyboard-response","550","628630","0.0-1.0-765.0","0","0","67616","","null","","","null","84","","","","","","","","","","","","","","","NaN",""
"","S1","","html-keyboard-response","551","628885","0.0-1.0-767.0","0","0","67616","","null","","","null","85","","","","","","","","","","","","","","","",""
"","ISI","","html-keyboard-response","552","630889","0.0-1.0-768.0","0","0","67616","","null","","","null","85","NaN","","","","","","","","","","","","","","",""
"","S2","","html-keyboard-response","553","631145","0.0-1.0-769.0","0","0","67616","","null","","","null","85","","NaN","","","","","","","","","","","","","",""
"","response","","html-keyboard-response","554","632576","0.0-1.0-770.0","0","0","67616","","1428","","","75","85","","","2","85","training","adjacent","ED","5","4","O.jpg","P.jpg","0","0","1","",""
"","feedback","","html-keyboard-response","555","633580","0.0-1.0-771.0-0.0","0","0","67616","","null","","","null","85","","","","","","","","","","","","","","","",""
"","ITI","","html-keyboard-response","556","634589","0.0-1.0-774.0","0","0","67616","","null","","","null","85","","","","","","","","","","","","","","","NaN",""
"","S1","","html-keyboard-response","557","634844","0.0-1.0-776.0","0","0","67616","","null","","","null","86","","","","","","","","","","","","","","","",""
"","ISI","","html-keyboard-response","558","636853","0.0-1.0-777.0","0","0","67616","","null","","","null","86","NaN","","","","","","","","","","","","","","",""
"","S2","","html-keyboard-response","559","637108","0.0-1.0-778.0","0","0","67616","","null","","","null","86","","NaN","","","","","","","","","","","","","",""
"","response","","html-keyboard-response","560","637504","0.0-1.0-779.0","0","0","67616","","393","","","75","86","","","2","86","training","adjacent","BA","2","1","Q.jpg","R.jpg","0","0","1","",""
"","feedback","","html-keyboard-response","561","638512","0.0-1.0-780.0-0.0","0","0","67616","","null","","","null","86","","","","","","","","","","","","","","","",""
"","ITI","","html-keyboard-response","562","639518","0.0-1.0-783.0","0","0","67616","","null","","","null","86","","","","","","","","","","","","","","","NaN",""
"","S1","","html-keyboard-response","563","639773","0.0-1.0-785.0","0","0","67616","","null","","","null","87","","","","","","","","","","","","","","","",""
"","ISI","","html-keyboard-response","564","641781","0.0-1.0-786.0","0","0","67616","","null","","","null","87","NaN","","","","","","","","","","","","","","",""
"","S2","","html-keyboard-response","565","642036","0.0-1.0-787.0","0","0","67616","","null","","","null","87","","NaN","","","","","","","","","","","","","",""
"","response","","html-keyboard-response","566","642464","0.0-1.0-788.0","0","0","67616","","425","","","68","87","","","2","87","training","adjacent","CD","3","4","N.jpg","P.jpg","1","1","1","",""
"","feedback","","html-keyboard-response","567","643470","0.0-1.0-789.0-0.0","0","0","67616","","null","","","null","87","","","","","","","","","","","","","","","",""
"","ITI","","html-keyboard-response","568","644474","0.0-1.0-792.0","0","0","67616","","null","","","null","87","","","","","","","","","","","","","","","NaN",""
"","S1","","html-keyboard-response","569","644730","0.0-1.0-794.0","0","0","67616","","null","","","null","88","","","","","","","","","","","","","","","",""
"","ISI","","html-keyboard-response","570","646733","0.0-1.0-795.0","0","0","67616","","null","","","null","88","NaN","","","","","","","","","","","","","","",""
"","S2","","html-keyboard-response","571","646988","0.0-1.0-796.0","0","0","67616","","null","","","null","88","","NaN","","","","","","","","","","","","","",""
"","response","","html-keyboard-response","572","648320","0.0-1.0-797.0","0","0","67616","","1329","","","75","88","","","2","88","training","adjacent","AB","1","2","R.jpg","Q.jpg","0","1","0","",""
"","feedback","","html-keyboard-response","573","649325","0.0-1.0-798.0-0.0","0","0","67616","","null","","","null","88","","","","","","","","","","","","","","","",""
"","time_out","","html-keyboard-response","574","651330","0.0-1.0-800.0-0.0","0","0","67616","","null","","","null","88","","","","","","","","","","","","","","","",""
"","ITI","","html-keyboard-response","575","652334","0.0-1.0-801.0","0","0","67616","","null","","","null","88","","","","","","","","","","","","","","","NaN",""
"","S1","","html-keyboard-response","576","652589","0.0-1.0-803.0","0","0","67616","","null","","","null","89","","","","","","","","","","","","","","","",""
"","ISI","","html-keyboard-response","577","654594","0.0-1.0-804.0","0","0","67616","","null","","","null","89","NaN","","","","","","","","","","","","","","",""
"","S2","","html-keyboard-response","578","654853","0.0-1.0-805.0","0","0","67616","","null","","","null","89","","NaN","","","","","","","","","","","","","",""
"","response","","html-keyboard-response","579","655713","0.0-1.0-806.0","0","0","67616","","855","","","75","89","","","2","89","training","adjacent","DC","4","3","P.jpg","N.jpg","0","0","1","",""
"","feedback","","html-keyboard-response","580","656717","0.0-1.0-807.0-0.0","0","0","67616","","null","","","null","89","","","","","","","","","","","","","","","",""
"","ITI","","html-keyboard-response","581","657721","0.0-1.0-810.0","0","0","67616","","null","","","null","89","","","","","","","","","","","","","","","NaN",""
"","S1","","html-keyboard-response","582","657976","0.0-1.0-812.0","0","0","67616","","null","","","null","90","","","","","","","","","","","","","","","",""
"","ISI","","html-keyboard-response","583","659984","0.0-1.0-813.0","0","0","67616","","null","","","null","90","NaN","","","","","","","","","","","","","","",""
"","S2","","html-keyboard-response","584","660240","0.0-1.0-814.0","0","0","67616","","null","","","null","90","","NaN","","","","","","","","","","","","","",""
