"success","ttype","start_time","trial_type","trial_index","time_elapsed","internal_node_id","warning","missed_checkup","PID","view_history","rt","responses","repeat_instructions","key_press","index","keypress_isi","keypress_S2","block","trial_num","phase","group_type","pair_type","S1_stim","S2_stim","S1_img","S2_img","S1_chosen","S1_higher","accuracy","keypress_iti","total_bonus_tally"
"true","full_screen","d03072023hr1748","fullscreen","0","5607","0.0-0.0","0","0","47745","","","","","","","","","","","","","","","","","","","","","",""
"","instructions","","instructions","1","69636","0.0-1.0-0.0-0.0","0","0","47745","[{""page_index"":0,""viewing_time"":7766},{""page_index"":1,""viewing_time"":37265},{""page_index"":2,""viewing_time"":16939},{""page_index"":3,""viewing_time"":2044}]","64017","","","","","","","","","","","","","","","","","","","",""
"","comprehension_check","","survey-multi-choice","2","118223","0.0-1.0-0.0-1.0","0","0","47745","","48546","{""Q0"":""True"",""Q1"":""K"",""Q2"":""Only when the screen 'MAKE A CHOICE' is shown"",""Q3"":""Green mark"",""Q4"":""either D or K""}","1","","","","","","","","","","","","","","","","","",""
"","missed_instruction_checkup","","html-keyboard-response","3","121599","0.0-1.0-0.0-2.0-0.0","0","1","47745","","3347","","","32","","","","","","","","","","","","","","","","",""
"","instructions","","instructions","4","156101","0.0-1.0-0.1-0.1","0","0","47745","[{""page_index"":0,""viewing_time"":3363},{""page_index"":1,""viewing_time"":19967},{""page_index"":2,""viewing_time"":9952},{""page_index"":3,""viewing_time"":1206}]","34489","","","","","","","","","","","","","","","","","","","",""
"","comprehension_check","","survey-multi-choice","5","191824","0.0-1.0-0.1-1.1","0","0","47745","","35693","{""Q0"":""True"",""Q1"":""K"",""Q2"":""Once the second image appears and while the screen 'MAKE A CHOICE' is shown"",""Q3"":""Green mark"",""Q4"":""either D or K""}","0","","","","","","","","","","","","","","","","","",""
"","start_exp","","html-keyboard-response","6","197024","0.0-1.0-1.0","0","0","47745","","5181","","","32","","","","","","","","","","","","","","","","",""
"","S1","","html-keyboard-response","7","197291","0.0-1.0-2.0","0","0","47745","","null","","","null","0","","","","","","","","","","","","","","","",""
"","ISI","","html-keyboard-response","8","198307","0.0-1.0-3.0","0","0","47745","","null","","","null","0","NaN","","","","","","","","","","","","","","",""
"","S2","","html-keyboard-response","9","198580","0.0-1.0-4.0","0","0","47745","","null","","","null","0","","NaN","","","","","","","","","","","","","",""
"","response","","html-keyboard-response","10","200352","0.0-1.0-5.0-0.0","0","0","47745","","null","","","null","0","","","1","0","training","adjacent","ED","5","4","L.jpg","M.jpg","NaN","0","0","",""
"","too_slow_prompt","","html-keyboard-response","11","201376","0.0-1.0-7.0-0.0","1","0","47745","","null","","","null","","","","","","","","","","","","","","","","",""
"","time_out","","html-keyboard-response","12","203400","0.0-1.0-8.0-0.0","0","0","47745","","null","","","null","0","","","","","","","","","","","","","","","",""
"","ITI","","html-keyboard-response","13","204419","0.0-1.0-9.0","0","0","47745","","null","","","null","0","","","","","","","","","","","","","","","NaN",""
"","S1","","html-keyboard-response","14","204679","0.0-1.0-11.0","0","0","47745","","null","","","null","1","","","","","","","","","","","","","","","",""
"","ISI","","html-keyboard-response","15","205699","0.0-1.0-12.0","0","0","47745","","594","","","75","1","k","","","","","","","","","","","","","","",""
"","S2","","html-keyboard-response","16","205967","0.0-1.0-13.0","0","0","47745","","null","","","null","1","","NaN","","","","","","","","","","","","","",""
"","response","","html-keyboard-response","17","206844","0.0-1.0-14.0-0.0","0","0","47745","","865","","","68","1","","","1","1","training","adjacent","BC","2","3","R.jpg","P.jpg","0","1","0","",""
"","feedback","","html-keyboard-response","18","207866","0.0-1.0-15.0-0.0","0","0","47745","","null","","","null","1","","","","","","","","","","","","","","","",""
"","time_out","","html-keyboard-response","19","209886","0.0-1.0-17.0-0.0","0","0","47745","","null","","","null","1","","","","","","","","","","","","","","","",""
"","ITI","","html-keyboard-response","20","210906","0.0-1.0-18.0","0","0","47745","","null","","","null","1","","","","","","","","","","","","","","","NaN",""
"","S1","","html-keyboard-response","21","211166","0.0-1.0-20.0","0","0","47745","","null","","","null","2","","","","","","","","","","","","","","","",""
"","ISI","","html-keyboard-response","22","212185","0.0-1.0-21.0","0","0","47745","","null","","","null","2","NaN","","","","","","","","","","","","","","",""
"","S2","","html-keyboard-response","23","212452","0.0-1.0-22.0","0","0","47745","","null","","","null","2","","NaN","","","","","","","","","","","","","",""
"","response","","html-keyboard-response","24","212727","0.0-1.0-23.0-0.0","0","0","47745","","262","","","75","2","","","1","2","training","adjacent","FE","6","5","O.jpg","L.jpg","1","0","0","",""
"","feedback","","html-keyboard-response","25","213754","0.0-1.0-24.0-0.0","0","0","47745","","null","","","null","2","","","","","","","","","","","","","","","",""
"","time_out","","html-keyboard-response","26","215772","0.0-1.0-26.0-0.0","0","0","47745","","null","","","null","2","","","","","","","","","","","","","","","",""
"","ITI","","html-keyboard-response","27","216794","0.0-1.0-27.0","0","0","47745","","null","","","null","2","","","","","","","","","","","","","","","NaN",""
"","S1","","html-keyboard-response","28","217069","0.0-1.0-29.0","0","0","47745","","null","","","null","3","","","","","","","","","","","","","","","",""
"","ISI","","html-keyboard-response","29","218095","0.0-1.0-30.0","0","0","47745","","null","","","null","3","NaN","","","","","","","","","","","","","","",""
"","S2","","html-keyboard-response","30","218364","0.0-1.0-31.0","0","0","47745","","null","","","null","3","","NaN","","","","","","","","","","","","","",""
"","response","","html-keyboard-response","31","218880","0.0-1.0-32.0-0.0","0","0","47745","","502","","","75","3","","","1","3","training","adjacent","EF","5","6","L.jpg","O.jpg","1","1","1","",""
"","feedback","","html-keyboard-response","32","219904","0.0-1.0-33.0-0.0","0","0","47745","","null","","","null","3","","","","","","","","","","","","","","","",""
"","ITI","","html-keyboard-response","33","220922","0.0-1.0-36.0","0","0","47745","","null","","","null","3","","","","","","","","","","","","","","","NaN",""
"","S1","","html-keyboard-response","34","221195","0.0-1.0-38.0","0","0","47745","","null","","","null","4","","","","","","","","","","","","","","","",""
"","ISI","","html-keyboard-response","35","222213","0.0-1.0-39.0","0","0","47745","","null","","","null","4","NaN","","","","","","","","","","","","","","",""
"","S2","","html-keyboard-response","36","222481","0.0-1.0-40.0","0","0","47745","","null","","","null","4","","NaN","","","","","","","","","","","","","",""
"","response","","html-keyboard-response","37","222794","0.0-1.0-41.0-0.0","0","0","47745","","298","","","68","4","","","1","4","training","adjacent","CD","3","4","P.jpg","M.jpg","0","1","0","",""
"","feedback","","html-keyboard-response","38","223824","0.0-1.0-42.0-0.0","0","0","47745","","null","","","null","4","","","","","","","","","","","","","","","",""
"","time_out","","html-keyboard-response","39","225845","0.0-1.0-44.0-0.0","0","0","47745","","null","","","null","4","","","","","","","","","","","","","","","",""
"","ITI","","html-keyboard-response","40","226861","0.0-1.0-45.0","0","0","47745","","null","","","null","4","","","","","","","","","","","","","","","NaN",""
"","S1","","html-keyboard-response","41","227128","0.0-1.0-47.0","0","0","47745","","null","","","null","5","","","","","","","","","","","","","","","",""
"","ISI","","html-keyboard-response","42","228144","0.0-1.0-48.0","0","0","47745","","null","","","null","5","NaN","","","","","","","","","","","","","","",""
"","S2","","html-keyboard-response","43","228415","0.0-1.0-49.0","0","0","47745","","null","","","null","5","","NaN","","","","","","","","","","","","","",""
"","response","","html-keyboard-response","44","228936","0.0-1.0-50.0-0.0","0","0","47745","","508","","","75","5","","","1","5","training","adjacent","AB","1","2","Q.jpg","R.jpg","1","1","1","",""
"","feedback","","html-keyboard-response","45","229955","0.0-1.0-51.0-0.0","0","0","47745","","null","","","null","5","","","","","","","","","","","","","","","",""
"","ITI","","html-keyboard-response","46","230976","0.0-1.0-54.0","0","0","47745","","null","","","null","5","","","","","","","","","","","","","","","NaN",""
"","S1","","html-keyboard-response","47","231243","0.0-1.0-56.0","0","0","47745","","null","","","null","6","","","","","","","","","","","","","","","",""
"","ISI","","html-keyboard-response","48","232267","0.0-1.0-57.0","0","0","47745","","null","","","null","6","NaN","","","","","","","","","","","","","","",""
"","S2","","html-keyboard-response","49","232537","0.0-1.0-58.0","0","0","47745","","null","","","null","6","","NaN","","","","","","","","","","","","","",""
"","response","","html-keyboard-response","50","232868","0.0-1.0-59.0-0.0","0","0","47745","","315","","","68","6","","","1","6","training","adjacent","CD","3","4","P.jpg","M.jpg","0","1","0","",""
"","feedback","","html-keyboard-response","51","233899","0.0-1.0-60.0-0.0","0","0","47745","","null","","","null","6","","","","","","","","","","","","","","","",""
"","time_out","","html-keyboard-response","52","235920","0.0-1.0-62.0-0.0","0","0","47745","","null","","","null","6","","","","","","","","","","","","","","","",""
"","ITI","","html-keyboard-response","53","236939","0.0-1.0-63.0","0","0","47745","","null","","","null","6","","","","","","","","","","","","","","","NaN",""
"","S1","","html-keyboard-response","54","237213","0.0-1.0-65.0","0","0","47745","","null","","","null","7","","","","","","","","","","","","","","","",""
"","ISI","","html-keyboard-response","55","238226","0.0-1.0-66.0","0","0","47745","","null","","","null","7","NaN","","","","","","","","","","","","","","",""
"","S2","","html-keyboard-response","56","238496","0.0-1.0-67.0","0","0","47745","","null","","","null","7","","NaN","","","","","","","","","","","","","",""
"","response","","html-keyboard-response","57","238889","0.0-1.0-68.0-0.0","0","0","47745","","380","","","75","7","","","1","7","training","adjacent","ED","5","4","L.jpg","M.jpg","1","0","0","",""
"","feedback","","html-keyboard-response","58","239912","0.0-1.0-69.0-0.0","0","0","47745","","null","","","null","7","","","","","","","","","","","","","","","",""
"","time_out","","html-keyboard-response","59","241925","0.0-1.0-71.0-0.0","0","0","47745","","null","","","null","7","","","","","","","","","","","","","","","",""
"","ITI","","html-keyboard-response","60","242941","0.0-1.0-72.0","0","0","47745","","null","","","null","7","","","","","","","","","","","","","","","NaN",""
"","S1","","html-keyboard-response","61","243213","0.0-1.0-74.0","0","0","47745","","null","","","null","8","","","","","","","","","","","","","","","",""
"","ISI","","html-keyboard-response","62","244231","0.0-1.0-75.0","0","0","47745","","null","","","null","8","NaN","","","","","","","","","","","","","","",""
"","S2","","html-keyboard-response","63","244509","0.0-1.0-76.0","0","0","47745","","null","","","null","8","","NaN","","","","","","","","","","","","","",""
"","response","","html-keyboard-response","64","244854","0.0-1.0-77.0-0.0","0","0","47745","","331","","","75","8","","","1","8","training","adjacent","DC","4","3","M.jpg","P.jpg","1","0","0","",""
"","feedback","","html-keyboard-response","65","245873","0.0-1.0-78.0-0.0","0","0","47745","","null","","","null","8","","","","","","","","","","","","","","","",""
"","time_out","","html-keyboard-response","66","247894","0.0-1.0-80.0-0.0","0","0","47745","","null","","","null","8","","","","","","","","","","","","","","","",""
"","ITI","","html-keyboard-response","67","248916","0.0-1.0-81.0","0","0","47745","","null","","","null","8","","","","","","","","","","","","","","","NaN",""
"","S1","","html-keyboard-response","68","249189","0.0-1.0-83.0","0","0","47745","","null","","","null","9","","","","","","","","","","","","","","","",""
"","ISI","","html-keyboard-response","69","250208","0.0-1.0-84.0","0","0","47745","","null","","","null","9","NaN","","","","","","","","","","","","","","",""
"","S2","","html-keyboard-response","70","250475","0.0-1.0-85.0","0","0","47745","","null","","","null","9","","NaN","","","","","","","","","","","","","",""
"","response","","html-keyboard-response","71","250762","0.0-1.0-86.0-0.0","0","0","47745","","273","","","75","9","","","1","9","training","adjacent","CD","3","4","P.jpg","M.jpg","1","1","1","",""
"","feedback","","html-keyboard-response","72","251777","0.0-1.0-87.0-0.0","0","0","47745","","null","","","null","9","","","","","","","","","","","","","","","",""
"","ITI","","html-keyboard-response","73","252802","0.0-1.0-90.0","0","0","47745","","null","","","null","9","","","","","","","","","","","","","","","NaN",""
"","S1","","html-keyboard-response","74","253071","0.0-1.0-92.0","0","0","47745","","null","","","null","10","","","","","","","","","","","","","","","",""
"","ISI","","html-keyboard-response","75","254089","0.0-1.0-93.0","0","0","47745","","null","","","null","10","NaN","","","","","","","","","","","","","","",""
"","S2","","html-keyboard-response","76","254357","0.0-1.0-94.0","0","0","47745","","null","","","null","10","","NaN","","","","","","","","","","","","","",""
"","response","","html-keyboard-response","77","255092","0.0-1.0-95.0-0.0","0","0","47745","","724","","","75","10","","","1","10","training","adjacent","FG","6","7","O.jpg","N.jpg","1","1","1","",""
"","feedback","","html-keyboard-response","78","256113","0.0-1.0-96.0-0.0","0","0","47745","","null","","","null","10","","","","","","","","","","","","","","","",""
"","ITI","","html-keyboard-response","79","257140","0.0-1.0-99.0","0","0","47745","","null","","","null","10","","","","","","","","","","","","","","","NaN",""
"","S1","","html-keyboard-response","80","257411","0.0-1.0-101.0","0","0","47745","","null","","","null","11","","","","","","","","","","","","","","","",""
"","ISI","","html-keyboard-response","81","258438","0.0-1.0-102.0","0","0","47745","","null","","","null","11","NaN","","","","","","","","","","","","","","",""
"","S2","","html-keyboard-response","82","258711","0.0-1.0-103.0","0","0","47745","","null","","","null","11","","NaN","","","","","","","","","","","","","",""
"","response","","html-keyboard-response","83","258759","0.0-1.0-104.0-0.0","0","0","47745","","35","","","68","11","","","1","11","training","adjacent","FG","6","7","O.jpg","N.jpg","0","1","0","",""
"","feedback","","html-keyboard-response","84","259778","0.0-1.0-105.0-0.0","0","0","47745","","null","","","null","11","","","","","","","","","","","","","","","",""
"","time_out","","html-keyboard-response","85","261800","0.0-1.0-107.0-0.0","0","0","47745","","null","","","null","11","","","","","","","","","","","","","","","",""
"","ITI","","html-keyboard-response","86","262821","0.0-1.0-108.0","0","0","47745","","null","","","null","11","","","","","","","","","","","","","","","NaN",""
"","S1","","html-keyboard-response","87","263096","0.0-1.0-110.0","0","0","47745","","null","","","null","12","","","","","","","","","","","","","","","",""
"","ISI","","html-keyboard-response","88","264115","0.0-1.0-111.0","0","0","47745","","null","","","null","12","NaN","","","","","","","","","","","","","","",""
"","S2","","html-keyboard-response","89","264387","0.0-1.0-112.0","0","0","47745","","null","","","null","12","","NaN","","","","","","","","","","","","","",""
"","response","","html-keyboard-response","90","264752","0.0-1.0-113.0-0.0","0","0","47745","","352","","","75","12","","","1","12","training","adjacent","BC","2","3","R.jpg","P.jpg","1","1","1","",""
"","feedback","","html-keyboard-response","91","265777","0.0-1.0-114.0-0.0","0","0","47745","","null","","","null","12","","","","","","","","","","","","","","","",""
"","ITI","","html-keyboard-response","92","266793","0.0-1.0-117.0","0","0","47745","","null","","","null","12","","","","","","","","","","","","","","","NaN",""
"","S1","","html-keyboard-response","93","267057","0.0-1.0-119.0","0","0","47745","","null","","","null","13","","","","","","","","","","","","","","","",""
"","ISI","","html-keyboard-response","94","268068","0.0-1.0-120.0","0","0","47745","","null","","","null","13","NaN","","","","","","","","","","","","","","",""
"","S2","","html-keyboard-response","95","268336","0.0-1.0-121.0","0","0","47745","","null","","","null","13","","NaN","","","","","","","","","","","","","",""
"","response","","html-keyboard-response","96","268603","0.0-1.0-122.0-0.0","0","0","47745","","253","","","75","13","","","1","13","training","adjacent","DE","4","5","M.jpg","L.jpg","1","1","1","",""
"","feedback","","html-keyboard-response","97","269629","0.0-1.0-123.0-0.0","0","0","47745","","null","","","null","13","","","","","","","","","","","","","","","",""
"","ITI","","html-keyboard-response","98","270648","0.0-1.0-126.0","0","0","47745","","null","","","null","13","","","","","","","","","","","","","","","NaN",""
"","S1","","html-keyboard-response","99","270916","0.0-1.0-128.0","0","0","47745","","null","","","null","14","","","","","","","","","","","","","","","",""
"","ISI","","html-keyboard-response","100","271935","0.0-1.0-129.0","0","0","47745","","null","","","null","14","NaN","","","","","","","","","","","","","","",""
"","S2","","html-keyboard-response","101","272211","0.0-1.0-130.0","0","0","47745","","null","","","null","14","","NaN","","","","","","","","","","","","","",""
"","response","","html-keyboard-response","102","272402","0.0-1.0-131.0-0.0","0","0","47745","","177","","","68","14","","","1","14","training","adjacent","GF","7","6","N.jpg","O.jpg","0","0","1","",""
"","feedback","","html-keyboard-response","103","273421","0.0-1.0-132.0-0.0","0","0","47745","","null","","","null","14","","","","","","","","","","","","","","","",""
"","ITI","","html-keyboard-response","104","274450","0.0-1.0-135.0","0","0","47745","","null","","","null","14","","","","","","","","","","","","","","","NaN",""
"","S1","","html-keyboard-response","105","274717","0.0-1.0-137.0","0","0","47745","","null","","","null","15","","","","","","","","","","","","","","","",""
"","ISI","","html-keyboard-response","106","275737","0.0-1.0-138.0","0","0","47745","","null","","","null","15","NaN","","","","","","","","","","","","","","",""
"","S2","","html-keyboard-response","107","276009","0.0-1.0-139.0","0","0","47745","","null","","","null","15","","NaN","","","","","","","","","","","","","",""
"","response","","html-keyboard-response","108","276355","0.0-1.0-140.0-0.0","0","0","47745","","333","","","68","15","","","1","15","training","adjacent","DE","4","5","M.jpg","L.jpg","0","1","0","",""
"","feedback","","html-keyboard-response","109","277379","0.0-1.0-141.0-0.0","0","0","47745","","null","","","null","15","","","","","","","","","","","","","","","",""
"","time_out","","html-keyboard-response","110","279399","0.0-1.0-143.0-0.0","0","0","47745","","null","","","null","15","","","","","","","","","","","","","","","",""
"","ITI","","html-keyboard-response","111","280419","0.0-1.0-144.0","0","0","47745","","null","","","null","15","","","","","","","","","","","","","","","NaN",""
"","S1","","html-keyboard-response","112","280684","0.0-1.0-146.0","0","0","47745","","null","","","null","16","","","","","","","","","","","","","","","",""
"","ISI","","html-keyboard-response","113","281706","0.0-1.0-147.0","0","0","47745","","null","","","null","16","NaN","","","","","","","","","","","","","","",""
"","S2","","html-keyboard-response","114","281971","0.0-1.0-148.0","0","0","47745","","null","","","null","16","","NaN","","","","","","","","","","","","","",""
"","response","","html-keyboard-response","115","282144","0.0-1.0-149.0-0.0","0","0","47745","","160","","","75","16","","","1","16","training","adjacent","BC","2","3","R.jpg","P.jpg","1","1","1","",""
"","feedback","","html-keyboard-response","116","283158","0.0-1.0-150.0-0.0","0","0","47745","","null","","","null","16","","","","","","","","","","","","","","","",""
"","ITI","","html-keyboard-response","117","284187","0.0-1.0-153.0","0","0","47745","","null","","","null","16","","","","","","","","","","","","","","","NaN",""
"","S1","","html-keyboard-response","118","284453","0.0-1.0-155.0","0","0","47745","","null","","","null","17","","","","","","","","","","","","","","","",""
"","ISI","","html-keyboard-response","119","285467","0.0-1.0-156.0","0","0","47745","","null","","","null","17","NaN","","","","","","","","","","","","","","",""
"","S2","","html-keyboard-response","120","285739","0.0-1.0-157.0","0","0","47745","","null","","","null","17","","NaN","","","","","","","","","","","","","",""
"","response","","html-keyboard-response","121","285956","0.0-1.0-158.0-0.0","0","0","47745","","205","","","68","17","","","1","17","training","adjacent","GF","7","6","N.jpg","O.jpg","0","0","1","",""
"","feedback","","html-keyboard-response","122","286976","0.0-1.0-159.0-0.0","0","0","47745","","null","","","null","17","","","","","","","","","","","","","","","",""
"","ITI","","html-keyboard-response","123","287998","0.0-1.0-162.0","0","0","47745","","null","","","null","17","","","","","","","","","","","","","","","NaN",""
"","S1","","html-keyboard-response","124","288270","0.0-1.0-164.0","0","0","47745","","null","","","null","18","","","","","","","","","","","","","","","",""
"","ISI","","html-keyboard-response","125","289297","0.0-1.0-165.0","0","0","47745","","null","","","null","18","NaN","","","","","","","","","","","","","","",""
"","S2","","html-keyboard-response","126","289559","0.0-1.0-166.0","0","0","47745","","null","","","null","18","","NaN","","","","","","","","","","","","","",""
"","response","","html-keyboard-response","127","290016","0.0-1.0-167.0-0.0","0","0","47745","","446","","","75","18","","","1","18","training","adjacent","DC","4","3","M.jpg","P.jpg","1","0","0","",""
"","feedback","","html-keyboard-response","128","291039","0.0-1.0-168.0-0.0","0","0","47745","","null","","","null","18","","","","","","","","","","","","","","","",""
"","time_out","","html-keyboard-response","129","293058","0.0-1.0-170.0-0.0","0","0","47745","","null","","","null","18","","","","","","","","","","","","","","","",""
"","ITI","","html-keyboard-response","130","294079","0.0-1.0-171.0","0","0","47745","","null","","","null","18","","","","","","","","","","","","","","","NaN",""
"","S1","","html-keyboard-response","131","294345","0.0-1.0-173.0","0","0","47745","","null","","","null","19","","","","","","","","","","","","","","","",""
"","ISI","","html-keyboard-response","132","295370","0.0-1.0-174.0","0","0","47745","","null","","","null","19","NaN","","","","","","","","","","","","","","",""
"","S2","","html-keyboard-response","133","295642","0.0-1.0-175.0","0","0","47745","","null","","","null","19","","NaN","","","","","","","","","","","","","",""
"","response","","html-keyboard-response","134","296231","0.0-1.0-176.0-0.0","0","0","47745","","575","","","75","19","","","1","19","training","adjacent","EF","5","6","L.jpg","O.jpg","1","1","1","",""
"","feedback","","html-keyboard-response","135","297255","0.0-1.0-177.0-0.0","0","0","47745","","null","","","null","19","","","","","","","","","","","","","","","",""
"","ITI","","html-keyboard-response","136","298277","0.0-1.0-180.0","0","0","47745","","null","","","null","19","","","","","","","","","","","","","","","NaN",""
"","S1","","html-keyboard-response","137","298542","0.0-1.0-182.0","0","0","47745","","null","","","null","20","","","","","","","","","","","","","","","",""
"","ISI","","html-keyboard-response","138","299565","0.0-1.0-183.0","0","0","47745","","null","","","null","20","NaN","","","","","","","","","","","","","","",""
"","S2","","html-keyboard-response","139","299829","0.0-1.0-184.0","0","0","47745","","null","","","null","20","","NaN","","","","","","","","","","","","","",""
"","response","","html-keyboard-response","140","300261","0.0-1.0-185.0-0.0","0","0","47745","","419","","","68","20","","","1","20","training","adjacent","GF","7","6","N.jpg","O.jpg","0","0","1","",""
"","feedback","","html-keyboard-response","141","301279","0.0-1.0-186.0-0.0","0","0","47745","","null","","","null","20","","","","","","","","","","","","","","","",""
"","ITI","","html-keyboard-response","142","302308","0.0-1.0-189.0","0","0","47745","","null","","","null","20","","","","","","","","","","","","","","","NaN",""
"","S1","","html-keyboard-response","143","302581","0.0-1.0-191.0","0","0","47745","","null","","","null","21","","","","","","","","","","","","","","","",""
"","ISI","","html-keyboard-response","144","303595","0.0-1.0-192.0","0","0","47745","","null","","","null","21","NaN","","","","","","","","","","","","","","",""
"","S2","","html-keyboard-response","145","303873","0.0-1.0-193.0","0","0","47745","","null","","","null","21","","NaN","","","","","","","","","","","","","",""
"","response","","html-keyboard-response","146","304129","0.0-1.0-194.0-0.0","0","0","47745","","243","","","75","21","","","1","21","training","adjacent","FG","6","7","O.jpg","N.jpg","1","1","1","",""
"","feedback","","html-keyboard-response","147","305148","0.0-1.0-195.0-0.0","0","0","47745","","null","","","null","21","","","","","","","","","","","","","","","",""
"","ITI","","html-keyboard-response","148","306174","0.0-1.0-198.0","0","0","47745","","null","","","null","21","","","","","","","","","","","","","","","NaN",""
"","S1","","html-keyboard-response","149","306451","0.0-1.0-200.0","0","0","47745","","null","","","null","22","","","","","","","","","","","","","","","",""
"","ISI","","html-keyboard-response","150","307480","0.0-1.0-201.0","0","0","47745","","null","","","null","22","NaN","","","","","","","","","","","","","","",""
"","S2","","html-keyboard-response","151","307729","0.0-1.0-202.0","0","0","47745","","234","","","75","22","","k","1","22","training","adjacent","DE","4","5","M.jpg","L.jpg","1","1","1","",""
"","feedback","","html-keyboard-response","152","308758","0.0-1.0-204.0-0.0","0","0","47745","","null","","","null","22","","","","","","","","","","","","","","","",""
"","ITI","","html-keyboard-response","153","309785","0.0-1.0-207.0","0","0","47745","","null","","","null","22","","","","","","","","","","","","","","","NaN",""
"","S1","","html-keyboard-response","154","310054","0.0-1.0-209.0","0","0","47745","","null","","","null","23","","","","","","","","","","","","","","","",""
"","ISI","","html-keyboard-response","155","311073","0.0-1.0-210.0","0","0","47745","","null","","","null","23","NaN","","","","","","","","","","","","","","",""
"","S2","","html-keyboard-response","156","311342","0.0-1.0-211.0","0","0","47745","","null","","","null","23","","NaN","","","","","","","","","","","","","",""
"","response","","html-keyboard-response","157","312254","0.0-1.0-212.0-0.0","0","0","47745","","899","","","68","23","","","1","23","training","adjacent","FG","6","7","O.jpg","N.jpg","0","1","0","",""
"","feedback","","html-keyboard-response","158","313281","0.0-1.0-213.0-0.0","0","0","47745","","null","","","null","23","","","","","","","","","","","","","","","",""
"","time_out","","html-keyboard-response","159","315302","0.0-1.0-215.0-0.0","0","0","47745","","null","","","null","23","","","","","","","","","","","","","","","",""
"","ITI","","html-keyboard-response","160","316316","0.0-1.0-216.0","0","0","47745","","null","","","null","23","","","","","","","","","","","","","","","NaN",""
"","S1","","html-keyboard-response","161","316589","0.0-1.0-218.0","0","0","47745","","null","","","null","24","","","","","","","","","","","","","","","",""
"","ISI","","html-keyboard-response","162","317602","0.0-1.0-219.0","0","0","47745","","366","","","75","24","k","","","","","","","","","","","","","","",""
"","S2","","html-keyboard-response","163","317881","0.0-1.0-220.0","0","0","47745","","null","","","null","24","","NaN","","","","","","","","","","","","","",""
"","response","","html-keyboard-response","164","318174","0.0-1.0-221.0-0.0","0","0","47745","","280","","","75","24","","","1","24","training","adjacent","DC","4","3","M.jpg","P.jpg","1","0","0","",""
"","feedback","","html-keyboard-response","165","319194","0.0-1.0-222.0-0.0","0","0","47745","","null","","","null","24","","","","","","","","","","","","","","","",""
"","time_out","","html-keyboard-response","166","321212","0.0-1.0-224.0-0.0","0","0","47745","","null","","","null","24","","","","","","","","","","","","","","","",""
"","ITI","","html-keyboard-response","167","322229","0.0-1.0-225.0","0","0","47745","","null","","","null","24","","","","","","","","","","","","","","","NaN",""
"","S1","","html-keyboard-response","168","322497","0.0-1.0-227.0","0","0","47745","","null","","","null","25","","","","","","","","","","","","","","","",""
"","ISI","","html-keyboard-response","169","323516","0.0-1.0-228.0","0","0","47745","","null","","","null","25","NaN","","","","","","","","","","","","","","",""
"","S2","","html-keyboard-response","170","323786","0.0-1.0-229.0","0","0","47745","","null","","","null","25","","NaN","","","","","","","","","","","","","",""
"","response","","html-keyboard-response","171","324326","0.0-1.0-230.0-0.0","0","0","47745","","526","","","68","25","","","1","25","training","adjacent","DE","4","5","M.jpg","L.jpg","0","1","0","",""
"","feedback","","html-keyboard-response","172","325346","0.0-1.0-231.0-0.0","0","0","47745","","null","","","null","25","","","","","","","","","","","","","","","",""
"","time_out","","html-keyboard-response","173","327360","0.0-1.0-233.0-0.0","0","0","47745","","null","","","null","25","","","","","","","","","","","","","","","",""
"","ITI","","html-keyboard-response","174","328379","0.0-1.0-234.0","0","0","47745","","null","","","null","25","","","","","","","","","","","","","","","NaN",""
"","S1","","html-keyboard-response","175","328654","0.0-1.0-236.0","0","0","47745","","null","","","null","26","","","","","","","","","","","","","","","",""
"","ISI","","html-keyboard-response","176","329682","0.0-1.0-237.0","0","0","47745","","null","","","null","26","NaN","","","","","","","","","","","","","","",""
"","S2","","html-keyboard-response","177","329946","0.0-1.0-238.0","0","0","47745","","null","","","null","26","","NaN","","","","","","","","","","","","","",""
"","response","","html-keyboard-response","178","330286","0.0-1.0-239.0-0.0","0","0","47745","","331","","","75","26","","","1","26","training","adjacent","CB","3","2","P.jpg","R.jpg","1","0","0","",""
"","feedback","","html-keyboard-response","179","331308","0.0-1.0-240.0-0.0","0","0","47745","","null","","","null","26","","","","","","","","","","","","","","","",""
"","time_out","","html-keyboard-response","180","333323","0.0-1.0-242.0-0.0","0","0","47745","","null","","","null","26","","","","","","","","","","","","","","","",""
"","ITI","","html-keyboard-response","181","334340","0.0-1.0-243.0","0","0","47745","","null","","","null","26","","","","","","","","","","","","","","","NaN",""
"","S1","","html-keyboard-response","182","334609","0.0-1.0-245.0","0","0","47745","","null","","","null","27","","","","","","","","","","","","","","","",""
"","ISI","","html-keyboard-response","183","335624","0.0-1.0-246.0","0","0","47745","","null","","","null","27","NaN","","","","","","","","","","","","","","",""
"","S2","","html-keyboard-response","184","335891","0.0-1.0-247.0","0","0","47745","","null","","","null","27","","NaN","","","","","","","","","","","","","",""
"","response","","html-keyboard-response","185","336485","0.0-1.0-248.0-0.0","0","0","47745","","578","","","68","27","","","1","27","training","adjacent","ED","5","4","L.jpg","M.jpg","0","0","1","",""
"","feedback","","html-keyboard-response","186","337511","0.0-1.0-249.0-0.0","0","0","47745","","null","","","null","27","","","","","","","","","","","","","","","",""
"","ITI","","html-keyboard-response","187","338528","0.0-1.0-252.0","0","0","47745","","null","","","null","27","","","","","","","","","","","","","","","NaN",""
"","S1","","html-keyboard-response","188","338800","0.0-1.0-254.0","0","0","47745","","null","","","null","28","","","","","","","","","","","","","","","",""
"","ISI","","html-keyboard-response","189","339820","0.0-1.0-255.0","0","0","47745","","null","","","null","28","NaN","","","","","","","","","","","","","","",""
"","S2","","html-keyboard-response","190","340087","0.0-1.0-256.0","0","0","47745","","null","","","null","28","","NaN","","","","","","","","","","","","","",""
"","response","","html-keyboard-response","191","340906","0.0-1.0-257.0-0.0","0","0","47745","","805","","","75","28","","","1","28","training","adjacent","DC","4","3","M.jpg","P.jpg","1","0","0","",""
"","feedback","","html-keyboard-response","192","341935","0.0-1.0-258.0-0.0","0","0","47745","","null","","","null","28","","","","","","","","","","","","","","","",""
"","time_out","","html-keyboard-response","193","343965","0.0-1.0-260.0-0.0","0","0","47745","","null","","","null","28","","","","","","","","","","","","","","","",""
"","ITI","","html-keyboard-response","194","344982","0.0-1.0-261.0","0","0","47745","","null","","","null","28","","","","","","","","","","","","","","","NaN",""
"","S1","","html-keyboard-response","195","345258","0.0-1.0-263.0","0","0","47745","","null","","","null","29","","","","","","","","","","","","","","","",""
"","ISI","","html-keyboard-response","196","346279","0.0-1.0-264.0","0","0","47745","","null","","","null","29","NaN","","","","","","","","","","","","","","",""
"","S2","","html-keyboard-response","197","346551","0.0-1.0-265.0","0","0","47745","","null","","","null","29","","NaN","","","","","","","","","","","","","",""
"","response","","html-keyboard-response","198","347695","0.0-1.0-266.0-0.0","0","0","47745","","1131","","","75","29","","","1","29","training","adjacent","EF","5","6","L.jpg","O.jpg","1","1","1","",""
"","feedback","","html-keyboard-response","199","348718","0.0-1.0-267.0-0.0","0","0","47745","","null","","","null","29","","","","","","","","","","","","","","","",""
"","ITI","","html-keyboard-response","200","349741","0.0-1.0-270.0","0","0","47745","","null","","","null","29","","","","","","","","","","","","","","","NaN",""
"","S1","","html-keyboard-response","201","350006","0.0-1.0-272.0","0","0","47745","","null","","","null","30","","","","","","","","","","","","","","","",""
"","ISI","","html-keyboard-response","202","351023","0.0-1.0-273.0","0","0","47745","","null","","","null","30","NaN","","","","","","","","","","","","","","",""
"","S2","","html-keyboard-response","203","351298","0.0-1.0-274.0","0","0","47745","","null","","","null","30","","NaN","","","","","","","","","","","","","",""
"","response","","html-keyboard-response","204","351972","0.0-1.0-275.0-0.0","0","0","47745","","661","","","68","30","","","1","30","training","adjacent","FE","6","5","O.jpg","L.jpg","0","0","1","",""
"","feedback","","html-keyboard-response","205","352991","0.0-1.0-276.0-0.0","0","0","47745","","null","","","null","30","","","","","","","","","","","","","","","",""
"","ITI","","html-keyboard-response","206","354015","0.0-1.0-279.0","0","0","47745","","null","","","null","30","","","","","","","","","","","","","","","NaN",""
"","S1","","html-keyboard-response","207","354282","0.0-1.0-281.0","0","0","47745","","null","","","null","31","","","","","","","","","","","","","","","",""
"","ISI","","html-keyboard-response","208","355295","0.0-1.0-282.0","0","0","47745","","null","","","null","31","NaN","","","","","","","","","","","","","","",""
"","S2","","html-keyboard-response","209","355565","0.0-1.0-283.0","0","0","47745","","null","","","null","31","","NaN","","","","","","","","","","","","","",""
"","response","","html-keyboard-response","210","356385","0.0-1.0-284.0-0.0","0","0","47745","","806","","","68","31","","","1","31","training","adjacent","CB","3","2","P.jpg","R.jpg","0","0","1","",""
"","feedback","","html-keyboard-response","211","357406","0.0-1.0-285.0-0.0","0","0","47745","","null","","","null","31","","","","","","","","","","","","","","","",""
"","ITI","","html-keyboard-response","212","358424","0.0-1.0-288.0","0","0","47745","","null","","","null","31","","","","","","","","","","","","","","","NaN",""
"","S1","","html-keyboard-response","213","358689","0.0-1.0-290.0","0","0","47745","","null","","","null","32","","","","","","","","","","","","","","","",""
"","ISI","","html-keyboard-response","214","359717","0.0-1.0-291.0","0","0","47745","","null","","","null","32","NaN","","","","","","","","","","","","","","",""
"","S2","","html-keyboard-response","215","359984","0.0-1.0-292.0","0","0","47745","","null","","","null","32","","NaN","","","","","","","","","","","","","",""
"","response","","html-keyboard-response","216","360655","0.0-1.0-293.0-0.0","0","0","47745","","658","","","68","32","","","1","32","training","adjacent","AB","1","2","Q.jpg","R.jpg","0","1","0","",""
"","feedback","","html-keyboard-response","217","361674","0.0-1.0-294.0-0.0","0","0","47745","","null","","","null","32","","","","","","","","","","","","","","","",""
"","time_out","","html-keyboard-response","218","363691","0.0-1.0-296.0-0.0","0","0","47745","","null","","","null","32","","","","","","","","","","","","","","","",""
"","ITI","","html-keyboard-response","219","364706","0.0-1.0-297.0","0","0","47745","","null","","","null","32","","","","","","","","","","","","","","","NaN",""
"","S1","","html-keyboard-response","220","364978","0.0-1.0-299.0","0","0","47745","","null","","","null","33","","","","","","","","","","","","","","","",""
"","ISI","","html-keyboard-response","221","365992","0.0-1.0-300.0","0","0","47745","","null","","","null","33","NaN","","","","","","","","","","","","","","",""
"","S2","","html-keyboard-response","222","366272","0.0-1.0-301.0","0","0","47745","","null","","","null","33","","NaN","","","","","","","","","","","","","",""
"","response","","html-keyboard-response","223","367182","0.0-1.0-302.0-0.0","0","0","47745","","897","","","68","33","","","1","33","training","adjacent","CD","3","4","P.jpg","M.jpg","0","1","0","",""
"","feedback","","html-keyboard-response","224","368204","0.0-1.0-303.0-0.0","0","0","47745","","null","","","null","33","","","","","","","","","","","","","","","",""
"","time_out","","html-keyboard-response","225","370227","0.0-1.0-305.0-0.0","0","0","47745","","null","","","null","33","","","","","","","","","","","","","","","",""
"","ITI","","html-keyboard-response","226","371244","0.0-1.0-306.0","0","0","47745","","null","","","null","33","","","","","","","","","","","","","","","NaN",""
"","S1","","html-keyboard-response","227","371520","0.0-1.0-308.0","0","0","47745","","null","","","null","34","","","","","","","","","","","","","","","",""
"","ISI","","html-keyboard-response","228","372549","0.0-1.0-309.0","0","0","47745","","null","","","null","34","NaN","","","","","","","","","","","","","","",""
"","S2","","html-keyboard-response","229","372827","0.0-1.0-310.0","0","0","47745","","null","","","null","34","","NaN","","","","","","","","","","","","","",""
"","response","","html-keyboard-response","230","373194","0.0-1.0-311.0-0.0","0","0","47745","","353","","","68","34","","","1","34","training","adjacent","FE","6","5","O.jpg","L.jpg","0","0","1","",""
"","feedback","","html-keyboard-response","231","374216","0.0-1.0-312.0-0.0","0","0","47745","","null","","","null","34","","","","","","","","","","","","","","","",""
"","ITI","","html-keyboard-response","232","375235","0.0-1.0-315.0","0","0","47745","","null","","","null","34","","","","","","","","","","","","","","","NaN",""
"","S1","","html-keyboard-response","233","375507","0.0-1.0-317.0","0","0","47745","","null","","","null","35","","","","","","","","","","","","","","","",""
"","ISI","","html-keyboard-response","234","376525","0.0-1.0-318.0","0","0","47745","","null","","","null","35","NaN","","","","","","","","","","","","","","",""
"","S2","","html-keyboard-response","235","376792","0.0-1.0-319.0","0","0","47745","","null","","","null","35","","NaN","","","","","","","","","","","","","",""
"","response","","html-keyboard-response","236","377289","0.0-1.0-320.0-0.0","0","0","47745","","486","","","75","35","","","1","35","training","adjacent","BA","2","1","R.jpg","Q.jpg","1","0","0","",""
"","feedback","","html-keyboard-response","237","378307","0.0-1.0-321.0-0.0","0","0","47745","","null","","","null","35","","","","","","","","","","","","","","","",""
"","time_out","","html-keyboard-response","238","380335","0.0-1.0-323.0-0.0","0","0","47745","","null","","","null","35","","","","","","","","","","","","","","","",""
"","ITI","","html-keyboard-response","239","381352","0.0-1.0-324.0","0","0","47745","","null","","","null","35","","","","","","","","","","","","","","","NaN",""
"","S1","","html-keyboard-response","240","381618","0.0-1.0-326.0","0","0","47745","","null","","","null","36","","","","","","","","","","","","","","","",""
"","ISI","","html-keyboard-response","241","382636","0.0-1.0-327.0","0","0","47745","","null","","","null","36","NaN","","","","","","","","","","","","","","",""
"","S2","","html-keyboard-response","242","382910","0.0-1.0-328.0","0","0","47745","","null","","","null","36","","NaN","","","","","","","","","","","","","",""
"","response","","html-keyboard-response","243","383449","0.0-1.0-329.0-0.0","0","0","47745","","526","","","75","36","","","1","36","training","adjacent","ED","5","4","L.jpg","M.jpg","1","0","0","",""
"","feedback","","html-keyboard-response","244","384467","0.0-1.0-330.0-0.0","0","0","47745","","null","","","null","36","","","","","","","","","","","","","","","",""
"","time_out","","html-keyboard-response","245","386486","0.0-1.0-332.0-0.0","0","0","47745","","null","","","null","36","","","","","","","","","","","","","","","",""
"","ITI","","html-keyboard-response","246","387507","0.0-1.0-333.0","0","0","47745","","null","","","null","36","","","","","","","","","","","","","","","NaN",""
"","S1","","html-keyboard-response","247","387779","0.0-1.0-335.0","0","0","47745","","null","","","null","37","","","","","","","","","","","","","","","",""
"","ISI","","html-keyboard-response","248","388797","0.0-1.0-336.0","0","0","47745","","null","","","null","37","NaN","","","","","","","","","","","","","","",""
"","S2","","html-keyboard-response","249","389076","0.0-1.0-337.0","0","0","47745","","null","","","null","37","","NaN","","","","","","","","","","","","","",""
"","response","","html-keyboard-response","250","389408","0.0-1.0-338.0-0.0","0","0","47745","","320","","","75","37","","","1","37","training","adjacent","AB","1","2","Q.jpg","R.jpg","1","1","1","",""
"","feedback","","html-keyboard-response","251","390428","0.0-1.0-339.0-0.0","0","0","47745","","null","","","null","37","","","","","","","","","","","","","","","",""
"","ITI","","html-keyboard-response","252","391446","0.0-1.0-342.0","0","0","47745","","null","","","null","37","","","","","","","","","","","","","","","NaN",""
"","S1","","html-keyboard-response","253","391715","0.0-1.0-344.0","0","0","47745","","null","","","null","38","","","","","","","","","","","","","","","",""
"","ISI","","html-keyboard-response","254","392729","0.0-1.0-345.0","0","0","47745","","null","","","null","38","NaN","","","","","","","","","","","","","","",""
"","S2","","html-keyboard-response","255","392998","0.0-1.0-346.0","0","0","47745","","null","","","null","38","","NaN","","","","","","","","","","","","","",""
"","response","","html-keyboard-response","256","394241","0.0-1.0-347.0-0.0","0","0","47745","","1230","","","75","38","","","1","38","training","adjacent","CB","3","2","P.jpg","R.jpg","1","0","0","",""
"","feedback","","html-keyboard-response","257","395260","0.0-1.0-348.0-0.0","0","0","47745","","null","","","null","38","","","","","","","","","","","","","","","",""
"","time_out","","html-keyboard-response","258","397279","0.0-1.0-350.0-0.0","0","0","47745","","null","","","null","38","","","","","","","","","","","","","","","",""
"","ITI","","html-keyboard-response","259","398295","0.0-1.0-351.0","0","0","47745","","null","","","null","38","","","","","","","","","","","","","","","NaN",""
"","S1","","html-keyboard-response","260","398561","0.0-1.0-353.0","0","0","47745","","null","","","null","39","","","","","","","","","","","","","","","",""
"","ISI","","html-keyboard-response","261","399580","0.0-1.0-354.0","0","0","47745","","null","","","null","39","NaN","","","","","","","","","","","","","","",""
"","S2","","html-keyboard-response","262","399845","0.0-1.0-355.0","0","0","47745","","null","","","null","39","","NaN","","","","","","","","","","","","","",""
"","response","","html-keyboard-response","263","400220","0.0-1.0-356.0-0.0","0","0","47745","","362","","","68","39","","","1","39","training","adjacent","GF","7","6","N.jpg","O.jpg","0","0","1","",""
"","feedback","","html-keyboard-response","264","401241","0.0-1.0-357.0-0.0","0","0","47745","","null","","","null","39","","","","","","","","","","","","","","","",""
"","ITI","","html-keyboard-response","265","402261","0.0-1.0-360.0","0","0","47745","","null","","","null","39","","","","","","","","","","","","","","","NaN",""
"","S1","","html-keyboard-response","266","402539","0.0-1.0-362.0","0","0","47745","","null","","","null","40","","","","","","","","","","","","","","","",""
"","ISI","","html-keyboard-response","267","403566","0.0-1.0-363.0","0","0","47745","","null","","","null","40","NaN","","","","","","","","","","","","","","",""
"","S2","","html-keyboard-response","268","403845","0.0-1.0-364.0","0","0","47745","","null","","","null","40","","NaN","","","","","","","","","","","","","",""
"","response","","html-keyboard-response","269","404425","0.0-1.0-365.0-0.0","0","0","47745","","566","","","75","40","","","1","40","training","adjacent","CB","3","2","P.jpg","R.jpg","1","0","0","",""
"","feedback","","html-keyboard-response","270","405442","0.0-1.0-366.0-0.0","0","0","47745","","null","","","null","40","","","","","","","","","","","","","","","",""
"","time_out","","html-keyboard-response","271","407458","0.0-1.0-368.0-0.0","0","0","47745","","null","","","null","40","","","","","","","","","","","","","","","",""
"","ITI","","html-keyboard-response","272","408475","0.0-1.0-369.0","0","0","47745","","null","","","null","40","","","","","","","","","","","","","","","NaN",""
"","S1","","html-keyboard-response","273","408749","0.0-1.0-371.0","0","0","47745","","null","","","null","41","","","","","","","","","","","","","","","",""
"","ISI","","html-keyboard-response","274","409767","0.0-1.0-372.0","0","0","47745","","null","","","null","41","NaN","","","","","","","","","","","","","","",""
"","S2","","html-keyboard-response","275","410038","0.0-1.0-373.0","0","0","47745","","null","","","null","41","","NaN","","","","","","","","","","","","","",""
"","response","","html-keyboard-response","276","410107","0.0-1.0-374.0-0.0","0","0","47745","","55","","","68","41","","","1","41","training","adjacent","EF","5","6","L.jpg","O.jpg","0","1","0","",""
"","feedback","","html-keyboard-response","277","411125","0.0-1.0-375.0-0.0","0","0","47745","","null","","","null","41","","","","","","","","","","","","","","","",""
"","time_out","","html-keyboard-response","278","413140","0.0-1.0-377.0-0.0","0","0","47745","","null","","","null","41","","","","","","","","","","","","","","","",""
"","ITI","","html-keyboard-response","279","414154","0.0-1.0-378.0","0","0","47745","","null","","","null","41","","","","","","","","","","","","","","","NaN",""
"","S1","","html-keyboard-response","280","414419","0.0-1.0-380.0","0","0","47745","","null","","","null","42","","","","","","","","","","","","","","","",""
"","ISI","","html-keyboard-response","281","415432","0.0-1.0-381.0","0","0","47745","","null","","","null","42","NaN","","","","","","","","","","","","","","",""
"","S2","","html-keyboard-response","282","415702","0.0-1.0-382.0","0","0","47745","","null","","","null","42","","NaN","","","","","","","","","","","","","",""
"","response","","html-keyboard-response","283","416051","0.0-1.0-383.0-0.0","0","0","47745","","335","","","68","42","","","1","42","training","adjacent","BC","2","3","R.jpg","P.jpg","0","1","0","",""
"","feedback","","html-keyboard-response","284","417068","0.0-1.0-384.0-0.0","0","0","47745","","null","","","null","42","","","","","","","","","","","","","","","",""
"","time_out","","html-keyboard-response","285","419090","0.0-1.0-386.0-0.0","0","0","47745","","null","","","null","42","","","","","","","","","","","","","","","",""
"","ITI","","html-keyboard-response","286","420113","0.0-1.0-387.0","0","0","47745","","null","","","null","42","","","","","","","","","","","","","","","NaN",""
"","S1","","html-keyboard-response","287","420391","0.0-1.0-389.0","0","0","47745","","null","","","null","43","","","","","","","","","","","","","","","",""
"","ISI","","html-keyboard-response","288","421408","0.0-1.0-390.0","0","0","47745","","null","","","null","43","NaN","","","","","","","","","","","","","","",""
"","S2","","html-keyboard-response","289","421679","0.0-1.0-391.0","0","0","47745","","null","","","null","43","","NaN","","","","","","","","","","","","","",""
"","response","","html-keyboard-response","290","422629","0.0-1.0-392.0-0.0","0","0","47745","","939","","","75","43","","","1","43","training","adjacent","BA","2","1","R.jpg","Q.jpg","1","0","0","",""
"","feedback","","html-keyboard-response","291","423656","0.0-1.0-393.0-0.0","0","0","47745","","null","","","null","43","","","","","","","","","","","","","","","",""
"","time_out","","html-keyboard-response","292","425680","0.0-1.0-395.0-0.0","0","0","47745","","null","","","null","43","","","","","","","","","","","","","","","",""
"","ITI","","html-keyboard-response","293","426700","0.0-1.0-396.0","0","0","47745","","null","","","null","43","","","","","","","","","","","","","","","NaN",""
"","S1","","html-keyboard-response","294","426975","0.0-1.0-398.0","0","0","47745","","null","","","null","44","","","","","","","","","","","","","","","",""
"","ISI","","html-keyboard-response","295","427996","0.0-1.0-399.0","0","0","47745","","null","","","null","44","NaN","","","","","","","","","","","","","","",""
"","S2","","html-keyboard-response","296","428264","0.0-1.0-400.0","0","0","47745","","null","","","null","44","","NaN","","","","","","","","","","","","","",""
"","response","","html-keyboard-response","297","429449","0.0-1.0-401.0-0.0","0","0","47745","","1172","","","68","44","","","1","44","training","adjacent","AB","1","2","Q.jpg","R.jpg","0","1","0","",""
"","feedback","","html-keyboard-response","298","430470","0.0-1.0-402.0-0.0","0","0","47745","","null","","","null","44","","","","","","","","","","","","","","","",""
"","time_out","","html-keyboard-response","299","432488","0.0-1.0-404.0-0.0","0","0","47745","","null","","","null","44","","","","","","","","","","","","","","","",""
"","ITI","","html-keyboard-response","300","433507","0.0-1.0-405.0","0","0","47745","","null","","","null","44","","","","","","","","","","","","","","","NaN",""
"","S1","","html-keyboard-response","301","433779","0.0-1.0-407.0","0","0","47745","","null","","","null","45","","","","","","","","","","","","","","","",""
"","ISI","","html-keyboard-response","302","434804","0.0-1.0-408.0","0","0","47745","","null","","","null","45","NaN","","","","","","","","","","","","","","",""
"","S2","","html-keyboard-response","303","435074","0.0-1.0-409.0","0","0","47745","","null","","","null","45","","NaN","","","","","","","","","","","","","",""
"","response","","html-keyboard-response","304","435689","0.0-1.0-410.0-0.0","0","0","47745","","601","","","75","45","","","1","45","training","adjacent","BA","2","1","R.jpg","Q.jpg","1","0","0","",""
"","feedback","","html-keyboard-response","305","436709","0.0-1.0-411.0-0.0","0","0","47745","","null","","","null","45","","","","","","","","","","","","","","","",""
"","time_out","","html-keyboard-response","306","438724","0.0-1.0-413.0-0.0","0","0","47745","","null","","","null","45","","","","","","","","","","","","","","","",""
"","ITI","","html-keyboard-response","307","439743","0.0-1.0-414.0","0","0","47745","","null","","","null","45","","","","","","","","","","","","","","","NaN",""
"","S1","","html-keyboard-response","308","440016","0.0-1.0-416.0","0","0","47745","","null","","","null","46","","","","","","","","","","","","","","","",""
"","ISI","","html-keyboard-response","309","441029","0.0-1.0-417.0","0","0","47745","","null","","","null","46","NaN","","","","","","","","","","","","","","",""
"","S2","","html-keyboard-response","310","441304","0.0-1.0-418.0","0","0","47745","","null","","","null","46","","NaN","","","","","","","","","","","","","",""
"","response","","html-keyboard-response","311","441801","0.0-1.0-419.0-0.0","0","0","47745","","484","","","68","46","","","1","46","training","adjacent","FE","6","5","O.jpg","L.jpg","0","0","1","",""
"","feedback","","html-keyboard-response","312","442824","0.0-1.0-420.0-0.0","0","0","47745","","null","","","null","46","","","","","","","","","","","","","","","",""
"","ITI","","html-keyboard-response","313","443847","0.0-1.0-423.0","0","0","47745","","null","","","null","46","","","","","","","","","","","","","","","NaN",""
"","S1","","html-keyboard-response","314","444120","0.0-1.0-425.0","0","0","47745","","null","","","null","47","","","","","","","","","","","","","","","",""
"","ISI","","html-keyboard-response","315","445141","0.0-1.0-426.0","0","0","47745","","null","","","null","47","NaN","","","","","","","","","","","","","","",""
"","S2","","html-keyboard-response","316","445420","0.0-1.0-427.0","0","0","47745","","null","","","null","47","","NaN","","","","","","","","","","","","","",""
"","response","","html-keyboard-response","317","446250","0.0-1.0-428.0-0.0","0","0","47745","","816","","","68","47","","","1","47","training","adjacent","BA","2","1","R.jpg","Q.jpg","0","0","1","",""
"","feedback","","html-keyboard-response","318","447269","0.0-1.0-429.0-0.0","0","0","47745","","null","","","null","47","","","","","","","","","","","","","","","",""
"","ITI","","html-keyboard-response","319","448292","0.0-1.0-432.0","0","0","47745","","null","","","null","47","","","","","","","","","","","","","","","NaN",""
"","block_over","","html-keyboard-response","320","452635","0.0-1.0-433.0-0.0","0","0","47745","","4322","","","32","47","","","","","","","","","","","","","","","",""
"","S1","","html-keyboard-response","321","452912","0.0-1.0-434.0","0","0","47745","","null","","","null","48","","","","","","","","","","","","","","","",""
"","ISI","","html-keyboard-response","322","453939","0.0-1.0-435.0","0","0","47745","","null","","","null","48","NaN","","","","","","","","","","","","","","",""
"","S2","","html-keyboard-response","323","454205","0.0-1.0-436.0","0","0","47745","","null","","","null","48","","NaN","","","","","","","","","","","","","",""
"","response","","html-keyboard-response","324","454839","0.0-1.0-437.0-0.0","0","0","47745","","620","","","68","48","","","2","48","training","adjacent","CB","3","2","P.jpg","R.jpg","0","0","1","",""
"","feedback","","html-keyboard-response","325","455859","0.0-1.0-438.0-0.0","0","0","47745","","null","","","null","48","","","","","","","","","","","","","","","",""
"","ITI","","html-keyboard-response","326","456889","0.0-1.0-441.0","0","0","47745","","null","","","null","48","","","","","","","","","","","","","","","NaN",""
"","S1","","html-keyboard-response","327","457157","0.0-1.0-443.0","0","0","47745","","null","","","null","49","","","","","","","","","","","","","","","",""
"","ISI","","html-keyboard-response","328","458174","0.0-1.0-444.0","0","0","47745","","null","","","null","49","NaN","","","","","","","","","","","","","","",""
"","S2","","html-keyboard-response","329","458448","0.0-1.0-445.0","0","0","47745","","null","","","null","49","","NaN","","","","","","","","","","","","","",""
"","response","","html-keyboard-response","330","458759","0.0-1.0-446.0-0.0","0","0","47745","","297","","","75","49","","","2","49","training","adjacent","DC","4","3","M.jpg","P.jpg","1","0","0","",""
"","feedback","","html-keyboard-response","331","459782","0.0-1.0-447.0-0.0","0","0","47745","","null","","","null","49","","","","","","","","","","","","","","","",""
"","time_out","","html-keyboard-response","332","461799","0.0-1.0-449.0-0.0","0","0","47745","","null","","","null","49","","","","","","","","","","","","","","","",""
"","ITI","","html-keyboard-response","333","462814","0.0-1.0-450.0","0","0","47745","","null","","","null","49","","","","","","","","","","","","","","","NaN",""
"","S1","","html-keyboard-response","334","463089","0.0-1.0-452.0","0","0","47745","","null","","","null","50","","","","","","","","","","","","","","","",""
"","ISI","","html-keyboard-response","335","464109","0.0-1.0-453.0","0","0","47745","","null","","","null","50","NaN","","","","","","","","","","","","","","",""
"","S2","","html-keyboard-response","336","464383","0.0-1.0-454.0","0","0","47745","","null","","","null","50","","NaN","","","","","","","","","","","","","",""
"","response","","html-keyboard-response","337","464494","0.0-1.0-455.0-0.0","0","0","47745","","97","","","68","50","","","2","50","training","adjacent","DC","4","3","M.jpg","P.jpg","0","0","1","",""
"","feedback","","html-keyboard-response","338","465520","0.0-1.0-456.0-0.0","0","0","47745","","null","","","null","50","","","","","","","","","","","","","","","",""
"","ITI","","html-keyboard-response","339","466542","0.0-1.0-459.0","0","0","47745","","null","","","null","50","","","","","","","","","","","","","","","NaN",""
"","S1","","html-keyboard-response","340","466814","0.0-1.0-461.0","0","0","47745","","null","","","null","51","","","","","","","","","","","","","","","",""
"","ISI","","html-keyboard-response","341","467829","0.0-1.0-462.0","0","0","47745","","null","","","null","51","NaN","","","","","","","","","","","","","","",""
"","S2","","html-keyboard-response","342","468097","0.0-1.0-463.0","0","0","47745","","null","","","null","51","","NaN","","","","","","","","","","","","","",""
"","response","","html-keyboard-response","343","468748","0.0-1.0-464.0-0.0","0","0","47745","","636","","","75","51","","","2","51","training","adjacent","BC","2","3","R.jpg","P.jpg","1","1","1","",""
"","feedback","","html-keyboard-response","344","469770","0.0-1.0-465.0-0.0","0","0","47745","","null","","","null","51","","","","","","","","","","","","","","","",""
"","ITI","","html-keyboard-response","345","470786","0.0-1.0-468.0","0","0","47745","","null","","","null","51","","","","","","","","","","","","","","","NaN",""
"","S1","","html-keyboard-response","346","471061","0.0-1.0-470.0","0","0","47745","","null","","","null","52","","","","","","","","","","","","","","","",""
"","ISI","","html-keyboard-response","347","472075","0.0-1.0-471.0","0","0","47745","","null","","","null","52","NaN","","","","","","","","","","","","","","",""
"","S2","","html-keyboard-response","348","472341","0.0-1.0-472.0","0","0","47745","","null","","","null","52","","NaN","","","","","","","","","","","","","",""
"","response","","html-keyboard-response","349","472853","0.0-1.0-473.0-0.0","0","0","47745","","497","","","68","52","","","2","52","training","adjacent","GF","7","6","N.jpg","O.jpg","0","0","1","",""
"","feedback","","html-keyboard-response","350","473872","0.0-1.0-474.0-0.0","0","0","47745","","null","","","null","52","","","","","","","","","","","","","","","",""
"","ITI","","html-keyboard-response","351","474895","0.0-1.0-477.0","0","0","47745","","null","","","null","52","","","","","","","","","","","","","","","NaN",""
"","S1","","html-keyboard-response","352","475167","0.0-1.0-479.0","0","0","47745","","null","","","null","53","","","","","","","","","","","","","","","",""
"","ISI","","html-keyboard-response","353","476189","0.0-1.0-480.0","0","0","47745","","null","","","null","53","NaN","","","","","","","","","","","","","","",""
"","S2","","html-keyboard-response","354","476460","0.0-1.0-481.0","0","0","47745","","null","","","null","53","","NaN","","","","","","","","","","","","","",""
"","response","","html-keyboard-response","355","476906","0.0-1.0-482.0-0.0","0","0","47745","","431","","","75","53","","","2","53","training","adjacent","GF","7","6","N.jpg","O.jpg","1","0","0","",""
"","feedback","","html-keyboard-response","356","477933","0.0-1.0-483.0-0.0","0","0","47745","","null","","","null","53","","","","","","","","","","","","","","","",""
"","time_out","","html-keyboard-response","357","479954","0.0-1.0-485.0-0.0","0","0","47745","","null","","","null","53","","","","","","","","","","","","","","","",""
"","ITI","","html-keyboard-response","358","480972","0.0-1.0-486.0","0","0","47745","","null","","","null","53","","","","","","","","","","","","","","","NaN",""
"","S1","","html-keyboard-response","359","481243","0.0-1.0-488.0","0","0","47745","","null","","","null","54","","","","","","","","","","","","","","","",""
"","ISI","","html-keyboard-response","360","482259","0.0-1.0-489.0","0","0","47745","","null","","","null","54","NaN","","","","","","","","","","","","","","",""
"","S2","","html-keyboard-response","361","482528","0.0-1.0-490.0","0","0","47745","","null","","","null","54","","NaN","","","","","","","","","","","","","",""
"","response","","html-keyboard-response","362","483033","0.0-1.0-491.0-0.0","0","0","47745","","495","","","68","54","","","2","54","training","adjacent","EF","5","6","L.jpg","O.jpg","0","1","0","",""
"","feedback","","html-keyboard-response","363","484048","0.0-1.0-492.0-0.0","0","0","47745","","null","","","null","54","","","","","","","","","","","","","","","",""
"","time_out","","html-keyboard-response","364","486063","0.0-1.0-494.0-0.0","0","0","47745","","null","","","null","54","","","","","","","","","","","","","","","",""
"","ITI","","html-keyboard-response","365","487082","0.0-1.0-495.0","0","0","47745","","null","","","null","54","","","","","","","","","","","","","","","NaN",""
"","S1","","html-keyboard-response","366","487349","0.0-1.0-497.0","0","0","47745","","null","","","null","55","","","","","","","","","","","","","","","",""
"","ISI","","html-keyboard-response","367","488370","0.0-1.0-498.0","0","0","47745","","null","","","null","55","NaN","","","","","","","","","","","","","","",""
"","S2","","html-keyboard-response","368","488637","0.0-1.0-499.0","0","0","47745","","null","","","null","55","","NaN","","","","","","","","","","","","","",""
"","response","","html-keyboard-response","369","489152","0.0-1.0-500.0-0.0","0","0","47745","","501","","","75","55","","","2","55","training","adjacent","AB","1","2","Q.jpg","R.jpg","1","1","1","",""
"","feedback","","html-keyboard-response","370","490164","0.0-1.0-501.0-0.0","0","0","47745","","null","","","null","55","","","","","","","","","","","","","","","",""
"","ITI","","html-keyboard-response","371","491189","0.0-1.0-504.0","0","0","47745","","null","","","null","55","","","","","","","","","","","","","","","NaN",""
"","S1","","html-keyboard-response","372","491454","0.0-1.0-506.0","0","0","47745","","null","","","null","56","","","","","","","","","","","","","","","",""
"","ISI","","html-keyboard-response","373","492473","0.0-1.0-507.0","0","0","47745","","null","","","null","56","NaN","","","","","","","","","","","","","","",""
"","S2","","html-keyboard-response","374","492746","0.0-1.0-508.0","0","0","47745","","null","","","null","56","","NaN","","","","","","","","","","","","","",""
"","response","","html-keyboard-response","375","493686","0.0-1.0-509.0-0.0","0","0","47745","","925","","","68","56","","","2","56","training","adjacent","ED","5","4","L.jpg","M.jpg","0","0","1","",""
"","feedback","","html-keyboard-response","376","494716","0.0-1.0-510.0-0.0","0","0","47745","","null","","","null","56","","","","","","","","","","","","","","","",""
"","ITI","","html-keyboard-response","377","495735","0.0-1.0-513.0","0","0","47745","","null","","","null","56","","","","","","","","","","","","","","","NaN",""
"","S1","","html-keyboard-response","378","496004","0.0-1.0-515.0","0","0","47745","","null","","","null","57","","","","","","","","","","","","","","","",""
"","ISI","","html-keyboard-response","379","497029","0.0-1.0-516.0","0","0","47745","","null","","","null","57","NaN","","","","","","","","","","","","","","",""
"","S2","","html-keyboard-response","380","497302","0.0-1.0-517.0","0","0","47745","","null","","","null","57","","NaN","","","","","","","","","","","","","",""
"","response","","html-keyboard-response","381","498244","0.0-1.0-518.0-0.0","0","0","47745","","926","","","75","57","","","2","57","training","adjacent","ED","5","4","L.jpg","M.jpg","1","0","0","",""
"","feedback","","html-keyboard-response","382","499266","0.0-1.0-519.0-0.0","0","0","47745","","null","","","null","57","","","","","","","","","","","","","","","",""
"","time_out","","html-keyboard-response","383","501281","0.0-1.0-521.0-0.0","0","0","47745","","null","","","null","57","","","","","","","","","","","","","","","",""
"","ITI","","html-keyboard-response","384","502300","0.0-1.0-522.0","0","0","47745","","null","","","null","57","","","","","","","","","","","","","","","NaN",""
"","S1","","html-keyboard-response","385","502566","0.0-1.0-524.0","0","0","47745","","null","","","null","58","","","","","","","","","","","","","","","",""
"","ISI","","html-keyboard-response","386","503587","0.0-1.0-525.0","0","0","47745","","null","","","null","58","NaN","","","","","","","","","","","","","","",""
"","S2","","html-keyboard-response","387","503853","0.0-1.0-526.0","0","0","47745","","null","","","null","58","","NaN","","","","","","","","","","","","","",""
"","response","","html-keyboard-response","388","504093","0.0-1.0-527.0-0.0","0","0","47745","","226","","","75","58","","","2","58","training","adjacent","EF","5","6","L.jpg","O.jpg","1","1","1","",""
"","feedback","","html-keyboard-response","389","505109","0.0-1.0-528.0-0.0","0","0","47745","","null","","","null","58","","","","","","","","","","","","","","","",""
"","ITI","","html-keyboard-response","390","506131","0.0-1.0-531.0","0","0","47745","","null","","","null","58","","","","","","","","","","","","","","","NaN",""
"","S1","","html-keyboard-response","391","506399","0.0-1.0-533.0","0","0","47745","","null","","","null","59","","","","","","","","","","","","","","","",""
"","ISI","","html-keyboard-response","392","507422","0.0-1.0-534.0","0","0","47745","","null","","","null","59","NaN","","","","","","","","","","","","","","",""
"","S2","","html-keyboard-response","393","507689","0.0-1.0-535.0","0","0","47745","","null","","","null","59","","NaN","","","","","","","","","","","","","",""
"","response","","html-keyboard-response","394","508460","0.0-1.0-536.0-0.0","0","0","47745","","756","","","68","59","","","2","59","training","adjacent","DC","4","3","M.jpg","P.jpg","0","0","1","",""
"","feedback","","html-keyboard-response","395","509482","0.0-1.0-537.0-0.0","0","0","47745","","null","","","null","59","","","","","","","","","","","","","","","",""
"","ITI","","html-keyboard-response","396","510499","0.0-1.0-540.0","0","0","47745","","null","","","null","59","","","","","","","","","","","","","","","NaN",""
"","S1","","html-keyboard-response","397","510767","0.0-1.0-542.0","0","0","47745","","null","","","null","60","","","","","","","","","","","","","","","",""
"","ISI","","html-keyboard-response","398","511780","0.0-1.0-543.0","0","0","47745","","null","","","null","60","NaN","","","","","","","","","","","","","","",""
"","S2","","html-keyboard-response","399","512058","0.0-1.0-544.0","0","0","47745","","null","","","null","60","","NaN","","","","","","","","","","","","","",""
"","response","","html-keyboard-response","400","512954","0.0-1.0-545.0-0.0","0","0","47745","","881","","","75","60","","","2","60","training","adjacent","FE","6","5","O.jpg","L.jpg","1","0","0","",""
"","feedback","","html-keyboard-response","401","513979","0.0-1.0-546.0-0.0","0","0","47745","","null","","","null","60","","","","","","","","","","","","","","","",""
"","time_out","","html-keyboard-response","402","515997","0.0-1.0-548.0-0.0","0","0","47745","","null","","","null","60","","","","","","","","","","","","","","","",""
"","ITI","","html-keyboard-response","403","517022","0.0-1.0-549.0","0","0","47745","","null","","","null","60","","","","","","","","","","","","","","","NaN",""
"","S1","","html-keyboard-response","404","517294","0.0-1.0-551.0","0","0","47745","","null","","","null","61","","","","","","","","","","","","","","","",""
"","ISI","","html-keyboard-response","405","518315","0.0-1.0-552.0","0","0","47745","","null","","","null","61","NaN","","","","","","","","","","","","","","",""
"","S2","","html-keyboard-response","406","518585","0.0-1.0-553.0","0","0","47745","","null","","","null","61","","NaN","","","","","","","","","","","","","",""
"","response","","html-keyboard-response","407","518654","0.0-1.0-554.0-0.0","0","0","47745","","55","","","68","61","","","2","61","training","adjacent","DE","4","5","M.jpg","L.jpg","0","1","0","",""
"","feedback","","html-keyboard-response","408","519671","0.0-1.0-555.0-0.0","0","0","47745","","null","","","null","61","","","","","","","","","","","","","","","",""
"","time_out","","html-keyboard-response","409","521689","0.0-1.0-557.0-0.0","0","0","47745","","null","","","null","61","","","","","","","","","","","","","","","",""
"","ITI","","html-keyboard-response","410","522703","0.0-1.0-558.0","0","0","47745","","null","","","null","61","","","","","","","","","","","","","","","NaN",""
"","S1","","html-keyboard-response","411","522975","0.0-1.0-560.0","0","0","47745","","null","","","null","62","","","","","","","","","","","","","","","",""
"","ISI","","html-keyboard-response","412","523992","0.0-1.0-561.0","0","0","47745","","null","","","null","62","NaN","","","","","","","","","","","","","","",""
"","S2","","html-keyboard-response","413","524258","0.0-1.0-562.0","0","0","47745","","null","","","null","62","","NaN","","","","","","","","","","","","","",""
"","response","","html-keyboard-response","414","525197","0.0-1.0-563.0-0.0","0","0","47745","","924","","","75","62","","","2","62","training","adjacent","DE","4","5","M.jpg","L.jpg","1","1","1","",""
"","feedback","","html-keyboard-response","415","526216","0.0-1.0-564.0-0.0","0","0","47745","","null","","","null","62","","","","","","","","","","","","","","","",""
"","ITI","","html-keyboard-response","416","527243","0.0-1.0-567.0","0","0","47745","","null","","","null","62","","","","","","","","","","","","","","","NaN",""
"","S1","","html-keyboard-response","417","527516","0.0-1.0-569.0","0","0","47745","","null","","","null","63","","","","","","","","","","","","","","","",""
"","ISI","","html-keyboard-response","418","528540","0.0-1.0-570.0","0","0","47745","","null","","","null","63","NaN","","","","","","","","","","","","","","",""
"","S2","","html-keyboard-response","419","528809","0.0-1.0-571.0","0","0","47745","","null","","","null","63","","NaN","","","","","","","","","","","","","",""
"","response","","html-keyboard-response","420","529071","0.0-1.0-572.0-0.0","0","0","47745","","248","","","68","63","","","2","63","training","adjacent","FE","6","5","O.jpg","L.jpg","0","0","1","",""
"","feedback","","html-keyboard-response","421","530097","0.0-1.0-573.0-0.0","0","0","47745","","null","","","null","63","","","","","","","","","","","","","","","",""
"","ITI","","html-keyboard-response","422","531117","0.0-1.0-576.0","0","0","47745","","null","","","null","63","","","","","","","","","","","","","","","NaN",""
"","S1","","html-keyboard-response","423","531387","0.0-1.0-578.0","0","0","47745","","null","","","null","64","","","","","","","","","","","","","","","",""
"","ISI","","html-keyboard-response","424","532412","0.0-1.0-579.0","0","0","47745","","null","","","null","64","NaN","","","","","","","","","","","","","","",""
"","S2","","html-keyboard-response","425","532686","0.0-1.0-580.0","0","0","47745","","null","","","null","64","","NaN","","","","","","","","","","","","","",""
"","response","","html-keyboard-response","426","532732","0.0-1.0-581.0-0.0","0","0","47745","","35","","","75","64","","","2","64","training","adjacent","FG","6","7","O.jpg","N.jpg","1","1","1","",""
"","feedback","","html-keyboard-response","427","533751","0.0-1.0-582.0-0.0","0","0","47745","","null","","","null","64","","","","","","","","","","","","","","","",""
"","ITI","","html-keyboard-response","428","534772","0.0-1.0-585.0","0","0","47745","","null","","","null","64","","","","","","","","","","","","","","","NaN",""
"","S1","","html-keyboard-response","429","535038","0.0-1.0-587.0","0","0","47745","","null","","","null","65","","","","","","","","","","","","","","","",""
"","ISI","","html-keyboard-response","430","536062","0.0-1.0-588.0","0","0","47745","","null","","","null","65","NaN","","","","","","","","","","","","","","",""
"","S2","","html-keyboard-response","431","536328","0.0-1.0-589.0","0","0","47745","","null","","","null","65","","NaN","","","","","","","","","","","","","",""
"","response","","html-keyboard-response","432","536502","0.0-1.0-590.0-0.0","0","0","47745","","159","","","68","65","","","2","65","training","adjacent","BA","2","1","R.jpg","Q.jpg","0","0","1","",""
"","feedback","","html-keyboard-response","433","537532","0.0-1.0-591.0-0.0","0","0","47745","","null","","","null","65","","","","","","","","","","","","","","","",""
"","ITI","","html-keyboard-response","434","538561","0.0-1.0-594.0","0","0","47745","","null","","","null","65","","","","","","","","","","","","","","","NaN",""
"","S1","","html-keyboard-response","435","538828","0.0-1.0-596.0","0","0","47745","","null","","","null","66","","","","","","","","","","","","","","","",""
"","ISI","","html-keyboard-response","436","539858","0.0-1.0-597.0","0","0","47745","","null","","","null","66","NaN","","","","","","","","","","","","","","",""
"","S2","","html-keyboard-response","437","540126","0.0-1.0-598.0","0","0","47745","","null","","","null","66","","NaN","","","","","","","","","","","","","",""
"","response","","html-keyboard-response","438","540524","0.0-1.0-599.0-0.0","0","0","47745","","383","","","68","66","","","2","66","training","adjacent","GF","7","6","N.jpg","O.jpg","0","0","1","",""
"","feedback","","html-keyboard-response","439","541544","0.0-1.0-600.0-0.0","0","0","47745","","null","","","null","66","","","","","","","","","","","","","","","",""
"","ITI","","html-keyboard-response","440","542560","0.0-1.0-603.0","0","0","47745","","null","","","null","66","","","","","","","","","","","","","","","NaN",""
"","S1","","html-keyboard-response","441","542828","0.0-1.0-605.0","0","0","47745","","null","","","null","67","","","","","","","","","","","","","","","",""
"","ISI","","html-keyboard-response","442","543849","0.0-1.0-606.0","0","0","47745","","null","","","null","67","NaN","","","","","","","","","","","","","","",""
"","S2","","html-keyboard-response","443","544119","0.0-1.0-607.0","0","0","47745","","null","","","null","67","","NaN","","","","","","","","","","","","","",""
"","response","","html-keyboard-response","444","544598","0.0-1.0-608.0-0.0","0","0","47745","","465","","","68","67","","","2","67","training","adjacent","CD","3","4","P.jpg","M.jpg","0","1","0","",""
"","feedback","","html-keyboard-response","445","545617","0.0-1.0-609.0-0.0","0","0","47745","","null","","","null","67","","","","","","","","","","","","","","","",""
"","time_out","","html-keyboard-response","446","547639","0.0-1.0-611.0-0.0","0","0","47745","","null","","","null","67","","","","","","","","","","","","","","","",""
"","ITI","","html-keyboard-response","447","548654","0.0-1.0-612.0","0","0","47745","","null","","","null","67","","","","","","","","","","","","","","","NaN",""
"","S1","","html-keyboard-response","448","548918","0.0-1.0-614.0","0","0","47745","","null","","","null","68","","","","","","","","","","","","","","","",""
"","ISI","","html-keyboard-response","449","549935","0.0-1.0-615.0","0","0","47745","","null","","","null","68","NaN","","","","","","","","","","","","","","",""
"","S2","","html-keyboard-response","450","550202","0.0-1.0-616.0","0","0","47745","","null","","","null","68","","NaN","","","","","","","","","","","","","",""
"","response","","html-keyboard-response","451","550470","0.0-1.0-617.0-0.0","0","0","47745","","258","","","68","68","","","2","68","training","adjacent","FG","6","7","O.jpg","N.jpg","0","1","0","",""
"","feedback","","html-keyboard-response","452","551488","0.0-1.0-618.0-0.0","0","0","47745","","null","","","null","68","","","","","","","","","","","","","","","",""
"","time_out","","html-keyboard-response","453","553506","0.0-1.0-620.0-0.0","0","0","47745","","null","","","null","68","","","","","","","","","","","","","","","",""
"","ITI","","html-keyboard-response","454","554526","0.0-1.0-621.0","0","0","47745","","null","","","null","68","","","","","","","","","","","","","","","NaN",""
"","S1","","html-keyboard-response","455","554797","0.0-1.0-623.0","0","0","47745","","null","","","null","69","","","","","","","","","","","","","","","",""
"","ISI","","html-keyboard-response","456","555815","0.0-1.0-624.0","0","0","47745","","null","","","null","69","NaN","","","","","","","","","","","","","","",""
"","S2","","html-keyboard-response","457","556092","0.0-1.0-625.0","0","0","47745","","null","","","null","69","","NaN","","","","","","","","","","","","","",""
"","response","","html-keyboard-response","458","556339","0.0-1.0-626.0-0.0","0","0","47745","","233","","","75","69","","","2","69","training","adjacent","GF","7","6","N.jpg","O.jpg","1","0","0","",""
"","feedback","","html-keyboard-response","459","557361","0.0-1.0-627.0-0.0","0","0","47745","","null","","","null","69","","","","","","","","","","","","","","","",""
"","time_out","","html-keyboard-response","460","559384","0.0-1.0-629.0-0.0","0","0","47745","","null","","","null","69","","","","","","","","","","","","","","","",""
"","ITI","","html-keyboard-response","461","560400","0.0-1.0-630.0","0","0","47745","","null","","","null","69","","","","","","","","","","","","","","","NaN",""
"","S1","","html-keyboard-response","462","560665","0.0-1.0-632.0","0","0","47745","","null","","","null","70","","","","","","","","","","","","","","","",""
"","ISI","","html-keyboard-response","463","561684","0.0-1.0-633.0","0","0","47745","","299","","","75","70","k","","","","","","","","","","","","","","",""
"","S2","","html-keyboard-response","464","561695","0.0-1.0-634.0","0","0","47745","","1","","","75","70","","k","2","70","training","adjacent","CB","3","2","P.jpg","R.jpg","1","0","0","",""
"","feedback","","html-keyboard-response","465","562709","0.0-1.0-636.0-0.0","0","0","47745","","null","","","null","70","","","","","","","","","","","","","","","",""
"","time_out","","html-keyboard-response","466","564729","0.0-1.0-638.0-0.0","0","0","47745","","null","","","null","70","","","","","","","","","","","","","","","",""
"","ITI","","html-keyboard-response","467","565743","0.0-1.0-639.0","0","0","47745","","null","","","null","70","","","","","","","","","","","","","","","NaN",""
"","S1","","html-keyboard-response","468","566010","0.0-1.0-641.0","0","0","47745","","null","","","null","71","","","","","","","","","","","","","","","",""
"","ISI","","html-keyboard-response","469","567027","0.0-1.0-642.0","0","0","47745","","null","","","null","71","NaN","","","","","","","","","","","","","","",""
"","S2","","html-keyboard-response","470","567305","0.0-1.0-643.0","0","0","47745","","null","","","null","71","","NaN","","","","","","","","","","","","","",""
"","response","","html-keyboard-response","471","567518","0.0-1.0-644.0-0.0","0","0","47745","","198","","","75","71","","","2","71","training","adjacent","BA","2","1","R.jpg","Q.jpg","1","0","0","",""
"","feedback","","html-keyboard-response","472","568538","0.0-1.0-645.0-0.0","0","0","47745","","null","","","null","71","","","","","","","","","","","","","","","",""
"","time_out","","html-keyboard-response","473","570564","0.0-1.0-647.0-0.0","0","0","47745","","null","","","null","71","","","","","","","","","","","","","","","",""
"","ITI","","html-keyboard-response","474","571580","0.0-1.0-648.0","0","0","47745","","null","","","null","71","","","","","","","","","","","","","","","NaN",""
"","S1","","html-keyboard-response","475","571848","0.0-1.0-650.0","0","0","47745","","null","","","null","72","","","","","","","","","","","","","","","",""
"","ISI","","html-keyboard-response","476","572862","0.0-1.0-651.0","0","0","47745","","null","","","null","72","NaN","","","","","","","","","","","","","","",""
"","S2","","html-keyboard-response","477","573130","0.0-1.0-652.0","0","0","47745","","null","","","null","72","","NaN","","","","","","","","","","","","","",""
"","response","","html-keyboard-response","478","573155","0.0-1.0-653.0-0.0","0","0","47745","","13","","","75","72","","","2","72","training","adjacent","BC","2","3","R.jpg","P.jpg","1","1","1","",""
"","feedback","","html-keyboard-response","479","574179","0.0-1.0-654.0-0.0","0","0","47745","","null","","","null","72","","","","","","","","","","","","","","","",""
"","ITI","","html-keyboard-response","480","575201","0.0-1.0-657.0","0","0","47745","","null","","","null","72","","","","","","","","","","","","","","","NaN",""
"","S1","","html-keyboard-response","481","575473","0.0-1.0-659.0","0","0","47745","","null","","","null","73","","","","","","","","","","","","","","","",""
"","ISI","","html-keyboard-response","482","576489","0.0-1.0-660.0","0","0","47745","","null","","","null","73","NaN","","","","","","","","","","","","","","",""
"","S2","","html-keyboard-response","483","576766","0.0-1.0-661.0","0","0","47745","","null","","","null","73","","NaN","","","","","","","","","","","","","",""
"","response","","html-keyboard-response","484","577004","0.0-1.0-662.0-0.0","0","0","47745","","223","","","68","73","","","2","73","training","adjacent","CD","3","4","P.jpg","M.jpg","0","1","0","",""
"","feedback","","html-keyboard-response","485","578027","0.0-1.0-663.0-0.0","0","0","47745","","null","","","null","73","","","","","","","","","","","","","","","",""
"","time_out","","html-keyboard-response","486","580049","0.0-1.0-665.0-0.0","0","0","47745","","null","","","null","73","","","","","","","","","","","","","","","",""
"","ITI","","html-keyboard-response","487","581076","0.0-1.0-666.0","0","0","47745","","null","","","null","73","","","","","","","","","","","","","","","NaN",""
"","S1","","html-keyboard-response","488","581352","0.0-1.0-668.0","0","0","47745","","null","","","null","74","","","","","","","","","","","","","","","",""
"","ISI","","html-keyboard-response","489","582369","0.0-1.0-669.0","0","0","47745","","null","","","null","74","NaN","","","","","","","","","","","","","","",""
"","S2","","html-keyboard-response","490","582639","0.0-1.0-670.0","0","0","47745","","null","","","null","74","","NaN","","","","","","","","","","","","","",""
"","response","","html-keyboard-response","491","582679","0.0-1.0-671.0-0.0","0","0","47745","","28","","","75","74","","","2","74","training","adjacent","DE","4","5","M.jpg","L.jpg","1","1","1","",""
"","feedback","","html-keyboard-response","492","583698","0.0-1.0-672.0-0.0","0","0","47745","","null","","","null","74","","","","","","","","","","","","","","","",""
"","ITI","","html-keyboard-response","493","584716","0.0-1.0-675.0","0","0","47745","","null","","","null","74","","","","","","","","","","","","","","","NaN",""
"","S1","","html-keyboard-response","494","584991","0.0-1.0-677.0","0","0","47745","","null","","","null","75","","","","","","","","","","","","","","","",""
"","ISI","","html-keyboard-response","495","586006","0.0-1.0-678.0","0","0","47745","","null","","","null","75","NaN","","","","","","","","","","","","","","",""
"","S2","","html-keyboard-response","496","586281","0.0-1.0-679.0","0","0","47745","","null","","","null","75","","NaN","","","","","","","","","","","","","",""
"","response","","html-keyboard-response","497","586291","0.0-1.0-680.0-0.0","0","0","47745","","1","","","68","75","","","2","75","training","adjacent","ED","5","4","L.jpg","M.jpg","0","0","1","",""
"","feedback","","html-keyboard-response","498","587311","0.0-1.0-681.0-0.0","0","0","47745","","null","","","null","75","","","","","","","","","","","","","","","",""
"","ITI","","html-keyboard-response","499","588331","0.0-1.0-684.0","0","0","47745","","null","","","null","75","","","","","","","","","","","","","","","NaN",""
"","S1","","html-keyboard-response","500","588603","0.0-1.0-686.0","0","0","47745","","null","","","null","76","","","","","","","","","","","","","","","",""
"","ISI","","html-keyboard-response","501","589622","0.0-1.0-687.0","0","0","47745","","null","","","null","76","NaN","","","","","","","","","","","","","","",""
"","S2","","html-keyboard-response","502","589894","0.0-1.0-688.0","0","0","47745","","null","","","null","76","","NaN","","","","","","","","","","","","","",""
"","response","","html-keyboard-response","503","589908","0.0-1.0-689.0-0.0","0","0","47745","","1","","","68","76","","","2","76","training","adjacent","AB","1","2","Q.jpg","R.jpg","0","1","0","",""
"","feedback","","html-keyboard-response","504","590931","0.0-1.0-690.0-0.0","0","0","47745","","null","","","null","76","","","","","","","","","","","","","","","",""
"","time_out","","html-keyboard-response","505","592953","0.0-1.0-692.0-0.0","0","0","47745","","null","","","null","76","","","","","","","","","","","","","","","",""
"","ITI","","html-keyboard-response","506","593971","0.0-1.0-693.0","0","0","47745","","null","","","null","76","","","","","","","","","","","","","","","NaN",""
"","S1","","html-keyboard-response","507","594252","0.0-1.0-695.0","0","0","47745","","null","","","null","77","","","","","","","","","","","","","","","",""
"","ISI","","html-keyboard-response","508","595270","0.0-1.0-696.0","0","0","47745","","null","","","null","77","NaN","","","","","","","","","","","","","","",""
"","S2","","html-keyboard-response","509","595530","0.0-1.0-697.0","0","0","47745","","null","","","null","77","","NaN","","","","","","","","","","","","","",""
"","response","","html-keyboard-response","510","595554","0.0-1.0-698.0-0.0","0","0","47745","","18","","","75","77","","","2","77","training","adjacent","BA","2","1","R.jpg","Q.jpg","1","0","0","",""
"","feedback","","html-keyboard-response","511","596576","0.0-1.0-699.0-0.0","0","0","47745","","null","","","null","77","","","","","","","","","","","","","","","",""
"","time_out","","html-keyboard-response","512","598597","0.0-1.0-701.0-0.0","0","0","47745","","null","","","null","77","","","","","","","","","","","","","","","",""
"","ITI","","html-keyboard-response","513","599620","0.0-1.0-702.0","0","0","47745","","null","","","null","77","","","","","","","","","","","","","","","NaN",""
"","S1","","html-keyboard-response","514","599895","0.0-1.0-704.0","0","0","47745","","null","","","null","78","","","","","","","","","","","","","","","",""
"","ISI","","html-keyboard-response","515","600911","0.0-1.0-705.0","0","0","47745","","null","","","null","78","NaN","","","","","","","","","","","","","","",""
"","S2","","html-keyboard-response","516","601138","0.0-1.0-706.0","0","0","47745","","212","","","68","78","","d","2","78","training","adjacent","CB","3","2","P.jpg","R.jpg","0","0","1","",""
"","feedback","","html-keyboard-response","517","602170","0.0-1.0-708.0-0.0","0","0","47745","","null","","","null","78","","","","","","","","","","","","","","","",""
"","ITI","","html-keyboard-response","518","603193","0.0-1.0-711.0","0","0","47745","","null","","","null","78","","","","","","","","","","","","","","","NaN",""
"","S1","","html-keyboard-response","519","603470","0.0-1.0-713.0","0","0","47745","","null","","","null","79","","","","","","","","","","","","","","","",""
"","ISI","","html-keyboard-response","520","604496","0.0-1.0-714.0","0","0","47745","","null","","","null","79","NaN","","","","","","","","","","","","","","",""
"","S2","","html-keyboard-response","521","604766","0.0-1.0-715.0","0","0","47745","","null","","","null","79","","NaN","","","","","","","","","","","","","",""
"","response","","html-keyboard-response","522","604805","0.0-1.0-716.0-0.0","0","0","47745","","28","","","68","79","","","2","79","training","adjacent","BA","2","1","R.jpg","Q.jpg","0","0","1","",""
"","feedback","","html-keyboard-response","523","605829","0.0-1.0-717.0-0.0","0","0","47745","","null","","","null","79","","","","","","","","","","","","","","","",""
"","ITI","","html-keyboard-response","524","606840","0.0-1.0-720.0","0","0","47745","","null","","","null","79","","","","","","","","","","","","","","","NaN",""
"","S1","","html-keyboard-response","525","607111","0.0-1.0-722.0","0","0","47745","","null","","","null","80","","","","","","","","","","","","","","","",""
"","ISI","","html-keyboard-response","526","608133","0.0-1.0-723.0","0","0","47745","","null","","","null","80","NaN","","","","","","","","","","","","","","",""
"","S2","","html-keyboard-response","527","608405","0.0-1.0-724.0","0","0","47745","","null","","","null","80","","NaN","","","","","","","","","","","","","",""
"","response","","html-keyboard-response","528","609162","0.0-1.0-725.0-0.0","0","0","47745","","742","","","68","80","","","2","80","training","adjacent","EF","5","6","L.jpg","O.jpg","0","1","0","",""
"","feedback","","html-keyboard-response","529","610181","0.0-1.0-726.0-0.0","0","0","47745","","null","","","null","80","","","","","","","","","","","","","","","",""
"","time_out","","html-keyboard-response","530","612201","0.0-1.0-728.0-0.0","0","0","47745","","null","","","null","80","","","","","","","","","","","","","","","",""
"","ITI","","html-keyboard-response","531","613227","0.0-1.0-729.0","0","0","47745","","null","","","null","80","","","","","","","","","","","","","","","NaN",""
"","S1","","html-keyboard-response","532","613504","0.0-1.0-731.0","0","0","47745","","null","","","null","81","","","","","","","","","","","","","","","",""
"","ISI","","html-keyboard-response","533","614522","0.0-1.0-732.0","0","0","47745","","null","","","null","81","NaN","","","","","","","","","","","","","","",""
"","S2","","html-keyboard-response","534","614792","0.0-1.0-733.0","0","0","47745","","null","","","null","81","","NaN","","","","","","","","","","","","","",""
"","response","","html-keyboard-response","535","615240","0.0-1.0-734.0-0.0","0","0","47745","","434","","","68","81","","","2","81","training","adjacent","EF","5","6","L.jpg","O.jpg","0","1","0","",""
"","feedback","","html-keyboard-response","536","616260","0.0-1.0-735.0-0.0","0","0","47745","","null","","","null","81","","","","","","","","","","","","","","","",""
"","time_out","","html-keyboard-response","537","618278","0.0-1.0-737.0-0.0","0","0","47745","","null","","","null","81","","","","","","","","","","","","","","","",""
"","ITI","","html-keyboard-response","538","619293","0.0-1.0-738.0","0","0","47745","","null","","","null","81","","","","","","","","","","","","","","","NaN",""
"","S1","","html-keyboard-response","539","619571","0.0-1.0-740.0","0","0","47745","","null","","","null","82","","","","","","","","","","","","","","","",""
"","ISI","","html-keyboard-response","540","620597","0.0-1.0-741.0","0","0","47745","","null","","","null","82","NaN","","","","","","","","","","","","","","",""
"","S2","","html-keyboard-response","541","620866","0.0-1.0-742.0","0","0","47745","","null","","","null","82","","NaN","","","","","","","","","","","","","",""
"","response","","html-keyboard-response","542","620958","0.0-1.0-743.0-0.0","0","0","47745","","78","","","75","82","","","2","82","training","adjacent","CD","3","4","P.jpg","M.jpg","1","1","1","",""
"","feedback","","html-keyboard-response","543","621981","0.0-1.0-744.0-0.0","0","0","47745","","null","","","null","82","","","","","","","","","","","","","","","",""
"","ITI","","html-keyboard-response","544","623008","0.0-1.0-747.0","0","0","47745","","null","","","null","82","","","","","","","","","","","","","","","NaN",""
"","S1","","html-keyboard-response","545","623283","0.0-1.0-749.0","0","0","47745","","null","","","null","83","","","","","","","","","","","","","","","",""
"","ISI","","html-keyboard-response","546","624300","0.0-1.0-750.0","0","0","47745","","null","","","null","83","NaN","","","","","","","","","","","","","","",""
"","S2","","html-keyboard-response","547","624570","0.0-1.0-751.0","0","0","47745","","null","","","null","83","","NaN","","","","","","","","","","","","","",""
"","response","","html-keyboard-response","548","625498","0.0-1.0-752.0-0.0","0","0","47745","","914","","","75","83","","","2","83","training","adjacent","DC","4","3","M.jpg","P.jpg","1","0","0","",""
"","feedback","","html-keyboard-response","549","626531","0.0-1.0-753.0-0.0","0","0","47745","","null","","","null","83","","","","","","","","","","","","","","","",""
"","time_out","","html-keyboard-response","550","628552","0.0-1.0-755.0-0.0","0","0","47745","","null","","","null","83","","","","","","","","","","","","","","","",""
"","ITI","","html-keyboard-response","551","629571","0.0-1.0-756.0","0","0","47745","","null","","","null","83","","","","","","","","","","","","","","","NaN",""
"","S1","","html-keyboard-response","552","629839","0.0-1.0-758.0","0","0","47745","","null","","","null","84","","","","","","","","","","","","","","","",""
"","ISI","","html-keyboard-response","553","630846","0.0-1.0-759.0","0","0","47745","","null","","","null","84","NaN","","","","","","","","","","","","","","",""
"","S2","","html-keyboard-response","554","631109","0.0-1.0-760.0","0","0","47745","","null","","","null","84","","NaN","","","","","","","","","","","","","",""
"","response","","html-keyboard-response","555","631347","0.0-1.0-761.0-0.0","0","0","47745","","226","","","68","84","","","2","84","training","adjacent","AB","1","2","Q.jpg","R.jpg","0","1","0","",""
"","feedback","","html-keyboard-response","556","632369","0.0-1.0-762.0-0.0","0","0","47745","","null","","","null","84","","","","","","","","","","","","","","","",""
"","time_out","","html-keyboard-response","557","634383","0.0-1.0-764.0-0.0","0","0","47745","","null","","","null","84","","","","","","","","","","","","","","","",""
"","ITI","","html-keyboard-response","558","635402","0.0-1.0-765.0","0","0","47745","","null","","","null","84","","","","","","","","","","","","","","","NaN",""
"","S1","","html-keyboard-response","559","635668","0.0-1.0-767.0","0","0","47745","","null","","","null","85","","","","","","","","","","","","","","","",""
"","ISI","","html-keyboard-response","560","636691","0.0-1.0-768.0","0","0","47745","","null","","","null","85","NaN","","","","","","","","","","","","","","",""
"","S2","","html-keyboard-response","561","636958","0.0-1.0-769.0","0","0","47745","","null","","","null","85","","NaN","","","","","","","","","","","","","",""
"","response","","html-keyboard-response","562","637283","0.0-1.0-770.0-0.0","0","0","47745","","314","","","68","85","","","2","85","training","adjacent","FE","6","5","O.jpg","L.jpg","0","0","1","",""
"","feedback","","html-keyboard-response","563","638308","0.0-1.0-771.0-0.0","0","0","47745","","null","","","null","85","","","","","","","","","","","","","","","",""
"","ITI","","html-keyboard-response","564","639326","0.0-1.0-774.0","0","0","47745","","null","","","null","85","","","","","","","","","","","","","","","NaN",""
"","S1","","html-keyboard-response","565","639594","0.0-1.0-776.0","0","0","47745","","null","","","null","86","","","","","","","","","","","","","","","",""
"","ISI","","html-keyboard-response","566","640613","0.0-1.0-777.0","0","0","47745","","null","","","null","86","NaN","","","","","","","","","","","","","","",""
"","S2","","html-keyboard-response","567","640881","0.0-1.0-778.0","0","0","47745","","null","","","null","86","","NaN","","","","","","","","","","","","","",""
"","response","","html-keyboard-response","568","641659","0.0-1.0-779.0-0.0","0","0","47745","","762","","","75","86","","","2","86","training","adjacent","BC","2","3","R.jpg","P.jpg","1","1","1","",""
"","feedback","","html-keyboard-response","569","642683","0.0-1.0-780.0-0.0","0","0","47745","","null","","","null","86","","","","","","","","","","","","","","","",""
"","ITI","","html-keyboard-response","570","643712","0.0-1.0-783.0","0","0","47745","","null","","","null","86","","","","","","","","","","","","","","","NaN",""
"","S1","","html-keyboard-response","571","643990","0.0-1.0-785.0","0","0","47745","","null","","","null","87","","","","","","","","","","","","","","","",""
"","ISI","","html-keyboard-response","572","645004","0.0-1.0-786.0","0","0","47745","","null","","","null","87","NaN","","","","","","","","","","","","","","",""
"","S2","","html-keyboard-response","573","645269","0.0-1.0-787.0","0","0","47745","","null","","","null","87","","NaN","","","","","","","","","","","","","",""
"","response","","html-keyboard-response","574","646761","0.0-1.0-788.0-0.0","0","0","47745","","1479","","","75","87","","","2","87","training","adjacent","CB","3","2","P.jpg","R.jpg","1","0","0","",""
"","feedback","","html-keyboard-response","575","647783","0.0-1.0-789.0-0.0","0","0","47745","","null","","","null","87","","","","","","","","","","","","","","","",""
"","time_out","","html-keyboard-response","576","649812","0.0-1.0-791.0-0.0","0","0","47745","","null","","","null","87","","","","","","","","","","","","","","","",""
"","ITI","","html-keyboard-response","577","650827","0.0-1.0-792.0","0","0","47745","","null","","","null","87","","","","","","","","","","","","","","","NaN",""
"","S1","","html-keyboard-response","578","651100","0.0-1.0-794.0","0","0","47745","","null","","","null","88","","","","","","","","","","","","","","","",""
"","ISI","","html-keyboard-response","579","652116","0.0-1.0-795.0","0","0","47745","","null","","","null","88","NaN","","","","","","","","","","","","","","",""
"","S2","","html-keyboard-response","580","652384","0.0-1.0-796.0","0","0","47745","","null","","","null","88","","NaN","","","","","","","","","","","","","",""
