"success","ttype","start_time","trial_type","trial_index","time_elapsed","internal_node_id","warning","missed_checkup","PID","view_history","rt","responses","repeat_instructions","key_press","index","keypress_isi","keypress_S2","block","trial_num","phase","group_type","pair_type","S1_stim","S2_stim","S1_img","S2_img","S1_chosen","S1_higher","accuracy","keypress_iti","total_bonus_tally"
"true","full_screen","d08012022hr1343","fullscreen","0","10930","0.0-0.0","0","0","60555","","","","","","","","","","","","","","","","","","","","","",""
"","instructions","","instructions","1","47559","0.0-1.0-0.0-0.0","0","0","60555","[{""page_index"":0,""viewing_time"":5452},{""page_index"":1,""viewing_time"":17568},{""page_index"":2,""viewing_time"":11640},{""page_index"":3,""viewing_time"":1959}]","36622","","","","","","","","","","","","","","","","","","","",""
"","comprehension_check","","survey-multi-choice","2","70944","0.0-1.0-0.0-1.0","0","0","60555","","23366","{""Q0"":""True"",""Q1"":""K"",""Q2"":""When you see the prompt 'MAKE A CHOICE' after the second image was presented"",""Q3"":""Green mark"",""Q4"":""either D or K""}","0","","","","","","","","","","","","","","","","","",""
"","start_exp","","html-keyboard-response","3","73651","0.0-1.0-1.0","0","0","60555","","2695","","","32","","","","","","","","","","","","","","","","",""
"","S1","","html-keyboard-response","4","73909","0.0-1.0-2.0","0","0","60555","","null","","","null","0","","","","","","","","","","","","","","","",""
"","ISI","","html-keyboard-response","5","75916","0.0-1.0-3.0","0","0","60555","","738","","","75","0","k","","","","","","","","","","","","","","",""
"","S2","","html-keyboard-response","6","76175","0.0-1.0-4.0","0","0","60555","","null","","","null","0","","NaN","","","","","","","","","","","","","",""
"","response","","html-keyboard-response","7","76540","0.0-1.0-5.0","0","0","60555","","358","","","75","0","","","1","0","training","adjacent","AB","1","2","O.jpg","P.jpg","1","1","1","",""
"","feedback","","html-keyboard-response","8","77548","0.0-1.0-6.0-0.0","0","0","60555","","null","","","null","0","","","","","","","","","","","","","","","",""
"","ITI","","html-keyboard-response","9","78556","0.0-1.0-9.0","0","0","60555","","null","","","null","0","","","","","","","","","","","","","","","NaN",""
"","S1","","html-keyboard-response","10","78818","0.0-1.0-11.0","0","0","60555","","null","","","null","1","","","","","","","","","","","","","","","",""
"","ISI","","html-keyboard-response","11","80826","0.0-1.0-12.0","0","0","60555","","null","","","null","1","NaN","","","","","","","","","","","","","","",""
"","S2","","html-keyboard-response","12","81084","0.0-1.0-13.0","0","0","60555","","null","","","null","1","","NaN","","","","","","","","","","","","","",""
"","response","","html-keyboard-response","13","81172","0.0-1.0-14.0","0","0","60555","","82","","","75","1","","","1","1","training","adjacent","FE","6","5","L.jpg","N.jpg","1","0","0","",""
"","feedback","","html-keyboard-response","14","82179","0.0-1.0-15.0-0.0","0","0","60555","","null","","","null","1","","","","","","","","","","","","","","","",""
"","time_out","","html-keyboard-response","15","84186","0.0-1.0-17.0-0.0","0","0","60555","","null","","","null","1","","","","","","","","","","","","","","","",""
"","ITI","","html-keyboard-response","16","85193","0.0-1.0-18.0","0","0","60555","","null","","","null","1","","","","","","","","","","","","","","","NaN",""
"","S1","","html-keyboard-response","17","85450","0.0-1.0-20.0","0","0","60555","","null","","","null","2","","","","","","","","","","","","","","","",""
"","ISI","","html-keyboard-response","18","87457","0.0-1.0-21.0","0","0","60555","","null","","","null","2","NaN","","","","","","","","","","","","","","",""
"","S2","","html-keyboard-response","19","87714","0.0-1.0-22.0","0","0","60555","","null","","","null","2","","NaN","","","","","","","","","","","","","",""
"","response","","html-keyboard-response","20","87791","0.0-1.0-23.0","0","0","60555","","70","","","68","2","","","1","2","training","adjacent","DC","4","3","R.jpg","Q.jpg","0","0","1","",""
"","feedback","","html-keyboard-response","21","88799","0.0-1.0-24.0-0.0","0","0","60555","","null","","","null","2","","","","","","","","","","","","","","","",""
"","ITI","","html-keyboard-response","22","89807","0.0-1.0-27.0","0","0","60555","","null","","","null","2","","","","","","","","","","","","","","","NaN",""
"","S1","","html-keyboard-response","23","90069","0.0-1.0-29.0","0","0","60555","","null","","","null","3","","","","","","","","","","","","","","","",""
"","ISI","","html-keyboard-response","24","92075","0.0-1.0-30.0","0","0","60555","","null","","","null","3","NaN","","","","","","","","","","","","","","",""
"","S2","","html-keyboard-response","25","92332","0.0-1.0-31.0","0","0","60555","","null","","","null","3","","NaN","","","","","","","","","","","","","",""
"","response","","html-keyboard-response","26","92389","0.0-1.0-32.0","0","0","60555","","50","","","68","3","","","1","3","training","adjacent","DC","4","3","R.jpg","Q.jpg","0","0","1","",""
"","feedback","","html-keyboard-response","27","93396","0.0-1.0-33.0-0.0","0","0","60555","","null","","","null","3","","","","","","","","","","","","","","","",""
"","ITI","","html-keyboard-response","28","94403","0.0-1.0-36.0","0","0","60555","","null","","","null","3","","","","","","","","","","","","","","","NaN",""
"","S1","","html-keyboard-response","29","94661","0.0-1.0-38.0","0","0","60555","","null","","","null","4","","","","","","","","","","","","","","","",""
"","ISI","","html-keyboard-response","30","96666","0.0-1.0-39.0","0","0","60555","","null","","","null","4","NaN","","","","","","","","","","","","","","",""
"","S2","","html-keyboard-response","31","96924","0.0-1.0-40.0","0","0","60555","","null","","","null","4","","NaN","","","","","","","","","","","","","",""
"","response","","html-keyboard-response","32","97486","0.0-1.0-41.0","0","0","60555","","556","","","68","4","","","1","4","training","adjacent","FG","6","7","L.jpg","M.jpg","0","1","0","",""
"","feedback","","html-keyboard-response","33","98494","0.0-1.0-42.0-0.0","0","0","60555","","null","","","null","4","","","","","","","","","","","","","","","",""
"","time_out","","html-keyboard-response","34","100500","0.0-1.0-44.0-0.0","0","0","60555","","null","","","null","4","","","","","","","","","","","","","","","",""
"","ITI","","html-keyboard-response","35","101506","0.0-1.0-45.0","0","0","60555","","null","","","null","4","","","","","","","","","","","","","","","NaN",""
"","S1","","html-keyboard-response","36","101761","0.0-1.0-47.0","0","0","60555","","null","","","null","5","","","","","","","","","","","","","","","",""
"","ISI","","html-keyboard-response","37","103767","0.0-1.0-48.0","0","0","60555","","null","","","null","5","NaN","","","","","","","","","","","","","","",""
"","S2","","html-keyboard-response","38","104025","0.0-1.0-49.0","0","0","60555","","null","","","null","5","","NaN","","","","","","","","","","","","","",""
"","response","","html-keyboard-response","39","104054","0.0-1.0-50.0","0","0","60555","","24","","","75","5","","","1","5","training","adjacent","DC","4","3","R.jpg","Q.jpg","1","0","0","",""
"","feedback","","html-keyboard-response","40","105063","0.0-1.0-51.0-0.0","0","0","60555","","null","","","null","5","","","","","","","","","","","","","","","",""
"","time_out","","html-keyboard-response","41","107070","0.0-1.0-53.0-0.0","0","0","60555","","null","","","null","5","","","","","","","","","","","","","","","",""
"","ITI","","html-keyboard-response","42","108076","0.0-1.0-54.0","0","0","60555","","null","","","null","5","","","","","","","","","","","","","","","NaN",""
"","S1","","html-keyboard-response","43","108334","0.0-1.0-56.0","0","0","60555","","null","","","null","6","","","","","","","","","","","","","","","",""
"","ISI","","html-keyboard-response","44","110341","0.0-1.0-57.0","0","0","60555","","null","","","null","6","NaN","","","","","","","","","","","","","","",""
"","S2","","html-keyboard-response","45","110598","0.0-1.0-58.0","0","0","60555","","null","","","null","6","","NaN","","","","","","","","","","","","","",""
"","response","","html-keyboard-response","46","110629","0.0-1.0-59.0","0","0","60555","","24","","","75","6","","","1","6","training","adjacent","ED","5","4","N.jpg","R.jpg","1","0","0","",""
"","feedback","","html-keyboard-response","47","111637","0.0-1.0-60.0-0.0","0","0","60555","","null","","","null","6","","","","","","","","","","","","","","","",""
"","time_out","","html-keyboard-response","48","113643","0.0-1.0-62.0-0.0","0","0","60555","","null","","","null","6","","","","","","","","","","","","","","","",""
"","ITI","","html-keyboard-response","49","114650","0.0-1.0-63.0","0","0","60555","","null","","","null","6","","","","","","","","","","","","","","","NaN",""
"","S1","","html-keyboard-response","50","114908","0.0-1.0-65.0","0","0","60555","","null","","","null","7","","","","","","","","","","","","","","","",""
"","ISI","","html-keyboard-response","51","116914","0.0-1.0-66.0","0","0","60555","","null","","","null","7","NaN","","","","","","","","","","","","","","",""
"","S2","","html-keyboard-response","52","117171","0.0-1.0-67.0","0","0","60555","","null","","","null","7","","NaN","","","","","","","","","","","","","",""
"","response","","html-keyboard-response","53","117197","0.0-1.0-68.0","0","0","60555","","19","","","75","7","","","1","7","training","adjacent","DE","4","5","R.jpg","N.jpg","1","1","1","",""
"","feedback","","html-keyboard-response","54","118205","0.0-1.0-69.0-0.0","0","0","60555","","null","","","null","7","","","","","","","","","","","","","","","",""
"","ITI","","html-keyboard-response","55","119211","0.0-1.0-72.0","0","0","60555","","null","","","null","7","","","","","","","","","","","","","","","NaN",""
"","S1","","html-keyboard-response","56","119468","0.0-1.0-74.0","0","0","60555","","null","","","null","8","","","","","","","","","","","","","","","",""
"","ISI","","html-keyboard-response","57","121475","0.0-1.0-75.0","0","0","60555","","null","","","null","8","NaN","","","","","","","","","","","","","","",""
"","S2","","html-keyboard-response","58","121731","0.0-1.0-76.0","0","0","60555","","null","","","null","8","","NaN","","","","","","","","","","","","","",""
"","response","","html-keyboard-response","59","122066","0.0-1.0-77.0","0","0","60555","","328","","","75","8","","","1","8","training","adjacent","DE","4","5","R.jpg","N.jpg","1","1","1","",""
"","feedback","","html-keyboard-response","60","123073","0.0-1.0-78.0-0.0","0","0","60555","","null","","","null","8","","","","","","","","","","","","","","","",""
"","ITI","","html-keyboard-response","61","124081","0.0-1.0-81.0","0","0","60555","","null","","","null","8","","","","","","","","","","","","","","","NaN",""
"","S1","","html-keyboard-response","62","124338","0.0-1.0-83.0","0","0","60555","","null","","","null","9","","","","","","","","","","","","","","","",""
"","ISI","","html-keyboard-response","63","126345","0.0-1.0-84.0","0","0","60555","","null","","","null","9","NaN","","","","","","","","","","","","","","",""
"","S2","","html-keyboard-response","64","126602","0.0-1.0-85.0","0","0","60555","","null","","","null","9","","NaN","","","","","","","","","","","","","",""
"","response","","html-keyboard-response","65","126980","0.0-1.0-86.0","0","0","60555","","372","","","68","9","","","1","9","training","adjacent","FE","6","5","L.jpg","N.jpg","0","0","1","",""
"","feedback","","html-keyboard-response","66","127987","0.0-1.0-87.0-0.0","0","0","60555","","null","","","null","9","","","","","","","","","","","","","","","",""
"","ITI","","html-keyboard-response","67","128994","0.0-1.0-90.0","0","0","60555","","null","","","null","9","","","","","","","","","","","","","","","NaN",""
"","S1","","html-keyboard-response","68","129251","0.0-1.0-92.0","0","0","60555","","null","","","null","10","","","","","","","","","","","","","","","",""
"","ISI","","html-keyboard-response","69","131258","0.0-1.0-93.0","0","0","60555","","null","","","null","10","NaN","","","","","","","","","","","","","","",""
"","S2","","html-keyboard-response","70","131515","0.0-1.0-94.0","0","0","60555","","null","","","null","10","","NaN","","","","","","","","","","","","","",""
"","response","","html-keyboard-response","71","132189","0.0-1.0-95.0","0","0","60555","","668","","","75","10","","","1","10","training","adjacent","AB","1","2","O.jpg","P.jpg","1","1","1","",""
"","feedback","","html-keyboard-response","72","133196","0.0-1.0-96.0-0.0","0","0","60555","","null","","","null","10","","","","","","","","","","","","","","","",""
"","ITI","","html-keyboard-response","73","134203","0.0-1.0-99.0","0","0","60555","","null","","","null","10","","","","","","","","","","","","","","","NaN",""
"","S1","","html-keyboard-response","74","134461","0.0-1.0-101.0","0","0","60555","","null","","","null","11","","","","","","","","","","","","","","","",""
"","ISI","","html-keyboard-response","75","136467","0.0-1.0-102.0","0","0","60555","","null","","","null","11","NaN","","","","","","","","","","","","","","",""
"","S2","","html-keyboard-response","76","136724","0.0-1.0-103.0","0","0","60555","","null","","","null","11","","NaN","","","","","","","","","","","","","",""
"","response","","html-keyboard-response","77","136979","0.0-1.0-104.0","0","0","60555","","248","","","75","11","","","1","11","training","adjacent","CD","3","4","Q.jpg","R.jpg","1","1","1","",""
"","feedback","","html-keyboard-response","78","137986","0.0-1.0-105.0-0.0","0","0","60555","","null","","","null","11","","","","","","","","","","","","","","","",""
"","ITI","","html-keyboard-response","79","138994","0.0-1.0-108.0","0","0","60555","","null","","","null","11","","","","","","","","","","","","","","","NaN",""
"","S1","","html-keyboard-response","80","139251","0.0-1.0-110.0","0","0","60555","","null","","","null","12","","","","","","","","","","","","","","","",""
"","ISI","","html-keyboard-response","81","141257","0.0-1.0-111.0","0","0","60555","","null","","","null","12","NaN","","","","","","","","","","","","","","",""
"","S2","","html-keyboard-response","82","141515","0.0-1.0-112.0","0","0","60555","","null","","","null","12","","NaN","","","","","","","","","","","","","",""
"","response","","html-keyboard-response","83","141674","0.0-1.0-113.0","0","0","60555","","153","","","75","12","","","1","12","training","adjacent","EF","5","6","N.jpg","L.jpg","1","1","1","",""
"","feedback","","html-keyboard-response","84","142681","0.0-1.0-114.0-0.0","0","0","60555","","null","","","null","12","","","","","","","","","","","","","","","",""
"","ITI","","html-keyboard-response","85","143688","0.0-1.0-117.0","0","0","60555","","null","","","null","12","","","","","","","","","","","","","","","NaN",""
"","S1","","html-keyboard-response","86","143946","0.0-1.0-119.0","0","0","60555","","null","","","null","13","","","","","","","","","","","","","","","",""
"","ISI","","html-keyboard-response","87","145952","0.0-1.0-120.0","0","0","60555","","null","","","null","13","NaN","","","","","","","","","","","","","","",""
"","S2","","html-keyboard-response","88","146210","0.0-1.0-121.0","0","0","60555","","null","","","null","13","","NaN","","","","","","","","","","","","","",""
"","response","","html-keyboard-response","89","146348","0.0-1.0-122.0","0","0","60555","","131","","","75","13","","","1","13","training","adjacent","CB","3","2","Q.jpg","P.jpg","1","0","0","",""
"","feedback","","html-keyboard-response","90","147355","0.0-1.0-123.0-0.0","0","0","60555","","null","","","null","13","","","","","","","","","","","","","","","",""
"","time_out","","html-keyboard-response","91","149362","0.0-1.0-125.0-0.0","0","0","60555","","null","","","null","13","","","","","","","","","","","","","","","",""
"","ITI","","html-keyboard-response","92","150369","0.0-1.0-126.0","0","0","60555","","null","","","null","13","","","","","","","","","","","","","","","NaN",""
"","S1","","html-keyboard-response","93","150626","0.0-1.0-128.0","0","0","60555","","null","","","null","14","","","","","","","","","","","","","","","",""
"","ISI","","html-keyboard-response","94","152633","0.0-1.0-129.0","0","0","60555","","null","","","null","14","NaN","","","","","","","","","","","","","","",""
"","S2","","html-keyboard-response","95","152891","0.0-1.0-130.0","0","0","60555","","null","","","null","14","","NaN","","","","","","","","","","","","","",""
"","response","","html-keyboard-response","96","152975","0.0-1.0-131.0","0","0","60555","","79","","","68","14","","","1","14","training","adjacent","FE","6","5","L.jpg","N.jpg","0","0","1","",""
"","feedback","","html-keyboard-response","97","153983","0.0-1.0-132.0-0.0","0","0","60555","","null","","","null","14","","","","","","","","","","","","","","","",""
"","ITI","","html-keyboard-response","98","154991","0.0-1.0-135.0","0","0","60555","","null","","","null","14","","","","","","","","","","","","","","","NaN",""
"","S1","","html-keyboard-response","99","155246","0.0-1.0-137.0","0","0","60555","","null","","","null","15","","","","","","","","","","","","","","","",""
"","ISI","","html-keyboard-response","100","157268","0.0-1.0-138.0","0","0","60555","","null","","","null","15","NaN","","","","","","","","","","","","","","",""
"","S2","","html-keyboard-response","101","157526","0.0-1.0-139.0","0","0","60555","","null","","","null","15","","NaN","","","","","","","","","","","","","",""
"","response","","html-keyboard-response","102","157610","0.0-1.0-140.0","0","0","60555","","79","","","75","15","","","1","15","training","adjacent","AB","1","2","O.jpg","P.jpg","1","1","1","",""
"","feedback","","html-keyboard-response","103","158617","0.0-1.0-141.0-0.0","0","0","60555","","null","","","null","15","","","","","","","","","","","","","","","",""
"","ITI","","html-keyboard-response","104","159624","0.0-1.0-144.0","0","0","60555","","null","","","null","15","","","","","","","","","","","","","","","NaN",""
"","S1","","html-keyboard-response","105","159879","0.0-1.0-146.0","0","0","60555","","null","","","null","16","","","","","","","","","","","","","","","",""
"","ISI","","html-keyboard-response","106","161884","0.0-1.0-147.0","0","0","60555","","null","","","null","16","NaN","","","","","","","","","","","","","","",""
"","S2","","html-keyboard-response","107","162139","0.0-1.0-148.0","0","0","60555","","null","","","null","16","","NaN","","","","","","","","","","","","","",""
"","response","","html-keyboard-response","108","162208","0.0-1.0-149.0","0","0","60555","","65","","","68","16","","","1","16","training","adjacent","CD","3","4","Q.jpg","R.jpg","0","1","0","",""
"","feedback","","html-keyboard-response","109","163214","0.0-1.0-150.0-0.0","0","0","60555","","null","","","null","16","","","","","","","","","","","","","","","",""
"","time_out","","html-keyboard-response","110","165222","0.0-1.0-152.0-0.0","0","0","60555","","null","","","null","16","","","","","","","","","","","","","","","",""
"","ITI","","html-keyboard-response","111","166230","0.0-1.0-153.0","0","0","60555","","null","","","null","16","","","","","","","","","","","","","","","NaN",""
"","S1","","html-keyboard-response","112","166486","0.0-1.0-155.0","0","0","60555","","null","","","null","17","","","","","","","","","","","","","","","",""
"","ISI","","html-keyboard-response","113","168493","0.0-1.0-156.0","0","0","60555","","null","","","null","17","NaN","","","","","","","","","","","","","","",""
"","S2","","html-keyboard-response","114","168751","0.0-1.0-157.0","0","0","60555","","null","","","null","17","","NaN","","","","","","","","","","","","","",""
"","response","","html-keyboard-response","115","168787","0.0-1.0-158.0","0","0","60555","","29","","","75","17","","","1","17","training","adjacent","DE","4","5","R.jpg","N.jpg","1","1","1","",""
"","feedback","","html-keyboard-response","116","169796","0.0-1.0-159.0-0.0","0","0","60555","","null","","","null","17","","","","","","","","","","","","","","","",""
"","ITI","","html-keyboard-response","117","170803","0.0-1.0-162.0","0","0","60555","","null","","","null","17","","","","","","","","","","","","","","","NaN",""
"","S1","","html-keyboard-response","118","171060","0.0-1.0-164.0","0","0","60555","","null","","","null","18","","","","","","","","","","","","","","","",""
"","ISI","","html-keyboard-response","119","173067","0.0-1.0-165.0","0","0","60555","","null","","","null","18","NaN","","","","","","","","","","","","","","",""
"","S2","","html-keyboard-response","120","173324","0.0-1.0-166.0","0","0","60555","","null","","","null","18","","NaN","","","","","","","","","","","","","",""
"","response","","html-keyboard-response","121","173390","0.0-1.0-167.0","0","0","60555","","60","","","75","18","","","1","18","training","adjacent","CD","3","4","Q.jpg","R.jpg","1","1","1","",""
"","feedback","","html-keyboard-response","122","174396","0.0-1.0-168.0-0.0","0","0","60555","","null","","","null","18","","","","","","","","","","","","","","","",""
"","ITI","","html-keyboard-response","123","175402","0.0-1.0-171.0","0","0","60555","","null","","","null","18","","","","","","","","","","","","","","","NaN",""
"","S1","","html-keyboard-response","124","175659","0.0-1.0-173.0","0","0","60555","","null","","","null","19","","","","","","","","","","","","","","","",""
"","ISI","","html-keyboard-response","125","177666","0.0-1.0-174.0","0","0","60555","","null","","","null","19","NaN","","","","","","","","","","","","","","",""
"","S2","","html-keyboard-response","126","177923","0.0-1.0-175.0","0","0","60555","","224","","","75","19","","k","","","","","","","","","","","","","",""
"","response","","html-keyboard-response","127","178640","0.0-1.0-176.0","0","0","60555","","711","","","75","19","","","1","19","training","adjacent","CB","3","2","Q.jpg","P.jpg","1","0","0","",""
"","feedback","","html-keyboard-response","128","179647","0.0-1.0-177.0-0.0","0","0","60555","","null","","","null","19","","","","","","","","","","","","","","","",""
"","time_out","","html-keyboard-response","129","181655","0.0-1.0-179.0-0.0","0","0","60555","","null","","","null","19","","","","","","","","","","","","","","","",""
"","ITI","","html-keyboard-response","130","182677","0.0-1.0-180.0","0","0","60555","","null","","","null","19","","","","","","","","","","","","","","","NaN",""
"","S1","","html-keyboard-response","131","182935","0.0-1.0-182.0","0","0","60555","","null","","","null","20","","","","","","","","","","","","","","","",""
"","ISI","","html-keyboard-response","132","184942","0.0-1.0-183.0","0","0","60555","","null","","","null","20","NaN","","","","","","","","","","","","","","",""
"","S2","","html-keyboard-response","133","185199","0.0-1.0-184.0","0","0","60555","","null","","","null","20","","NaN","","","","","","","","","","","","","",""
"","response","","html-keyboard-response","134","185220","0.0-1.0-185.0","0","0","60555","","14","","","75","20","","","1","20","training","adjacent","GF","7","6","M.jpg","L.jpg","1","0","0","",""
"","feedback","","html-keyboard-response","135","186228","0.0-1.0-186.0-0.0","0","0","60555","","null","","","null","20","","","","","","","","","","","","","","","",""
"","time_out","","html-keyboard-response","136","188233","0.0-1.0-188.0-0.0","0","0","60555","","null","","","null","20","","","","","","","","","","","","","","","",""
"","ITI","","html-keyboard-response","137","189239","0.0-1.0-189.0","0","0","60555","","null","","","null","20","","","","","","","","","","","","","","","NaN",""
"","S1","","html-keyboard-response","138","189497","0.0-1.0-191.0","0","0","60555","","null","","","null","21","","","","","","","","","","","","","","","",""
"","ISI","","html-keyboard-response","139","191505","0.0-1.0-192.0","0","0","60555","","null","","","null","21","NaN","","","","","","","","","","","","","","",""
"","S2","","html-keyboard-response","140","191762","0.0-1.0-193.0","0","0","60555","","244","","","75","21","","k","","","","","","","","","","","","","",""
"","response","","html-keyboard-response","141","192414","0.0-1.0-194.0","0","0","60555","","646","","","75","21","","","1","21","training","adjacent","EF","5","6","N.jpg","L.jpg","1","1","1","",""
"","feedback","","html-keyboard-response","142","193421","0.0-1.0-195.0-0.0","0","0","60555","","null","","","null","21","","","","","","","","","","","","","","","",""
"","ITI","","html-keyboard-response","143","194427","0.0-1.0-198.0","0","0","60555","","null","","","null","21","","","","","","","","","","","","","","","NaN",""
"","S1","","html-keyboard-response","144","194684","0.0-1.0-200.0","0","0","60555","","null","","","null","22","","","","","","","","","","","","","","","",""
"","ISI","","html-keyboard-response","145","196690","0.0-1.0-201.0","0","0","60555","","null","","","null","22","NaN","","","","","","","","","","","","","","",""
"","S2","","html-keyboard-response","146","196948","0.0-1.0-202.0","0","0","60555","","null","","","null","22","","NaN","","","","","","","","","","","","","",""
"","response","","html-keyboard-response","147","197004","0.0-1.0-203.0","0","0","60555","","50","","","75","22","","","1","22","training","adjacent","GF","7","6","M.jpg","L.jpg","1","0","0","",""
"","feedback","","html-keyboard-response","148","198011","0.0-1.0-204.0-0.0","0","0","60555","","null","","","null","22","","","","","","","","","","","","","","","",""
"","time_out","","html-keyboard-response","149","200018","0.0-1.0-206.0-0.0","0","0","60555","","null","","","null","22","","","","","","","","","","","","","","","",""
"","ITI","","html-keyboard-response","150","201024","0.0-1.0-207.0","0","0","60555","","null","","","null","22","","","","","","","","","","","","","","","NaN",""
"","S1","","html-keyboard-response","151","201280","0.0-1.0-209.0","0","0","60555","","null","","","null","23","","","","","","","","","","","","","","","",""
"","ISI","","html-keyboard-response","152","203287","0.0-1.0-210.0","0","0","60555","","null","","","null","23","NaN","","","","","","","","","","","","","","",""
"","S2","","html-keyboard-response","153","203544","0.0-1.0-211.0","0","0","60555","","242","","","68","23","","d","","","","","","","","","","","","","",""
"","response","","html-keyboard-response","154","204062","0.0-1.0-212.0","0","0","60555","","511","","","68","23","","","1","23","training","adjacent","ED","5","4","N.jpg","R.jpg","0","0","1","",""
"","feedback","","html-keyboard-response","155","205070","0.0-1.0-213.0-0.0","0","0","60555","","null","","","null","23","","","","","","","","","","","","","","","",""
"","ITI","","html-keyboard-response","156","206077","0.0-1.0-216.0","0","0","60555","","null","","","null","23","","","","","","","","","","","","","","","NaN",""
"","S1","","html-keyboard-response","157","206334","0.0-1.0-218.0","0","0","60555","","null","","","null","24","","","","","","","","","","","","","","","",""
"","ISI","","html-keyboard-response","158","208342","0.0-1.0-219.0","0","0","60555","","null","","","null","24","NaN","","","","","","","","","","","","","","",""
"","S2","","html-keyboard-response","159","208599","0.0-1.0-220.0","0","0","60555","","null","","","null","24","","NaN","","","","","","","","","","","","","",""
"","response","","html-keyboard-response","160","208812","0.0-1.0-221.0","0","0","60555","","206","","","68","24","","","1","24","training","adjacent","CB","3","2","Q.jpg","P.jpg","0","0","1","",""
"","feedback","","html-keyboard-response","161","209820","0.0-1.0-222.0-0.0","0","0","60555","","null","","","null","24","","","","","","","","","","","","","","","",""
"","ITI","","html-keyboard-response","162","210826","0.0-1.0-225.0","0","0","60555","","null","","","null","24","","","","","","","","","","","","","","","NaN",""
"","S1","","html-keyboard-response","163","211083","0.0-1.0-227.0","0","0","60555","","null","","","null","25","","","","","","","","","","","","","","","",""
"","ISI","","html-keyboard-response","164","213090","0.0-1.0-228.0","0","0","60555","","null","","","null","25","NaN","","","","","","","","","","","","","","",""
"","S2","","html-keyboard-response","165","213346","0.0-1.0-229.0","0","0","60555","","null","","","null","25","","NaN","","","","","","","","","","","","","",""
"","response","","html-keyboard-response","166","213402","0.0-1.0-230.0","0","0","60555","","49","","","68","25","","","1","25","training","adjacent","BA","2","1","P.jpg","O.jpg","0","0","1","",""
"","feedback","","html-keyboard-response","167","214409","0.0-1.0-231.0-0.0","0","0","60555","","null","","","null","25","","","","","","","","","","","","","","","",""
"","ITI","","html-keyboard-response","168","215417","0.0-1.0-234.0","0","0","60555","","null","","","null","25","","","","","","","","","","","","","","","NaN",""
"","S1","","html-keyboard-response","169","215674","0.0-1.0-236.0","0","0","60555","","null","","","null","26","","","","","","","","","","","","","","","",""
"","ISI","","html-keyboard-response","170","217680","0.0-1.0-237.0","0","0","60555","","null","","","null","26","NaN","","","","","","","","","","","","","","",""
"","S2","","html-keyboard-response","171","217938","0.0-1.0-238.0","0","0","60555","","null","","","null","26","","NaN","","","","","","","","","","","","","",""
"","response","","html-keyboard-response","172","218042","0.0-1.0-239.0","0","0","60555","","98","","","68","26","","","1","26","training","adjacent","BC","2","3","P.jpg","Q.jpg","0","1","0","",""
"","feedback","","html-keyboard-response","173","219051","0.0-1.0-240.0-0.0","0","0","60555","","null","","","null","26","","","","","","","","","","","","","","","",""
"","time_out","","html-keyboard-response","174","221057","0.0-1.0-242.0-0.0","0","0","60555","","null","","","null","26","","","","","","","","","","","","","","","",""
"","ITI","","html-keyboard-response","175","222064","0.0-1.0-243.0","0","0","60555","","null","","","null","26","","","","","","","","","","","","","","","NaN",""
"","S1","","html-keyboard-response","176","222322","0.0-1.0-245.0","0","0","60555","","null","","","null","27","","","","","","","","","","","","","","","",""
"","ISI","","html-keyboard-response","177","224329","0.0-1.0-246.0","0","0","60555","","null","","","null","27","NaN","","","","","","","","","","","","","","",""
"","S2","","html-keyboard-response","178","224587","0.0-1.0-247.0","0","0","60555","","null","","","null","27","","NaN","","","","","","","","","","","","","",""
"","response","","html-keyboard-response","179","224866","0.0-1.0-248.0","0","0","60555","","273","","","75","27","","","1","27","training","adjacent","GF","7","6","M.jpg","L.jpg","1","0","0","",""
"","feedback","","html-keyboard-response","180","225874","0.0-1.0-249.0-0.0","0","0","60555","","null","","","null","27","","","","","","","","","","","","","","","",""
"","time_out","","html-keyboard-response","181","227880","0.0-1.0-251.0-0.0","0","0","60555","","null","","","null","27","","","","","","","","","","","","","","","",""
"","ITI","","html-keyboard-response","182","228887","0.0-1.0-252.0","0","0","60555","","null","","","null","27","","","","","","","","","","","","","","","NaN",""
"","S1","","html-keyboard-response","183","229145","0.0-1.0-254.0","0","0","60555","","null","","","null","28","","","","","","","","","","","","","","","",""
"","ISI","","html-keyboard-response","184","231151","0.0-1.0-255.0","0","0","60555","","null","","","null","28","NaN","","","","","","","","","","","","","","",""
"","S2","","html-keyboard-response","185","231408","0.0-1.0-256.0","0","0","60555","","null","","","null","28","","NaN","","","","","","","","","","","","","",""
"","response","","html-keyboard-response","186","231543","0.0-1.0-257.0","0","0","60555","","128","","","75","28","","","1","28","training","adjacent","AB","1","2","O.jpg","P.jpg","1","1","1","",""
"","feedback","","html-keyboard-response","187","232551","0.0-1.0-258.0-0.0","0","0","60555","","null","","","null","28","","","","","","","","","","","","","","","",""
"","ITI","","html-keyboard-response","188","233558","0.0-1.0-261.0","0","0","60555","","null","","","null","28","","","","","","","","","","","","","","","NaN",""
"","S1","","html-keyboard-response","189","233815","0.0-1.0-263.0","0","0","60555","","null","","","null","29","","","","","","","","","","","","","","","",""
"","ISI","","html-keyboard-response","190","235822","0.0-1.0-264.0","0","0","60555","","null","","","null","29","NaN","","","","","","","","","","","","","","",""
"","S2","","html-keyboard-response","191","236079","0.0-1.0-265.0","0","0","60555","","null","","","null","29","","NaN","","","","","","","","","","","","","",""
"","response","","html-keyboard-response","192","236296","0.0-1.0-266.0","0","0","60555","","211","","","75","29","","","1","29","training","adjacent","BA","2","1","P.jpg","O.jpg","1","0","0","",""
"","feedback","","html-keyboard-response","193","237304","0.0-1.0-267.0-0.0","0","0","60555","","null","","","null","29","","","","","","","","","","","","","","","",""
"","time_out","","html-keyboard-response","194","239311","0.0-1.0-269.0-0.0","0","0","60555","","null","","","null","29","","","","","","","","","","","","","","","",""
"","ITI","","html-keyboard-response","195","240318","0.0-1.0-270.0","0","0","60555","","null","","","null","29","","","","","","","","","","","","","","","NaN",""
"","S1","","html-keyboard-response","196","240575","0.0-1.0-272.0","0","0","60555","","null","","","null","30","","","","","","","","","","","","","","","",""
"","ISI","","html-keyboard-response","197","242581","0.0-1.0-273.0","0","0","60555","","null","","","null","30","NaN","","","","","","","","","","","","","","",""
"","S2","","html-keyboard-response","198","242839","0.0-1.0-274.0","0","0","60555","","null","","","null","30","","NaN","","","","","","","","","","","","","",""
"","response","","html-keyboard-response","199","243150","0.0-1.0-275.0","0","0","60555","","304","","","68","30","","","1","30","training","adjacent","BA","2","1","P.jpg","O.jpg","0","0","1","",""
"","feedback","","html-keyboard-response","200","244158","0.0-1.0-276.0-0.0","0","0","60555","","null","","","null","30","","","","","","","","","","","","","","","",""
"","ITI","","html-keyboard-response","201","245165","0.0-1.0-279.0","0","0","60555","","null","","","null","30","","","","","","","","","","","","","","","NaN",""
"","S1","","html-keyboard-response","202","245437","0.0-1.0-281.0","0","0","60555","","null","","","null","31","","","","","","","","","","","","","","","",""
"","ISI","","html-keyboard-response","203","247444","0.0-1.0-282.0","0","0","60555","","null","","","null","31","NaN","","","","","","","","","","","","","","",""
"","S2","","html-keyboard-response","204","247700","0.0-1.0-283.0","0","0","60555","","null","","","null","31","","NaN","","","","","","","","","","","","","",""
"","response","","html-keyboard-response","205","248004","0.0-1.0-284.0","0","0","60555","","298","","","75","31","","","1","31","training","adjacent","FG","6","7","L.jpg","M.jpg","1","1","1","",""
"","feedback","","html-keyboard-response","206","249011","0.0-1.0-285.0-0.0","0","0","60555","","null","","","null","31","","","","","","","","","","","","","","","",""
"","ITI","","html-keyboard-response","207","250018","0.0-1.0-288.0","0","0","60555","","null","","","null","31","","","","","","","","","","","","","","","NaN",""
"","S1","","html-keyboard-response","208","250276","0.0-1.0-290.0","0","0","60555","","null","","","null","32","","","","","","","","","","","","","","","",""
"","ISI","","html-keyboard-response","209","252283","0.0-1.0-291.0","0","0","60555","","null","","","null","32","NaN","","","","","","","","","","","","","","",""
"","S2","","html-keyboard-response","210","252541","0.0-1.0-292.0","0","0","60555","","null","","","null","32","","NaN","","","","","","","","","","","","","",""
"","response","","html-keyboard-response","211","252791","0.0-1.0-293.0","0","0","60555","","243","","","75","32","","","1","32","training","adjacent","ED","5","4","N.jpg","R.jpg","1","0","0","",""
"","feedback","","html-keyboard-response","212","253798","0.0-1.0-294.0-0.0","0","0","60555","","null","","","null","32","","","","","","","","","","","","","","","",""
"","time_out","","html-keyboard-response","213","255805","0.0-1.0-296.0-0.0","0","0","60555","","null","","","null","32","","","","","","","","","","","","","","","",""
"","ITI","","html-keyboard-response","214","256813","0.0-1.0-297.0","0","0","60555","","null","","","null","32","","","","","","","","","","","","","","","NaN",""
"","S1","","html-keyboard-response","215","257070","0.0-1.0-299.0","0","0","60555","","null","","","null","33","","","","","","","","","","","","","","","",""
"","ISI","","html-keyboard-response","216","259076","0.0-1.0-300.0","0","0","60555","","null","","","null","33","NaN","","","","","","","","","","","","","","",""
"","S2","","html-keyboard-response","217","259334","0.0-1.0-301.0","0","0","60555","","null","","","null","33","","NaN","","","","","","","","","","","","","",""
"","response","","html-keyboard-response","218","259439","0.0-1.0-302.0","0","0","60555","","98","","","68","33","","","1","33","training","adjacent","BA","2","1","P.jpg","O.jpg","0","0","1","",""
"","feedback","","html-keyboard-response","219","260446","0.0-1.0-303.0-0.0","0","0","60555","","null","","","null","33","","","","","","","","","","","","","","","",""
"","ITI","","html-keyboard-response","220","261454","0.0-1.0-306.0","0","0","60555","","null","","","null","33","","","","","","","","","","","","","","","NaN",""
"","S1","","html-keyboard-response","221","261711","0.0-1.0-308.0","0","0","60555","","null","","","null","34","","","","","","","","","","","","","","","",""
"","ISI","","html-keyboard-response","222","263718","0.0-1.0-309.0","0","0","60555","","null","","","null","34","NaN","","","","","","","","","","","","","","",""
"","S2","","html-keyboard-response","223","263975","0.0-1.0-310.0","0","0","60555","","null","","","null","34","","NaN","","","","","","","","","","","","","",""
"","response","","html-keyboard-response","224","264513","0.0-1.0-311.0","0","0","60555","","532","","","75","34","","","1","34","training","adjacent","DE","4","5","R.jpg","N.jpg","1","1","1","",""
"","feedback","","html-keyboard-response","225","265520","0.0-1.0-312.0-0.0","0","0","60555","","null","","","null","34","","","","","","","","","","","","","","","",""
"","ITI","","html-keyboard-response","226","266527","0.0-1.0-315.0","0","0","60555","","null","","","null","34","","","","","","","","","","","","","","","NaN",""
"","S1","","html-keyboard-response","227","266784","0.0-1.0-317.0","0","0","60555","","null","","","null","35","","","","","","","","","","","","","","","",""
"","ISI","","html-keyboard-response","228","268791","0.0-1.0-318.0","0","0","60555","","null","","","null","35","NaN","","","","","","","","","","","","","","",""
"","S2","","html-keyboard-response","229","269048","0.0-1.0-319.0","0","0","60555","","null","","","null","35","","NaN","","","","","","","","","","","","","",""
"","response","","html-keyboard-response","230","269110","0.0-1.0-320.0","0","0","60555","","55","","","75","35","","","1","35","training","adjacent","FE","6","5","L.jpg","N.jpg","1","0","0","",""
"","feedback","","html-keyboard-response","231","270118","0.0-1.0-321.0-0.0","0","0","60555","","null","","","null","35","","","","","","","","","","","","","","","",""
"","time_out","","html-keyboard-response","232","272125","0.0-1.0-323.0-0.0","0","0","60555","","null","","","null","35","","","","","","","","","","","","","","","",""
"","ITI","","html-keyboard-response","233","273132","0.0-1.0-324.0","0","0","60555","","null","","","null","35","","","","","","","","","","","","","","","NaN",""
"","S1","","html-keyboard-response","234","273390","0.0-1.0-326.0","0","0","60555","","null","","","null","36","","","","","","","","","","","","","","","",""
"","ISI","","html-keyboard-response","235","275396","0.0-1.0-327.0","0","0","60555","","null","","","null","36","NaN","","","","","","","","","","","","","","",""
"","S2","","html-keyboard-response","236","275655","0.0-1.0-328.0","0","0","60555","","null","","","null","36","","NaN","","","","","","","","","","","","","",""
"","response","","html-keyboard-response","237","275670","0.0-1.0-329.0","0","0","60555","","8","","","68","36","","","1","36","training","adjacent","EF","5","6","N.jpg","L.jpg","0","1","0","",""
"","feedback","","html-keyboard-response","238","276677","0.0-1.0-330.0-0.0","0","0","60555","","null","","","null","36","","","","","","","","","","","","","","","",""
"","time_out","","html-keyboard-response","239","278685","0.0-1.0-332.0-0.0","0","0","60555","","null","","","null","36","","","","","","","","","","","","","","","",""
"","ITI","","html-keyboard-response","240","279691","0.0-1.0-333.0","0","0","60555","","null","","","null","36","","","","","","","","","","","","","","","NaN",""
"","S1","","html-keyboard-response","241","279949","0.0-1.0-335.0","0","0","60555","","null","","","null","37","","","","","","","","","","","","","","","",""
"","ISI","","html-keyboard-response","242","281955","0.0-1.0-336.0","0","0","60555","","null","","","null","37","NaN","","","","","","","","","","","","","","",""
"","S2","","html-keyboard-response","243","282218","0.0-1.0-337.0","0","0","60555","","null","","","null","37","","NaN","","","","","","","","","","","","","",""
"","response","","html-keyboard-response","244","282295","0.0-1.0-338.0","0","0","60555","","72","","","75","37","","","1","37","training","adjacent","BC","2","3","P.jpg","Q.jpg","1","1","1","",""
"","feedback","","html-keyboard-response","245","283300","0.0-1.0-339.0-0.0","0","0","60555","","null","","","null","37","","","","","","","","","","","","","","","",""
"","ITI","","html-keyboard-response","246","284307","0.0-1.0-342.0","0","0","60555","","null","","","null","37","","","","","","","","","","","","","","","NaN",""
"","S1","","html-keyboard-response","247","284565","0.0-1.0-344.0","0","0","60555","","null","","","null","38","","","","","","","","","","","","","","","",""
"","ISI","","html-keyboard-response","248","286571","0.0-1.0-345.0","0","0","60555","","null","","","null","38","NaN","","","","","","","","","","","","","","",""
"","S2","","html-keyboard-response","249","286828","0.0-1.0-346.0","0","0","60555","","null","","","null","38","","NaN","","","","","","","","","","","","","",""
"","response","","html-keyboard-response","250","287170","0.0-1.0-347.0","0","0","60555","","335","","","75","38","","","1","38","training","adjacent","CB","3","2","Q.jpg","P.jpg","1","0","0","",""
"","feedback","","html-keyboard-response","251","288178","0.0-1.0-348.0-0.0","0","0","60555","","null","","","null","38","","","","","","","","","","","","","","","",""
"","time_out","","html-keyboard-response","252","290185","0.0-1.0-350.0-0.0","0","0","60555","","null","","","null","38","","","","","","","","","","","","","","","",""
"","ITI","","html-keyboard-response","253","291192","0.0-1.0-351.0","0","0","60555","","null","","","null","38","","","","","","","","","","","","","","","NaN",""
"","S1","","html-keyboard-response","254","291449","0.0-1.0-353.0","0","0","60555","","null","","","null","39","","","","","","","","","","","","","","","",""
"","ISI","","html-keyboard-response","255","293455","0.0-1.0-354.0","0","0","60555","","null","","","null","39","NaN","","","","","","","","","","","","","","",""
"","S2","","html-keyboard-response","256","293713","0.0-1.0-355.0","0","0","60555","","null","","","null","39","","NaN","","","","","","","","","","","","","",""
"","response","","html-keyboard-response","257","293753","0.0-1.0-356.0","0","0","60555","","34","","","68","39","","","1","39","training","adjacent","FG","6","7","L.jpg","M.jpg","0","1","0","",""
"","feedback","","html-keyboard-response","258","294762","0.0-1.0-357.0-0.0","0","0","60555","","null","","","null","39","","","","","","","","","","","","","","","",""
"","time_out","","html-keyboard-response","259","296769","0.0-1.0-359.0-0.0","0","0","60555","","null","","","null","39","","","","","","","","","","","","","","","",""
"","ITI","","html-keyboard-response","260","297776","0.0-1.0-360.0","0","0","60555","","null","","","null","39","","","","","","","","","","","","","","","NaN",""
"","S1","","html-keyboard-response","261","298034","0.0-1.0-362.0","0","0","60555","","null","","","null","40","","","","","","","","","","","","","","","",""
"","ISI","","html-keyboard-response","262","300040","0.0-1.0-363.0","0","0","60555","","null","","","null","40","NaN","","","","","","","","","","","","","","",""
"","S2","","html-keyboard-response","263","300297","0.0-1.0-364.0","0","0","60555","","null","","","null","40","","NaN","","","","","","","","","","","","","",""
"","response","","html-keyboard-response","264","300467","0.0-1.0-365.0","0","0","60555","","164","","","75","40","","","1","40","training","adjacent","GF","7","6","M.jpg","L.jpg","1","0","0","",""
"","feedback","","html-keyboard-response","265","301475","0.0-1.0-366.0-0.0","0","0","60555","","null","","","null","40","","","","","","","","","","","","","","","",""
"","time_out","","html-keyboard-response","266","303482","0.0-1.0-368.0-0.0","0","0","60555","","null","","","null","40","","","","","","","","","","","","","","","",""
"","ITI","","html-keyboard-response","267","304489","0.0-1.0-369.0","0","0","60555","","null","","","null","40","","","","","","","","","","","","","","","NaN",""
"","S1","","html-keyboard-response","268","304747","0.0-1.0-371.0","0","0","60555","","null","","","null","41","","","","","","","","","","","","","","","",""
"","ISI","","html-keyboard-response","269","306754","0.0-1.0-372.0","0","0","60555","","null","","","null","41","NaN","","","","","","","","","","","","","","",""
"","S2","","html-keyboard-response","270","307012","0.0-1.0-373.0","0","0","60555","","null","","","null","41","","NaN","","","","","","","","","","","","","",""
"","response","","html-keyboard-response","271","307352","0.0-1.0-374.0","0","0","60555","","334","","","75","41","","","1","41","training","adjacent","FG","6","7","L.jpg","M.jpg","1","1","1","",""
"","feedback","","html-keyboard-response","272","308359","0.0-1.0-375.0-0.0","0","0","60555","","null","","","null","41","","","","","","","","","","","","","","","",""
"","ITI","","html-keyboard-response","273","309366","0.0-1.0-378.0","0","0","60555","","null","","","null","41","","","","","","","","","","","","","","","NaN",""
"","S1","","html-keyboard-response","274","309624","0.0-1.0-380.0","0","0","60555","","null","","","null","42","","","","","","","","","","","","","","","",""
"","ISI","","html-keyboard-response","275","311631","0.0-1.0-381.0","0","0","60555","","null","","","null","42","NaN","","","","","","","","","","","","","","",""
"","S2","","html-keyboard-response","276","311889","0.0-1.0-382.0","0","0","60555","","null","","","null","42","","NaN","","","","","","","","","","","","","",""
"","response","","html-keyboard-response","277","312105","0.0-1.0-383.0","0","0","60555","","210","","","75","42","","","1","42","training","adjacent","BC","2","3","P.jpg","Q.jpg","1","1","1","",""
"","feedback","","html-keyboard-response","278","313114","0.0-1.0-384.0-0.0","0","0","60555","","null","","","null","42","","","","","","","","","","","","","","","",""
"","ITI","","html-keyboard-response","279","314122","0.0-1.0-387.0","0","0","60555","","null","","","null","42","","","","","","","","","","","","","","","NaN",""
"","S1","","html-keyboard-response","280","314379","0.0-1.0-389.0","0","0","60555","","null","","","null","43","","","","","","","","","","","","","","","",""
"","ISI","","html-keyboard-response","281","316386","0.0-1.0-390.0","0","0","60555","","null","","","null","43","NaN","","","","","","","","","","","","","","",""
"","S2","","html-keyboard-response","282","316643","0.0-1.0-391.0","0","0","60555","","null","","","null","43","","NaN","","","","","","","","","","","","","",""
"","response","","html-keyboard-response","283","316749","0.0-1.0-392.0","0","0","60555","","99","","","75","43","","","1","43","training","adjacent","CD","3","4","Q.jpg","R.jpg","1","1","1","",""
"","feedback","","html-keyboard-response","284","317756","0.0-1.0-393.0-0.0","0","0","60555","","null","","","null","43","","","","","","","","","","","","","","","",""
"","ITI","","html-keyboard-response","285","318764","0.0-1.0-396.0","0","0","60555","","null","","","null","43","","","","","","","","","","","","","","","NaN",""
"","S1","","html-keyboard-response","286","319022","0.0-1.0-398.0","0","0","60555","","null","","","null","44","","","","","","","","","","","","","","","",""
"","ISI","","html-keyboard-response","287","321029","0.0-1.0-399.0","0","0","60555","","null","","","null","44","NaN","","","","","","","","","","","","","","",""
"","S2","","html-keyboard-response","288","321286","0.0-1.0-400.0","0","0","60555","","null","","","null","44","","NaN","","","","","","","","","","","","","",""
"","response","","html-keyboard-response","289","321398","0.0-1.0-401.0","0","0","60555","","106","","","75","44","","","1","44","training","adjacent","DC","4","3","R.jpg","Q.jpg","1","0","0","",""
"","feedback","","html-keyboard-response","290","322407","0.0-1.0-402.0-0.0","0","0","60555","","null","","","null","44","","","","","","","","","","","","","","","",""
"","time_out","","html-keyboard-response","291","324415","0.0-1.0-404.0-0.0","0","0","60555","","null","","","null","44","","","","","","","","","","","","","","","",""
"","ITI","","html-keyboard-response","292","325422","0.0-1.0-405.0","0","0","60555","","null","","","null","44","","","","","","","","","","","","","","","NaN",""
"","S1","","html-keyboard-response","293","325680","0.0-1.0-407.0","0","0","60555","","null","","","null","45","","","","","","","","","","","","","","","",""
"","ISI","","html-keyboard-response","294","327686","0.0-1.0-408.0","0","0","60555","","null","","","null","45","NaN","","","","","","","","","","","","","","",""
"","S2","","html-keyboard-response","295","327954","0.0-1.0-409.0","0","0","60555","","null","","","null","45","","NaN","","","","","","","","","","","","","",""
"","response","","html-keyboard-response","296","328028","0.0-1.0-410.0","0","0","60555","","67","","","68","45","","","1","45","training","adjacent","EF","5","6","N.jpg","L.jpg","0","1","0","",""
"","feedback","","html-keyboard-response","297","329035","0.0-1.0-411.0-0.0","0","0","60555","","null","","","null","45","","","","","","","","","","","","","","","",""
"","time_out","","html-keyboard-response","298","331044","0.0-1.0-413.0-0.0","0","0","60555","","null","","","null","45","","","","","","","","","","","","","","","",""
"","ITI","","html-keyboard-response","299","332050","0.0-1.0-414.0","0","0","60555","","null","","","null","45","","","","","","","","","","","","","","","NaN",""
"","S1","","html-keyboard-response","300","332308","0.0-1.0-416.0","0","0","60555","","null","","","null","46","","","","","","","","","","","","","","","",""
"","ISI","","html-keyboard-response","301","334315","0.0-1.0-417.0","0","0","60555","","null","","","null","46","NaN","","","","","","","","","","","","","","",""
"","S2","","html-keyboard-response","302","334572","0.0-1.0-418.0","0","0","60555","","null","","","null","46","","NaN","","","","","","","","","","","","","",""
"","response","","html-keyboard-response","303","334580","0.0-1.0-419.0","0","0","60555","","2","","","75","46","","","1","46","training","adjacent","ED","5","4","N.jpg","R.jpg","1","0","0","",""
"","feedback","","html-keyboard-response","304","335588","0.0-1.0-420.0-0.0","0","0","60555","","null","","","null","46","","","","","","","","","","","","","","","",""
"","time_out","","html-keyboard-response","305","337594","0.0-1.0-422.0-0.0","0","0","60555","","null","","","null","46","","","","","","","","","","","","","","","",""
"","ITI","","html-keyboard-response","306","338603","0.0-1.0-423.0","0","0","60555","","null","","","null","46","","","","","","","","","","","","","","","NaN",""
"","S1","","html-keyboard-response","307","338861","0.0-1.0-425.0","0","0","60555","","null","","","null","47","","","","","","","","","","","","","","","",""
"","ISI","","html-keyboard-response","308","340868","0.0-1.0-426.0","0","0","60555","","null","","","null","47","NaN","","","","","","","","","","","","","","",""
"","S2","","html-keyboard-response","309","341125","0.0-1.0-427.0","0","0","60555","","null","","","null","47","","NaN","","","","","","","","","","","","","",""
"","response","","html-keyboard-response","310","341134","0.0-1.0-428.0","0","0","60555","","3","","","75","47","","","1","47","training","adjacent","BC","2","3","P.jpg","Q.jpg","1","1","1","",""
"","feedback","","html-keyboard-response","311","342143","0.0-1.0-429.0-0.0","0","0","60555","","null","","","null","47","","","","","","","","","","","","","","","",""
"","ITI","","html-keyboard-response","312","343150","0.0-1.0-432.0","0","0","60555","","null","","","null","47","","","","","","","","","","","","","","","NaN",""
"","block_over","","html-keyboard-response","313","355766","0.0-1.0-433.0-0.0","0","0","60555","","12607","","","32","47","","","","","","","","","","","","","","","",""
"","S1","","html-keyboard-response","314","356023","0.0-1.0-434.0","0","0","60555","","null","","","null","48","","","","","","","","","","","","","","","",""
"","ISI","","html-keyboard-response","315","358029","0.0-1.0-435.0","0","0","60555","","1439","","","75","48","k","","","","","","","","","","","","","","",""
"","S2","","html-keyboard-response","316","358287","0.0-1.0-436.0","0","0","60555","","null","","","null","48","","NaN","","","","","","","","","","","","","",""
"","response","","html-keyboard-response","317","358839","0.0-1.0-437.0","0","0","60555","","545","","","75","48","","","2","48","training","adjacent","FE","6","5","L.jpg","N.jpg","1","0","0","",""
"","feedback","","html-keyboard-response","318","359847","0.0-1.0-438.0-0.0","0","0","60555","","null","","","null","48","","","","","","","","","","","","","","","",""
"","time_out","","html-keyboard-response","319","361854","0.0-1.0-440.0-0.0","0","0","60555","","null","","","null","48","","","","","","","","","","","","","","","",""
"","ITI","","html-keyboard-response","320","362861","0.0-1.0-441.0","0","0","60555","","null","","","null","48","","","","","","","","","","","","","","","NaN",""
"","S1","","html-keyboard-response","321","363119","0.0-1.0-443.0","0","0","60555","","null","","","null","49","","","","","","","","","","","","","","","",""
"","ISI","","html-keyboard-response","322","365125","0.0-1.0-444.0","0","0","60555","","null","","","null","49","NaN","","","","","","","","","","","","","","",""
"","S2","","html-keyboard-response","323","365383","0.0-1.0-445.0","0","0","60555","","null","","","null","49","","NaN","","","","","","","","","","","","","",""
"","response","","html-keyboard-response","324","365617","0.0-1.0-446.0","0","0","60555","","228","","","75","49","","","2","49","training","adjacent","BA","2","1","P.jpg","O.jpg","1","0","0","",""
"","feedback","","html-keyboard-response","325","366625","0.0-1.0-447.0-0.0","0","0","60555","","null","","","null","49","","","","","","","","","","","","","","","",""
"","time_out","","html-keyboard-response","326","368633","0.0-1.0-449.0-0.0","0","0","60555","","null","","","null","49","","","","","","","","","","","","","","","",""
"","ITI","","html-keyboard-response","327","369639","0.0-1.0-450.0","0","0","60555","","null","","","null","49","","","","","","","","","","","","","","","NaN",""
"","S1","","html-keyboard-response","328","369898","0.0-1.0-452.0","0","0","60555","","null","","","null","50","","","","","","","","","","","","","","","",""
"","ISI","","html-keyboard-response","329","371904","0.0-1.0-453.0","0","0","60555","","null","","","null","50","NaN","","","","","","","","","","","","","","",""
"","S2","","html-keyboard-response","330","372161","0.0-1.0-454.0","0","0","60555","","null","","","null","50","","NaN","","","","","","","","","","","","","",""
"","response","","html-keyboard-response","331","372190","0.0-1.0-455.0","0","0","60555","","23","","","68","50","","","2","50","training","adjacent","BC","2","3","P.jpg","Q.jpg","0","1","0","",""
"","feedback","","html-keyboard-response","332","373199","0.0-1.0-456.0-0.0","0","0","60555","","null","","","null","50","","","","","","","","","","","","","","","",""
"","time_out","","html-keyboard-response","333","375206","0.0-1.0-458.0-0.0","0","0","60555","","null","","","null","50","","","","","","","","","","","","","","","",""
"","ITI","","html-keyboard-response","334","376213","0.0-1.0-459.0","0","0","60555","","null","","","null","50","","","","","","","","","","","","","","","NaN",""
"","S1","","html-keyboard-response","335","376471","0.0-1.0-461.0","0","0","60555","","null","","","null","51","","","","","","","","","","","","","","","",""
"","ISI","","html-keyboard-response","336","378478","0.0-1.0-462.0","0","0","60555","","null","","","null","51","NaN","","","","","","","","","","","","","","",""
"","S2","","html-keyboard-response","337","378735","0.0-1.0-463.0","0","0","60555","","null","","","null","51","","NaN","","","","","","","","","","","","","",""
"","response","","html-keyboard-response","338","378758","0.0-1.0-464.0","0","0","60555","","16","","","75","51","","","2","51","training","adjacent","BA","2","1","P.jpg","O.jpg","1","0","0","",""
"","feedback","","html-keyboard-response","339","379766","0.0-1.0-465.0-0.0","0","0","60555","","null","","","null","51","","","","","","","","","","","","","","","",""
"","time_out","","html-keyboard-response","340","381774","0.0-1.0-467.0-0.0","0","0","60555","","null","","","null","51","","","","","","","","","","","","","","","",""
"","ITI","","html-keyboard-response","341","382781","0.0-1.0-468.0","0","0","60555","","null","","","null","51","","","","","","","","","","","","","","","NaN",""
"","S1","","html-keyboard-response","342","383039","0.0-1.0-470.0","0","0","60555","","null","","","null","52","","","","","","","","","","","","","","","",""
"","ISI","","html-keyboard-response","343","385046","0.0-1.0-471.0","0","0","60555","","null","","","null","52","NaN","","","","","","","","","","","","","","",""
"","S2","","html-keyboard-response","344","385304","0.0-1.0-472.0","0","0","60555","","null","","","null","52","","NaN","","","","","","","","","","","","","",""
"","response","","html-keyboard-response","345","385311","0.0-1.0-473.0","0","0","60555","","0","","","75","52","","","2","52","training","adjacent","DE","4","5","R.jpg","N.jpg","1","1","1","",""
"","feedback","","html-keyboard-response","346","386318","0.0-1.0-474.0-0.0","0","0","60555","","null","","","null","52","","","","","","","","","","","","","","","",""
"","ITI","","html-keyboard-response","347","387326","0.0-1.0-477.0","0","0","60555","","null","","","null","52","","","","","","","","","","","","","","","NaN",""
"","S1","","html-keyboard-response","348","387584","0.0-1.0-479.0","0","0","60555","","null","","","null","53","","","","","","","","","","","","","","","",""
"","ISI","","html-keyboard-response","349","389591","0.0-1.0-480.0","0","0","60555","","null","","","null","53","NaN","","","","","","","","","","","","","","",""
"","S2","","html-keyboard-response","350","389850","0.0-1.0-481.0","0","0","60555","","null","","","null","53","","NaN","","","","","","","","","","","","","",""
"","response","","html-keyboard-response","351","389934","0.0-1.0-482.0","0","0","60555","","78","","","75","53","","","2","53","training","adjacent","ED","5","4","N.jpg","R.jpg","1","0","0","",""
"","feedback","","html-keyboard-response","352","390942","0.0-1.0-483.0-0.0","0","0","60555","","null","","","null","53","","","","","","","","","","","","","","","",""
"","time_out","","html-keyboard-response","353","392949","0.0-1.0-485.0-0.0","0","0","60555","","null","","","null","53","","","","","","","","","","","","","","","",""
"","ITI","","html-keyboard-response","354","393956","0.0-1.0-486.0","0","0","60555","","null","","","null","53","","","","","","","","","","","","","","","NaN",""
"","S1","","html-keyboard-response","355","394213","0.0-1.0-488.0","0","0","60555","","null","","","null","54","","","","","","","","","","","","","","","",""
"","ISI","","html-keyboard-response","356","396220","0.0-1.0-489.0","0","0","60555","","219","","","75","54","k","","","","","","","","","","","","","","",""
"","S2","","html-keyboard-response","357","396477","0.0-1.0-490.0","0","0","60555","","null","","","null","54","","NaN","","","","","","","","","","","","","",""
"","response","","html-keyboard-response","358","396573","0.0-1.0-491.0","0","0","60555","","89","","","75","54","","","2","54","training","adjacent","DE","4","5","R.jpg","N.jpg","1","1","1","",""
"","feedback","","html-keyboard-response","359","397583","0.0-1.0-492.0-0.0","0","0","60555","","null","","","null","54","","","","","","","","","","","","","","","",""
"","ITI","","html-keyboard-response","360","398591","0.0-1.0-495.0","0","0","60555","","null","","","null","54","","","","","","","","","","","","","","","NaN",""
"","S1","","html-keyboard-response","361","398849","0.0-1.0-497.0","0","0","60555","","null","","","null","55","","","","","","","","","","","","","","","",""
"","ISI","","html-keyboard-response","362","400855","0.0-1.0-498.0","0","0","60555","","null","","","null","55","NaN","","","","","","","","","","","","","","",""
"","S2","","html-keyboard-response","363","401113","0.0-1.0-499.0","0","0","60555","","null","","","null","55","","NaN","","","","","","","","","","","","","",""
"","response","","html-keyboard-response","364","401255","0.0-1.0-500.0","0","0","60555","","135","","","75","55","","","2","55","training","adjacent","BA","2","1","P.jpg","O.jpg","1","0","0","",""
"","feedback","","html-keyboard-response","365","402263","0.0-1.0-501.0-0.0","0","0","60555","","null","","","null","55","","","","","","","","","","","","","","","",""
"","time_out","","html-keyboard-response","366","404271","0.0-1.0-503.0-0.0","0","0","60555","","null","","","null","55","","","","","","","","","","","","","","","",""
"","ITI","","html-keyboard-response","367","405278","0.0-1.0-504.0","0","0","60555","","null","","","null","55","","","","","","","","","","","","","","","NaN",""
"","S1","","html-keyboard-response","368","405536","0.0-1.0-506.0","0","0","60555","","null","","","null","56","","","","","","","","","","","","","","","",""
"","ISI","","html-keyboard-response","369","407543","0.0-1.0-507.0","0","0","60555","","137","","","75","56","k","","","","","","","","","","","","","","",""
"","S2","","html-keyboard-response","370","407808","0.0-1.0-508.0","0","0","60555","","null","","","null","56","","NaN","","","","","","","","","","","","","",""
"","response","","html-keyboard-response","371","407982","0.0-1.0-509.0","0","0","60555","","167","","","75","56","","","2","56","training","adjacent","ED","5","4","N.jpg","R.jpg","1","0","0","",""
"","feedback","","html-keyboard-response","372","408989","0.0-1.0-510.0-0.0","0","0","60555","","null","","","null","56","","","","","","","","","","","","","","","",""
"","time_out","","html-keyboard-response","373","410997","0.0-1.0-512.0-0.0","0","0","60555","","null","","","null","56","","","","","","","","","","","","","","","",""
"","ITI","","html-keyboard-response","374","412005","0.0-1.0-513.0","0","0","60555","","null","","","null","56","","","","","","","","","","","","","","","NaN",""
"","S1","","html-keyboard-response","375","412263","0.0-1.0-515.0","0","0","60555","","null","","","null","57","","","","","","","","","","","","","","","",""
"","ISI","","html-keyboard-response","376","414270","0.0-1.0-516.0","0","0","60555","","null","","","null","57","NaN","","","","","","","","","","","","","","",""
"","S2","","html-keyboard-response","377","414528","0.0-1.0-517.0","0","0","60555","","null","","","null","57","","NaN","","","","","","","","","","","","","",""
"","response","","html-keyboard-response","378","414534","0.0-1.0-518.0","0","0","60555","","0","","","68","57","","","2","57","training","adjacent","EF","5","6","N.jpg","L.jpg","0","1","0","",""
"","feedback","","html-keyboard-response","379","415543","0.0-1.0-519.0-0.0","0","0","60555","","null","","","null","57","","","","","","","","","","","","","","","",""
"","time_out","","html-keyboard-response","380","417550","0.0-1.0-521.0-0.0","0","0","60555","","null","","","null","57","","","","","","","","","","","","","","","",""
"","ITI","","html-keyboard-response","381","418557","0.0-1.0-522.0","0","0","60555","","null","","","null","57","","","","","","","","","","","","","","","NaN",""
"","S1","","html-keyboard-response","382","418814","0.0-1.0-524.0","0","0","60555","","null","","","null","58","","","","","","","","","","","","","","","",""
"","ISI","","html-keyboard-response","383","420821","0.0-1.0-525.0","0","0","60555","","null","","","null","58","NaN","","","","","","","","","","","","","","",""
"","S2","","html-keyboard-response","384","421078","0.0-1.0-526.0","0","0","60555","","null","","","null","58","","NaN","","","","","","","","","","","","","",""
"","response","","html-keyboard-response","385","421219","0.0-1.0-527.0","0","0","60555","","135","","","75","58","","","2","58","training","adjacent","DC","4","3","R.jpg","Q.jpg","1","0","0","",""
"","feedback","","html-keyboard-response","386","422227","0.0-1.0-528.0-0.0","0","0","60555","","null","","","null","58","","","","","","","","","","","","","","","",""
"","time_out","","html-keyboard-response","387","424234","0.0-1.0-530.0-0.0","0","0","60555","","null","","","null","58","","","","","","","","","","","","","","","",""
"","ITI","","html-keyboard-response","388","425241","0.0-1.0-531.0","0","0","60555","","null","","","null","58","","","","","","","","","","","","","","","NaN",""
"","S1","","html-keyboard-response","389","425498","0.0-1.0-533.0","0","0","60555","","null","","","null","59","","","","","","","","","","","","","","","",""
"","ISI","","html-keyboard-response","390","427505","0.0-1.0-534.0","0","0","60555","","null","","","null","59","NaN","","","","","","","","","","","","","","",""
"","S2","","html-keyboard-response","391","427761","0.0-1.0-535.0","0","0","60555","","null","","","null","59","","NaN","","","","","","","","","","","","","",""
"","response","","html-keyboard-response","392","427802","0.0-1.0-536.0","0","0","60555","","34","","","75","59","","","2","59","training","adjacent","CB","3","2","Q.jpg","P.jpg","1","0","0","",""
"","feedback","","html-keyboard-response","393","428811","0.0-1.0-537.0-0.0","0","0","60555","","null","","","null","59","","","","","","","","","","","","","","","",""
"","time_out","","html-keyboard-response","394","430818","0.0-1.0-539.0-0.0","0","0","60555","","null","","","null","59","","","","","","","","","","","","","","","",""
"","ITI","","html-keyboard-response","395","431824","0.0-1.0-540.0","0","0","60555","","null","","","null","59","","","","","","","","","","","","","","","NaN",""
"","S1","","html-keyboard-response","396","432082","0.0-1.0-542.0","0","0","60555","","null","","","null","60","","","","","","","","","","","","","","","",""
"","ISI","","html-keyboard-response","397","434088","0.0-1.0-543.0","0","0","60555","","null","","","null","60","NaN","","","","","","","","","","","","","","",""
"","S2","","html-keyboard-response","398","434345","0.0-1.0-544.0","0","0","60555","","null","","","null","60","","NaN","","","","","","","","","","","","","",""
"","response","","html-keyboard-response","399","434363","0.0-1.0-545.0","0","0","60555","","13","","","75","60","","","2","60","training","adjacent","BC","2","3","P.jpg","Q.jpg","1","1","1","",""
"","feedback","","html-keyboard-response","400","435371","0.0-1.0-546.0-0.0","0","0","60555","","null","","","null","60","","","","","","","","","","","","","","","",""
"","ITI","","html-keyboard-response","401","436379","0.0-1.0-549.0","0","0","60555","","null","","","null","60","","","","","","","","","","","","","","","NaN",""
"","S1","","html-keyboard-response","402","436636","0.0-1.0-551.0","0","0","60555","","null","","","null","61","","","","","","","","","","","","","","","",""
"","ISI","","html-keyboard-response","403","438643","0.0-1.0-552.0","0","0","60555","","null","","","null","61","NaN","","","","","","","","","","","","","","",""
"","S2","","html-keyboard-response","404","438900","0.0-1.0-553.0","0","0","60555","","null","","","null","61","","NaN","","","","","","","","","","","","","",""
"","response","","html-keyboard-response","405","438955","0.0-1.0-554.0","0","0","60555","","49","","","75","61","","","2","61","training","adjacent","BC","2","3","P.jpg","Q.jpg","1","1","1","",""
"","feedback","","html-keyboard-response","406","439962","0.0-1.0-555.0-0.0","0","0","60555","","null","","","null","61","","","","","","","","","","","","","","","",""
"","ITI","","html-keyboard-response","407","440969","0.0-1.0-558.0","0","0","60555","","null","","","null","61","","","","","","","","","","","","","","","NaN",""
"","S1","","html-keyboard-response","408","441226","0.0-1.0-560.0","0","0","60555","","null","","","null","62","","","","","","","","","","","","","","","",""
"","ISI","","html-keyboard-response","409","443233","0.0-1.0-561.0","0","0","60555","","null","","","null","62","NaN","","","","","","","","","","","","","","",""
"","S2","","html-keyboard-response","410","443490","0.0-1.0-562.0","0","0","60555","","null","","","null","62","","NaN","","","","","","","","","","","","","",""
"","response","","html-keyboard-response","411","443496","0.0-1.0-563.0","0","0","60555","","0","","","75","62","","","2","62","training","adjacent","DE","4","5","R.jpg","N.jpg","1","1","1","",""
"","feedback","","html-keyboard-response","412","444504","0.0-1.0-564.0-0.0","0","0","60555","","null","","","null","62","","","","","","","","","","","","","","","",""
"","ITI","","html-keyboard-response","413","445511","0.0-1.0-567.0","0","0","60555","","null","","","null","62","","","","","","","","","","","","","","","NaN",""
"","S1","","html-keyboard-response","414","445768","0.0-1.0-569.0","0","0","60555","","null","","","null","63","","","","","","","","","","","","","","","",""
"","ISI","","html-keyboard-response","415","447776","0.0-1.0-570.0","0","0","60555","","null","","","null","63","NaN","","","","","","","","","","","","","","",""
"","S2","","html-keyboard-response","416","448033","0.0-1.0-571.0","0","0","60555","","250","","","75","63","","k","","","","","","","","","","","","","",""
"","response","","html-keyboard-response","417","448695","0.0-1.0-572.0","0","0","60555","","656","","","75","63","","","2","63","training","adjacent","GF","7","6","M.jpg","L.jpg","1","0","0","",""
"","feedback","","html-keyboard-response","418","449703","0.0-1.0-573.0-0.0","0","0","60555","","null","","","null","63","","","","","","","","","","","","","","","",""
"","time_out","","html-keyboard-response","419","451710","0.0-1.0-575.0-0.0","0","0","60555","","null","","","null","63","","","","","","","","","","","","","","","",""
"","ITI","","html-keyboard-response","420","452716","0.0-1.0-576.0","0","0","60555","","null","","","null","63","","","","","","","","","","","","","","","NaN",""
"","S1","","html-keyboard-response","421","452973","0.0-1.0-578.0","0","0","60555","","null","","","null","64","","","","","","","","","","","","","","","",""
"","ISI","","html-keyboard-response","422","454979","0.0-1.0-579.0","0","0","60555","","null","","","null","64","NaN","","","","","","","","","","","","","","",""
"","S2","","html-keyboard-response","423","455236","0.0-1.0-580.0","0","0","60555","","212","","","68","64","","d","","","","","","","","","","","","","",""
"","response","","html-keyboard-response","424","455773","0.0-1.0-581.0","0","0","60555","","530","","","68","64","","","2","64","training","adjacent","GF","7","6","M.jpg","L.jpg","0","0","1","",""
"","feedback","","html-keyboard-response","425","456781","0.0-1.0-582.0-0.0","0","0","60555","","null","","","null","64","","","","","","","","","","","","","","","",""
"","ITI","","html-keyboard-response","426","457788","0.0-1.0-585.0","0","0","60555","","null","","","null","64","","","","","","","","","","","","","","","NaN",""
"","S1","","html-keyboard-response","427","458046","0.0-1.0-587.0","0","0","60555","","null","","","null","65","","","","","","","","","","","","","","","",""
"","ISI","","html-keyboard-response","428","460052","0.0-1.0-588.0","0","0","60555","","null","","","null","65","NaN","","","","","","","","","","","","","","",""
"","S2","","html-keyboard-response","429","460309","0.0-1.0-589.0","0","0","60555","","236","","","68","65","","d","","","","","","","","","","","","","",""
"","response","","html-keyboard-response","430","460761","0.0-1.0-590.0","0","0","60555","","446","","","68","65","","","2","65","training","adjacent","CD","3","4","Q.jpg","R.jpg","0","1","0","",""
"","feedback","","html-keyboard-response","431","461769","0.0-1.0-591.0-0.0","0","0","60555","","null","","","null","65","","","","","","","","","","","","","","","",""
"","time_out","","html-keyboard-response","432","463776","0.0-1.0-593.0-0.0","0","0","60555","","null","","","null","65","","","","","","","","","","","","","","","",""
"","ITI","","html-keyboard-response","433","464782","0.0-1.0-594.0","0","0","60555","","null","","","null","65","","","","","","","","","","","","","","","NaN",""
"","S1","","html-keyboard-response","434","465040","0.0-1.0-596.0","0","0","60555","","null","","","null","66","","","","","","","","","","","","","","","",""
"","ISI","","html-keyboard-response","435","467046","0.0-1.0-597.0","0","0","60555","","null","","","null","66","NaN","","","","","","","","","","","","","","",""
"","S2","","html-keyboard-response","436","467304","0.0-1.0-598.0","0","0","60555","","null","","","null","66","","NaN","","","","","","","","","","","","","",""
"","response","","html-keyboard-response","437","467366","0.0-1.0-599.0","0","0","60555","","57","","","75","66","","","2","66","training","adjacent","CB","3","2","Q.jpg","P.jpg","1","0","0","",""
"","feedback","","html-keyboard-response","438","468375","0.0-1.0-600.0-0.0","0","0","60555","","null","","","null","66","","","","","","","","","","","","","","","",""
"","time_out","","html-keyboard-response","439","470382","0.0-1.0-602.0-0.0","0","0","60555","","null","","","null","66","","","","","","","","","","","","","","","",""
"","ITI","","html-keyboard-response","440","471390","0.0-1.0-603.0","0","0","60555","","null","","","null","66","","","","","","","","","","","","","","","NaN",""
"","S1","","html-keyboard-response","441","471648","0.0-1.0-605.0","0","0","60555","","null","","","null","67","","","","","","","","","","","","","","","",""
"","ISI","","html-keyboard-response","442","473655","0.0-1.0-606.0","0","0","60555","","null","","","null","67","NaN","","","","","","","","","","","","","","",""
"","S2","","html-keyboard-response","443","473913","0.0-1.0-607.0","0","0","60555","","null","","","null","67","","NaN","","","","","","","","","","","","","",""
"","response","","html-keyboard-response","444","474093","0.0-1.0-608.0","0","0","60555","","173","","","75","67","","","2","67","training","adjacent","BA","2","1","P.jpg","O.jpg","1","0","0","",""
"","feedback","","html-keyboard-response","445","475101","0.0-1.0-609.0-0.0","0","0","60555","","null","","","null","67","","","","","","","","","","","","","","","",""
"","time_out","","html-keyboard-response","446","477108","0.0-1.0-611.0-0.0","0","0","60555","","null","","","null","67","","","","","","","","","","","","","","","",""
"","ITI","","html-keyboard-response","447","478114","0.0-1.0-612.0","0","0","60555","","null","","","null","67","","","","","","","","","","","","","","","NaN",""
"","S1","","html-keyboard-response","448","478373","0.0-1.0-614.0","0","0","60555","","null","","","null","68","","","","","","","","","","","","","","","",""
"","ISI","","html-keyboard-response","449","480380","0.0-1.0-615.0","0","0","60555","","null","","","null","68","NaN","","","","","","","","","","","","","","",""
"","S2","","html-keyboard-response","450","480640","0.0-1.0-616.0","0","0","60555","","null","","","null","68","","NaN","","","","","","","","","","","","","",""
"","response","","html-keyboard-response","451","480675","0.0-1.0-617.0","0","0","60555","","29","","","68","68","","","2","68","training","adjacent","EF","5","6","N.jpg","L.jpg","0","1","0","",""
"","feedback","","html-keyboard-response","452","481682","0.0-1.0-618.0-0.0","0","0","60555","","null","","","null","68","","","","","","","","","","","","","","","",""
"","time_out","","html-keyboard-response","453","483689","0.0-1.0-620.0-0.0","0","0","60555","","null","","","null","68","","","","","","","","","","","","","","","",""
"","ITI","","html-keyboard-response","454","484696","0.0-1.0-621.0","0","0","60555","","null","","","null","68","","","","","","","","","","","","","","","NaN",""
"","S1","","html-keyboard-response","455","484958","0.0-1.0-623.0","0","0","60555","","null","","","null","69","","","","","","","","","","","","","","","",""
"","ISI","","html-keyboard-response","456","486964","0.0-1.0-624.0","0","0","60555","","null","","","null","69","NaN","","","","","","","","","","","","","","",""
"","S2","","html-keyboard-response","457","487222","0.0-1.0-625.0","0","0","60555","","null","","","null","69","","NaN","","","","","","","","","","","","","",""
"","response","","html-keyboard-response","458","487242","0.0-1.0-626.0","0","0","60555","","15","","","75","69","","","2","69","training","adjacent","EF","5","6","N.jpg","L.jpg","1","1","1","",""
"","feedback","","html-keyboard-response","459","488251","0.0-1.0-627.0-0.0","0","0","60555","","null","","","null","69","","","","","","","","","","","","","","","",""
"","ITI","","html-keyboard-response","460","489258","0.0-1.0-630.0","0","0","60555","","null","","","null","69","","","","","","","","","","","","","","","NaN",""
"","S1","","html-keyboard-response","461","489516","0.0-1.0-632.0","0","0","60555","","null","","","null","70","","","","","","","","","","","","","","","",""
"","ISI","","html-keyboard-response","462","491523","0.0-1.0-633.0","0","0","60555","","null","","","null","70","NaN","","","","","","","","","","","","","","",""
"","S2","","html-keyboard-response","463","491780","0.0-1.0-634.0","0","0","60555","","null","","","null","70","","NaN","","","","","","","","","","","","","",""
"","response","","html-keyboard-response","464","491844","0.0-1.0-635.0","0","0","60555","","58","","","75","70","","","2","70","training","adjacent","DC","4","3","R.jpg","Q.jpg","1","0","0","",""
"","feedback","","html-keyboard-response","465","492851","0.0-1.0-636.0-0.0","0","0","60555","","null","","","null","70","","","","","","","","","","","","","","","",""
"","time_out","","html-keyboard-response","466","494857","0.0-1.0-638.0-0.0","0","0","60555","","null","","","null","70","","","","","","","","","","","","","","","",""
"","ITI","","html-keyboard-response","467","495864","0.0-1.0-639.0","0","0","60555","","null","","","null","70","","","","","","","","","","","","","","","NaN",""
"","S1","","html-keyboard-response","468","496122","0.0-1.0-641.0","0","0","60555","","null","","","null","71","","","","","","","","","","","","","","","",""
"","ISI","","html-keyboard-response","469","498128","0.0-1.0-642.0","0","0","60555","","280","","","68","71","d","","","","","","","","","","","","","","",""
"","S2","","html-keyboard-response","470","498385","0.0-1.0-643.0","0","0","60555","","null","","","null","71","","NaN","","","","","","","","","","","","","",""
"","response","","html-keyboard-response","471","498522","0.0-1.0-644.0","0","0","60555","","130","","","68","71","","","2","71","training","adjacent","AB","1","2","O.jpg","P.jpg","0","1","0","",""
"","feedback","","html-keyboard-response","472","499530","0.0-1.0-645.0-0.0","0","0","60555","","null","","","null","71","","","","","","","","","","","","","","","",""
"","time_out","","html-keyboard-response","473","501537","0.0-1.0-647.0-0.0","0","0","60555","","null","","","null","71","","","","","","","","","","","","","","","",""
"","ITI","","html-keyboard-response","474","502544","0.0-1.0-648.0","0","0","60555","","null","","","null","71","","","","","","","","","","","","","","","NaN",""
"","S1","","html-keyboard-response","475","502801","0.0-1.0-650.0","0","0","60555","","null","","","null","72","","","","","","","","","","","","","","","",""
"","ISI","","html-keyboard-response","476","504808","0.0-1.0-651.0","0","0","60555","","null","","","null","72","NaN","","","","","","","","","","","","","","",""
"","S2","","html-keyboard-response","477","505065","0.0-1.0-652.0","0","0","60555","","null","","","null","72","","NaN","","","","","","","","","","","","","",""
"","response","","html-keyboard-response","478","505253","0.0-1.0-653.0","0","0","60555","","181","","","75","72","","","2","72","training","adjacent","FG","6","7","L.jpg","M.jpg","1","1","1","",""
"","feedback","","html-keyboard-response","479","506261","0.0-1.0-654.0-0.0","0","0","60555","","null","","","null","72","","","","","","","","","","","","","","","",""
"","ITI","","html-keyboard-response","480","507268","0.0-1.0-657.0","0","0","60555","","null","","","null","72","","","","","","","","","","","","","","","NaN",""
"","S1","","html-keyboard-response","481","507525","0.0-1.0-659.0","0","0","60555","","null","","","null","73","","","","","","","","","","","","","","","",""
"","ISI","","html-keyboard-response","482","509533","0.0-1.0-660.0","0","0","60555","","null","","","null","73","NaN","","","","","","","","","","","","","","",""
"","S2","","html-keyboard-response","483","509789","0.0-1.0-661.0","0","0","60555","","null","","","null","73","","NaN","","","","","","","","","","","","","",""
"","response","","html-keyboard-response","484","509931","0.0-1.0-662.0","0","0","60555","","135","","","75","73","","","2","73","training","adjacent","DE","4","5","R.jpg","N.jpg","1","1","1","",""
"","feedback","","html-keyboard-response","485","510938","0.0-1.0-663.0-0.0","0","0","60555","","null","","","null","73","","","","","","","","","","","","","","","",""
"","ITI","","html-keyboard-response","486","511945","0.0-1.0-666.0","0","0","60555","","null","","","null","73","","","","","","","","","","","","","","","NaN",""
"","S1","","html-keyboard-response","487","512203","0.0-1.0-668.0","0","0","60555","","null","","","null","74","","","","","","","","","","","","","","","",""
"","ISI","","html-keyboard-response","488","514210","0.0-1.0-669.0","0","0","60555","","null","","","null","74","NaN","","","","","","","","","","","","","","",""
"","S2","","html-keyboard-response","489","514466","0.0-1.0-670.0","0","0","60555","","null","","","null","74","","NaN","","","","","","","","","","","","","",""
"","response","","html-keyboard-response","490","514519","0.0-1.0-671.0","0","0","60555","","47","","","68","74","","","2","74","training","adjacent","GF","7","6","M.jpg","L.jpg","0","0","1","",""
"","feedback","","html-keyboard-response","491","515527","0.0-1.0-672.0-0.0","0","0","60555","","null","","","null","74","","","","","","","","","","","","","","","",""
"","ITI","","html-keyboard-response","492","516535","0.0-1.0-675.0","0","0","60555","","null","","","null","74","","","","","","","","","","","","","","","NaN",""
"","S1","","html-keyboard-response","493","516793","0.0-1.0-677.0","0","0","60555","","null","","","null","75","","","","","","","","","","","","","","","",""
"","ISI","","html-keyboard-response","494","518800","0.0-1.0-678.0","0","0","60555","","null","","","null","75","NaN","","","","","","","","","","","","","","",""
"","S2","","html-keyboard-response","495","519057","0.0-1.0-679.0","0","0","60555","","null","","","null","75","","NaN","","","","","","","","","","","","","",""
"","response","","html-keyboard-response","496","519070","0.0-1.0-680.0","0","0","60555","","6","","","75","75","","","2","75","training","adjacent","EF","5","6","N.jpg","L.jpg","1","1","1","",""
"","feedback","","html-keyboard-response","497","520077","0.0-1.0-681.0-0.0","0","0","60555","","null","","","null","75","","","","","","","","","","","","","","","",""
"","ITI","","html-keyboard-response","498","521084","0.0-1.0-684.0","0","0","60555","","null","","","null","75","","","","","","","","","","","","","","","NaN",""
"","S1","","html-keyboard-response","499","521343","0.0-1.0-686.0","0","0","60555","","null","","","null","76","","","","","","","","","","","","","","","",""
"","ISI","","html-keyboard-response","500","523348","0.0-1.0-687.0","0","0","60555","","null","","","null","76","NaN","","","","","","","","","","","","","","",""
"","S2","","html-keyboard-response","501","523604","0.0-1.0-688.0","0","0","60555","","null","","","null","76","","NaN","","","","","","","","","","","","","",""
"","response","","html-keyboard-response","502","523619","0.0-1.0-689.0","0","0","60555","","8","","","75","76","","","2","76","training","adjacent","FG","6","7","L.jpg","M.jpg","1","1","1","",""
"","feedback","","html-keyboard-response","503","524626","0.0-1.0-690.0-0.0","0","0","60555","","null","","","null","76","","","","","","","","","","","","","","","",""
"","ITI","","html-keyboard-response","504","525634","0.0-1.0-693.0","0","0","60555","","null","","","null","76","","","","","","","","","","","","","","","NaN",""
"","S1","","html-keyboard-response","505","525892","0.0-1.0-695.0","0","0","60555","","null","","","null","77","","","","","","","","","","","","","","","",""
"","ISI","","html-keyboard-response","506","527899","0.0-1.0-696.0","0","0","60555","","null","","","null","77","NaN","","","","","","","","","","","","","","",""
"","S2","","html-keyboard-response","507","528156","0.0-1.0-697.0","0","0","60555","","null","","","null","77","","NaN","","","","","","","","","","","","","",""
"","response","","html-keyboard-response","508","528163","0.0-1.0-698.0","0","0","60555","","1","","","68","77","","","2","77","training","adjacent","FE","6","5","L.jpg","N.jpg","0","0","1","",""
"","feedback","","html-keyboard-response","509","529170","0.0-1.0-699.0-0.0","0","0","60555","","null","","","null","77","","","","","","","","","","","","","","","",""
"","ITI","","html-keyboard-response","510","530178","0.0-1.0-702.0","0","0","60555","","null","","","null","77","","","","","","","","","","","","","","","NaN",""
"","S1","","html-keyboard-response","511","530435","0.0-1.0-704.0","0","0","60555","","null","","","null","78","","","","","","","","","","","","","","","",""
"","ISI","","html-keyboard-response","512","532441","0.0-1.0-705.0","0","0","60555","","null","","","null","78","NaN","","","","","","","","","","","","","","",""
"","S2","","html-keyboard-response","513","532699","0.0-1.0-706.0","0","0","60555","","null","","","null","78","","NaN","","","","","","","","","","","","","",""
"","response","","html-keyboard-response","514","532768","0.0-1.0-707.0","0","0","60555","","64","","","75","78","","","2","78","training","adjacent","ED","5","4","N.jpg","R.jpg","1","0","0","",""
"","feedback","","html-keyboard-response","515","533776","0.0-1.0-708.0-0.0","0","0","60555","","null","","","null","78","","","","","","","","","","","","","","","",""
"","time_out","","html-keyboard-response","516","535784","0.0-1.0-710.0-0.0","0","0","60555","","null","","","null","78","","","","","","","","","","","","","","","",""
"","ITI","","html-keyboard-response","517","536790","0.0-1.0-711.0","0","0","60555","","null","","","null","78","","","","","","","","","","","","","","","NaN",""
"","S1","","html-keyboard-response","518","537047","0.0-1.0-713.0","0","0","60555","","null","","","null","79","","","","","","","","","","","","","","","",""
"","ISI","","html-keyboard-response","519","539054","0.0-1.0-714.0","0","0","60555","","null","","","null","79","NaN","","","","","","","","","","","","","","",""
"","S2","","html-keyboard-response","520","539312","0.0-1.0-715.0","0","0","60555","","null","","","null","79","","NaN","","","","","","","","","","","","","",""
"","response","","html-keyboard-response","521","539897","0.0-1.0-716.0","0","0","60555","","579","","","68","79","","","2","79","training","adjacent","FG","6","7","L.jpg","M.jpg","0","1","0","",""
"","feedback","","html-keyboard-response","522","540905","0.0-1.0-717.0-0.0","0","0","60555","","null","","","null","79","","","","","","","","","","","","","","","",""
"","time_out","","html-keyboard-response","523","542912","0.0-1.0-719.0-0.0","0","0","60555","","null","","","null","79","","","","","","","","","","","","","","","",""
"","ITI","","html-keyboard-response","524","543919","0.0-1.0-720.0","0","0","60555","","null","","","null","79","","","","","","","","","","","","","","","NaN",""
"","S1","","html-keyboard-response","525","544176","0.0-1.0-722.0","0","0","60555","","null","","","null","80","","","","","","","","","","","","","","","",""
"","ISI","","html-keyboard-response","526","546183","0.0-1.0-723.0","0","0","60555","","null","","","null","80","NaN","","","","","","","","","","","","","","",""
"","S2","","html-keyboard-response","527","546441","0.0-1.0-724.0","0","0","60555","","null","","","null","80","","NaN","","","","","","","","","","","","","",""
"","response","","html-keyboard-response","528","546538","0.0-1.0-725.0","0","0","60555","","90","","","75","80","","","2","80","training","adjacent","CD","3","4","Q.jpg","R.jpg","1","1","1","",""
"","feedback","","html-keyboard-response","529","547546","0.0-1.0-726.0-0.0","0","0","60555","","null","","","null","80","","","","","","","","","","","","","","","",""
"","ITI","","html-keyboard-response","530","548554","0.0-1.0-729.0","0","0","60555","","null","","","null","80","","","","","","","","","","","","","","","NaN",""
"","S1","","html-keyboard-response","531","548812","0.0-1.0-731.0","0","0","60555","","null","","","null","81","","","","","","","","","","","","","","","",""
"","ISI","","html-keyboard-response","532","550818","0.0-1.0-732.0","0","0","60555","","null","","","null","81","NaN","","","","","","","","","","","","","","",""
"","S2","","html-keyboard-response","533","551075","0.0-1.0-733.0","0","0","60555","","null","","","null","81","","NaN","","","","","","","","","","","","","",""
"","response","","html-keyboard-response","534","551206","0.0-1.0-734.0","0","0","60555","","125","","","75","81","","","2","81","training","adjacent","DC","4","3","R.jpg","Q.jpg","1","0","0","",""
"","feedback","","html-keyboard-response","535","552213","0.0-1.0-735.0-0.0","0","0","60555","","null","","","null","81","","","","","","","","","","","","","","","",""
"","time_out","","html-keyboard-response","536","554221","0.0-1.0-737.0-0.0","0","0","60555","","null","","","null","81","","","","","","","","","","","","","","","",""
"","ITI","","html-keyboard-response","537","555227","0.0-1.0-738.0","0","0","60555","","null","","","null","81","","","","","","","","","","","","","","","NaN",""
"","S1","","html-keyboard-response","538","555486","0.0-1.0-740.0","0","0","60555","","null","","","null","82","","","","","","","","","","","","","","","",""
"","ISI","","html-keyboard-response","539","557493","0.0-1.0-741.0","0","0","60555","","394","","","68","82","d","","","","","","","","","","","","","","",""
"","S2","","html-keyboard-response","540","557751","0.0-1.0-742.0","0","0","60555","","null","","","null","82","","NaN","","","","","","","","","","","","","",""
"","response","","html-keyboard-response","541","558184","0.0-1.0-743.0","0","0","60555","","426","","","68","82","","","2","82","training","adjacent","GF","7","6","M.jpg","L.jpg","0","0","1","",""
"","feedback","","html-keyboard-response","542","559192","0.0-1.0-744.0-0.0","0","0","60555","","null","","","null","82","","","","","","","","","","","","","","","",""
"","ITI","","html-keyboard-response","543","560199","0.0-1.0-747.0","0","0","60555","","null","","","null","82","","","","","","","","","","","","","","","NaN",""
"","S1","","html-keyboard-response","544","560456","0.0-1.0-749.0","0","0","60555","","null","","","null","83","","","","","","","","","","","","","","","",""
"","ISI","","html-keyboard-response","545","562463","0.0-1.0-750.0","0","0","60555","","null","","","null","83","NaN","","","","","","","","","","","","","","",""
"","S2","","html-keyboard-response","546","562720","0.0-1.0-751.0","0","0","60555","","null","","","null","83","","NaN","","","","","","","","","","","","","",""
"","response","","html-keyboard-response","547","562858","0.0-1.0-752.0","0","0","60555","","131","","","75","83","","","2","83","training","adjacent","ED","5","4","N.jpg","R.jpg","1","0","0","",""
"","feedback","","html-keyboard-response","548","563866","0.0-1.0-753.0-0.0","0","0","60555","","null","","","null","83","","","","","","","","","","","","","","","",""
"","time_out","","html-keyboard-response","549","565873","0.0-1.0-755.0-0.0","0","0","60555","","null","","","null","83","","","","","","","","","","","","","","","",""
"","ITI","","html-keyboard-response","550","566879","0.0-1.0-756.0","0","0","60555","","null","","","null","83","","","","","","","","","","","","","","","NaN",""
"","S1","","html-keyboard-response","551","567137","0.0-1.0-758.0","0","0","60555","","null","","","null","84","","","","","","","","","","","","","","","",""
"","ISI","","html-keyboard-response","552","569144","0.0-1.0-759.0","0","0","60555","","312","","","68","84","d","","","","","","","","","","","","","","",""
"","S2","","html-keyboard-response","553","569403","0.0-1.0-760.0","0","0","60555","","null","","","null","84","","NaN","","","","","","","","","","","","","",""
"","response","","html-keyboard-response","554","569521","0.0-1.0-761.0","0","0","60555","","111","","","68","84","","","2","84","training","adjacent","AB","1","2","O.jpg","P.jpg","0","1","0","",""
"","feedback","","html-keyboard-response","555","570529","0.0-1.0-762.0-0.0","0","0","60555","","null","","","null","84","","","","","","","","","","","","","","","",""
"","time_out","","html-keyboard-response","556","572537","0.0-1.0-764.0-0.0","0","0","60555","","null","","","null","84","","","","","","","","","","","","","","","",""
"","ITI","","html-keyboard-response","557","573543","0.0-1.0-765.0","0","0","60555","","null","","","null","84","","","","","","","","","","","","","","","NaN",""
"","S1","","html-keyboard-response","558","573801","0.0-1.0-767.0","0","0","60555","","null","","","null","85","","","","","","","","","","","","","","","",""
"","ISI","","html-keyboard-response","559","575807","0.0-1.0-768.0","0","0","60555","","null","","","null","85","NaN","","","","","","","","","","","","","","",""
"","S2","","html-keyboard-response","560","576062","0.0-1.0-769.0","0","0","60555","","null","","","null","85","","NaN","","","","","","","","","","","","","",""
"","response","","html-keyboard-response","561","576973","0.0-1.0-770.0","0","0","60555","","907","","","75","85","","","2","85","training","adjacent","CB","3","2","Q.jpg","P.jpg","1","0","0","",""
"","feedback","","html-keyboard-response","562","577981","0.0-1.0-771.0-0.0","0","0","60555","","null","","","null","85","","","","","","","","","","","","","","","",""
"","time_out","","html-keyboard-response","563","580001","0.0-1.0-773.0-0.0","0","0","60555","","null","","","null","85","","","","","","","","","","","","","","","",""
"","ITI","","html-keyboard-response","564","581009","0.0-1.0-774.0","0","0","60555","","null","","","null","85","","","","","","","","","","","","","","","NaN",""
"","S1","","html-keyboard-response","565","581267","0.0-1.0-776.0","0","0","60555","","null","","","null","86","","","","","","","","","","","","","","","",""
"","ISI","","html-keyboard-response","566","583272","0.0-1.0-777.0","0","0","60555","","null","","","null","86","NaN","","","","","","","","","","","","","","",""
"","S2","","html-keyboard-response","567","583527","0.0-1.0-778.0","0","0","60555","","null","","","null","86","","NaN","","","","","","","","","","","","","",""
"","response","","html-keyboard-response","568","583700","0.0-1.0-779.0","0","0","60555","","168","","","68","86","","","2","86","training","adjacent","CB","3","2","Q.jpg","P.jpg","0","0","1","",""
"","feedback","","html-keyboard-response","569","584706","0.0-1.0-780.0-0.0","0","0","60555","","null","","","null","86","","","","","","","","","","","","","","","",""
"","ITI","","html-keyboard-response","570","585715","0.0-1.0-783.0","0","0","60555","","null","","","null","86","","","","","","","","","","","","","","","NaN",""
"","S1","","html-keyboard-response","571","585972","0.0-1.0-785.0","0","0","60555","","null","","","null","87","","","","","","","","","","","","","","","",""
"","ISI","","html-keyboard-response","572","587979","0.0-1.0-786.0","0","0","60555","","null","","","null","87","NaN","","","","","","","","","","","","","","",""
"","S2","","html-keyboard-response","573","588236","0.0-1.0-787.0","0","0","60555","","null","","","null","87","","NaN","","","","","","","","","","","","","",""
"","response","","html-keyboard-response","574","589241","0.0-1.0-788.0","0","0","60555","","1000","","","75","87","","","2","87","training","adjacent","FE","6","5","L.jpg","N.jpg","1","0","0","",""
"","feedback","","html-keyboard-response","575","590248","0.0-1.0-789.0-0.0","0","0","60555","","null","","","null","87","","","","","","","","","","","","","","","",""
"","time_out","","html-keyboard-response","576","592254","0.0-1.0-791.0-0.0","0","0","60555","","null","","","null","87","","","","","","","","","","","","","","","",""
"","ITI","","html-keyboard-response","577","593259","0.0-1.0-792.0","0","0","60555","","null","","","null","87","","","","","","","","","","","","","","","NaN",""
"","S1","","html-keyboard-response","578","593515","0.0-1.0-794.0","0","0","60555","","null","","","null","88","","","","","","","","","","","","","","","",""
"","ISI","","html-keyboard-response","579","595521","0.0-1.0-795.0","0","0","60555","","null","","","null","88","NaN","","","","","","","","","","","","","","",""
"","S2","","html-keyboard-response","580","595778","0.0-1.0-796.0","0","0","60555","","null","","","null","88","","NaN","","","","","","","","","","","","","",""
"","response","","html-keyboard-response","581","596413","0.0-1.0-797.0","0","0","60555","","629","","","68","88","","","2","88","training","adjacent","FG","6","7","L.jpg","M.jpg","0","1","0","",""
"","feedback","","html-keyboard-response","582","597422","0.0-1.0-798.0-0.0","0","0","60555","","null","","","null","88","","","","","","","","","","","","","","","",""
"","time_out","","html-keyboard-response","583","599429","0.0-1.0-800.0-0.0","0","0","60555","","null","","","null","88","","","","","","","","","","","","","","","",""
"","ITI","","html-keyboard-response","584","600436","0.0-1.0-801.0","0","0","60555","","null","","","null","88","","","","","","","","","","","","","","","NaN",""
"","S1","","html-keyboard-response","585","600694","0.0-1.0-803.0","0","0","60555","","null","","","null","89","","","","","","","","","","","","","","","",""
