"success","ttype","start_time","trial_type","trial_index","time_elapsed","internal_node_id","warning","missed_checkup","PID","view_history","rt","responses","repeat_instructions","key_press","index","keypress_isi","keypress_S2","block","trial_num","phase","group_type","pair_type","S1_stim","S2_stim","S1_img","S2_img","S1_chosen","S1_higher","accuracy","keypress_iti","total_bonus_tally"
"true","full_screen","d03082023hr1447","fullscreen","0","18841","0.0-0.0","0","0","42508","","","","","","","","","","","","","","","","","","","","","",""
"","instructions","","instructions","1","109408","0.0-1.0-0.0-0.0","0","0","42508","[{""page_index"":0,""viewing_time"":11428},{""page_index"":1,""viewing_time"":56656},{""page_index"":2,""viewing_time"":18792},{""page_index"":3,""viewing_time"":3688}]","90565","","","","","","","","","","","","","","","","","","","",""
"","comprehension_check","","survey-multi-choice","2","150632","0.0-1.0-0.0-1.0","0","0","42508","","41220","{""Q0"":""True"",""Q1"":""D"",""Q2"":""Only when the screen 'MAKE A CHOICE' is shown"",""Q3"":""Green mark"",""Q4"":""either D or K""}","1","","","","","","","","","","","","","","","","","",""
"","missed_instruction_checkup","","html-keyboard-response","3","154248","0.0-1.0-0.0-2.0-0.0","0","1","42508","","3614","","","32","","","","","","","","","","","","","","","","",""
"","instructions","","instructions","4","195991","0.0-1.0-0.1-0.1","0","0","42508","[{""page_index"":0,""viewing_time"":7502},{""page_index"":1,""viewing_time"":22712},{""page_index"":2,""viewing_time"":8936},{""page_index"":3,""viewing_time"":2592}]","41742","","","","","","","","","","","","","","","","","","","",""
"","comprehension_check","","survey-multi-choice","5","218743","0.0-1.0-0.1-1.1","0","0","42508","","22749","{""Q0"":""True"",""Q1"":""D"",""Q2"":""Once the second image appears and while the screen 'MAKE A CHOICE' is shown"",""Q3"":""Green mark"",""Q4"":""either D or K""}","0","","","","","","","","","","","","","","","","","",""
"","start_exp","","html-keyboard-response","6","221944","0.0-1.0-1.0","0","0","42508","","3198","","","32","","","","","","","","","","","","","","","","",""
"","S1","","html-keyboard-response","7","222198","0.0-1.0-2.0","0","0","42508","","null","","","null","0","","","","","","","","","","","","","","","",""
"","ISI","","html-keyboard-response","8","222351","0.0-1.0-3.0","0","0","42508","","null","","","null","0","NaN","","","","","","","","","","","","","","",""
"","S2","","html-keyboard-response","9","222604","0.0-1.0-4.0","0","0","42508","","null","","","null","0","","NaN","","","","","","","","","","","","","",""
"","response","","html-keyboard-response","10","224357","0.0-1.0-5.0-0.0","0","0","42508","","null","","","null","0","","","1","0","training","adjacent","CD","3","4","M.jpg","P.jpg","NaN","1","0","",""
"","too_slow_prompt","","html-keyboard-response","11","225359","0.0-1.0-7.0-0.0","1","0","42508","","null","","","null","","","","","","","","","","","","","","","","",""
"","time_out","","html-keyboard-response","12","227363","0.0-1.0-8.0-0.0","0","0","42508","","null","","","null","0","","","","","","","","","","","","","","","",""
"","ITI","","html-keyboard-response","13","228366","0.0-1.0-9.0","0","0","42508","","null","","","null","0","","","","","","","","","","","","","","","NaN",""
"","S1","","html-keyboard-response","14","228620","0.0-1.0-11.0","0","0","42508","","null","","","null","1","","","","","","","","","","","","","","","",""
"","ISI","","html-keyboard-response","15","228773","0.0-1.0-12.0","0","0","42508","","null","","","null","1","NaN","","","","","","","","","","","","","","",""
"","S2","","html-keyboard-response","16","229026","0.0-1.0-13.0","0","0","42508","","null","","","null","1","","NaN","","","","","","","","","","","","","",""
"","response","","html-keyboard-response","17","230440","0.0-1.0-14.0-0.0","0","0","42508","","1413","","","75","1","","","1","1","training","adjacent","DE","4","5","P.jpg","O.jpg","0","1","0","",""
"","feedback","","html-keyboard-response","18","231443","0.0-1.0-15.0-0.0","0","0","42508","","null","","","null","1","","","","","","","","","","","","","","","",""
"","time_out","","html-keyboard-response","19","233446","0.0-1.0-17.0-0.0","0","0","42508","","null","","","null","1","","","","","","","","","","","","","","","",""
"","ITI","","html-keyboard-response","20","234449","0.0-1.0-18.0","0","0","42508","","null","","","null","1","","","","","","","","","","","","","","","NaN",""
"","S1","","html-keyboard-response","21","234701","0.0-1.0-20.0","0","0","42508","","null","","","null","2","","","","","","","","","","","","","","","",""
"","ISI","","html-keyboard-response","22","234854","0.0-1.0-21.0","0","0","42508","","null","","","null","2","NaN","","","","","","","","","","","","","","",""
"","S2","","html-keyboard-response","23","235112","0.0-1.0-22.0","0","0","42508","","null","","","null","2","","NaN","","","","","","","","","","","","","",""
"","response","","html-keyboard-response","24","236600","0.0-1.0-23.0-0.0","0","0","42508","","1486","","","68","2","","","1","2","training","adjacent","DC","4","3","P.jpg","M.jpg","1","0","0","",""
"","feedback","","html-keyboard-response","25","237603","0.0-1.0-24.0-0.0","0","0","42508","","null","","","null","2","","","","","","","","","","","","","","","",""
"","time_out","","html-keyboard-response","26","239606","0.0-1.0-26.0-0.0","0","0","42508","","null","","","null","2","","","","","","","","","","","","","","","",""
"","ITI","","html-keyboard-response","27","240609","0.0-1.0-27.0","0","0","42508","","null","","","null","2","","","","","","","","","","","","","","","NaN",""
"","S1","","html-keyboard-response","28","240862","0.0-1.0-29.0","0","0","42508","","null","","","null","3","","","","","","","","","","","","","","","",""
"","ISI","","html-keyboard-response","29","241014","0.0-1.0-30.0","0","0","42508","","null","","","null","3","NaN","","","","","","","","","","","","","","",""
"","S2","","html-keyboard-response","30","241268","0.0-1.0-31.0","0","0","42508","","null","","","null","3","","NaN","","","","","","","","","","","","","",""
"","response","","html-keyboard-response","31","242368","0.0-1.0-32.0-0.0","0","0","42508","","1098","","","75","3","","","1","3","training","adjacent","FG","6","7","Q.jpg","N.jpg","0","1","0","",""
"","feedback","","html-keyboard-response","32","243371","0.0-1.0-33.0-0.0","0","0","42508","","null","","","null","3","","","","","","","","","","","","","","","",""
"","time_out","","html-keyboard-response","33","245374","0.0-1.0-35.0-0.0","0","0","42508","","null","","","null","3","","","","","","","","","","","","","","","",""
"","ITI","","html-keyboard-response","34","246376","0.0-1.0-36.0","0","0","42508","","null","","","null","3","","","","","","","","","","","","","","","NaN",""
"","S1","","html-keyboard-response","35","246630","0.0-1.0-38.0","0","0","42508","","null","","","null","4","","","","","","","","","","","","","","","",""
"","ISI","","html-keyboard-response","36","246783","0.0-1.0-39.0","0","0","42508","","null","","","null","4","NaN","","","","","","","","","","","","","","",""
"","S2","","html-keyboard-response","37","247036","0.0-1.0-40.0","0","0","42508","","null","","","null","4","","NaN","","","","","","","","","","","","","",""
"","response","","html-keyboard-response","38","248168","0.0-1.0-41.0-0.0","0","0","42508","","1130","","","68","4","","","1","4","training","adjacent","BC","2","3","R.jpg","M.jpg","1","1","1","",""
"","feedback","","html-keyboard-response","39","249171","0.0-1.0-42.0-0.0","0","0","42508","","null","","","null","4","","","","","","","","","","","","","","","",""
"","ITI","","html-keyboard-response","40","250174","0.0-1.0-45.0","0","0","42508","","null","","","null","4","","","","","","","","","","","","","","","NaN",""
"","S1","","html-keyboard-response","41","250428","0.0-1.0-47.0","0","0","42508","","null","","","null","5","","","","","","","","","","","","","","","",""
"","ISI","","html-keyboard-response","42","250581","0.0-1.0-48.0","0","0","42508","","null","","","null","5","NaN","","","","","","","","","","","","","","",""
"","S2","","html-keyboard-response","43","250834","0.0-1.0-49.0","0","0","42508","","null","","","null","5","","NaN","","","","","","","","","","","","","",""
"","response","","html-keyboard-response","44","251416","0.0-1.0-50.0-0.0","0","0","42508","","580","","","68","5","","","1","5","training","adjacent","CB","3","2","M.jpg","R.jpg","1","0","0","",""
"","feedback","","html-keyboard-response","45","252419","0.0-1.0-51.0-0.0","0","0","42508","","null","","","null","5","","","","","","","","","","","","","","","",""
"","time_out","","html-keyboard-response","46","254421","0.0-1.0-53.0-0.0","0","0","42508","","null","","","null","5","","","","","","","","","","","","","","","",""
"","ITI","","html-keyboard-response","47","255424","0.0-1.0-54.0","0","0","42508","","null","","","null","5","","","","","","","","","","","","","","","NaN",""
"","S1","","html-keyboard-response","48","255677","0.0-1.0-56.0","0","0","42508","","null","","","null","6","","","","","","","","","","","","","","","",""
"","ISI","","html-keyboard-response","49","255829","0.0-1.0-57.0","0","0","42508","","null","","","null","6","NaN","","","","","","","","","","","","","","",""
"","S2","","html-keyboard-response","50","256082","0.0-1.0-58.0","0","0","42508","","null","","","null","6","","NaN","","","","","","","","","","","","","",""
"","response","","html-keyboard-response","51","256960","0.0-1.0-59.0-0.0","0","0","42508","","877","","","75","6","","","1","6","training","adjacent","DC","4","3","P.jpg","M.jpg","0","0","1","",""
"","feedback","","html-keyboard-response","52","257968","0.0-1.0-60.0-0.0","0","0","42508","","null","","","null","6","","","","","","","","","","","","","","","",""
"","ITI","","html-keyboard-response","53","258971","0.0-1.0-63.0","0","0","42508","","null","","","null","6","","","","","","","","","","","","","","","NaN",""
"","S1","","html-keyboard-response","54","259225","0.0-1.0-65.0","0","0","42508","","null","","","null","7","","","","","","","","","","","","","","","",""
"","ISI","","html-keyboard-response","55","259379","0.0-1.0-66.0","0","0","42508","","null","","","null","7","NaN","","","","","","","","","","","","","","",""
"","S2","","html-keyboard-response","56","259632","0.0-1.0-67.0","0","0","42508","","null","","","null","7","","NaN","","","","","","","","","","","","","",""
"","response","","html-keyboard-response","57","260640","0.0-1.0-68.0-0.0","0","0","42508","","1006","","","75","7","","","1","7","training","adjacent","BA","2","1","R.jpg","L.jpg","0","0","1","",""
"","feedback","","html-keyboard-response","58","261643","0.0-1.0-69.0-0.0","0","0","42508","","null","","","null","7","","","","","","","","","","","","","","","",""
"","ITI","","html-keyboard-response","59","262647","0.0-1.0-72.0","0","0","42508","","null","","","null","7","","","","","","","","","","","","","","","NaN",""
"","S1","","html-keyboard-response","60","262899","0.0-1.0-74.0","0","0","42508","","null","","","null","8","","","","","","","","","","","","","","","",""
"","ISI","","html-keyboard-response","61","263052","0.0-1.0-75.0","0","0","42508","","null","","","null","8","NaN","","","","","","","","","","","","","","",""
"","S2","","html-keyboard-response","62","263306","0.0-1.0-76.0","0","0","42508","","null","","","null","8","","NaN","","","","","","","","","","","","","",""
"","response","","html-keyboard-response","63","264448","0.0-1.0-77.0-0.0","0","0","42508","","1141","","","75","8","","","1","8","training","adjacent","BC","2","3","R.jpg","M.jpg","0","1","0","",""
"","feedback","","html-keyboard-response","64","265451","0.0-1.0-78.0-0.0","0","0","42508","","null","","","null","8","","","","","","","","","","","","","","","",""
"","time_out","","html-keyboard-response","65","267453","0.0-1.0-80.0-0.0","0","0","42508","","null","","","null","8","","","","","","","","","","","","","","","",""
"","ITI","","html-keyboard-response","66","268457","0.0-1.0-81.0","0","0","42508","","null","","","null","8","","","","","","","","","","","","","","","NaN",""
"","S1","","html-keyboard-response","67","268709","0.0-1.0-83.0","0","0","42508","","null","","","null","9","","","","","","","","","","","","","","","",""
"","ISI","","html-keyboard-response","68","268863","0.0-1.0-84.0","0","0","42508","","null","","","null","9","NaN","","","","","","","","","","","","","","",""
"","S2","","html-keyboard-response","69","269116","0.0-1.0-85.0","0","0","42508","","null","","","null","9","","NaN","","","","","","","","","","","","","",""
"","response","","html-keyboard-response","70","269960","0.0-1.0-86.0-0.0","0","0","42508","","842","","","75","9","","","1","9","training","adjacent","FE","6","5","Q.jpg","O.jpg","0","0","1","",""
"","feedback","","html-keyboard-response","71","270963","0.0-1.0-87.0-0.0","0","0","42508","","null","","","null","9","","","","","","","","","","","","","","","",""
"","ITI","","html-keyboard-response","72","271967","0.0-1.0-90.0","0","0","42508","","null","","","null","9","","","","","","","","","","","","","","","NaN",""
"","S1","","html-keyboard-response","73","272219","0.0-1.0-92.0","0","0","42508","","null","","","null","10","","","","","","","","","","","","","","","",""
"","ISI","","html-keyboard-response","74","272372","0.0-1.0-93.0","0","0","42508","","null","","","null","10","NaN","","","","","","","","","","","","","","",""
"","S2","","html-keyboard-response","75","272625","0.0-1.0-94.0","0","0","42508","","null","","","null","10","","NaN","","","","","","","","","","","","","",""
"","response","","html-keyboard-response","76","273424","0.0-1.0-95.0-0.0","0","0","42508","","797","","","75","10","","","1","10","training","adjacent","DC","4","3","P.jpg","M.jpg","0","0","1","",""
"","feedback","","html-keyboard-response","77","274427","0.0-1.0-96.0-0.0","0","0","42508","","null","","","null","10","","","","","","","","","","","","","","","",""
"","ITI","","html-keyboard-response","78","275431","0.0-1.0-99.0","0","0","42508","","null","","","null","10","","","","","","","","","","","","","","","NaN",""
"","S1","","html-keyboard-response","79","275684","0.0-1.0-101.0","0","0","42508","","null","","","null","11","","","","","","","","","","","","","","","",""
"","ISI","","html-keyboard-response","80","275839","0.0-1.0-102.0","0","0","42508","","null","","","null","11","NaN","","","","","","","","","","","","","","",""
"","S2","","html-keyboard-response","81","276093","0.0-1.0-103.0","0","0","42508","","null","","","null","11","","NaN","","","","","","","","","","","","","",""
"","response","","html-keyboard-response","82","276928","0.0-1.0-104.0-0.0","0","0","42508","","833","","","75","11","","","1","11","training","adjacent","CB","3","2","M.jpg","R.jpg","0","0","1","",""
"","feedback","","html-keyboard-response","83","277931","0.0-1.0-105.0-0.0","0","0","42508","","null","","","null","11","","","","","","","","","","","","","","","",""
"","ITI","","html-keyboard-response","84","278934","0.0-1.0-108.0","0","0","42508","","null","","","null","11","","","","","","","","","","","","","","","NaN",""
"","S1","","html-keyboard-response","85","279188","0.0-1.0-110.0","0","0","42508","","null","","","null","12","","","","","","","","","","","","","","","",""
"","ISI","","html-keyboard-response","86","279341","0.0-1.0-111.0","0","0","42508","","null","","","null","12","NaN","","","","","","","","","","","","","","",""
"","S2","","html-keyboard-response","87","279594","0.0-1.0-112.0","0","0","42508","","null","","","null","12","","NaN","","","","","","","","","","","","","",""
"","response","","html-keyboard-response","88","280480","0.0-1.0-113.0-0.0","0","0","42508","","884","","","75","12","","","1","12","training","adjacent","CB","3","2","M.jpg","R.jpg","0","0","1","",""
"","feedback","","html-keyboard-response","89","281484","0.0-1.0-114.0-0.0","0","0","42508","","null","","","null","12","","","","","","","","","","","","","","","",""
"","ITI","","html-keyboard-response","90","282487","0.0-1.0-117.0","0","0","42508","","null","","","null","12","","","","","","","","","","","","","","","NaN",""
"","S1","","html-keyboard-response","91","282740","0.0-1.0-119.0","0","0","42508","","null","","","null","13","","","","","","","","","","","","","","","",""
"","ISI","","html-keyboard-response","92","282892","0.0-1.0-120.0","0","0","42508","","null","","","null","13","NaN","","","","","","","","","","","","","","",""
"","S2","","html-keyboard-response","93","283146","0.0-1.0-121.0","0","0","42508","","null","","","null","13","","NaN","","","","","","","","","","","","","",""
"","response","","html-keyboard-response","94","284064","0.0-1.0-122.0-0.0","0","0","42508","","917","","","75","13","","","1","13","training","adjacent","ED","5","4","O.jpg","P.jpg","0","0","1","",""
"","feedback","","html-keyboard-response","95","285068","0.0-1.0-123.0-0.0","0","0","42508","","null","","","null","13","","","","","","","","","","","","","","","",""
"","ITI","","html-keyboard-response","96","286071","0.0-1.0-126.0","0","0","42508","","null","","","null","13","","","","","","","","","","","","","","","NaN",""
"","S1","","html-keyboard-response","97","286324","0.0-1.0-128.0","0","0","42508","","null","","","null","14","","","","","","","","","","","","","","","",""
"","ISI","","html-keyboard-response","98","286477","0.0-1.0-129.0","0","0","42508","","null","","","null","14","NaN","","","","","","","","","","","","","","",""
"","S2","","html-keyboard-response","99","286730","0.0-1.0-130.0","0","0","42508","","null","","","null","14","","NaN","","","","","","","","","","","","","",""
"","response","","html-keyboard-response","100","287544","0.0-1.0-131.0-0.0","0","0","42508","","812","","","75","14","","","1","14","training","adjacent","EF","5","6","O.jpg","Q.jpg","0","1","0","",""
"","feedback","","html-keyboard-response","101","288548","0.0-1.0-132.0-0.0","0","0","42508","","null","","","null","14","","","","","","","","","","","","","","","",""
"","time_out","","html-keyboard-response","102","290551","0.0-1.0-134.0-0.0","0","0","42508","","null","","","null","14","","","","","","","","","","","","","","","",""
"","ITI","","html-keyboard-response","103","291555","0.0-1.0-135.0","0","0","42508","","null","","","null","14","","","","","","","","","","","","","","","NaN",""
"","S1","","html-keyboard-response","104","291808","0.0-1.0-137.0","0","0","42508","","null","","","null","15","","","","","","","","","","","","","","","",""
"","ISI","","html-keyboard-response","105","291960","0.0-1.0-138.0","0","0","42508","","null","","","null","15","NaN","","","","","","","","","","","","","","",""
"","S2","","html-keyboard-response","106","292213","0.0-1.0-139.0","0","0","42508","","null","","","null","15","","NaN","","","","","","","","","","","","","",""
"","response","","html-keyboard-response","107","293000","0.0-1.0-140.0-0.0","0","0","42508","","785","","","75","15","","","1","15","training","adjacent","CD","3","4","M.jpg","P.jpg","0","1","0","",""
"","feedback","","html-keyboard-response","108","294004","0.0-1.0-141.0-0.0","0","0","42508","","null","","","null","15","","","","","","","","","","","","","","","",""
"","time_out","","html-keyboard-response","109","296006","0.0-1.0-143.0-0.0","0","0","42508","","null","","","null","15","","","","","","","","","","","","","","","",""
"","ITI","","html-keyboard-response","110","297010","0.0-1.0-144.0","0","0","42508","","null","","","null","15","","","","","","","","","","","","","","","NaN",""
"","S1","","html-keyboard-response","111","297263","0.0-1.0-146.0","0","0","42508","","null","","","null","16","","","","","","","","","","","","","","","",""
"","ISI","","html-keyboard-response","112","297416","0.0-1.0-147.0","0","0","42508","","null","","","null","16","NaN","","","","","","","","","","","","","","",""
"","S2","","html-keyboard-response","113","297670","0.0-1.0-148.0","0","0","42508","","null","","","null","16","","NaN","","","","","","","","","","","","","",""
"","response","","html-keyboard-response","114","298480","0.0-1.0-149.0-0.0","0","0","42508","","809","","","75","16","","","1","16","training","adjacent","DE","4","5","P.jpg","O.jpg","0","1","0","",""
"","feedback","","html-keyboard-response","115","299483","0.0-1.0-150.0-0.0","0","0","42508","","null","","","null","16","","","","","","","","","","","","","","","",""
"","time_out","","html-keyboard-response","116","301486","0.0-1.0-152.0-0.0","0","0","42508","","null","","","null","16","","","","","","","","","","","","","","","",""
"","ITI","","html-keyboard-response","117","302489","0.0-1.0-153.0","0","0","42508","","null","","","null","16","","","","","","","","","","","","","","","NaN",""
"","S1","","html-keyboard-response","118","302742","0.0-1.0-155.0","0","0","42508","","null","","","null","17","","","","","","","","","","","","","","","",""
"","ISI","","html-keyboard-response","119","302896","0.0-1.0-156.0","0","0","42508","","null","","","null","17","NaN","","","","","","","","","","","","","","",""
"","S2","","html-keyboard-response","120","303149","0.0-1.0-157.0","0","0","42508","","null","","","null","17","","NaN","","","","","","","","","","","","","",""
"","response","","html-keyboard-response","121","304024","0.0-1.0-158.0-0.0","0","0","42508","","874","","","68","17","","","1","17","training","adjacent","BA","2","1","R.jpg","L.jpg","1","0","0","",""
"","feedback","","html-keyboard-response","122","305028","0.0-1.0-159.0-0.0","0","0","42508","","null","","","null","17","","","","","","","","","","","","","","","",""
"","time_out","","html-keyboard-response","123","307031","0.0-1.0-161.0-0.0","0","0","42508","","null","","","null","17","","","","","","","","","","","","","","","",""
"","ITI","","html-keyboard-response","124","308034","0.0-1.0-162.0","0","0","42508","","null","","","null","17","","","","","","","","","","","","","","","NaN",""
"","S1","","html-keyboard-response","125","308286","0.0-1.0-164.0","0","0","42508","","null","","","null","18","","","","","","","","","","","","","","","",""
"","ISI","","html-keyboard-response","126","308439","0.0-1.0-165.0","0","0","42508","","null","","","null","18","NaN","","","","","","","","","","","","","","",""
"","S2","","html-keyboard-response","127","308692","0.0-1.0-166.0","0","0","42508","","null","","","null","18","","NaN","","","","","","","","","","","","","",""
"","response","","html-keyboard-response","128","309744","0.0-1.0-167.0-0.0","0","0","42508","","1050","","","75","18","","","1","18","training","adjacent","GF","7","6","N.jpg","Q.jpg","0","0","1","",""
"","feedback","","html-keyboard-response","129","310748","0.0-1.0-168.0-0.0","0","0","42508","","null","","","null","18","","","","","","","","","","","","","","","",""
"","ITI","","html-keyboard-response","130","311752","0.0-1.0-171.0","0","0","42508","","null","","","null","18","","","","","","","","","","","","","","","NaN",""
"","S1","","html-keyboard-response","131","312005","0.0-1.0-173.0","0","0","42508","","null","","","null","19","","","","","","","","","","","","","","","",""
"","ISI","","html-keyboard-response","132","312158","0.0-1.0-174.0","0","0","42508","","null","","","null","19","NaN","","","","","","","","","","","","","","",""
"","S2","","html-keyboard-response","133","312412","0.0-1.0-175.0","0","0","42508","","null","","","null","19","","NaN","","","","","","","","","","","","","",""
"","response","","html-keyboard-response","134","313336","0.0-1.0-176.0-0.0","0","0","42508","","922","","","68","19","","","1","19","training","adjacent","GF","7","6","N.jpg","Q.jpg","1","0","0","",""
"","feedback","","html-keyboard-response","135","314339","0.0-1.0-177.0-0.0","0","0","42508","","null","","","null","19","","","","","","","","","","","","","","","",""
"","time_out","","html-keyboard-response","136","316342","0.0-1.0-179.0-0.0","0","0","42508","","null","","","null","19","","","","","","","","","","","","","","","",""
"","ITI","","html-keyboard-response","137","317346","0.0-1.0-180.0","0","0","42508","","null","","","null","19","","","","","","","","","","","","","","","NaN",""
"","S1","","html-keyboard-response","138","317599","0.0-1.0-182.0","0","0","42508","","null","","","null","20","","","","","","","","","","","","","","","",""
"","ISI","","html-keyboard-response","139","317752","0.0-1.0-183.0","0","0","42508","","null","","","null","20","NaN","","","","","","","","","","","","","","",""
"","S2","","html-keyboard-response","140","318005","0.0-1.0-184.0","0","0","42508","","null","","","null","20","","NaN","","","","","","","","","","","","","",""
"","response","","html-keyboard-response","141","318848","0.0-1.0-185.0-0.0","0","0","42508","","841","","","75","20","","","1","20","training","adjacent","FE","6","5","Q.jpg","O.jpg","0","0","1","",""
"","feedback","","html-keyboard-response","142","319851","0.0-1.0-186.0-0.0","0","0","42508","","null","","","null","20","","","","","","","","","","","","","","","",""
"","ITI","","html-keyboard-response","143","320854","0.0-1.0-189.0","0","0","42508","","null","","","null","20","","","","","","","","","","","","","","","NaN",""
"","S1","","html-keyboard-response","144","321108","0.0-1.0-191.0","0","0","42508","","null","","","null","21","","","","","","","","","","","","","","","",""
"","ISI","","html-keyboard-response","145","321261","0.0-1.0-192.0","0","0","42508","","null","","","null","21","NaN","","","","","","","","","","","","","","",""
"","S2","","html-keyboard-response","146","321514","0.0-1.0-193.0","0","0","42508","","null","","","null","21","","NaN","","","","","","","","","","","","","",""
"","response","","html-keyboard-response","147","322368","0.0-1.0-194.0-0.0","0","0","42508","","853","","","75","21","","","1","21","training","adjacent","EF","5","6","O.jpg","Q.jpg","0","1","0","",""
"","feedback","","html-keyboard-response","148","323371","0.0-1.0-195.0-0.0","0","0","42508","","null","","","null","21","","","","","","","","","","","","","","","",""
"","time_out","","html-keyboard-response","149","325373","0.0-1.0-197.0-0.0","0","0","42508","","null","","","null","21","","","","","","","","","","","","","","","",""
"","ITI","","html-keyboard-response","150","326376","0.0-1.0-198.0","0","0","42508","","null","","","null","21","","","","","","","","","","","","","","","NaN",""
"","S1","","html-keyboard-response","151","326629","0.0-1.0-200.0","0","0","42508","","null","","","null","22","","","","","","","","","","","","","","","",""
"","ISI","","html-keyboard-response","152","326782","0.0-1.0-201.0","0","0","42508","","null","","","null","22","NaN","","","","","","","","","","","","","","",""
"","S2","","html-keyboard-response","153","327035","0.0-1.0-202.0","0","0","42508","","null","","","null","22","","NaN","","","","","","","","","","","","","",""
"","response","","html-keyboard-response","154","327864","0.0-1.0-203.0-0.0","0","0","42508","","827","","","75","22","","","1","22","training","adjacent","DE","4","5","P.jpg","O.jpg","0","1","0","",""
"","feedback","","html-keyboard-response","155","328868","0.0-1.0-204.0-0.0","0","0","42508","","null","","","null","22","","","","","","","","","","","","","","","",""
"","time_out","","html-keyboard-response","156","330871","0.0-1.0-206.0-0.0","0","0","42508","","null","","","null","22","","","","","","","","","","","","","","","",""
"","ITI","","html-keyboard-response","157","331874","0.0-1.0-207.0","0","0","42508","","null","","","null","22","","","","","","","","","","","","","","","NaN",""
"","S1","","html-keyboard-response","158","332126","0.0-1.0-209.0","0","0","42508","","null","","","null","23","","","","","","","","","","","","","","","",""
"","ISI","","html-keyboard-response","159","332279","0.0-1.0-210.0","0","0","42508","","null","","","null","23","NaN","","","","","","","","","","","","","","",""
"","S2","","html-keyboard-response","160","332533","0.0-1.0-211.0","0","0","42508","","null","","","null","23","","NaN","","","","","","","","","","","","","",""
"","response","","html-keyboard-response","161","333520","0.0-1.0-212.0-0.0","0","0","42508","","986","","","75","23","","","1","23","training","adjacent","AB","1","2","L.jpg","R.jpg","0","1","0","",""
"","feedback","","html-keyboard-response","162","334523","0.0-1.0-213.0-0.0","0","0","42508","","null","","","null","23","","","","","","","","","","","","","","","",""
"","time_out","","html-keyboard-response","163","336527","0.0-1.0-215.0-0.0","0","0","42508","","null","","","null","23","","","","","","","","","","","","","","","",""
"","ITI","","html-keyboard-response","164","337529","0.0-1.0-216.0","0","0","42508","","null","","","null","23","","","","","","","","","","","","","","","NaN",""
"","S1","","html-keyboard-response","165","337783","0.0-1.0-218.0","0","0","42508","","null","","","null","24","","","","","","","","","","","","","","","",""
"","ISI","","html-keyboard-response","166","337935","0.0-1.0-219.0","0","0","42508","","null","","","null","24","NaN","","","","","","","","","","","","","","",""
"","S2","","html-keyboard-response","167","338188","0.0-1.0-220.0","0","0","42508","","null","","","null","24","","NaN","","","","","","","","","","","","","",""
"","response","","html-keyboard-response","168","338736","0.0-1.0-221.0-0.0","0","0","42508","","545","","","68","24","","","1","24","training","adjacent","CD","3","4","M.jpg","P.jpg","1","1","1","",""
"","feedback","","html-keyboard-response","169","339740","0.0-1.0-222.0-0.0","0","0","42508","","null","","","null","24","","","","","","","","","","","","","","","",""
"","ITI","","html-keyboard-response","170","340743","0.0-1.0-225.0","0","0","42508","","null","","","null","24","","","","","","","","","","","","","","","NaN",""
"","S1","","html-keyboard-response","171","340996","0.0-1.0-227.0","0","0","42508","","null","","","null","25","","","","","","","","","","","","","","","",""
"","ISI","","html-keyboard-response","172","341149","0.0-1.0-228.0","0","0","42508","","null","","","null","25","NaN","","","","","","","","","","","","","","",""
"","S2","","html-keyboard-response","173","341403","0.0-1.0-229.0","0","0","42508","","null","","","null","25","","NaN","","","","","","","","","","","","","",""
"","response","","html-keyboard-response","174","341753","0.0-1.0-230.0-0.0","0","0","42508","","348","","","68","25","","","1","25","training","adjacent","AB","1","2","L.jpg","R.jpg","1","1","1","",""
"","feedback","","html-keyboard-response","175","342768","0.0-1.0-231.0-0.0","0","0","42508","","null","","","null","25","","","","","","","","","","","","","","","",""
"","ITI","","html-keyboard-response","176","343771","0.0-1.0-234.0","0","0","42508","","null","","","null","25","","","","","","","","","","","","","","","NaN",""
"","S1","","html-keyboard-response","177","344024","0.0-1.0-236.0","0","0","42508","","null","","","null","26","","","","","","","","","","","","","","","",""
"","ISI","","html-keyboard-response","178","344188","0.0-1.0-237.0","0","0","42508","","null","","","null","26","NaN","","","","","","","","","","","","","","",""
"","S2","","html-keyboard-response","179","344442","0.0-1.0-238.0","0","0","42508","","null","","","null","26","","NaN","","","","","","","","","","","","","",""
"","response","","html-keyboard-response","180","344848","0.0-1.0-239.0-0.0","0","0","42508","","405","","","68","26","","","1","26","training","adjacent","ED","5","4","O.jpg","P.jpg","1","0","0","",""
"","feedback","","html-keyboard-response","181","345851","0.0-1.0-240.0-0.0","0","0","42508","","null","","","null","26","","","","","","","","","","","","","","","",""
"","time_out","","html-keyboard-response","182","347855","0.0-1.0-242.0-0.0","0","0","42508","","null","","","null","26","","","","","","","","","","","","","","","",""
"","ITI","","html-keyboard-response","183","348858","0.0-1.0-243.0","0","0","42508","","null","","","null","26","","","","","","","","","","","","","","","NaN",""
"","S1","","html-keyboard-response","184","349111","0.0-1.0-245.0","0","0","42508","","null","","","null","27","","","","","","","","","","","","","","","",""
"","ISI","","html-keyboard-response","185","349264","0.0-1.0-246.0","0","0","42508","","null","","","null","27","NaN","","","","","","","","","","","","","","",""
"","S2","","html-keyboard-response","186","349517","0.0-1.0-247.0","0","0","42508","","null","","","null","27","","NaN","","","","","","","","","","","","","",""
"","response","","html-keyboard-response","187","350144","0.0-1.0-248.0-0.0","0","0","42508","","625","","","75","27","","","1","27","training","adjacent","DC","4","3","P.jpg","M.jpg","0","0","1","",""
"","feedback","","html-keyboard-response","188","351149","0.0-1.0-249.0-0.0","0","0","42508","","null","","","null","27","","","","","","","","","","","","","","","",""
"","ITI","","html-keyboard-response","189","352152","0.0-1.0-252.0","0","0","42508","","null","","","null","27","","","","","","","","","","","","","","","NaN",""
"","S1","","html-keyboard-response","190","352404","0.0-1.0-254.0","0","0","42508","","null","","","null","28","","","","","","","","","","","","","","","",""
"","ISI","","html-keyboard-response","191","352558","0.0-1.0-255.0","0","0","42508","","null","","","null","28","NaN","","","","","","","","","","","","","","",""
"","S2","","html-keyboard-response","192","352811","0.0-1.0-256.0","0","0","42508","","null","","","null","28","","NaN","","","","","","","","","","","","","",""
"","response","","html-keyboard-response","193","353104","0.0-1.0-257.0-0.0","0","0","42508","","291","","","75","28","","","1","28","training","adjacent","CB","3","2","M.jpg","R.jpg","0","0","1","",""
"","feedback","","html-keyboard-response","194","354107","0.0-1.0-258.0-0.0","0","0","42508","","null","","","null","28","","","","","","","","","","","","","","","",""
"","ITI","","html-keyboard-response","195","355110","0.0-1.0-261.0","0","0","42508","","null","","","null","28","","","","","","","","","","","","","","","NaN",""
"","S1","","html-keyboard-response","196","355364","0.0-1.0-263.0","0","0","42508","","null","","","null","29","","","","","","","","","","","","","","","",""
"","ISI","","html-keyboard-response","197","355517","0.0-1.0-264.0","0","0","42508","","null","","","null","29","NaN","","","","","","","","","","","","","","",""
"","S2","","html-keyboard-response","198","355770","0.0-1.0-265.0","0","0","42508","","null","","","null","29","","NaN","","","","","","","","","","","","","",""
"","response","","html-keyboard-response","199","355968","0.0-1.0-266.0-0.0","0","0","42508","","197","","","75","29","","","1","29","training","adjacent","BC","2","3","R.jpg","M.jpg","0","1","0","",""
"","feedback","","html-keyboard-response","200","356984","0.0-1.0-267.0-0.0","0","0","42508","","null","","","null","29","","","","","","","","","","","","","","","",""
"","time_out","","html-keyboard-response","201","358987","0.0-1.0-269.0-0.0","0","0","42508","","null","","","null","29","","","","","","","","","","","","","","","",""
"","ITI","","html-keyboard-response","202","359990","0.0-1.0-270.0","0","0","42508","","null","","","null","29","","","","","","","","","","","","","","","NaN",""
"","S1","","html-keyboard-response","203","360243","0.0-1.0-272.0","0","0","42508","","null","","","null","30","","","","","","","","","","","","","","","",""
"","ISI","","html-keyboard-response","204","360396","0.0-1.0-273.0","0","0","42508","","null","","","null","30","NaN","","","","","","","","","","","","","","",""
"","S2","","html-keyboard-response","205","360648","0.0-1.0-274.0","0","0","42508","","null","","","null","30","","NaN","","","","","","","","","","","","","",""
"","response","","html-keyboard-response","206","361040","0.0-1.0-275.0-0.0","0","0","42508","","391","","","75","30","","","1","30","training","adjacent","ED","5","4","O.jpg","P.jpg","0","0","1","",""
"","feedback","","html-keyboard-response","207","362043","0.0-1.0-276.0-0.0","0","0","42508","","null","","","null","30","","","","","","","","","","","","","","","",""
"","ITI","","html-keyboard-response","208","363046","0.0-1.0-279.0","0","0","42508","","null","","","null","30","","","","","","","","","","","","","","","NaN",""
"","S1","","html-keyboard-response","209","363300","0.0-1.0-281.0","0","0","42508","","null","","","null","31","","","","","","","","","","","","","","","",""
"","ISI","","html-keyboard-response","210","363452","0.0-1.0-282.0","0","0","42508","","null","","","null","31","NaN","","","","","","","","","","","","","","",""
"","S2","","html-keyboard-response","211","363706","0.0-1.0-283.0","0","0","42508","","null","","","null","31","","NaN","","","","","","","","","","","","","",""
"","response","","html-keyboard-response","212","364160","0.0-1.0-284.0-0.0","0","0","42508","","452","","","75","31","","","1","31","training","adjacent","ED","5","4","O.jpg","P.jpg","0","0","1","",""
"","feedback","","html-keyboard-response","213","365163","0.0-1.0-285.0-0.0","0","0","42508","","null","","","null","31","","","","","","","","","","","","","","","",""
"","ITI","","html-keyboard-response","214","366176","0.0-1.0-288.0","0","0","42508","","null","","","null","31","","","","","","","","","","","","","","","NaN",""
"","S1","","html-keyboard-response","215","366429","0.0-1.0-290.0","0","0","42508","","null","","","null","32","","","","","","","","","","","","","","","",""
"","ISI","","html-keyboard-response","216","366582","0.0-1.0-291.0","0","0","42508","","null","","","null","32","NaN","","","","","","","","","","","","","","",""
"","S2","","html-keyboard-response","217","366835","0.0-1.0-292.0","0","0","42508","","null","","","null","32","","NaN","","","","","","","","","","","","","",""
"","response","","html-keyboard-response","218","367473","0.0-1.0-293.0-0.0","0","0","42508","","635","","","68","32","","","1","32","training","adjacent","CD","3","4","M.jpg","P.jpg","1","1","1","",""
"","feedback","","html-keyboard-response","219","368476","0.0-1.0-294.0-0.0","0","0","42508","","null","","","null","32","","","","","","","","","","","","","","","",""
"","ITI","","html-keyboard-response","220","369479","0.0-1.0-297.0","0","0","42508","","null","","","null","32","","","","","","","","","","","","","","","NaN",""
"","S1","","html-keyboard-response","221","369732","0.0-1.0-299.0","0","0","42508","","null","","","null","33","","","","","","","","","","","","","","","",""
"","ISI","","html-keyboard-response","222","369885","0.0-1.0-300.0","0","0","42508","","null","","","null","33","NaN","","","","","","","","","","","","","","",""
"","S2","","html-keyboard-response","223","370139","0.0-1.0-301.0","0","0","42508","","null","","","null","33","","NaN","","","","","","","","","","","","","",""
"","response","","html-keyboard-response","224","370304","0.0-1.0-302.0-0.0","0","0","42508","","163","","","75","33","","","1","33","training","adjacent","FG","6","7","Q.jpg","N.jpg","0","1","0","",""
"","feedback","","html-keyboard-response","225","371307","0.0-1.0-303.0-0.0","0","0","42508","","null","","","null","33","","","","","","","","","","","","","","","",""
"","time_out","","html-keyboard-response","226","373310","0.0-1.0-305.0-0.0","0","0","42508","","null","","","null","33","","","","","","","","","","","","","","","",""
"","ITI","","html-keyboard-response","227","374313","0.0-1.0-306.0","0","0","42508","","null","","","null","33","","","","","","","","","","","","","","","NaN",""
"","S1","","html-keyboard-response","228","374566","0.0-1.0-308.0","0","0","42508","","null","","","null","34","","","","","","","","","","","","","","","",""
"","ISI","","html-keyboard-response","229","374719","0.0-1.0-309.0","0","0","42508","","null","","","null","34","NaN","","","","","","","","","","","","","","",""
"","S2","","html-keyboard-response","230","374972","0.0-1.0-310.0","0","0","42508","","null","","","null","34","","NaN","","","","","","","","","","","","","",""
"","response","","html-keyboard-response","231","375600","0.0-1.0-311.0-0.0","0","0","42508","","626","","","75","34","","","1","34","training","adjacent","BA","2","1","R.jpg","L.jpg","0","0","1","",""
"","feedback","","html-keyboard-response","232","376603","0.0-1.0-312.0-0.0","0","0","42508","","null","","","null","34","","","","","","","","","","","","","","","",""
"","ITI","","html-keyboard-response","233","377607","0.0-1.0-315.0","0","0","42508","","null","","","null","34","","","","","","","","","","","","","","","NaN",""
"","S1","","html-keyboard-response","234","377860","0.0-1.0-317.0","0","0","42508","","null","","","null","35","","","","","","","","","","","","","","","",""
"","ISI","","html-keyboard-response","235","378013","0.0-1.0-318.0","0","0","42508","","null","","","null","35","NaN","","","","","","","","","","","","","","",""
"","S2","","html-keyboard-response","236","378266","0.0-1.0-319.0","0","0","42508","","null","","","null","35","","NaN","","","","","","","","","","","","","",""
"","response","","html-keyboard-response","237","378737","0.0-1.0-320.0-0.0","0","0","42508","","469","","","68","35","","","1","35","training","adjacent","AB","1","2","L.jpg","R.jpg","1","1","1","",""
"","feedback","","html-keyboard-response","238","379740","0.0-1.0-321.0-0.0","0","0","42508","","null","","","null","35","","","","","","","","","","","","","","","",""
"","ITI","","html-keyboard-response","239","380743","0.0-1.0-324.0","0","0","42508","","null","","","null","35","","","","","","","","","","","","","","","NaN",""
"","S1","","html-keyboard-response","240","380996","0.0-1.0-326.0","0","0","42508","","null","","","null","36","","","","","","","","","","","","","","","",""
"","ISI","","html-keyboard-response","241","381149","0.0-1.0-327.0","0","0","42508","","null","","","null","36","NaN","","","","","","","","","","","","","","",""
"","S2","","html-keyboard-response","242","381402","0.0-1.0-328.0","0","0","42508","","null","","","null","36","","NaN","","","","","","","","","","","","","",""
"","response","","html-keyboard-response","243","381960","0.0-1.0-329.0-0.0","0","0","42508","","556","","","75","36","","","1","36","training","adjacent","EF","5","6","O.jpg","Q.jpg","0","1","0","",""
"","feedback","","html-keyboard-response","244","382963","0.0-1.0-330.0-0.0","0","0","42508","","null","","","null","36","","","","","","","","","","","","","","","",""
"","time_out","","html-keyboard-response","245","384967","0.0-1.0-332.0-0.0","0","0","42508","","null","","","null","36","","","","","","","","","","","","","","","",""
"","ITI","","html-keyboard-response","246","385969","0.0-1.0-333.0","0","0","42508","","null","","","null","36","","","","","","","","","","","","","","","NaN",""
"","S1","","html-keyboard-response","247","386223","0.0-1.0-335.0","0","0","42508","","null","","","null","37","","","","","","","","","","","","","","","",""
"","ISI","","html-keyboard-response","248","386375","0.0-1.0-336.0","0","0","42508","","null","","","null","37","NaN","","","","","","","","","","","","","","",""
"","S2","","html-keyboard-response","249","386629","0.0-1.0-337.0","0","0","42508","","null","","","null","37","","NaN","","","","","","","","","","","","","",""
"","response","","html-keyboard-response","250","387024","0.0-1.0-338.0-0.0","0","0","42508","","394","","","68","37","","","1","37","training","adjacent","FE","6","5","Q.jpg","O.jpg","1","0","0","",""
"","feedback","","html-keyboard-response","251","388028","0.0-1.0-339.0-0.0","0","0","42508","","null","","","null","37","","","","","","","","","","","","","","","",""
"","time_out","","html-keyboard-response","252","390031","0.0-1.0-341.0-0.0","0","0","42508","","null","","","null","37","","","","","","","","","","","","","","","",""
"","ITI","","html-keyboard-response","253","391034","0.0-1.0-342.0","0","0","42508","","null","","","null","37","","","","","","","","","","","","","","","NaN",""
"","S1","","html-keyboard-response","254","391288","0.0-1.0-344.0","0","0","42508","","null","","","null","38","","","","","","","","","","","","","","","",""
"","ISI","","html-keyboard-response","255","391441","0.0-1.0-345.0","0","0","42508","","null","","","null","38","NaN","","","","","","","","","","","","","","",""
"","S2","","html-keyboard-response","256","391695","0.0-1.0-346.0","0","0","42508","","null","","","null","38","","NaN","","","","","","","","","","","","","",""
"","response","","html-keyboard-response","257","392080","0.0-1.0-347.0-0.0","0","0","42508","","384","","","75","38","","","1","38","training","adjacent","GF","7","6","N.jpg","Q.jpg","0","0","1","",""
"","feedback","","html-keyboard-response","258","393083","0.0-1.0-348.0-0.0","0","0","42508","","null","","","null","38","","","","","","","","","","","","","","","",""
"","ITI","","html-keyboard-response","259","394087","0.0-1.0-351.0","0","0","42508","","null","","","null","38","","","","","","","","","","","","","","","NaN",""
"","S1","","html-keyboard-response","260","394341","0.0-1.0-353.0","0","0","42508","","null","","","null","39","","","","","","","","","","","","","","","",""
"","ISI","","html-keyboard-response","261","394495","0.0-1.0-354.0","0","0","42508","","null","","","null","39","NaN","","","","","","","","","","","","","","",""
"","S2","","html-keyboard-response","262","394748","0.0-1.0-355.0","0","0","42508","","null","","","null","39","","NaN","","","","","","","","","","","","","",""
"","response","","html-keyboard-response","263","395616","0.0-1.0-356.0-0.0","0","0","42508","","866","","","75","39","","","1","39","training","adjacent","FG","6","7","Q.jpg","N.jpg","0","1","0","",""
"","feedback","","html-keyboard-response","264","396620","0.0-1.0-357.0-0.0","0","0","42508","","null","","","null","39","","","","","","","","","","","","","","","",""
"","time_out","","html-keyboard-response","265","398622","0.0-1.0-359.0-0.0","0","0","42508","","null","","","null","39","","","","","","","","","","","","","","","",""
"","ITI","","html-keyboard-response","266","399625","0.0-1.0-360.0","0","0","42508","","null","","","null","39","","","","","","","","","","","","","","","NaN",""
"","S1","","html-keyboard-response","267","399878","0.0-1.0-362.0","0","0","42508","","null","","","null","40","","","","","","","","","","","","","","","",""
"","ISI","","html-keyboard-response","268","400032","0.0-1.0-363.0","0","0","42508","","null","","","null","40","NaN","","","","","","","","","","","","","","",""
"","S2","","html-keyboard-response","269","400285","0.0-1.0-364.0","0","0","42508","","null","","","null","40","","NaN","","","","","","","","","","","","","",""
"","response","","html-keyboard-response","270","400992","0.0-1.0-365.0-0.0","0","0","42508","","705","","","75","40","","","1","40","training","adjacent","FE","6","5","Q.jpg","O.jpg","0","0","1","",""
"","feedback","","html-keyboard-response","271","401995","0.0-1.0-366.0-0.0","0","0","42508","","null","","","null","40","","","","","","","","","","","","","","","",""
"","ITI","","html-keyboard-response","272","402999","0.0-1.0-369.0","0","0","42508","","null","","","null","40","","","","","","","","","","","","","","","NaN",""
"","S1","","html-keyboard-response","273","403253","0.0-1.0-371.0","0","0","42508","","null","","","null","41","","","","","","","","","","","","","","","",""
"","ISI","","html-keyboard-response","274","403406","0.0-1.0-372.0","0","0","42508","","null","","","null","41","NaN","","","","","","","","","","","","","","",""
"","S2","","html-keyboard-response","275","403659","0.0-1.0-373.0","0","0","42508","","null","","","null","41","","NaN","","","","","","","","","","","","","",""
"","response","","html-keyboard-response","276","404625","0.0-1.0-374.0-0.0","0","0","42508","","963","","","68","41","","","1","41","training","adjacent","BC","2","3","R.jpg","M.jpg","1","1","1","",""
"","feedback","","html-keyboard-response","277","405629","0.0-1.0-375.0-0.0","0","0","42508","","null","","","null","41","","","","","","","","","","","","","","","",""
"","ITI","","html-keyboard-response","278","406632","0.0-1.0-378.0","0","0","42508","","null","","","null","41","","","","","","","","","","","","","","","NaN",""
"","S1","","html-keyboard-response","279","406884","0.0-1.0-380.0","0","0","42508","","null","","","null","42","","","","","","","","","","","","","","","",""
"","ISI","","html-keyboard-response","280","407038","0.0-1.0-381.0","0","0","42508","","null","","","null","42","NaN","","","","","","","","","","","","","","",""
"","S2","","html-keyboard-response","281","407291","0.0-1.0-382.0","0","0","42508","","null","","","null","42","","NaN","","","","","","","","","","","","","",""
"","response","","html-keyboard-response","282","407896","0.0-1.0-383.0-0.0","0","0","42508","","603","","","75","42","","","1","42","training","adjacent","EF","5","6","O.jpg","Q.jpg","0","1","0","",""
"","feedback","","html-keyboard-response","283","408909","0.0-1.0-384.0-0.0","0","0","42508","","null","","","null","42","","","","","","","","","","","","","","","",""
"","time_out","","html-keyboard-response","284","410911","0.0-1.0-386.0-0.0","0","0","42508","","null","","","null","42","","","","","","","","","","","","","","","",""
"","ITI","","html-keyboard-response","285","411914","0.0-1.0-387.0","0","0","42508","","null","","","null","42","","","","","","","","","","","","","","","NaN",""
"","S1","","html-keyboard-response","286","412166","0.0-1.0-389.0","0","0","42508","","null","","","null","43","","","","","","","","","","","","","","","",""
"","ISI","","html-keyboard-response","287","412319","0.0-1.0-390.0","0","0","42508","","null","","","null","43","NaN","","","","","","","","","","","","","","",""
"","S2","","html-keyboard-response","288","412573","0.0-1.0-391.0","0","0","42508","","null","","","null","43","","NaN","","","","","","","","","","","","","",""
"","response","","html-keyboard-response","289","413528","0.0-1.0-392.0-0.0","0","0","42508","","952","","","75","43","","","1","43","training","adjacent","GF","7","6","N.jpg","Q.jpg","0","0","1","",""
"","feedback","","html-keyboard-response","290","414531","0.0-1.0-393.0-0.0","0","0","42508","","null","","","null","43","","","","","","","","","","","","","","","",""
"","ITI","","html-keyboard-response","291","415534","0.0-1.0-396.0","0","0","42508","","null","","","null","43","","","","","","","","","","","","","","","NaN",""
"","S1","","html-keyboard-response","292","415788","0.0-1.0-398.0","0","0","42508","","null","","","null","44","","","","","","","","","","","","","","","",""
"","ISI","","html-keyboard-response","293","415941","0.0-1.0-399.0","0","0","42508","","null","","","null","44","NaN","","","","","","","","","","","","","","",""
"","S2","","html-keyboard-response","294","416194","0.0-1.0-400.0","0","0","42508","","null","","","null","44","","NaN","","","","","","","","","","","","","",""
"","response","","html-keyboard-response","295","416752","0.0-1.0-401.0-0.0","0","0","42508","","556","","","68","44","","","1","44","training","adjacent","BA","2","1","R.jpg","L.jpg","1","0","0","",""
"","feedback","","html-keyboard-response","296","417757","0.0-1.0-402.0-0.0","0","0","42508","","null","","","null","44","","","","","","","","","","","","","","","",""
"","time_out","","html-keyboard-response","297","419760","0.0-1.0-404.0-0.0","0","0","42508","","null","","","null","44","","","","","","","","","","","","","","","",""
"","ITI","","html-keyboard-response","298","420763","0.0-1.0-405.0","0","0","42508","","null","","","null","44","","","","","","","","","","","","","","","NaN",""
"","S1","","html-keyboard-response","299","421016","0.0-1.0-407.0","0","0","42508","","null","","","null","45","","","","","","","","","","","","","","","",""
"","ISI","","html-keyboard-response","300","421169","0.0-1.0-408.0","0","0","42508","","null","","","null","45","NaN","","","","","","","","","","","","","","",""
"","S2","","html-keyboard-response","301","421422","0.0-1.0-409.0","0","0","42508","","null","","","null","45","","NaN","","","","","","","","","","","","","",""
"","response","","html-keyboard-response","302","421752","0.0-1.0-410.0-0.0","0","0","42508","","328","","","75","45","","","1","45","training","adjacent","AB","1","2","L.jpg","R.jpg","0","1","0","",""
"","feedback","","html-keyboard-response","303","422756","0.0-1.0-411.0-0.0","0","0","42508","","null","","","null","45","","","","","","","","","","","","","","","",""
"","time_out","","html-keyboard-response","304","424760","0.0-1.0-413.0-0.0","0","0","42508","","null","","","null","45","","","","","","","","","","","","","","","",""
"","ITI","","html-keyboard-response","305","425763","0.0-1.0-414.0","0","0","42508","","null","","","null","45","","","","","","","","","","","","","","","NaN",""
"","S1","","html-keyboard-response","306","426016","0.0-1.0-416.0","0","0","42508","","null","","","null","46","","","","","","","","","","","","","","","",""
"","ISI","","html-keyboard-response","307","426169","0.0-1.0-417.0","0","0","42508","","null","","","null","46","NaN","","","","","","","","","","","","","","",""
"","S2","","html-keyboard-response","308","426422","0.0-1.0-418.0","0","0","42508","","null","","","null","46","","NaN","","","","","","","","","","","","","",""
"","response","","html-keyboard-response","309","426778","0.0-1.0-419.0-0.0","0","0","42508","","353","","","68","46","","","1","46","training","adjacent","FG","6","7","Q.jpg","N.jpg","1","1","1","",""
"","feedback","","html-keyboard-response","310","427781","0.0-1.0-420.0-0.0","0","0","42508","","null","","","null","46","","","","","","","","","","","","","","","",""
"","ITI","","html-keyboard-response","311","428784","0.0-1.0-423.0","0","0","42508","","null","","","null","46","","","","","","","","","","","","","","","NaN",""
"","S1","","html-keyboard-response","312","429038","0.0-1.0-425.0","0","0","42508","","null","","","null","47","","","","","","","","","","","","","","","",""
"","ISI","","html-keyboard-response","313","429191","0.0-1.0-426.0","0","0","42508","","null","","","null","47","NaN","","","","","","","","","","","","","","",""
"","S2","","html-keyboard-response","314","429444","0.0-1.0-427.0","0","0","42508","","null","","","null","47","","NaN","","","","","","","","","","","","","",""
"","response","","html-keyboard-response","315","429842","0.0-1.0-428.0-0.0","0","0","42508","","395","","","75","47","","","1","47","training","adjacent","DE","4","5","P.jpg","O.jpg","0","1","0","",""
"","feedback","","html-keyboard-response","316","430846","0.0-1.0-429.0-0.0","0","0","42508","","null","","","null","47","","","","","","","","","","","","","","","",""
"","time_out","","html-keyboard-response","317","432849","0.0-1.0-431.0-0.0","0","0","42508","","null","","","null","47","","","","","","","","","","","","","","","",""
"","ITI","","html-keyboard-response","318","433852","0.0-1.0-432.0","0","0","42508","","null","","","null","47","","","","","","","","","","","","","","","NaN",""
"","block_over","","html-keyboard-response","319","444786","0.0-1.0-433.0-0.0","0","0","42508","","10930","","","32","47","","","","","","","","","","","","","","","",""
"","S1","","html-keyboard-response","320","445039","0.0-1.0-434.0","0","0","42508","","null","","","null","48","","","","","","","","","","","","","","","",""
"","ISI","","html-keyboard-response","321","445192","0.0-1.0-435.0","0","0","42508","","null","","","null","48","NaN","","","","","","","","","","","","","","",""
"","S2","","html-keyboard-response","322","445445","0.0-1.0-436.0","0","0","42508","","null","","","null","48","","NaN","","","","","","","","","","","","","",""
"","response","","html-keyboard-response","323","446385","0.0-1.0-437.0-0.0","0","0","42508","","938","","","75","48","","","2","48","training","adjacent","AB","1","2","L.jpg","R.jpg","0","1","0","",""
"","feedback","","html-keyboard-response","324","447388","0.0-1.0-438.0-0.0","0","0","42508","","null","","","null","48","","","","","","","","","","","","","","","",""
"","time_out","","html-keyboard-response","325","449392","0.0-1.0-440.0-0.0","0","0","42508","","null","","","null","48","","","","","","","","","","","","","","","",""
"","ITI","","html-keyboard-response","326","450395","0.0-1.0-441.0","0","0","42508","","null","","","null","48","","","","","","","","","","","","","","","NaN",""
"","S1","","html-keyboard-response","327","450648","0.0-1.0-443.0","0","0","42508","","null","","","null","49","","","","","","","","","","","","","","","",""
"","ISI","","html-keyboard-response","328","450802","0.0-1.0-444.0","0","0","42508","","null","","","null","49","NaN","","","","","","","","","","","","","","",""
"","S2","","html-keyboard-response","329","451055","0.0-1.0-445.0","0","0","42508","","null","","","null","49","","NaN","","","","","","","","","","","","","",""
"","response","","html-keyboard-response","330","451289","0.0-1.0-446.0-0.0","0","0","42508","","231","","","68","49","","","2","49","training","adjacent","CB","3","2","M.jpg","R.jpg","1","0","0","",""
"","feedback","","html-keyboard-response","331","452292","0.0-1.0-447.0-0.0","0","0","42508","","null","","","null","49","","","","","","","","","","","","","","","",""
"","time_out","","html-keyboard-response","332","454296","0.0-1.0-449.0-0.0","0","0","42508","","null","","","null","49","","","","","","","","","","","","","","","",""
"","ITI","","html-keyboard-response","333","455298","0.0-1.0-450.0","0","0","42508","","null","","","null","49","","","","","","","","","","","","","","","NaN",""
"","S1","","html-keyboard-response","334","455552","0.0-1.0-452.0","0","0","42508","","null","","","null","50","","","","","","","","","","","","","","","",""
"","ISI","","html-keyboard-response","335","455704","0.0-1.0-453.0","0","0","42508","","null","","","null","50","NaN","","","","","","","","","","","","","","",""
"","S2","","html-keyboard-response","336","455958","0.0-1.0-454.0","0","0","42508","","null","","","null","50","","NaN","","","","","","","","","","","","","",""
"","response","","html-keyboard-response","337","456345","0.0-1.0-455.0-0.0","0","0","42508","","386","","","75","50","","","2","50","training","adjacent","ED","5","4","O.jpg","P.jpg","0","0","1","",""
"","feedback","","html-keyboard-response","338","457348","0.0-1.0-456.0-0.0","0","0","42508","","null","","","null","50","","","","","","","","","","","","","","","",""
"","ITI","","html-keyboard-response","339","458352","0.0-1.0-459.0","0","0","42508","","null","","","null","50","","","","","","","","","","","","","","","NaN",""
"","S1","","html-keyboard-response","340","458605","0.0-1.0-461.0","0","0","42508","","null","","","null","51","","","","","","","","","","","","","","","",""
"","ISI","","html-keyboard-response","341","458757","0.0-1.0-462.0","0","0","42508","","null","","","null","51","NaN","","","","","","","","","","","","","","",""
"","S2","","html-keyboard-response","342","459011","0.0-1.0-463.0","0","0","42508","","null","","","null","51","","NaN","","","","","","","","","","","","","",""
"","response","","html-keyboard-response","343","459777","0.0-1.0-464.0-0.0","0","0","42508","","765","","","68","51","","","2","51","training","adjacent","AB","1","2","L.jpg","R.jpg","1","1","1","",""
"","feedback","","html-keyboard-response","344","460781","0.0-1.0-465.0-0.0","0","0","42508","","null","","","null","51","","","","","","","","","","","","","","","",""
"","ITI","","html-keyboard-response","345","461784","0.0-1.0-468.0","0","0","42508","","null","","","null","51","","","","","","","","","","","","","","","NaN",""
"","S1","","html-keyboard-response","346","462037","0.0-1.0-470.0","0","0","42508","","null","","","null","52","","","","","","","","","","","","","","","",""
"","ISI","","html-keyboard-response","347","462190","0.0-1.0-471.0","0","0","42508","","null","","","null","52","NaN","","","","","","","","","","","","","","",""
"","S2","","html-keyboard-response","348","462443","0.0-1.0-472.0","0","0","42508","","null","","","null","52","","NaN","","","","","","","","","","","","","",""
"","response","","html-keyboard-response","349","463185","0.0-1.0-473.0-0.0","0","0","42508","","740","","","68","52","","","2","52","training","adjacent","CD","3","4","M.jpg","P.jpg","1","1","1","",""
"","feedback","","html-keyboard-response","350","464190","0.0-1.0-474.0-0.0","0","0","42508","","null","","","null","52","","","","","","","","","","","","","","","",""
"","ITI","","html-keyboard-response","351","465193","0.0-1.0-477.0","0","0","42508","","null","","","null","52","","","","","","","","","","","","","","","NaN",""
"","S1","","html-keyboard-response","352","465446","0.0-1.0-479.0","0","0","42508","","null","","","null","53","","","","","","","","","","","","","","","",""
"","ISI","","html-keyboard-response","353","465605","0.0-1.0-480.0","0","0","42508","","null","","","null","53","NaN","","","","","","","","","","","","","","",""
"","S2","","html-keyboard-response","354","465858","0.0-1.0-481.0","0","0","42508","","null","","","null","53","","NaN","","","","","","","","","","","","","",""
"","response","","html-keyboard-response","355","466305","0.0-1.0-482.0-0.0","0","0","42508","","446","","","68","53","","","2","53","training","adjacent","BA","2","1","R.jpg","L.jpg","1","0","0","",""
"","feedback","","html-keyboard-response","356","467310","0.0-1.0-483.0-0.0","0","0","42508","","null","","","null","53","","","","","","","","","","","","","","","",""
"","time_out","","html-keyboard-response","357","469312","0.0-1.0-485.0-0.0","0","0","42508","","null","","","null","53","","","","","","","","","","","","","","","",""
"","ITI","","html-keyboard-response","358","470315","0.0-1.0-486.0","0","0","42508","","null","","","null","53","","","","","","","","","","","","","","","NaN",""
"","S1","","html-keyboard-response","359","470569","0.0-1.0-488.0","0","0","42508","","null","","","null","54","","","","","","","","","","","","","","","",""
"","ISI","","html-keyboard-response","360","470723","0.0-1.0-489.0","0","0","42508","","null","","","null","54","NaN","","","","","","","","","","","","","","",""
"","S2","","html-keyboard-response","361","470976","0.0-1.0-490.0","0","0","42508","","null","","","null","54","","NaN","","","","","","","","","","","","","",""
"","response","","html-keyboard-response","362","471425","0.0-1.0-491.0-0.0","0","0","42508","","448","","","75","54","","","2","54","training","adjacent","BA","2","1","R.jpg","L.jpg","0","0","1","",""
"","feedback","","html-keyboard-response","363","472430","0.0-1.0-492.0-0.0","0","0","42508","","null","","","null","54","","","","","","","","","","","","","","","",""
"","ITI","","html-keyboard-response","364","473432","0.0-1.0-495.0","0","0","42508","","null","","","null","54","","","","","","","","","","","","","","","NaN",""
"","S1","","html-keyboard-response","365","473685","0.0-1.0-497.0","0","0","42508","","null","","","null","55","","","","","","","","","","","","","","","",""
"","ISI","","html-keyboard-response","366","473844","0.0-1.0-498.0","0","0","42508","","null","","","null","55","NaN","","","","","","","","","","","","","","",""
"","S2","","html-keyboard-response","367","474097","0.0-1.0-499.0","0","0","42508","","null","","","null","55","","NaN","","","","","","","","","","","","","",""
"","response","","html-keyboard-response","368","474369","0.0-1.0-500.0-0.0","0","0","42508","","270","","","75","55","","","2","55","training","adjacent","FG","6","7","Q.jpg","N.jpg","0","1","0","",""
"","feedback","","html-keyboard-response","369","475371","0.0-1.0-501.0-0.0","0","0","42508","","null","","","null","55","","","","","","","","","","","","","","","",""
"","time_out","","html-keyboard-response","370","477374","0.0-1.0-503.0-0.0","0","0","42508","","null","","","null","55","","","","","","","","","","","","","","","",""
"","ITI","","html-keyboard-response","371","478378","0.0-1.0-504.0","0","0","42508","","null","","","null","55","","","","","","","","","","","","","","","NaN",""
"","S1","","html-keyboard-response","372","478631","0.0-1.0-506.0","0","0","42508","","null","","","null","56","","","","","","","","","","","","","","","",""
"","ISI","","html-keyboard-response","373","478784","0.0-1.0-507.0","0","0","42508","","null","","","null","56","NaN","","","","","","","","","","","","","","",""
"","S2","","html-keyboard-response","374","479038","0.0-1.0-508.0","0","0","42508","","null","","","null","56","","NaN","","","","","","","","","","","","","",""
"","response","","html-keyboard-response","375","479585","0.0-1.0-509.0-0.0","0","0","42508","","546","","","75","56","","","2","56","training","adjacent","FE","6","5","Q.jpg","O.jpg","0","0","1","",""
"","feedback","","html-keyboard-response","376","480589","0.0-1.0-510.0-0.0","0","0","42508","","null","","","null","56","","","","","","","","","","","","","","","",""
"","ITI","","html-keyboard-response","377","481592","0.0-1.0-513.0","0","0","42508","","null","","","null","56","","","","","","","","","","","","","","","NaN",""
"","S1","","html-keyboard-response","378","481845","0.0-1.0-515.0","0","0","42508","","null","","","null","57","","","","","","","","","","","","","","","",""
"","ISI","","html-keyboard-response","379","482000","0.0-1.0-516.0","0","0","42508","","null","","","null","57","NaN","","","","","","","","","","","","","","",""
"","S2","","html-keyboard-response","380","482254","0.0-1.0-517.0","0","0","42508","","null","","","null","57","","NaN","","","","","","","","","","","","","",""
"","response","","html-keyboard-response","381","482618","0.0-1.0-518.0-0.0","0","0","42508","","362","","","75","57","","","2","57","training","adjacent","ED","5","4","O.jpg","P.jpg","0","0","1","",""
"","feedback","","html-keyboard-response","382","483621","0.0-1.0-519.0-0.0","0","0","42508","","null","","","null","57","","","","","","","","","","","","","","","",""
"","ITI","","html-keyboard-response","383","484624","0.0-1.0-522.0","0","0","42508","","null","","","null","57","","","","","","","","","","","","","","","NaN",""
"","S1","","html-keyboard-response","384","484877","0.0-1.0-524.0","0","0","42508","","null","","","null","58","","","","","","","","","","","","","","","",""
"","ISI","","html-keyboard-response","385","485030","0.0-1.0-525.0","0","0","42508","","null","","","null","58","NaN","","","","","","","","","","","","","","",""
"","S2","","html-keyboard-response","386","485284","0.0-1.0-526.0","0","0","42508","","null","","","null","58","","NaN","","","","","","","","","","","","","",""
"","response","","html-keyboard-response","387","486242","0.0-1.0-527.0-0.0","0","0","42508","","955","","","68","58","","","2","58","training","adjacent","FG","6","7","Q.jpg","N.jpg","1","1","1","",""
"","feedback","","html-keyboard-response","388","487245","0.0-1.0-528.0-0.0","0","0","42508","","null","","","null","58","","","","","","","","","","","","","","","",""
"","ITI","","html-keyboard-response","389","488249","0.0-1.0-531.0","0","0","42508","","null","","","null","58","","","","","","","","","","","","","","","NaN",""
"","S1","","html-keyboard-response","390","488502","0.0-1.0-533.0","0","0","42508","","null","","","null","59","","","","","","","","","","","","","","","",""
"","ISI","","html-keyboard-response","391","488655","0.0-1.0-534.0","0","0","42508","","null","","","null","59","NaN","","","","","","","","","","","","","","",""
"","S2","","html-keyboard-response","392","488909","0.0-1.0-535.0","0","0","42508","","null","","","null","59","","NaN","","","","","","","","","","","","","",""
"","response","","html-keyboard-response","393","489409","0.0-1.0-536.0-0.0","0","0","42508","","497","","","75","59","","","2","59","training","adjacent","DE","4","5","P.jpg","O.jpg","0","1","0","",""
"","feedback","","html-keyboard-response","394","490412","0.0-1.0-537.0-0.0","0","0","42508","","null","","","null","59","","","","","","","","","","","","","","","",""
"","time_out","","html-keyboard-response","395","492415","0.0-1.0-539.0-0.0","0","0","42508","","null","","","null","59","","","","","","","","","","","","","","","",""
"","ITI","","html-keyboard-response","396","493418","0.0-1.0-540.0","0","0","42508","","null","","","null","59","","","","","","","","","","","","","","","NaN",""
"","S1","","html-keyboard-response","397","493672","0.0-1.0-542.0","0","0","42508","","null","","","null","60","","","","","","","","","","","","","","","",""
"","ISI","","html-keyboard-response","398","493824","0.0-1.0-543.0","0","0","42508","","null","","","null","60","NaN","","","","","","","","","","","","","","",""
"","S2","","html-keyboard-response","399","494077","0.0-1.0-544.0","0","0","42508","","null","","","null","60","","NaN","","","","","","","","","","","","","",""
"","response","","html-keyboard-response","400","494793","0.0-1.0-545.0-0.0","0","0","42508","","715","","","75","60","","","2","60","training","adjacent","ED","5","4","O.jpg","P.jpg","0","0","1","",""
"","feedback","","html-keyboard-response","401","495797","0.0-1.0-546.0-0.0","0","0","42508","","null","","","null","60","","","","","","","","","","","","","","","",""
"","ITI","","html-keyboard-response","402","496801","0.0-1.0-549.0","0","0","42508","","null","","","null","60","","","","","","","","","","","","","","","NaN",""
"","S1","","html-keyboard-response","403","497054","0.0-1.0-551.0","0","0","42508","","null","","","null","61","","","","","","","","","","","","","","","",""
"","ISI","","html-keyboard-response","404","497207","0.0-1.0-552.0","0","0","42508","","null","","","null","61","NaN","","","","","","","","","","","","","","",""
"","S2","","html-keyboard-response","405","497460","0.0-1.0-553.0","0","0","42508","","null","","","null","61","","NaN","","","","","","","","","","","","","",""
"","response","","html-keyboard-response","406","498089","0.0-1.0-554.0-0.0","0","0","42508","","627","","","68","61","","","2","61","training","adjacent","BA","2","1","R.jpg","L.jpg","1","0","0","",""
"","feedback","","html-keyboard-response","407","499096","0.0-1.0-555.0-0.0","0","0","42508","","null","","","null","61","","","","","","","","","","","","","","","",""
"","time_out","","html-keyboard-response","408","501100","0.0-1.0-557.0-0.0","0","0","42508","","null","","","null","61","","","","","","","","","","","","","","","",""
"","ITI","","html-keyboard-response","409","502103","0.0-1.0-558.0","0","0","42508","","null","","","null","61","","","","","","","","","","","","","","","NaN",""
"","S1","","html-keyboard-response","410","502357","0.0-1.0-560.0","0","0","42508","","null","","","null","62","","","","","","","","","","","","","","","",""
"","ISI","","html-keyboard-response","411","502510","0.0-1.0-561.0","0","0","42508","","null","","","null","62","NaN","","","","","","","","","","","","","","",""
"","S2","","html-keyboard-response","412","502763","0.0-1.0-562.0","0","0","42508","","null","","","null","62","","NaN","","","","","","","","","","","","","",""
"","response","","html-keyboard-response","413","503609","0.0-1.0-563.0-0.0","0","0","42508","","844","","","75","62","","","2","62","training","adjacent","GF","7","6","N.jpg","Q.jpg","0","0","1","",""
"","feedback","","html-keyboard-response","414","504613","0.0-1.0-564.0-0.0","0","0","42508","","null","","","null","62","","","","","","","","","","","","","","","",""
"","ITI","","html-keyboard-response","415","505616","0.0-1.0-567.0","0","0","42508","","null","","","null","62","","","","","","","","","","","","","","","NaN",""
"","S1","","html-keyboard-response","416","505869","0.0-1.0-569.0","0","0","42508","","null","","","null","63","","","","","","","","","","","","","","","",""
"","ISI","","html-keyboard-response","417","506023","0.0-1.0-570.0","0","0","42508","","null","","","null","63","NaN","","","","","","","","","","","","","","",""
"","S2","","html-keyboard-response","418","506276","0.0-1.0-571.0","0","0","42508","","null","","","null","63","","NaN","","","","","","","","","","","","","",""
"","response","","html-keyboard-response","419","506906","0.0-1.0-572.0-0.0","0","0","42508","","628","","","68","63","","","2","63","training","adjacent","CD","3","4","M.jpg","P.jpg","1","1","1","",""
"","feedback","","html-keyboard-response","420","507910","0.0-1.0-573.0-0.0","0","0","42508","","null","","","null","63","","","","","","","","","","","","","","","",""
"","ITI","","html-keyboard-response","421","508913","0.0-1.0-576.0","0","0","42508","","null","","","null","63","","","","","","","","","","","","","","","NaN",""
"","S1","","html-keyboard-response","422","509166","0.0-1.0-578.0","0","0","42508","","null","","","null","64","","","","","","","","","","","","","","","",""
"","ISI","","html-keyboard-response","423","509323","0.0-1.0-579.0","0","0","42508","","null","","","null","64","NaN","","","","","","","","","","","","","","",""
"","S2","","html-keyboard-response","424","509576","0.0-1.0-580.0","0","0","42508","","null","","","null","64","","NaN","","","","","","","","","","","","","",""
"","response","","html-keyboard-response","425","510361","0.0-1.0-581.0-0.0","0","0","42508","","784","","","75","64","","","2","64","training","adjacent","FE","6","5","Q.jpg","O.jpg","0","0","1","",""
"","feedback","","html-keyboard-response","426","511364","0.0-1.0-582.0-0.0","0","0","42508","","null","","","null","64","","","","","","","","","","","","","","","",""
"","ITI","","html-keyboard-response","427","512367","0.0-1.0-585.0","0","0","42508","","null","","","null","64","","","","","","","","","","","","","","","NaN",""
"","S1","","html-keyboard-response","428","512620","0.0-1.0-587.0","0","0","42508","","null","","","null","65","","","","","","","","","","","","","","","",""
"","ISI","","html-keyboard-response","429","512774","0.0-1.0-588.0","0","0","42508","","null","","","null","65","NaN","","","","","","","","","","","","","","",""
"","S2","","html-keyboard-response","430","513036","0.0-1.0-589.0","0","0","42508","","null","","","null","65","","NaN","","","","","","","","","","","","","",""
"","response","","html-keyboard-response","431","514081","0.0-1.0-590.0-0.0","0","0","42508","","1044","","","68","65","","","2","65","training","adjacent","BA","2","1","R.jpg","L.jpg","1","0","0","",""
"","feedback","","html-keyboard-response","432","515085","0.0-1.0-591.0-0.0","0","0","42508","","null","","","null","65","","","","","","","","","","","","","","","",""
"","time_out","","html-keyboard-response","433","517088","0.0-1.0-593.0-0.0","0","0","42508","","null","","","null","65","","","","","","","","","","","","","","","",""
"","ITI","","html-keyboard-response","434","518092","0.0-1.0-594.0","0","0","42508","","null","","","null","65","","","","","","","","","","","","","","","NaN",""
"","S1","","html-keyboard-response","435","518346","0.0-1.0-596.0","0","0","42508","","null","","","null","66","","","","","","","","","","","","","","","",""
"","ISI","","html-keyboard-response","436","518499","0.0-1.0-597.0","0","0","42508","","null","","","null","66","NaN","","","","","","","","","","","","","","",""
"","S2","","html-keyboard-response","437","518752","0.0-1.0-598.0","0","0","42508","","null","","","null","66","","NaN","","","","","","","","","","","","","",""
"","response","","html-keyboard-response","438","519489","0.0-1.0-599.0-0.0","0","0","42508","","735","","","75","66","","","2","66","training","adjacent","DE","4","5","P.jpg","O.jpg","0","1","0","",""
"","feedback","","html-keyboard-response","439","520507","0.0-1.0-600.0-0.0","0","0","42508","","null","","","null","66","","","","","","","","","","","","","","","",""
"","time_out","","html-keyboard-response","440","522510","0.0-1.0-602.0-0.0","0","0","42508","","null","","","null","66","","","","","","","","","","","","","","","",""
"","ITI","","html-keyboard-response","441","523514","0.0-1.0-603.0","0","0","42508","","null","","","null","66","","","","","","","","","","","","","","","NaN",""
"","S1","","html-keyboard-response","442","523767","0.0-1.0-605.0","0","0","42508","","null","","","null","67","","","","","","","","","","","","","","","",""
"","ISI","","html-keyboard-response","443","523919","0.0-1.0-606.0","0","0","42508","","null","","","null","67","NaN","","","","","","","","","","","","","","",""
"","S2","","html-keyboard-response","444","524173","0.0-1.0-607.0","0","0","42508","","null","","","null","67","","NaN","","","","","","","","","","","","","",""
"","response","","html-keyboard-response","445","524753","0.0-1.0-608.0-0.0","0","0","42508","","578","","","75","67","","","2","67","training","adjacent","DC","4","3","P.jpg","M.jpg","0","0","1","",""
"","feedback","","html-keyboard-response","446","525756","0.0-1.0-609.0-0.0","0","0","42508","","null","","","null","67","","","","","","","","","","","","","","","",""
"","ITI","","html-keyboard-response","447","526760","0.0-1.0-612.0","0","0","42508","","null","","","null","67","","","","","","","","","","","","","","","NaN",""
"","S1","","html-keyboard-response","448","527014","0.0-1.0-614.0","0","0","42508","","null","","","null","68","","","","","","","","","","","","","","","",""
"","ISI","","html-keyboard-response","449","527167","0.0-1.0-615.0","0","0","42508","","null","","","null","68","NaN","","","","","","","","","","","","","","",""
"","S2","","html-keyboard-response","450","527420","0.0-1.0-616.0","0","0","42508","","null","","","null","68","","NaN","","","","","","","","","","","","","",""
"","response","","html-keyboard-response","451","528193","0.0-1.0-617.0-0.0","0","0","42508","","771","","","68","68","","","2","68","training","adjacent","BC","2","3","R.jpg","M.jpg","1","1","1","",""
"","feedback","","html-keyboard-response","452","529197","0.0-1.0-618.0-0.0","0","0","42508","","null","","","null","68","","","","","","","","","","","","","","","",""
"","ITI","","html-keyboard-response","453","530200","0.0-1.0-621.0","0","0","42508","","null","","","null","68","","","","","","","","","","","","","","","NaN",""
"","S1","","html-keyboard-response","454","530452","0.0-1.0-623.0","0","0","42508","","null","","","null","69","","","","","","","","","","","","","","","",""
"","ISI","","html-keyboard-response","455","530606","0.0-1.0-624.0","0","0","42508","","null","","","null","69","NaN","","","","","","","","","","","","","","",""
"","S2","","html-keyboard-response","456","530860","0.0-1.0-625.0","0","0","42508","","null","","","null","69","","NaN","","","","","","","","","","","","","",""
"","response","","html-keyboard-response","457","531753","0.0-1.0-626.0-0.0","0","0","42508","","891","","","68","69","","","2","69","training","adjacent","FG","6","7","Q.jpg","N.jpg","1","1","1","",""
"","feedback","","html-keyboard-response","458","532757","0.0-1.0-627.0-0.0","0","0","42508","","null","","","null","69","","","","","","","","","","","","","","","",""
"","ITI","","html-keyboard-response","459","533761","0.0-1.0-630.0","0","0","42508","","null","","","null","69","","","","","","","","","","","","","","","NaN",""
"","S1","","html-keyboard-response","460","534014","0.0-1.0-632.0","0","0","42508","","null","","","null","70","","","","","","","","","","","","","","","",""
"","ISI","","html-keyboard-response","461","534166","0.0-1.0-633.0","0","0","42508","","null","","","null","70","NaN","","","","","","","","","","","","","","",""
"","S2","","html-keyboard-response","462","534420","0.0-1.0-634.0","0","0","42508","","null","","","null","70","","NaN","","","","","","","","","","","","","",""
"","response","","html-keyboard-response","463","534897","0.0-1.0-635.0-0.0","0","0","42508","","475","","","68","70","","","2","70","training","adjacent","GF","7","6","N.jpg","Q.jpg","1","0","0","",""
"","feedback","","html-keyboard-response","464","535901","0.0-1.0-636.0-0.0","0","0","42508","","null","","","null","70","","","","","","","","","","","","","","","",""
"","time_out","","html-keyboard-response","465","537904","0.0-1.0-638.0-0.0","0","0","42508","","null","","","null","70","","","","","","","","","","","","","","","",""
"","ITI","","html-keyboard-response","466","538906","0.0-1.0-639.0","0","0","42508","","null","","","null","70","","","","","","","","","","","","","","","NaN",""
"","S1","","html-keyboard-response","467","539160","0.0-1.0-641.0","0","0","42508","","null","","","null","71","","","","","","","","","","","","","","","",""
"","ISI","","html-keyboard-response","468","539314","0.0-1.0-642.0","0","0","42508","","null","","","null","71","NaN","","","","","","","","","","","","","","",""
"","S2","","html-keyboard-response","469","539567","0.0-1.0-643.0","0","0","42508","","null","","","null","71","","NaN","","","","","","","","","","","","","",""
"","response","","html-keyboard-response","470","540049","0.0-1.0-644.0-0.0","0","0","42508","","481","","","68","71","","","2","71","training","adjacent","DC","4","3","P.jpg","M.jpg","1","0","0","",""
"","feedback","","html-keyboard-response","471","541052","0.0-1.0-645.0-0.0","0","0","42508","","null","","","null","71","","","","","","","","","","","","","","","",""
"","time_out","","html-keyboard-response","472","543056","0.0-1.0-647.0-0.0","0","0","42508","","null","","","null","71","","","","","","","","","","","","","","","",""
"","ITI","","html-keyboard-response","473","544059","0.0-1.0-648.0","0","0","42508","","null","","","null","71","","","","","","","","","","","","","","","NaN",""
"","S1","","html-keyboard-response","474","544313","0.0-1.0-650.0","0","0","42508","","null","","","null","72","","","","","","","","","","","","","","","",""
"","ISI","","html-keyboard-response","475","544466","0.0-1.0-651.0","0","0","42508","","null","","","null","72","NaN","","","","","","","","","","","","","","",""
"","S2","","html-keyboard-response","476","544720","0.0-1.0-652.0","0","0","42508","","null","","","null","72","","NaN","","","","","","","","","","","","","",""
"","response","","html-keyboard-response","477","545355","0.0-1.0-653.0-0.0","0","0","42508","","632","","","75","72","","","2","72","training","adjacent","CD","3","4","M.jpg","P.jpg","0","1","0","",""
"","feedback","","html-keyboard-response","478","546359","0.0-1.0-654.0-0.0","0","0","42508","","null","","","null","72","","","","","","","","","","","","","","","",""
"","time_out","","html-keyboard-response","479","548361","0.0-1.0-656.0-0.0","0","0","42508","","null","","","null","72","","","","","","","","","","","","","","","",""
"","ITI","","html-keyboard-response","480","549364","0.0-1.0-657.0","0","0","42508","","null","","","null","72","","","","","","","","","","","","","","","NaN",""
"","S1","","html-keyboard-response","481","549617","0.0-1.0-659.0","0","0","42508","","null","","","null","73","","","","","","","","","","","","","","","",""
"","ISI","","html-keyboard-response","482","549781","0.0-1.0-660.0","0","0","42508","","null","","","null","73","NaN","","","","","","","","","","","","","","",""
"","S2","","html-keyboard-response","483","550035","0.0-1.0-661.0","0","0","42508","","null","","","null","73","","NaN","","","","","","","","","","","","","",""
"","response","","html-keyboard-response","484","550635","0.0-1.0-662.0-0.0","0","0","42508","","598","","","68","73","","","2","73","training","adjacent","EF","5","6","O.jpg","Q.jpg","1","1","1","",""
"","feedback","","html-keyboard-response","485","551641","0.0-1.0-663.0-0.0","0","0","42508","","null","","","null","73","","","","","","","","","","","","","","","",""
"","ITI","","html-keyboard-response","486","552644","0.0-1.0-666.0","0","0","42508","","null","","","null","73","","","","","","","","","","","","","","","NaN",""
"","S1","","html-keyboard-response","487","552898","0.0-1.0-668.0","0","0","42508","","null","","","null","74","","","","","","","","","","","","","","","",""
"","ISI","","html-keyboard-response","488","553050","0.0-1.0-669.0","0","0","42508","","null","","","null","74","NaN","","","","","","","","","","","","","","",""
"","S2","","html-keyboard-response","489","553303","0.0-1.0-670.0","0","0","42508","","null","","","null","74","","NaN","","","","","","","","","","","","","",""
"","response","","html-keyboard-response","490","553955","0.0-1.0-671.0-0.0","0","0","42508","","649","","","68","74","","","2","74","training","adjacent","DC","4","3","P.jpg","M.jpg","1","0","0","",""
"","feedback","","html-keyboard-response","491","554959","0.0-1.0-672.0-0.0","0","0","42508","","null","","","null","74","","","","","","","","","","","","","","","",""
"","time_out","","html-keyboard-response","492","556962","0.0-1.0-674.0-0.0","0","0","42508","","null","","","null","74","","","","","","","","","","","","","","","",""
"","ITI","","html-keyboard-response","493","557966","0.0-1.0-675.0","0","0","42508","","null","","","null","74","","","","","","","","","","","","","","","NaN",""
"","S1","","html-keyboard-response","494","558219","0.0-1.0-677.0","0","0","42508","","null","","","null","75","","","","","","","","","","","","","","","",""
"","ISI","","html-keyboard-response","495","558372","0.0-1.0-678.0","0","0","42508","","null","","","null","75","NaN","","","","","","","","","","","","","","",""
"","S2","","html-keyboard-response","496","558626","0.0-1.0-679.0","0","0","42508","","null","","","null","75","","NaN","","","","","","","","","","","","","",""
"","response","","html-keyboard-response","497","559211","0.0-1.0-680.0-0.0","0","0","42508","","583","","","75","75","","","2","75","training","adjacent","FE","6","5","Q.jpg","O.jpg","0","0","1","",""
"","feedback","","html-keyboard-response","498","560214","0.0-1.0-681.0-0.0","0","0","42508","","null","","","null","75","","","","","","","","","","","","","","","",""
"","ITI","","html-keyboard-response","499","561217","0.0-1.0-684.0","0","0","42508","","null","","","null","75","","","","","","","","","","","","","","","NaN",""
"","S1","","html-keyboard-response","500","561470","0.0-1.0-686.0","0","0","42508","","null","","","null","76","","","","","","","","","","","","","","","",""
"","ISI","","html-keyboard-response","501","561623","0.0-1.0-687.0","0","0","42508","","null","","","null","76","NaN","","","","","","","","","","","","","","",""
"","S2","","html-keyboard-response","502","561876","0.0-1.0-688.0","0","0","42508","","null","","","null","76","","NaN","","","","","","","","","","","","","",""
"","response","","html-keyboard-response","503","562083","0.0-1.0-689.0-0.0","0","0","42508","","204","","","75","76","","","2","76","training","adjacent","AB","1","2","L.jpg","R.jpg","0","1","0","",""
"","feedback","","html-keyboard-response","504","563086","0.0-1.0-690.0-0.0","0","0","42508","","null","","","null","76","","","","","","","","","","","","","","","",""
"","time_out","","html-keyboard-response","505","565089","0.0-1.0-692.0-0.0","0","0","42508","","null","","","null","76","","","","","","","","","","","","","","","",""
"","ITI","","html-keyboard-response","506","566092","0.0-1.0-693.0","0","0","42508","","null","","","null","76","","","","","","","","","","","","","","","NaN",""
"","S1","","html-keyboard-response","507","566345","0.0-1.0-695.0","0","0","42508","","null","","","null","77","","","","","","","","","","","","","","","",""
"","ISI","","html-keyboard-response","508","566498","0.0-1.0-696.0","0","0","42508","","null","","","null","77","NaN","","","","","","","","","","","","","","",""
"","S2","","html-keyboard-response","509","566751","0.0-1.0-697.0","0","0","42508","","null","","","null","77","","NaN","","","","","","","","","","","","","",""
"","response","","html-keyboard-response","510","567266","0.0-1.0-698.0-0.0","0","0","42508","","513","","","68","77","","","2","77","training","adjacent","DE","4","5","P.jpg","O.jpg","1","1","1","",""
"","feedback","","html-keyboard-response","511","568269","0.0-1.0-699.0-0.0","0","0","42508","","null","","","null","77","","","","","","","","","","","","","","","",""
"","ITI","","html-keyboard-response","512","569273","0.0-1.0-702.0","0","0","42508","","null","","","null","77","","","","","","","","","","","","","","","NaN",""
"","S1","","html-keyboard-response","513","569526","0.0-1.0-704.0","0","0","42508","","null","","","null","78","","","","","","","","","","","","","","","",""
"","ISI","","html-keyboard-response","514","569682","0.0-1.0-705.0","0","0","42508","","null","","","null","78","NaN","","","","","","","","","","","","","","",""
"","S2","","html-keyboard-response","515","569934","0.0-1.0-706.0","0","0","42508","","null","","","null","78","","NaN","","","","","","","","","","","","","",""
"","response","","html-keyboard-response","516","570627","0.0-1.0-707.0-0.0","0","0","42508","","691","","","75","78","","","2","78","training","adjacent","BC","2","3","R.jpg","M.jpg","0","1","0","",""
"","feedback","","html-keyboard-response","517","571631","0.0-1.0-708.0-0.0","0","0","42508","","null","","","null","78","","","","","","","","","","","","","","","",""
"","time_out","","html-keyboard-response","518","573634","0.0-1.0-710.0-0.0","0","0","42508","","null","","","null","78","","","","","","","","","","","","","","","",""
"","ITI","","html-keyboard-response","519","574638","0.0-1.0-711.0","0","0","42508","","null","","","null","78","","","","","","","","","","","","","","","NaN",""
"","S1","","html-keyboard-response","520","574891","0.0-1.0-713.0","0","0","42508","","null","","","null","79","","","","","","","","","","","","","","","",""
"","ISI","","html-keyboard-response","521","575045","0.0-1.0-714.0","0","0","42508","","null","","","null","79","NaN","","","","","","","","","","","","","","",""
"","S2","","html-keyboard-response","522","575299","0.0-1.0-715.0","0","0","42508","","null","","","null","79","","NaN","","","","","","","","","","","","","",""
"","response","","html-keyboard-response","523","575763","0.0-1.0-716.0-0.0","0","0","42508","","462","","","68","79","","","2","79","training","adjacent","CD","3","4","M.jpg","P.jpg","1","1","1","",""
"","feedback","","html-keyboard-response","524","576766","0.0-1.0-717.0-0.0","0","0","42508","","null","","","null","79","","","","","","","","","","","","","","","",""
"","ITI","","html-keyboard-response","525","577769","0.0-1.0-720.0","0","0","42508","","null","","","null","79","","","","","","","","","","","","","","","NaN",""
"","S1","","html-keyboard-response","526","578022","0.0-1.0-722.0","0","0","42508","","null","","","null","80","","","","","","","","","","","","","","","",""
"","ISI","","html-keyboard-response","527","578175","0.0-1.0-723.0","0","0","42508","","null","","","null","80","NaN","","","","","","","","","","","","","","",""
"","S2","","html-keyboard-response","528","578428","0.0-1.0-724.0","0","0","42508","","null","","","null","80","","NaN","","","","","","","","","","","","","",""
"","response","","html-keyboard-response","529","578875","0.0-1.0-725.0-0.0","0","0","42508","","444","","","68","80","","","2","80","training","adjacent","FG","6","7","Q.jpg","N.jpg","1","1","1","",""
"","feedback","","html-keyboard-response","530","579878","0.0-1.0-726.0-0.0","0","0","42508","","null","","","null","80","","","","","","","","","","","","","","","",""
"","ITI","","html-keyboard-response","531","580882","0.0-1.0-729.0","0","0","42508","","null","","","null","80","","","","","","","","","","","","","","","NaN",""
"","S1","","html-keyboard-response","532","581135","0.0-1.0-731.0","0","0","42508","","null","","","null","81","","","","","","","","","","","","","","","",""
"","ISI","","html-keyboard-response","533","581288","0.0-1.0-732.0","0","0","42508","","null","","","null","81","NaN","","","","","","","","","","","","","","",""
"","S2","","html-keyboard-response","534","581541","0.0-1.0-733.0","0","0","42508","","null","","","null","81","","NaN","","","","","","","","","","","","","",""
"","response","","html-keyboard-response","535","582035","0.0-1.0-734.0-0.0","0","0","42508","","491","","","68","81","","","2","81","training","adjacent","DE","4","5","P.jpg","O.jpg","1","1","1","",""
"","feedback","","html-keyboard-response","536","583039","0.0-1.0-735.0-0.0","0","0","42508","","null","","","null","81","","","","","","","","","","","","","","","",""
"","ITI","","html-keyboard-response","537","584042","0.0-1.0-738.0","0","0","42508","","null","","","null","81","","","","","","","","","","","","","","","NaN",""
"","S1","","html-keyboard-response","538","584295","0.0-1.0-740.0","0","0","42508","","null","","","null","82","","","","","","","","","","","","","","","",""
"","ISI","","html-keyboard-response","539","584449","0.0-1.0-741.0","0","0","42508","","null","","","null","82","NaN","","","","","","","","","","","","","","",""
"","S2","","html-keyboard-response","540","584702","0.0-1.0-742.0","0","0","42508","","null","","","null","82","","NaN","","","","","","","","","","","","","",""
"","response","","html-keyboard-response","541","585490","0.0-1.0-743.0-0.0","0","0","42508","","786","","","68","82","","","2","82","training","adjacent","AB","1","2","L.jpg","R.jpg","1","1","1","",""
"","feedback","","html-keyboard-response","542","586493","0.0-1.0-744.0-0.0","0","0","42508","","null","","","null","82","","","","","","","","","","","","","","","",""
"","ITI","","html-keyboard-response","543","587496","0.0-1.0-747.0","0","0","42508","","null","","","null","82","","","","","","","","","","","","","","","NaN",""
"","S1","","html-keyboard-response","544","587749","0.0-1.0-749.0","0","0","42508","","null","","","null","83","","","","","","","","","","","","","","","",""
"","ISI","","html-keyboard-response","545","587902","0.0-1.0-750.0","0","0","42508","","null","","","null","83","NaN","","","","","","","","","","","","","","",""
"","S2","","html-keyboard-response","546","588156","0.0-1.0-751.0","0","0","42508","","null","","","null","83","","NaN","","","","","","","","","","","","","",""
"","response","","html-keyboard-response","547","588875","0.0-1.0-752.0-0.0","0","0","42508","","717","","","68","83","","","2","83","training","adjacent","DC","4","3","P.jpg","M.jpg","1","0","0","",""
"","feedback","","html-keyboard-response","548","589878","0.0-1.0-753.0-0.0","0","0","42508","","null","","","null","83","","","","","","","","","","","","","","","",""
"","time_out","","html-keyboard-response","549","591882","0.0-1.0-755.0-0.0","0","0","42508","","null","","","null","83","","","","","","","","","","","","","","","",""
"","ITI","","html-keyboard-response","550","592885","0.0-1.0-756.0","0","0","42508","","null","","","null","83","","","","","","","","","","","","","","","NaN",""
"","S1","","html-keyboard-response","551","593138","0.0-1.0-758.0","0","0","42508","","null","","","null","84","","","","","","","","","","","","","","","",""
"","ISI","","html-keyboard-response","552","593291","0.0-1.0-759.0","0","0","42508","","null","","","null","84","NaN","","","","","","","","","","","","","","",""
"","S2","","html-keyboard-response","553","593545","0.0-1.0-760.0","0","0","42508","","null","","","null","84","","NaN","","","","","","","","","","","","","",""
"","response","","html-keyboard-response","554","593939","0.0-1.0-761.0-0.0","0","0","42508","","392","","","68","84","","","2","84","training","adjacent","CB","3","2","M.jpg","R.jpg","1","0","0","",""
"","feedback","","html-keyboard-response","555","594942","0.0-1.0-762.0-0.0","0","0","42508","","null","","","null","84","","","","","","","","","","","","","","","",""
"","time_out","","html-keyboard-response","556","596945","0.0-1.0-764.0-0.0","0","0","42508","","null","","","null","84","","","","","","","","","","","","","","","",""
"","ITI","","html-keyboard-response","557","597948","0.0-1.0-765.0","0","0","42508","","null","","","null","84","","","","","","","","","","","","","","","NaN",""
"","S1","","html-keyboard-response","558","598201","0.0-1.0-767.0","0","0","42508","","null","","","null","85","","","","","","","","","","","","","","","",""
"","ISI","","html-keyboard-response","559","598354","0.0-1.0-768.0","0","0","42508","","null","","","null","85","NaN","","","","","","","","","","","","","","",""
"","S2","","html-keyboard-response","560","598607","0.0-1.0-769.0","0","0","42508","","null","","","null","85","","NaN","","","","","","","","","","","","","",""
"","response","","html-keyboard-response","561","599043","0.0-1.0-770.0-0.0","0","0","42508","","433","","","68","85","","","2","85","training","adjacent","CB","3","2","M.jpg","R.jpg","1","0","0","",""
"","feedback","","html-keyboard-response","562","600046","0.0-1.0-771.0-0.0","0","0","42508","","null","","","null","85","","","","","","","","","","","","","","","",""
"","time_out","","html-keyboard-response","563","602049","0.0-1.0-773.0-0.0","0","0","42508","","null","","","null","85","","","","","","","","","","","","","","","",""
"","ITI","","html-keyboard-response","564","603052","0.0-1.0-774.0","0","0","42508","","null","","","null","85","","","","","","","","","","","","","","","NaN",""
"","S1","","html-keyboard-response","565","603305","0.0-1.0-776.0","0","0","42508","","null","","","null","86","","","","","","","","","","","","","","","",""
"","ISI","","html-keyboard-response","566","603458","0.0-1.0-777.0","0","0","42508","","null","","","null","86","NaN","","","","","","","","","","","","","","",""
"","S2","","html-keyboard-response","567","603712","0.0-1.0-778.0","0","0","42508","","null","","","null","86","","NaN","","","","","","","","","","","","","",""
"","response","","html-keyboard-response","568","604851","0.0-1.0-779.0-0.0","0","0","42508","","1137","","","75","86","","","2","86","training","adjacent","EF","5","6","O.jpg","Q.jpg","0","1","0","",""
"","feedback","","html-keyboard-response","569","605854","0.0-1.0-780.0-0.0","0","0","42508","","null","","","null","86","","","","","","","","","","","","","","","",""
"","time_out","","html-keyboard-response","570","607857","0.0-1.0-782.0-0.0","0","0","42508","","null","","","null","86","","","","","","","","","","","","","","","",""
"","ITI","","html-keyboard-response","571","608861","0.0-1.0-783.0","0","0","42508","","null","","","null","86","","","","","","","","","","","","","","","NaN",""
"","S1","","html-keyboard-response","572","609115","0.0-1.0-785.0","0","0","42508","","null","","","null","87","","","","","","","","","","","","","","","",""
"","ISI","","html-keyboard-response","573","609268","0.0-1.0-786.0","0","0","42508","","null","","","null","87","NaN","","","","","","","","","","","","","","",""
"","S2","","html-keyboard-response","574","609522","0.0-1.0-787.0","0","0","42508","","null","","","null","87","","NaN","","","","","","","","","","","","","",""
"","response","","html-keyboard-response","575","610035","0.0-1.0-788.0-0.0","0","0","42508","","511","","","68","87","","","2","87","training","adjacent","FE","6","5","Q.jpg","O.jpg","1","0","0","",""
"","feedback","","html-keyboard-response","576","611052","0.0-1.0-789.0-0.0","0","0","42508","","null","","","null","87","","","","","","","","","","","","","","","",""
"","time_out","","html-keyboard-response","577","613056","0.0-1.0-791.0-0.0","0","0","42508","","null","","","null","87","","","","","","","","","","","","","","","",""
"","ITI","","html-keyboard-response","578","614059","0.0-1.0-792.0","0","0","42508","","null","","","null","87","","","","","","","","","","","","","","","NaN",""
"","S1","","html-keyboard-response","579","614313","0.0-1.0-794.0","0","0","42508","","null","","","null","88","","","","","","","","","","","","","","","",""
"","ISI","","html-keyboard-response","580","614466","0.0-1.0-795.0","0","0","42508","","null","","","null","88","NaN","","","","","","","","","","","","","","",""
