"success","ttype","start_time","trial_type","trial_index","time_elapsed","internal_node_id","warning","missed_checkup","PID","view_history","rt","responses","repeat_instructions","key_press","index","keypress_isi","keypress_S2","block","trial_num","phase","group_type","pair_type","S1_stim","S2_stim","S1_img","S2_img","S1_chosen","S1_higher","accuracy","keypress_iti","total_bonus_tally"
"true","full_screen","d08012022hr1826","fullscreen","0","3417","0.0-0.0","0","0","41433","","","","","","","","","","","","","","","","","","","","","",""
"","instructions","","instructions","1","9959","0.0-1.0-0.0-0.0","0","0","41433","[{""page_index"":0,""viewing_time"":2485},{""page_index"":1,""viewing_time"":1502},{""page_index"":2,""viewing_time"":1558},{""page_index"":3,""viewing_time"":994}]","6540","","","","","","","","","","","","","","","","","","","",""
"","comprehension_check","","survey-multi-choice","2","25051","0.0-1.0-0.0-1.0","0","0","41433","","15083","{""Q0"":""True"",""Q1"":""K"",""Q2"":""When you see the prompt 'MAKE A CHOICE' after the second image was presented"",""Q3"":""Green mark"",""Q4"":""either D or K""}","0","","","","","","","","","","","","","","","","","",""
"","start_exp","","html-keyboard-response","3","26547","0.0-1.0-1.0","0","0","41433","","1492","","","32","","","","","","","","","","","","","","","","",""
"","S1","","html-keyboard-response","4","26802","0.0-1.0-2.0","0","0","41433","","null","","","null","0","","","","","","","","","","","","","","","",""
"","ISI","","html-keyboard-response","5","28807","0.0-1.0-3.0","0","0","41433","","291","","","32","0","space","","","","","","","","","","","","","","",""
"","S2","","html-keyboard-response","6","29062","0.0-1.0-4.0","0","0","41433","","null","","","null","0","","NaN","","","","","","","","","","","","","",""
"","response","","html-keyboard-response","7","30326","0.0-1.0-5.0","0","0","41433","","1261","","","75","0","","","1","0","training","adjacent","BA","2","1","P.jpg","Q.jpg","1","0","0","",""
"","feedback","","html-keyboard-response","8","31329","0.0-1.0-6.0-0.0","0","0","41433","","null","","","null","0","","","","","","","","","","","","","","","",""
"","time_out","","html-keyboard-response","9","33332","0.0-1.0-8.0-0.0","0","0","41433","","null","","","null","0","","","","","","","","","","","","","","","",""
"","ITI","","html-keyboard-response","10","34335","0.0-1.0-9.0","0","0","41433","","null","","","null","0","","","","","","","","","","","","","","","NaN",""
"","S1","","html-keyboard-response","11","34587","0.0-1.0-11.0","0","0","41433","","null","","","null","1","","","","","","","","","","","","","","","",""
"","ISI","","html-keyboard-response","12","36589","0.0-1.0-12.0","0","0","41433","","null","","","null","1","NaN","","","","","","","","","","","","","","",""
"","S2","","html-keyboard-response","13","36844","0.0-1.0-13.0","0","0","41433","","null","","","null","1","","NaN","","","","","","","","","","","","","",""
"","response","","html-keyboard-response","14","37764","0.0-1.0-14.0","0","0","41433","","918","","","75","1","","","1","1","training","adjacent","GF","7","6","L.jpg","N.jpg","1","0","0","",""
"","feedback","","html-keyboard-response","15","38767","0.0-1.0-15.0-0.0","0","0","41433","","null","","","null","1","","","","","","","","","","","","","","","",""
"","time_out","","html-keyboard-response","16","40770","0.0-1.0-17.0-0.0","0","0","41433","","null","","","null","1","","","","","","","","","","","","","","","",""
"","ITI","","html-keyboard-response","17","41774","0.0-1.0-18.0","0","0","41433","","null","","","null","1","","","","","","","","","","","","","","","NaN",""
"","S1","","html-keyboard-response","18","42029","0.0-1.0-20.0","0","0","41433","","null","","","null","2","","","","","","","","","","","","","","","",""
"","ISI","","html-keyboard-response","19","44032","0.0-1.0-21.0","0","0","41433","","null","","","null","2","NaN","","","","","","","","","","","","","","",""
"","S2","","html-keyboard-response","20","44284","0.0-1.0-22.0","0","0","41433","","null","","","null","2","","NaN","","","","","","","","","","","","","",""
"","response","","html-keyboard-response","21","45293","0.0-1.0-23.0","0","0","41433","","1007","","","68","2","","","1","2","training","adjacent","CB","3","2","M.jpg","P.jpg","0","0","1","",""
"","feedback","","html-keyboard-response","22","46297","0.0-1.0-24.0-0.0","0","0","41433","","null","","","null","2","","","","","","","","","","","","","","","",""
"","ITI","","html-keyboard-response","23","47300","0.0-1.0-27.0","0","0","41433","","null","","","null","2","","","","","","","","","","","","","","","NaN",""
"","S1","","html-keyboard-response","24","47552","0.0-1.0-29.0","0","0","41433","","null","","","null","3","","","","","","","","","","","","","","","",""
"","ISI","","html-keyboard-response","25","49556","0.0-1.0-30.0","0","0","41433","","null","","","null","3","NaN","","","","","","","","","","","","","","",""
"","S2","","html-keyboard-response","26","49809","0.0-1.0-31.0","0","0","41433","","null","","","null","3","","NaN","","","","","","","","","","","","","",""
"","response","","html-keyboard-response","27","51061","0.0-1.0-32.0","0","0","41433","","1249","","","68","3","","","1","3","training","adjacent","CB","3","2","M.jpg","P.jpg","0","0","1","",""
"","feedback","","html-keyboard-response","28","52065","0.0-1.0-33.0-0.0","0","0","41433","","null","","","null","3","","","","","","","","","","","","","","","",""
"","ITI","","html-keyboard-response","29","53068","0.0-1.0-36.0","0","0","41433","","null","","","null","3","","","","","","","","","","","","","","","NaN",""
"","S1","","html-keyboard-response","30","53322","0.0-1.0-38.0","0","0","41433","","null","","","null","4","","","","","","","","","","","","","","","",""
"","ISI","","html-keyboard-response","31","55326","0.0-1.0-39.0","0","0","41433","","null","","","null","4","NaN","","","","","","","","","","","","","","",""
"","S2","","html-keyboard-response","32","55581","0.0-1.0-40.0","0","0","41433","","null","","","null","4","","NaN","","","","","","","","","","","","","",""
"","response","","html-keyboard-response","33","55789","0.0-1.0-41.0","0","0","41433","","205","","","75","4","","","1","4","training","adjacent","EF","5","6","O.jpg","N.jpg","1","1","1","",""
"","feedback","","html-keyboard-response","34","56794","0.0-1.0-42.0-0.0","0","0","41433","","null","","","null","4","","","","","","","","","","","","","","","",""
"","ITI","","html-keyboard-response","35","57797","0.0-1.0-45.0","0","0","41433","","null","","","null","4","","","","","","","","","","","","","","","NaN",""
"","S1","","html-keyboard-response","36","58049","0.0-1.0-47.0","0","0","41433","","null","","","null","5","","","","","","","","","","","","","","","",""
"","ISI","","html-keyboard-response","37","60052","0.0-1.0-48.0","0","0","41433","","null","","","null","5","NaN","","","","","","","","","","","","","","",""
"","S2","","html-keyboard-response","38","60305","0.0-1.0-49.0","0","0","41433","","null","","","null","5","","NaN","","","","","","","","","","","","","",""
"","response","","html-keyboard-response","39","60455","0.0-1.0-50.0","0","0","41433","","147","","","68","5","","","1","5","training","adjacent","CD","3","4","M.jpg","R.jpg","0","1","0","",""
"","feedback","","html-keyboard-response","40","61461","0.0-1.0-51.0-0.0","0","0","41433","","null","","","null","5","","","","","","","","","","","","","","","",""
"","time_out","","html-keyboard-response","41","63463","0.0-1.0-53.0-0.0","0","0","41433","","null","","","null","5","","","","","","","","","","","","","","","",""
"","ITI","","html-keyboard-response","42","64466","0.0-1.0-54.0","0","0","41433","","null","","","null","5","","","","","","","","","","","","","","","NaN",""
"","S1","","html-keyboard-response","43","64719","0.0-1.0-56.0","0","0","41433","","null","","","null","6","","","","","","","","","","","","","","","",""
"","ISI","","html-keyboard-response","44","66722","0.0-1.0-57.0","0","0","41433","","null","","","null","6","NaN","","","","","","","","","","","","","","",""
"","S2","","html-keyboard-response","45","66975","0.0-1.0-58.0","0","0","41433","","null","","","null","6","","NaN","","","","","","","","","","","","","",""
"","response","","html-keyboard-response","46","67117","0.0-1.0-59.0","0","0","41433","","141","","","68","6","","","1","6","training","adjacent","DE","4","5","R.jpg","O.jpg","0","1","0","",""
"","feedback","","html-keyboard-response","47","68119","0.0-1.0-60.0-0.0","0","0","41433","","null","","","null","6","","","","","","","","","","","","","","","",""
"","time_out","","html-keyboard-response","48","70123","0.0-1.0-62.0-0.0","0","0","41433","","null","","","null","6","","","","","","","","","","","","","","","",""
"","ITI","","html-keyboard-response","49","71127","0.0-1.0-63.0","0","0","41433","","null","","","null","6","","","","","","","","","","","","","","","NaN",""
"","S1","","html-keyboard-response","50","71380","0.0-1.0-65.0","0","0","41433","","null","","","null","7","","","","","","","","","","","","","","","",""
"","ISI","","html-keyboard-response","51","73383","0.0-1.0-66.0","0","0","41433","","187","","","75","7","k","","","","","","","","","","","","","","",""
"","S2","","html-keyboard-response","52","73636","0.0-1.0-67.0","0","0","41433","","null","","","null","7","","NaN","","","","","","","","","","","","","",""
"","response","","html-keyboard-response","53","73787","0.0-1.0-68.0","0","0","41433","","148","","","75","7","","","1","7","training","adjacent","ED","5","4","O.jpg","R.jpg","1","0","0","",""
"","feedback","","html-keyboard-response","54","74793","0.0-1.0-69.0-0.0","0","0","41433","","null","","","null","7","","","","","","","","","","","","","","","",""
"","time_out","","html-keyboard-response","55","76796","0.0-1.0-71.0-0.0","0","0","41433","","null","","","null","7","","","","","","","","","","","","","","","",""
"","ITI","","html-keyboard-response","56","77799","0.0-1.0-72.0","0","0","41433","","null","","","null","7","","","","","","","","","","","","","","","NaN",""
"","S1","","html-keyboard-response","57","78052","0.0-1.0-74.0","0","0","41433","","null","","","null","8","","","","","","","","","","","","","","","",""
"","ISI","","html-keyboard-response","58","80055","0.0-1.0-75.0","0","0","41433","","167","","","68","8","d","","","","","","","","","","","","","","",""
"","S2","","html-keyboard-response","59","80308","0.0-1.0-76.0","0","0","41433","","null","","","null","8","","NaN","","","","","","","","","","","","","",""
"","response","","html-keyboard-response","60","80534","0.0-1.0-77.0","0","0","41433","","225","","","75","8","","","1","8","training","adjacent","GF","7","6","L.jpg","N.jpg","1","0","0","",""
"","feedback","","html-keyboard-response","61","81539","0.0-1.0-78.0-0.0","0","0","41433","","null","","","null","8","","","","","","","","","","","","","","","",""
"","time_out","","html-keyboard-response","62","83542","0.0-1.0-80.0-0.0","0","0","41433","","null","","","null","8","","","","","","","","","","","","","","","",""
"","ITI","","html-keyboard-response","63","84545","0.0-1.0-81.0","0","0","41433","","null","","","null","8","","","","","","","","","","","","","","","NaN",""
"","S1","","html-keyboard-response","64","84797","0.0-1.0-83.0","0","0","41433","","null","","","null","9","","","","","","","","","","","","","","","",""
"","ISI","","html-keyboard-response","65","86800","0.0-1.0-84.0","0","0","41433","","279","","","68","9","d","","","","","","","","","","","","","","",""
"","S2","","html-keyboard-response","66","87054","0.0-1.0-85.0","0","0","41433","","null","","","null","9","","NaN","","","","","","","","","","","","","",""
"","response","","html-keyboard-response","67","87229","0.0-1.0-86.0","0","0","41433","","172","","","68","9","","","1","9","training","adjacent","CD","3","4","M.jpg","R.jpg","0","1","0","",""
"","feedback","","html-keyboard-response","68","88231","0.0-1.0-87.0-0.0","0","0","41433","","null","","","null","9","","","","","","","","","","","","","","","",""
"","time_out","","html-keyboard-response","69","90233","0.0-1.0-89.0-0.0","0","0","41433","","null","","","null","9","","","","","","","","","","","","","","","",""
"","ITI","","html-keyboard-response","70","91235","0.0-1.0-90.0","0","0","41433","","null","","","null","9","","","","","","","","","","","","","","","NaN",""
"","S1","","html-keyboard-response","71","91490","0.0-1.0-92.0","0","0","41433","","null","","","null","10","","","","","","","","","","","","","","","",""
"","ISI","","html-keyboard-response","72","93494","0.0-1.0-93.0","0","0","41433","","525","","","75","10","k","","","","","","","","","","","","","","",""
"","S2","","html-keyboard-response","73","93748","0.0-1.0-94.0","0","0","41433","","28","","","75","10","","k","","","","","","","","","","","","","",""
"","response","","html-keyboard-response","74","93902","0.0-1.0-95.0","0","0","41433","","152","","","75","10","","","1","10","training","adjacent","CB","3","2","M.jpg","P.jpg","1","0","0","",""
"","feedback","","html-keyboard-response","75","94904","0.0-1.0-96.0-0.0","0","0","41433","","null","","","null","10","","","","","","","","","","","","","","","",""
"","time_out","","html-keyboard-response","76","96907","0.0-1.0-98.0-0.0","0","0","41433","","null","","","null","10","","","","","","","","","","","","","","","",""
"","ITI","","html-keyboard-response","77","97910","0.0-1.0-99.0","0","0","41433","","null","","","null","10","","","","","","","","","","","","","","","NaN",""
"","S1","","html-keyboard-response","78","98162","0.0-1.0-101.0","0","0","41433","","null","","","null","11","","","","","","","","","","","","","","","",""
"","ISI","","html-keyboard-response","79","100165","0.0-1.0-102.0","0","0","41433","","210","","","68","11","d","","","","","","","","","","","","","","",""
"","S2","","html-keyboard-response","80","100419","0.0-1.0-103.0","0","0","41433","","121","","","68","11","","d","","","","","","","","","","","","","",""
"","response","","html-keyboard-response","81","100573","0.0-1.0-104.0","0","0","41433","","152","","","68","11","","","1","11","training","adjacent","EF","5","6","O.jpg","N.jpg","0","1","0","",""
"","feedback","","html-keyboard-response","82","101575","0.0-1.0-105.0-0.0","0","0","41433","","null","","","null","11","","","","","","","","","","","","","","","",""
"","time_out","","html-keyboard-response","83","103578","0.0-1.0-107.0-0.0","0","0","41433","","null","","","null","11","","","","","","","","","","","","","","","",""
"","ITI","","html-keyboard-response","84","104580","0.0-1.0-108.0","0","0","41433","","639","","","75","11","","","","","","","","","","","","","","","k",""
"","S1","","html-keyboard-response","85","104834","0.0-1.0-110.0","0","0","41433","","null","","","null","12","","","","","","","","","","","","","","","",""
"","ISI","","html-keyboard-response","86","106836","0.0-1.0-111.0","0","0","41433","","137","","","75","12","k","","","","","","","","","","","","","","",""
"","S2","","html-keyboard-response","87","107090","0.0-1.0-112.0","0","0","41433","","null","","","null","12","","NaN","","","","","","","","","","","","","",""
"","response","","html-keyboard-response","88","107203","0.0-1.0-113.0","0","0","41433","","111","","","75","12","","","1","12","training","adjacent","FG","6","7","N.jpg","L.jpg","1","1","1","",""
"","feedback","","html-keyboard-response","89","108206","0.0-1.0-114.0-0.0","0","0","41433","","null","","","null","12","","","","","","","","","","","","","","","",""
"","ITI","","html-keyboard-response","90","109210","0.0-1.0-117.0","0","0","41433","","null","","","null","12","","","","","","","","","","","","","","","NaN",""
"","S1","","html-keyboard-response","91","109462","0.0-1.0-119.0","0","0","41433","","null","","","null","13","","","","","","","","","","","","","","","",""
"","ISI","","html-keyboard-response","92","111464","0.0-1.0-120.0","0","0","41433","","null","","","null","13","NaN","","","","","","","","","","","","","","",""
"","S2","","html-keyboard-response","93","111716","0.0-1.0-121.0","0","0","41433","","null","","","null","13","","NaN","","","","","","","","","","","","","",""
"","response","","html-keyboard-response","94","111888","0.0-1.0-122.0","0","0","41433","","169","","","75","13","","","1","13","training","adjacent","FE","6","5","N.jpg","O.jpg","1","0","0","",""
"","feedback","","html-keyboard-response","95","112891","0.0-1.0-123.0-0.0","0","0","41433","","null","","","null","13","","","","","","","","","","","","","","","",""
"","time_out","","html-keyboard-response","96","114894","0.0-1.0-125.0-0.0","0","0","41433","","null","","","null","13","","","","","","","","","","","","","","","",""
"","ITI","","html-keyboard-response","97","115901","0.0-1.0-126.0","0","0","41433","","null","","","null","13","","","","","","","","","","","","","","","NaN",""
"","S1","","html-keyboard-response","98","116154","0.0-1.0-128.0","0","0","41433","","null","","","null","14","","","","","","","","","","","","","","","",""
"","ISI","","html-keyboard-response","99","118158","0.0-1.0-129.0","0","0","41433","","140","","","68","14","d","","","","","","","","","","","","","","",""
"","S2","","html-keyboard-response","100","118411","0.0-1.0-130.0","0","0","41433","","null","","","null","14","","NaN","","","","","","","","","","","","","",""
"","response","","html-keyboard-response","101","118861","0.0-1.0-131.0","0","0","41433","","448","","","68","14","","","1","14","training","adjacent","GF","7","6","L.jpg","N.jpg","0","0","1","",""
"","feedback","","html-keyboard-response","102","119864","0.0-1.0-132.0-0.0","0","0","41433","","null","","","null","14","","","","","","","","","","","","","","","",""
"","ITI","","html-keyboard-response","103","120867","0.0-1.0-135.0","0","0","41433","","null","","","null","14","","","","","","","","","","","","","","","NaN",""
"","S1","","html-keyboard-response","104","121121","0.0-1.0-137.0","0","0","41433","","null","","","null","15","","","","","","","","","","","","","","","",""
"","ISI","","html-keyboard-response","105","123124","0.0-1.0-138.0","0","0","41433","","1038","","","75","15","k","","","","","","","","","","","","","","",""
"","S2","","html-keyboard-response","106","123377","0.0-1.0-139.0","0","0","41433","","null","","","null","15","","NaN","","","","","","","","","","","","","",""
"","response","","html-keyboard-response","107","125380","0.0-1.0-140.0","0","0","41433","","null","","","null","15","","","1","15","training","adjacent","BA","2","1","P.jpg","Q.jpg","NaN","0","0","",""
"","too_slow_prompt","","html-keyboard-response","108","126385","0.0-1.0-142.0-0.0","1","0","41433","","null","","","null","","","","","","","","","","","","","","","","",""
"","time_out","","html-keyboard-response","109","128390","0.0-1.0-143.0-0.0","0","0","41433","","null","","","null","15","","","","","","","","","","","","","","","",""
"","ITI","","html-keyboard-response","110","129393","0.0-1.0-144.0","0","0","41433","","null","","","null","15","","","","","","","","","","","","","","","NaN",""
"","S1","","html-keyboard-response","111","129646","0.0-1.0-146.0","0","0","41433","","null","","","null","16","","","","","","","","","","","","","","","",""
"","ISI","","html-keyboard-response","112","131650","0.0-1.0-147.0","0","0","41433","","1471","","","68","16","d","","","","","","","","","","","","","","",""
"","S2","","html-keyboard-response","113","131903","0.0-1.0-148.0","0","0","41433","","6","","","68","16","","d","","","","","","","","","","","","","",""
"","response","","html-keyboard-response","114","132127","0.0-1.0-149.0","0","0","41433","","221","","","68","16","","","1","16","training","adjacent","DC","4","3","R.jpg","M.jpg","0","0","1","",""
"","feedback","","html-keyboard-response","115","133130","0.0-1.0-150.0-0.0","0","0","41433","","null","","","null","16","","","","","","","","","","","","","","","",""
"","ITI","","html-keyboard-response","116","134132","0.0-1.0-153.0","0","0","41433","","null","","","null","16","","","","","","","","","","","","","","","NaN",""
"","S1","","html-keyboard-response","117","134386","0.0-1.0-155.0","0","0","41433","","null","","","null","17","","","","","","","","","","","","","","","",""
"","ISI","","html-keyboard-response","118","136389","0.0-1.0-156.0","0","0","41433","","null","","","null","17","NaN","","","","","","","","","","","","","","",""
"","S2","","html-keyboard-response","119","136642","0.0-1.0-157.0","0","0","41433","","null","","","null","17","","NaN","","","","","","","","","","","","","",""
"","response","","html-keyboard-response","120","136911","0.0-1.0-158.0","0","0","41433","","268","","","75","17","","","1","17","training","adjacent","GF","7","6","L.jpg","N.jpg","1","0","0","",""
"","feedback","","html-keyboard-response","121","137914","0.0-1.0-159.0-0.0","0","0","41433","","null","","","null","17","","","","","","","","","","","","","","","",""
"","time_out","","html-keyboard-response","122","139918","0.0-1.0-161.0-0.0","0","0","41433","","null","","","null","17","","","","","","","","","","","","","","","",""
"","ITI","","html-keyboard-response","123","140923","0.0-1.0-162.0","0","0","41433","","null","","","null","17","","","","","","","","","","","","","","","NaN",""
"","S1","","html-keyboard-response","124","141176","0.0-1.0-164.0","0","0","41433","","null","","","null","18","","","","","","","","","","","","","","","",""
"","ISI","","html-keyboard-response","125","143178","0.0-1.0-165.0","0","0","41433","","414","","","75","18","k","","","","","","","","","","","","","","",""
"","S2","","html-keyboard-response","126","143431","0.0-1.0-166.0","0","0","41433","","null","","","null","18","","NaN","","","","","","","","","","","","","",""
"","response","","html-keyboard-response","127","143964","0.0-1.0-167.0","0","0","41433","","532","","","68","18","","","1","18","training","adjacent","DE","4","5","R.jpg","O.jpg","0","1","0","",""
"","feedback","","html-keyboard-response","128","144967","0.0-1.0-168.0-0.0","0","0","41433","","null","","","null","18","","","","","","","","","","","","","","","",""
"","time_out","","html-keyboard-response","129","146969","0.0-1.0-170.0-0.0","0","0","41433","","null","","","null","18","","","","","","","","","","","","","","","",""
"","ITI","","html-keyboard-response","130","147972","0.0-1.0-171.0","0","0","41433","","null","","","null","18","","","","","","","","","","","","","","","NaN",""
"","S1","","html-keyboard-response","131","148226","0.0-1.0-173.0","0","0","41433","","null","","","null","19","","","","","","","","","","","","","","","",""
"","ISI","","html-keyboard-response","132","150228","0.0-1.0-174.0","0","0","41433","","1975","","","75","19","k","","","","","","","","","","","","","","",""
"","S2","","html-keyboard-response","133","150481","0.0-1.0-175.0","0","0","41433","","null","","","null","19","","NaN","","","","","","","","","","","","","",""
"","response","","html-keyboard-response","134","150621","0.0-1.0-176.0","0","0","41433","","136","","","75","19","","","1","19","training","adjacent","FE","6","5","N.jpg","O.jpg","1","0","0","",""
"","feedback","","html-keyboard-response","135","151625","0.0-1.0-177.0-0.0","0","0","41433","","null","","","null","19","","","","","","","","","","","","","","","",""
"","time_out","","html-keyboard-response","136","153627","0.0-1.0-179.0-0.0","0","0","41433","","null","","","null","19","","","","","","","","","","","","","","","",""
"","ITI","","html-keyboard-response","137","154630","0.0-1.0-180.0","0","0","41433","","null","","","null","19","","","","","","","","","","","","","","","NaN",""
"","S1","","html-keyboard-response","138","154883","0.0-1.0-182.0","0","0","41433","","null","","","null","20","","","","","","","","","","","","","","","",""
"","ISI","","html-keyboard-response","139","156887","0.0-1.0-183.0","0","0","41433","","59","","","68","20","d","","","","","","","","","","","","","","",""
"","S2","","html-keyboard-response","140","157140","0.0-1.0-184.0","0","0","41433","","null","","","null","20","","NaN","","","","","","","","","","","","","",""
"","response","","html-keyboard-response","141","157234","0.0-1.0-185.0","0","0","41433","","92","","","68","20","","","1","20","training","adjacent","FG","6","7","N.jpg","L.jpg","0","1","0","",""
"","feedback","","html-keyboard-response","142","158237","0.0-1.0-186.0-0.0","0","0","41433","","null","","","null","20","","","","","","","","","","","","","","","",""
"","time_out","","html-keyboard-response","143","160240","0.0-1.0-188.0-0.0","0","0","41433","","null","","","null","20","","","","","","","","","","","","","","","",""
"","ITI","","html-keyboard-response","144","161241","0.0-1.0-189.0","0","0","41433","","null","","","null","20","","","","","","","","","","","","","","","NaN",""
"","S1","","html-keyboard-response","145","161494","0.0-1.0-191.0","0","0","41433","","null","","","null","21","","","","","","","","","","","","","","","",""
"","ISI","","html-keyboard-response","146","163497","0.0-1.0-192.0","0","0","41433","","null","","","null","21","NaN","","","","","","","","","","","","","","",""
"","S2","","html-keyboard-response","147","163750","0.0-1.0-193.0","0","0","41433","","null","","","null","21","","NaN","","","","","","","","","","","","","",""
"","response","","html-keyboard-response","148","164256","0.0-1.0-194.0","0","0","41433","","503","","","75","21","","","1","21","training","adjacent","AB","1","2","Q.jpg","P.jpg","1","1","1","",""
"","feedback","","html-keyboard-response","149","165259","0.0-1.0-195.0-0.0","0","0","41433","","null","","","null","21","","","","","","","","","","","","","","","",""
"","ITI","","html-keyboard-response","150","166261","0.0-1.0-198.0","0","0","41433","","null","","","null","21","","","","","","","","","","","","","","","NaN",""
"","S1","","html-keyboard-response","151","166516","0.0-1.0-200.0","0","0","41433","","null","","","null","22","","","","","","","","","","","","","","","",""
"","ISI","","html-keyboard-response","152","168520","0.0-1.0-201.0","0","0","41433","","null","","","null","22","NaN","","","","","","","","","","","","","","",""
"","S2","","html-keyboard-response","153","168773","0.0-1.0-202.0","0","0","41433","","null","","","null","22","","NaN","","","","","","","","","","","","","",""
"","response","","html-keyboard-response","154","169353","0.0-1.0-203.0","0","0","41433","","576","","","75","22","","","1","22","training","adjacent","CB","3","2","M.jpg","P.jpg","1","0","0","",""
"","feedback","","html-keyboard-response","155","170356","0.0-1.0-204.0-0.0","0","0","41433","","null","","","null","22","","","","","","","","","","","","","","","",""
"","time_out","","html-keyboard-response","156","172358","0.0-1.0-206.0-0.0","0","0","41433","","null","","","null","22","","","","","","","","","","","","","","","",""
"","ITI","","html-keyboard-response","157","173361","0.0-1.0-207.0","0","0","41433","","null","","","null","22","","","","","","","","","","","","","","","NaN",""
"","S1","","html-keyboard-response","158","173615","0.0-1.0-209.0","0","0","41433","","null","","","null","23","","","","","","","","","","","","","","","",""
"","ISI","","html-keyboard-response","159","175618","0.0-1.0-210.0","0","0","41433","","191","","","68","23","d","","","","","","","","","","","","","","",""
"","S2","","html-keyboard-response","160","175871","0.0-1.0-211.0","0","0","41433","","null","","","null","23","","NaN","","","","","","","","","","","","","",""
"","response","","html-keyboard-response","161","175904","0.0-1.0-212.0","0","0","41433","","32","","","68","23","","","1","23","training","adjacent","CD","3","4","M.jpg","R.jpg","0","1","0","",""
"","feedback","","html-keyboard-response","162","176908","0.0-1.0-213.0-0.0","0","0","41433","","null","","","null","23","","","","","","","","","","","","","","","",""
"","time_out","","html-keyboard-response","163","178911","0.0-1.0-215.0-0.0","0","0","41433","","null","","","null","23","","","","","","","","","","","","","","","",""
"","ITI","","html-keyboard-response","164","179916","0.0-1.0-216.0","0","0","41433","","298","","","75","23","","","","","","","","","","","","","","","k",""
"","S1","","html-keyboard-response","165","180169","0.0-1.0-218.0","0","0","41433","","null","","","null","24","","","","","","","","","","","","","","","",""
"","ISI","","html-keyboard-response","166","182173","0.0-1.0-219.0","0","0","41433","","343","","","75","24","k","","","","","","","","","","","","","","",""
"","S2","","html-keyboard-response","167","182426","0.0-1.0-220.0","0","0","41433","","null","","","null","24","","NaN","","","","","","","","","","","","","",""
"","response","","html-keyboard-response","168","182700","0.0-1.0-221.0","0","0","41433","","273","","","75","24","","","1","24","training","adjacent","AB","1","2","Q.jpg","P.jpg","1","1","1","",""
"","feedback","","html-keyboard-response","169","183703","0.0-1.0-222.0-0.0","0","0","41433","","null","","","null","24","","","","","","","","","","","","","","","",""
"","ITI","","html-keyboard-response","170","184705","0.0-1.0-225.0","0","0","41433","","null","","","null","24","","","","","","","","","","","","","","","NaN",""
"","S1","","html-keyboard-response","171","184958","0.0-1.0-227.0","0","0","41433","","null","","","null","25","","","","","","","","","","","","","","","",""
"","ISI","","html-keyboard-response","172","186960","0.0-1.0-228.0","0","0","41433","","null","","","null","25","NaN","","","","","","","","","","","","","","",""
"","S2","","html-keyboard-response","173","187214","0.0-1.0-229.0","0","0","41433","","null","","","null","25","","NaN","","","","","","","","","","","","","",""
"","response","","html-keyboard-response","174","187687","0.0-1.0-230.0","0","0","41433","","470","","","68","25","","","1","25","training","adjacent","FG","6","7","N.jpg","L.jpg","0","1","0","",""
"","feedback","","html-keyboard-response","175","188690","0.0-1.0-231.0-0.0","0","0","41433","","null","","","null","25","","","","","","","","","","","","","","","",""
"","time_out","","html-keyboard-response","176","190692","0.0-1.0-233.0-0.0","0","0","41433","","null","","","null","25","","","","","","","","","","","","","","","",""
"","ITI","","html-keyboard-response","177","191695","0.0-1.0-234.0","0","0","41433","","null","","","null","25","","","","","","","","","","","","","","","NaN",""
"","S1","","html-keyboard-response","178","191949","0.0-1.0-236.0","0","0","41433","","null","","","null","26","","","","","","","","","","","","","","","",""
"","ISI","","html-keyboard-response","179","193953","0.0-1.0-237.0","0","0","41433","","null","","","null","26","NaN","","","","","","","","","","","","","","",""
"","S2","","html-keyboard-response","180","194206","0.0-1.0-238.0","0","0","41433","","null","","","null","26","","NaN","","","","","","","","","","","","","",""
"","response","","html-keyboard-response","181","194795","0.0-1.0-239.0","0","0","41433","","587","","","75","26","","","1","26","training","adjacent","CD","3","4","M.jpg","R.jpg","1","1","1","",""
"","feedback","","html-keyboard-response","182","195798","0.0-1.0-240.0-0.0","0","0","41433","","null","","","null","26","","","","","","","","","","","","","","","",""
"","ITI","","html-keyboard-response","183","196802","0.0-1.0-243.0","0","0","41433","","null","","","null","26","","","","","","","","","","","","","","","NaN",""
"","S1","","html-keyboard-response","184","197055","0.0-1.0-245.0","0","0","41433","","null","","","null","27","","","","","","","","","","","","","","","",""
"","ISI","","html-keyboard-response","185","199057","0.0-1.0-246.0","0","0","41433","","null","","","null","27","NaN","","","","","","","","","","","","","","",""
"","S2","","html-keyboard-response","186","199310","0.0-1.0-247.0","0","0","41433","","null","","","null","27","","NaN","","","","","","","","","","","","","",""
"","response","","html-keyboard-response","187","199565","0.0-1.0-248.0","0","0","41433","","253","","","68","27","","","1","27","training","adjacent","FG","6","7","N.jpg","L.jpg","0","1","0","",""
"","feedback","","html-keyboard-response","188","200569","0.0-1.0-249.0-0.0","0","0","41433","","null","","","null","27","","","","","","","","","","","","","","","",""
"","time_out","","html-keyboard-response","189","202571","0.0-1.0-251.0-0.0","0","0","41433","","null","","","null","27","","","","","","","","","","","","","","","",""
"","ITI","","html-keyboard-response","190","203574","0.0-1.0-252.0","0","0","41433","","null","","","null","27","","","","","","","","","","","","","","","NaN",""
"","S1","","html-keyboard-response","191","203827","0.0-1.0-254.0","0","0","41433","","null","","","null","28","","","","","","","","","","","","","","","",""
"","ISI","","html-keyboard-response","192","205830","0.0-1.0-255.0","0","0","41433","","null","","","null","28","NaN","","","","","","","","","","","","","","",""
"","S2","","html-keyboard-response","193","206084","0.0-1.0-256.0","0","0","41433","","null","","","null","28","","NaN","","","","","","","","","","","","","",""
"","response","","html-keyboard-response","194","206308","0.0-1.0-257.0","0","0","41433","","223","","","75","28","","","1","28","training","adjacent","ED","5","4","O.jpg","R.jpg","1","0","0","",""
"","feedback","","html-keyboard-response","195","207312","0.0-1.0-258.0-0.0","0","0","41433","","null","","","null","28","","","","","","","","","","","","","","","",""
"","time_out","","html-keyboard-response","196","209316","0.0-1.0-260.0-0.0","0","0","41433","","null","","","null","28","","","","","","","","","","","","","","","",""
"","ITI","","html-keyboard-response","197","210320","0.0-1.0-261.0","0","0","41433","","null","","","null","28","","","","","","","","","","","","","","","NaN",""
"","S1","","html-keyboard-response","198","210574","0.0-1.0-263.0","0","0","41433","","null","","","null","29","","","","","","","","","","","","","","","",""
"","ISI","","html-keyboard-response","199","212577","0.0-1.0-264.0","0","0","41433","","null","","","null","29","NaN","","","","","","","","","","","","","","",""
"","S2","","html-keyboard-response","200","212831","0.0-1.0-265.0","0","0","41433","","null","","","null","29","","NaN","","","","","","","","","","","","","",""
"","response","","html-keyboard-response","201","213538","0.0-1.0-266.0","0","0","41433","","706","","","75","29","","","1","29","training","adjacent","AB","1","2","Q.jpg","P.jpg","1","1","1","",""
"","feedback","","html-keyboard-response","202","214541","0.0-1.0-267.0-0.0","0","0","41433","","null","","","null","29","","","","","","","","","","","","","","","",""
"","ITI","","html-keyboard-response","203","215545","0.0-1.0-270.0","0","0","41433","","774","","","75","29","","","","","","","","","","","","","","","k",""
"","S1","","html-keyboard-response","204","215799","0.0-1.0-272.0","0","0","41433","","null","","","null","30","","","","","","","","","","","","","","","",""
"","ISI","","html-keyboard-response","205","217801","0.0-1.0-273.0","0","0","41433","","null","","","null","30","NaN","","","","","","","","","","","","","","",""
"","S2","","html-keyboard-response","206","218054","0.0-1.0-274.0","0","0","41433","","null","","","null","30","","NaN","","","","","","","","","","","","","",""
"","response","","html-keyboard-response","207","219091","0.0-1.0-275.0","0","0","41433","","1036","","","68","30","","","1","30","training","adjacent","EF","5","6","O.jpg","N.jpg","0","1","0","",""
"","feedback","","html-keyboard-response","208","220094","0.0-1.0-276.0-0.0","0","0","41433","","null","","","null","30","","","","","","","","","","","","","","","",""
"","time_out","","html-keyboard-response","209","222096","0.0-1.0-278.0-0.0","0","0","41433","","null","","","null","30","","","","","","","","","","","","","","","",""
"","ITI","","html-keyboard-response","210","223098","0.0-1.0-279.0","0","0","41433","","null","","","null","30","","","","","","","","","","","","","","","NaN",""
"","S1","","html-keyboard-response","211","223352","0.0-1.0-281.0","0","0","41433","","null","","","null","31","","","","","","","","","","","","","","","",""
"","ISI","","html-keyboard-response","212","225356","0.0-1.0-282.0","0","0","41433","","null","","","null","31","NaN","","","","","","","","","","","","","","",""
"","S2","","html-keyboard-response","213","225610","0.0-1.0-283.0","0","0","41433","","null","","","null","31","","NaN","","","","","","","","","","","","","",""
"","response","","html-keyboard-response","214","225975","0.0-1.0-284.0","0","0","41433","","363","","","75","31","","","1","31","training","adjacent","DE","4","5","R.jpg","O.jpg","1","1","1","",""
"","feedback","","html-keyboard-response","215","226979","0.0-1.0-285.0-0.0","0","0","41433","","null","","","null","31","","","","","","","","","","","","","","","",""
"","ITI","","html-keyboard-response","216","227983","0.0-1.0-288.0","0","0","41433","","null","","","null","31","","","","","","","","","","","","","","","NaN",""
"","S1","","html-keyboard-response","217","228237","0.0-1.0-290.0","0","0","41433","","null","","","null","32","","","","","","","","","","","","","","","",""
"","ISI","","html-keyboard-response","218","230239","0.0-1.0-291.0","0","0","41433","","null","","","null","32","NaN","","","","","","","","","","","","","","",""
"","S2","","html-keyboard-response","219","230492","0.0-1.0-292.0","0","0","41433","","null","","","null","32","","NaN","","","","","","","","","","","","","",""
"","response","","html-keyboard-response","220","230885","0.0-1.0-293.0","0","0","41433","","391","","","75","32","","","1","32","training","adjacent","FE","6","5","N.jpg","O.jpg","1","0","0","",""
"","feedback","","html-keyboard-response","221","231888","0.0-1.0-294.0-0.0","0","0","41433","","null","","","null","32","","","","","","","","","","","","","","","",""
"","time_out","","html-keyboard-response","222","233891","0.0-1.0-296.0-0.0","0","0","41433","","null","","","null","32","","","","","","","","","","","","","","","",""
"","ITI","","html-keyboard-response","223","234894","0.0-1.0-297.0","0","0","41433","","null","","","null","32","","","","","","","","","","","","","","","NaN",""
"","S1","","html-keyboard-response","224","235147","0.0-1.0-299.0","0","0","41433","","null","","","null","33","","","","","","","","","","","","","","","",""
"","ISI","","html-keyboard-response","225","237149","0.0-1.0-300.0","0","0","41433","","282","","","68","33","d","","","","","","","","","","","","","","",""
"","S2","","html-keyboard-response","226","237403","0.0-1.0-301.0","0","0","41433","","null","","","null","33","","NaN","","","","","","","","","","","","","",""
"","response","","html-keyboard-response","227","237952","0.0-1.0-302.0","0","0","41433","","547","","","75","33","","","1","33","training","adjacent","FE","6","5","N.jpg","O.jpg","1","0","0","",""
"","feedback","","html-keyboard-response","228","238955","0.0-1.0-303.0-0.0","0","0","41433","","null","","","null","33","","","","","","","","","","","","","","","",""
"","time_out","","html-keyboard-response","229","240958","0.0-1.0-305.0-0.0","0","0","41433","","null","","","null","33","","","","","","","","","","","","","","","",""
"","ITI","","html-keyboard-response","230","241961","0.0-1.0-306.0","0","0","41433","","null","","","null","33","","","","","","","","","","","","","","","NaN",""
"","S1","","html-keyboard-response","231","242216","0.0-1.0-308.0","0","0","41433","","null","","","null","34","","","","","","","","","","","","","","","",""
"","ISI","","html-keyboard-response","232","244219","0.0-1.0-309.0","0","0","41433","","207","","","75","34","k","","","","","","","","","","","","","","",""
"","S2","","html-keyboard-response","233","244472","0.0-1.0-310.0","0","0","41433","","null","","","null","34","","NaN","","","","","","","","","","","","","",""
"","response","","html-keyboard-response","234","245008","0.0-1.0-311.0","0","0","41433","","533","","","68","34","","","1","34","training","adjacent","AB","1","2","Q.jpg","P.jpg","0","1","0","",""
"","feedback","","html-keyboard-response","235","246012","0.0-1.0-312.0-0.0","0","0","41433","","null","","","null","34","","","","","","","","","","","","","","","",""
"","time_out","","html-keyboard-response","236","248015","0.0-1.0-314.0-0.0","0","0","41433","","null","","","null","34","","","","","","","","","","","","","","","",""
"","ITI","","html-keyboard-response","237","249018","0.0-1.0-315.0","0","0","41433","","null","","","null","34","","","","","","","","","","","","","","","NaN",""
"","S1","","html-keyboard-response","238","249270","0.0-1.0-317.0","0","0","41433","","null","","","null","35","","","","","","","","","","","","","","","",""
"","ISI","","html-keyboard-response","239","251274","0.0-1.0-318.0","0","0","41433","","228","","","75","35","k","","","","","","","","","","","","","","",""
"","S2","","html-keyboard-response","240","251527","0.0-1.0-319.0","0","0","41433","","null","","","null","35","","NaN","","","","","","","","","","","","","",""
"","response","","html-keyboard-response","241","252093","0.0-1.0-320.0","0","0","41433","","564","","","68","35","","","1","35","training","adjacent","BC","2","3","P.jpg","M.jpg","0","1","0","",""
"","feedback","","html-keyboard-response","242","253095","0.0-1.0-321.0-0.0","0","0","41433","","null","","","null","35","","","","","","","","","","","","","","","",""
"","time_out","","html-keyboard-response","243","255104","0.0-1.0-323.0-0.0","0","0","41433","","null","","","null","35","","","","","","","","","","","","","","","",""
"","ITI","","html-keyboard-response","244","256109","0.0-1.0-324.0","0","0","41433","","null","","","null","35","","","","","","","","","","","","","","","NaN",""
"","S1","","html-keyboard-response","245","256361","0.0-1.0-326.0","0","0","41433","","null","","","null","36","","","","","","","","","","","","","","","",""
"","ISI","","html-keyboard-response","246","258364","0.0-1.0-327.0","0","0","41433","","151","","","75","36","k","","","","","","","","","","","","","","",""
"","S2","","html-keyboard-response","247","258618","0.0-1.0-328.0","0","0","41433","","null","","","null","36","","NaN","","","","","","","","","","","","","",""
"","response","","html-keyboard-response","248","258731","0.0-1.0-329.0","0","0","41433","","112","","","75","36","","","1","36","training","adjacent","BC","2","3","P.jpg","M.jpg","1","1","1","",""
"","feedback","","html-keyboard-response","249","259734","0.0-1.0-330.0-0.0","0","0","41433","","null","","","null","36","","","","","","","","","","","","","","","",""
"","ITI","","html-keyboard-response","250","260736","0.0-1.0-333.0","0","0","41433","","null","","","null","36","","","","","","","","","","","","","","","NaN",""
"","S1","","html-keyboard-response","251","260989","0.0-1.0-335.0","0","0","41433","","null","","","null","37","","","","","","","","","","","","","","","",""
"","ISI","","html-keyboard-response","252","262993","0.0-1.0-336.0","0","0","41433","","null","","","null","37","NaN","","","","","","","","","","","","","","",""
"","S2","","html-keyboard-response","253","263247","0.0-1.0-337.0","0","0","41433","","null","","","null","37","","NaN","","","","","","","","","","","","","",""
"","response","","html-keyboard-response","254","263560","0.0-1.0-338.0","0","0","41433","","311","","","68","37","","","1","37","training","adjacent","DC","4","3","R.jpg","M.jpg","0","0","1","",""
"","feedback","","html-keyboard-response","255","264564","0.0-1.0-339.0-0.0","0","0","41433","","null","","","null","37","","","","","","","","","","","","","","","",""
"","ITI","","html-keyboard-response","256","265567","0.0-1.0-342.0","0","0","41433","","null","","","null","37","","","","","","","","","","","","","","","NaN",""
"","S1","","html-keyboard-response","257","265821","0.0-1.0-344.0","0","0","41433","","null","","","null","38","","","","","","","","","","","","","","","",""
"","ISI","","html-keyboard-response","258","267825","0.0-1.0-345.0","0","0","41433","","null","","","null","38","NaN","","","","","","","","","","","","","","",""
"","S2","","html-keyboard-response","259","268080","0.0-1.0-346.0","0","0","41433","","null","","","null","38","","NaN","","","","","","","","","","","","","",""
"","response","","html-keyboard-response","260","268694","0.0-1.0-347.0","0","0","41433","","612","","","75","38","","","1","38","training","adjacent","BC","2","3","P.jpg","M.jpg","1","1","1","",""
"","feedback","","html-keyboard-response","261","269698","0.0-1.0-348.0-0.0","0","0","41433","","null","","","null","38","","","","","","","","","","","","","","","",""
"","ITI","","html-keyboard-response","262","270701","0.0-1.0-351.0","0","0","41433","","null","","","null","38","","","","","","","","","","","","","","","NaN",""
"","S1","","html-keyboard-response","263","270954","0.0-1.0-353.0","0","0","41433","","null","","","null","39","","","","","","","","","","","","","","","",""
"","ISI","","html-keyboard-response","264","272956","0.0-1.0-354.0","0","0","41433","","1642","","","75","39","k","","","","","","","","","","","","","","",""
"","S2","","html-keyboard-response","265","273209","0.0-1.0-355.0","0","0","41433","","null","","","null","39","","NaN","","","","","","","","","","","","","",""
"","response","","html-keyboard-response","266","273289","0.0-1.0-356.0","0","0","41433","","77","","","68","39","","","1","39","training","adjacent","ED","5","4","O.jpg","R.jpg","0","0","1","",""
"","feedback","","html-keyboard-response","267","274293","0.0-1.0-357.0-0.0","0","0","41433","","null","","","null","39","","","","","","","","","","","","","","","",""
"","ITI","","html-keyboard-response","268","275298","0.0-1.0-360.0","0","0","41433","","null","","","null","39","","","","","","","","","","","","","","","NaN",""
"","S1","","html-keyboard-response","269","275551","0.0-1.0-362.0","0","0","41433","","null","","","null","40","","","","","","","","","","","","","","","",""
"","ISI","","html-keyboard-response","270","277553","0.0-1.0-363.0","0","0","41433","","null","","","null","40","NaN","","","","","","","","","","","","","","",""
"","S2","","html-keyboard-response","271","277807","0.0-1.0-364.0","0","0","41433","","null","","","null","40","","NaN","","","","","","","","","","","","","",""
"","response","","html-keyboard-response","272","278415","0.0-1.0-365.0","0","0","41433","","605","","","75","40","","","1","40","training","adjacent","BC","2","3","P.jpg","M.jpg","1","1","1","",""
"","feedback","","html-keyboard-response","273","279419","0.0-1.0-366.0-0.0","0","0","41433","","null","","","null","40","","","","","","","","","","","","","","","",""
"","ITI","","html-keyboard-response","274","280423","0.0-1.0-369.0","0","0","41433","","null","","","null","40","","","","","","","","","","","","","","","NaN",""
"","S1","","html-keyboard-response","275","280677","0.0-1.0-371.0","0","0","41433","","null","","","null","41","","","","","","","","","","","","","","","",""
"","ISI","","html-keyboard-response","276","282679","0.0-1.0-372.0","0","0","41433","","980","","","75","41","k","","","","","","","","","","","","","","",""
"","S2","","html-keyboard-response","277","282932","0.0-1.0-373.0","0","0","41433","","null","","","null","41","","NaN","","","","","","","","","","","","","",""
"","response","","html-keyboard-response","278","283242","0.0-1.0-374.0","0","0","41433","","308","","","68","41","","","1","41","training","adjacent","ED","5","4","O.jpg","R.jpg","0","0","1","",""
"","feedback","","html-keyboard-response","279","284245","0.0-1.0-375.0-0.0","0","0","41433","","null","","","null","41","","","","","","","","","","","","","","","",""
"","ITI","","html-keyboard-response","280","285248","0.0-1.0-378.0","0","0","41433","","null","","","null","41","","","","","","","","","","","","","","","NaN",""
"","S1","","html-keyboard-response","281","285501","0.0-1.0-380.0","0","0","41433","","null","","","null","42","","","","","","","","","","","","","","","",""
"","ISI","","html-keyboard-response","282","287504","0.0-1.0-381.0","0","0","41433","","null","","","null","42","NaN","","","","","","","","","","","","","","",""
"","S2","","html-keyboard-response","283","287761","0.0-1.0-382.0","0","0","41433","","null","","","null","42","","NaN","","","","","","","","","","","","","",""
"","response","","html-keyboard-response","284","287767","0.0-1.0-383.0","0","0","41433","","2","","","75","42","","","1","42","training","adjacent","BA","2","1","P.jpg","Q.jpg","1","0","0","",""
"","feedback","","html-keyboard-response","285","288770","0.0-1.0-384.0-0.0","0","0","41433","","null","","","null","42","","","","","","","","","","","","","","","",""
"","time_out","","html-keyboard-response","286","290774","0.0-1.0-386.0-0.0","0","0","41433","","null","","","null","42","","","","","","","","","","","","","","","",""
"","ITI","","html-keyboard-response","287","291776","0.0-1.0-387.0","0","0","41433","","null","","","null","42","","","","","","","","","","","","","","","NaN",""
"","S1","","html-keyboard-response","288","292029","0.0-1.0-389.0","0","0","41433","","null","","","null","43","","","","","","","","","","","","","","","",""
"","ISI","","html-keyboard-response","289","294032","0.0-1.0-390.0","0","0","41433","","null","","","null","43","NaN","","","","","","","","","","","","","","",""
"","S2","","html-keyboard-response","290","294285","0.0-1.0-391.0","0","0","41433","","null","","","null","43","","NaN","","","","","","","","","","","","","",""
"","response","","html-keyboard-response","291","294769","0.0-1.0-392.0","0","0","41433","","483","","","75","43","","","1","43","training","adjacent","DC","4","3","R.jpg","M.jpg","1","0","0","",""
"","feedback","","html-keyboard-response","292","295786","0.0-1.0-393.0-0.0","0","0","41433","","null","","","null","43","","","","","","","","","","","","","","","",""
"","time_out","","html-keyboard-response","293","297791","0.0-1.0-395.0-0.0","0","0","41433","","null","","","null","43","","","","","","","","","","","","","","","",""
"","ITI","","html-keyboard-response","294","298794","0.0-1.0-396.0","0","0","41433","","null","","","null","43","","","","","","","","","","","","","","","NaN",""
"","S1","","html-keyboard-response","295","299047","0.0-1.0-398.0","0","0","41433","","null","","","null","44","","","","","","","","","","","","","","","",""
"","ISI","","html-keyboard-response","296","301049","0.0-1.0-399.0","0","0","41433","","183","","","68","44","d","","","","","","","","","","","","","","",""
"","S2","","html-keyboard-response","297","301303","0.0-1.0-400.0","0","0","41433","","null","","","null","44","","NaN","","","","","","","","","","","","","",""
"","response","","html-keyboard-response","298","302068","0.0-1.0-401.0","0","0","41433","","764","","","68","44","","","1","44","training","adjacent","EF","5","6","O.jpg","N.jpg","0","1","0","",""
"","feedback","","html-keyboard-response","299","303072","0.0-1.0-402.0-0.0","0","0","41433","","null","","","null","44","","","","","","","","","","","","","","","",""
"","time_out","","html-keyboard-response","300","305074","0.0-1.0-404.0-0.0","0","0","41433","","null","","","null","44","","","","","","","","","","","","","","","",""
"","ITI","","html-keyboard-response","301","306077","0.0-1.0-405.0","0","0","41433","","null","","","null","44","","","","","","","","","","","","","","","NaN",""
"","S1","","html-keyboard-response","302","306331","0.0-1.0-407.0","0","0","41433","","null","","","null","45","","","","","","","","","","","","","","","",""
"","ISI","","html-keyboard-response","303","308334","0.0-1.0-408.0","0","0","41433","","16","","","75","45","k","","","","","","","","","","","","","","",""
"","S2","","html-keyboard-response","304","308588","0.0-1.0-409.0","0","0","41433","","147","","","68","45","","d","","","","","","","","","","","","","",""
"","response","","html-keyboard-response","305","309033","0.0-1.0-410.0","0","0","41433","","442","","","75","45","","","1","45","training","adjacent","DC","4","3","R.jpg","M.jpg","1","0","0","",""
"","feedback","","html-keyboard-response","306","310036","0.0-1.0-411.0-0.0","0","0","41433","","null","","","null","45","","","","","","","","","","","","","","","",""
"","time_out","","html-keyboard-response","307","312038","0.0-1.0-413.0-0.0","0","0","41433","","null","","","null","45","","","","","","","","","","","","","","","",""
"","ITI","","html-keyboard-response","308","313042","0.0-1.0-414.0","0","0","41433","","null","","","null","45","","","","","","","","","","","","","","","NaN",""
"","S1","","html-keyboard-response","309","313295","0.0-1.0-416.0","0","0","41433","","null","","","null","46","","","","","","","","","","","","","","","",""
"","ISI","","html-keyboard-response","310","315298","0.0-1.0-417.0","0","0","41433","","331","","","68","46","d","","","","","","","","","","","","","","",""
"","S2","","html-keyboard-response","311","315552","0.0-1.0-418.0","0","0","41433","","null","","","null","46","","NaN","","","","","","","","","","","","","",""
"","response","","html-keyboard-response","312","315662","0.0-1.0-419.0","0","0","41433","","107","","","68","46","","","1","46","training","adjacent","DE","4","5","R.jpg","O.jpg","0","1","0","",""
"","feedback","","html-keyboard-response","313","316666","0.0-1.0-420.0-0.0","0","0","41433","","null","","","null","46","","","","","","","","","","","","","","","",""
"","time_out","","html-keyboard-response","314","318669","0.0-1.0-422.0-0.0","0","0","41433","","null","","","null","46","","","","","","","","","","","","","","","",""
"","ITI","","html-keyboard-response","315","319672","0.0-1.0-423.0","0","0","41433","","null","","","null","46","","","","","","","","","","","","","","","NaN",""
"","S1","","html-keyboard-response","316","319926","0.0-1.0-425.0","0","0","41433","","null","","","null","47","","","","","","","","","","","","","","","",""
"","ISI","","html-keyboard-response","317","321929","0.0-1.0-426.0","0","0","41433","","185","","","75","47","k","","","","","","","","","","","","","","",""
"","S2","","html-keyboard-response","318","322183","0.0-1.0-427.0","0","0","41433","","null","","","null","47","","NaN","","","","","","","","","","","","","",""
"","response","","html-keyboard-response","319","323306","0.0-1.0-428.0","0","0","41433","","1121","","","75","47","","","1","47","training","adjacent","BA","2","1","P.jpg","Q.jpg","1","0","0","",""
"","feedback","","html-keyboard-response","320","324309","0.0-1.0-429.0-0.0","0","0","41433","","null","","","null","47","","","","","","","","","","","","","","","",""
"","time_out","","html-keyboard-response","321","326312","0.0-1.0-431.0-0.0","0","0","41433","","null","","","null","47","","","","","","","","","","","","","","","",""
"","ITI","","html-keyboard-response","322","327314","0.0-1.0-432.0","0","0","41433","","null","","","null","47","","","","","","","","","","","","","","","NaN",""
"","block_over","","html-keyboard-response","323","332506","0.0-1.0-433.0-0.0","0","0","41433","","5190","","","32","47","","","","","","","","","","","","","","","",""
"","S1","","html-keyboard-response","324","332760","0.0-1.0-434.0","0","0","41433","","null","","","null","48","","","","","","","","","","","","","","","",""
"","ISI","","html-keyboard-response","325","334762","0.0-1.0-435.0","0","0","41433","","null","","","null","48","NaN","","","","","","","","","","","","","","",""
"","S2","","html-keyboard-response","326","335016","0.0-1.0-436.0","0","0","41433","","null","","","null","48","","NaN","","","","","","","","","","","","","",""
"","response","","html-keyboard-response","327","335323","0.0-1.0-437.0","0","0","41433","","305","","","75","48","","","2","48","training","adjacent","CB","3","2","M.jpg","P.jpg","1","0","0","",""
"","feedback","","html-keyboard-response","328","336327","0.0-1.0-438.0-0.0","0","0","41433","","null","","","null","48","","","","","","","","","","","","","","","",""
"","time_out","","html-keyboard-response","329","338331","0.0-1.0-440.0-0.0","0","0","41433","","null","","","null","48","","","","","","","","","","","","","","","",""
"","ITI","","html-keyboard-response","330","339335","0.0-1.0-441.0","0","0","41433","","null","","","null","48","","","","","","","","","","","","","","","NaN",""
"","S1","","html-keyboard-response","331","339589","0.0-1.0-443.0","0","0","41433","","null","","","null","49","","","","","","","","","","","","","","","",""
"","ISI","","html-keyboard-response","332","341593","0.0-1.0-444.0","0","0","41433","","null","","","null","49","NaN","","","","","","","","","","","","","","",""
"","S2","","html-keyboard-response","333","341849","0.0-1.0-445.0","0","0","41433","","null","","","null","49","","NaN","","","","","","","","","","","","","",""
"","response","","html-keyboard-response","334","342134","0.0-1.0-446.0","0","0","41433","","282","","","68","49","","","2","49","training","adjacent","FG","6","7","N.jpg","L.jpg","0","1","0","",""
"","feedback","","html-keyboard-response","335","343137","0.0-1.0-447.0-0.0","0","0","41433","","null","","","null","49","","","","","","","","","","","","","","","",""
"","time_out","","html-keyboard-response","336","345139","0.0-1.0-449.0-0.0","0","0","41433","","null","","","null","49","","","","","","","","","","","","","","","",""
"","ITI","","html-keyboard-response","337","346143","0.0-1.0-450.0","0","0","41433","","null","","","null","49","","","","","","","","","","","","","","","NaN",""
"","S1","","html-keyboard-response","338","346395","0.0-1.0-452.0","0","0","41433","","null","","","null","50","","","","","","","","","","","","","","","",""
"","ISI","","html-keyboard-response","339","348398","0.0-1.0-453.0","0","0","41433","","null","","","null","50","NaN","","","","","","","","","","","","","","",""
"","S2","","html-keyboard-response","340","348654","0.0-1.0-454.0","0","0","41433","","null","","","null","50","","NaN","","","","","","","","","","","","","",""
"","response","","html-keyboard-response","341","349037","0.0-1.0-455.0","0","0","41433","","380","","","75","50","","","2","50","training","adjacent","EF","5","6","O.jpg","N.jpg","1","1","1","",""
"","feedback","","html-keyboard-response","342","350041","0.0-1.0-456.0-0.0","0","0","41433","","null","","","null","50","","","","","","","","","","","","","","","",""
"","ITI","","html-keyboard-response","343","351043","0.0-1.0-459.0","0","0","41433","","null","","","null","50","","","","","","","","","","","","","","","NaN",""
"","S1","","html-keyboard-response","344","351295","0.0-1.0-461.0","0","0","41433","","null","","","null","51","","","","","","","","","","","","","","","",""
"","ISI","","html-keyboard-response","345","353299","0.0-1.0-462.0","0","0","41433","","null","","","null","51","NaN","","","","","","","","","","","","","","",""
"","S2","","html-keyboard-response","346","353552","0.0-1.0-463.0","0","0","41433","","null","","","null","51","","NaN","","","","","","","","","","","","","",""
"","response","","html-keyboard-response","347","354039","0.0-1.0-464.0","0","0","41433","","484","","","75","51","","","2","51","training","adjacent","CD","3","4","M.jpg","R.jpg","1","1","1","",""
"","feedback","","html-keyboard-response","348","355042","0.0-1.0-465.0-0.0","0","0","41433","","null","","","null","51","","","","","","","","","","","","","","","",""
"","ITI","","html-keyboard-response","349","356045","0.0-1.0-468.0","0","0","41433","","null","","","null","51","","","","","","","","","","","","","","","NaN",""
"","S1","","html-keyboard-response","350","356299","0.0-1.0-470.0","0","0","41433","","null","","","null","52","","","","","","","","","","","","","","","",""
"","ISI","","html-keyboard-response","351","358301","0.0-1.0-471.0","0","0","41433","","null","","","null","52","NaN","","","","","","","","","","","","","","",""
"","S2","","html-keyboard-response","352","358557","0.0-1.0-472.0","0","0","41433","","null","","","null","52","","NaN","","","","","","","","","","","","","",""
"","response","","html-keyboard-response","353","359225","0.0-1.0-473.0","0","0","41433","","664","","","75","52","","","2","52","training","adjacent","DC","4","3","R.jpg","M.jpg","1","0","0","",""
"","feedback","","html-keyboard-response","354","360229","0.0-1.0-474.0-0.0","0","0","41433","","null","","","null","52","","","","","","","","","","","","","","","",""
"","time_out","","html-keyboard-response","355","362232","0.0-1.0-476.0-0.0","0","0","41433","","null","","","null","52","","","","","","","","","","","","","","","",""
"","ITI","","html-keyboard-response","356","363240","0.0-1.0-477.0","0","0","41433","","null","","","null","52","","","","","","","","","","","","","","","NaN",""
"","S1","","html-keyboard-response","357","363494","0.0-1.0-479.0","0","0","41433","","null","","","null","53","","","","","","","","","","","","","","","",""
"","ISI","","html-keyboard-response","358","365498","0.0-1.0-480.0","0","0","41433","","342","","","68","53","d","","","","","","","","","","","","","","",""
"","S2","","html-keyboard-response","359","365752","0.0-1.0-481.0","0","0","41433","","null","","","null","53","","NaN","","","","","","","","","","","","","",""
"","response","","html-keyboard-response","360","366330","0.0-1.0-482.0","0","0","41433","","576","","","68","53","","","2","53","training","adjacent","DC","4","3","R.jpg","M.jpg","0","0","1","",""
"","feedback","","html-keyboard-response","361","367333","0.0-1.0-483.0-0.0","0","0","41433","","null","","","null","53","","","","","","","","","","","","","","","",""
"","ITI","","html-keyboard-response","362","368336","0.0-1.0-486.0","0","0","41433","","null","","","null","53","","","","","","","","","","","","","","","NaN",""
"","S1","","html-keyboard-response","363","368589","0.0-1.0-488.0","0","0","41433","","null","","","null","54","","","","","","","","","","","","","","","",""
"","ISI","","html-keyboard-response","364","370592","0.0-1.0-489.0","0","0","41433","","null","","","null","54","NaN","","","","","","","","","","","","","","",""
"","S2","","html-keyboard-response","365","370844","0.0-1.0-490.0","0","0","41433","","null","","","null","54","","NaN","","","","","","","","","","","","","",""
"","response","","html-keyboard-response","366","371322","0.0-1.0-491.0","0","0","41433","","477","","","75","54","","","2","54","training","adjacent","DC","4","3","R.jpg","M.jpg","1","0","0","",""
"","feedback","","html-keyboard-response","367","372325","0.0-1.0-492.0-0.0","0","0","41433","","null","","","null","54","","","","","","","","","","","","","","","",""
"","time_out","","html-keyboard-response","368","374328","0.0-1.0-494.0-0.0","0","0","41433","","null","","","null","54","","","","","","","","","","","","","","","",""
"","ITI","","html-keyboard-response","369","375330","0.0-1.0-495.0","0","0","41433","","null","","","null","54","","","","","","","","","","","","","","","NaN",""
"","S1","","html-keyboard-response","370","375584","0.0-1.0-497.0","0","0","41433","","null","","","null","55","","","","","","","","","","","","","","","",""
"","ISI","","html-keyboard-response","371","377587","0.0-1.0-498.0","0","0","41433","","null","","","null","55","NaN","","","","","","","","","","","","","","",""
"","S2","","html-keyboard-response","372","377840","0.0-1.0-499.0","0","0","41433","","null","","","null","55","","NaN","","","","","","","","","","","","","",""
"","response","","html-keyboard-response","373","378167","0.0-1.0-500.0","0","0","41433","","325","","","68","55","","","2","55","training","adjacent","EF","5","6","O.jpg","N.jpg","0","1","0","",""
"","feedback","","html-keyboard-response","374","379178","0.0-1.0-501.0-0.0","0","0","41433","","null","","","null","55","","","","","","","","","","","","","","","",""
"","time_out","","html-keyboard-response","375","381193","0.0-1.0-503.0-0.0","0","0","41433","","null","","","null","55","","","","","","","","","","","","","","","",""
"","ITI","","html-keyboard-response","376","382198","0.0-1.0-504.0","0","0","41433","","null","","","null","55","","","","","","","","","","","","","","","NaN",""
"","S1","","html-keyboard-response","377","382452","0.0-1.0-506.0","0","0","41433","","null","","","null","56","","","","","","","","","","","","","","","",""
"","ISI","","html-keyboard-response","378","384456","0.0-1.0-507.0","0","0","41433","","307","","","75","56","k","","","","","","","","","","","","","","",""
"","S2","","html-keyboard-response","379","384709","0.0-1.0-508.0","0","0","41433","","null","","","null","56","","NaN","","","","","","","","","","","","","",""
"","response","","html-keyboard-response","380","384989","0.0-1.0-509.0","0","0","41433","","277","","","75","56","","","2","56","training","adjacent","BC","2","3","P.jpg","M.jpg","1","1","1","",""
"","feedback","","html-keyboard-response","381","385992","0.0-1.0-510.0-0.0","0","0","41433","","null","","","null","56","","","","","","","","","","","","","","","",""
"","ITI","","html-keyboard-response","382","386995","0.0-1.0-513.0","0","0","41433","","null","","","null","56","","","","","","","","","","","","","","","NaN",""
"","S1","","html-keyboard-response","383","387249","0.0-1.0-515.0","0","0","41433","","null","","","null","57","","","","","","","","","","","","","","","",""
"","ISI","","html-keyboard-response","384","389252","0.0-1.0-516.0","0","0","41433","","null","","","null","57","NaN","","","","","","","","","","","","","","",""
"","S2","","html-keyboard-response","385","389505","0.0-1.0-517.0","0","0","41433","","null","","","null","57","","NaN","","","","","","","","","","","","","",""
"","response","","html-keyboard-response","386","390277","0.0-1.0-518.0","0","0","41433","","769","","","68","57","","","2","57","training","adjacent","FG","6","7","N.jpg","L.jpg","0","1","0","",""
"","feedback","","html-keyboard-response","387","391281","0.0-1.0-519.0-0.0","0","0","41433","","null","","","null","57","","","","","","","","","","","","","","","",""
"","time_out","","html-keyboard-response","388","393284","0.0-1.0-521.0-0.0","0","0","41433","","null","","","null","57","","","","","","","","","","","","","","","",""
"","ITI","","html-keyboard-response","389","394287","0.0-1.0-522.0","0","0","41433","","null","","","null","57","","","","","","","","","","","","","","","NaN",""
"","S1","","html-keyboard-response","390","394540","0.0-1.0-524.0","0","0","41433","","null","","","null","58","","","","","","","","","","","","","","","",""
"","ISI","","html-keyboard-response","391","396543","0.0-1.0-525.0","0","0","41433","","331","","","75","58","k","","","","","","","","","","","","","","",""
"","S2","","html-keyboard-response","392","396795","0.0-1.0-526.0","0","0","41433","","null","","","null","58","","NaN","","","","","","","","","","","","","",""
"","response","","html-keyboard-response","393","397235","0.0-1.0-527.0","0","0","41433","","435","","","75","58","","","2","58","training","adjacent","AB","1","2","Q.jpg","P.jpg","1","1","1","",""
"","feedback","","html-keyboard-response","394","398252","0.0-1.0-528.0-0.0","0","0","41433","","null","","","null","58","","","","","","","","","","","","","","","",""
"","ITI","","html-keyboard-response","395","399256","0.0-1.0-531.0","0","0","41433","","null","","","null","58","","","","","","","","","","","","","","","NaN",""
"","S1","","html-keyboard-response","396","399509","0.0-1.0-533.0","0","0","41433","","null","","","null","59","","","","","","","","","","","","","","","",""
"","ISI","","html-keyboard-response","397","401511","0.0-1.0-534.0","0","0","41433","","null","","","null","59","NaN","","","","","","","","","","","","","","",""
"","S2","","html-keyboard-response","398","401764","0.0-1.0-535.0","0","0","41433","","null","","","null","59","","NaN","","","","","","","","","","","","","",""
"","response","","html-keyboard-response","399","402274","0.0-1.0-536.0","0","0","41433","","508","","","75","59","","","2","59","training","adjacent","CB","3","2","M.jpg","P.jpg","1","0","0","",""
"","feedback","","html-keyboard-response","400","403278","0.0-1.0-537.0-0.0","0","0","41433","","null","","","null","59","","","","","","","","","","","","","","","",""
"","time_out","","html-keyboard-response","401","405282","0.0-1.0-539.0-0.0","0","0","41433","","null","","","null","59","","","","","","","","","","","","","","","",""
"","ITI","","html-keyboard-response","402","406286","0.0-1.0-540.0","0","0","41433","","367","","","32","59","","","","","","","","","","","","","","","space",""
"","S1","","html-keyboard-response","403","406539","0.0-1.0-542.0","0","0","41433","","null","","","null","60","","","","","","","","","","","","","","","",""
"","ISI","","html-keyboard-response","404","408542","0.0-1.0-543.0","0","0","41433","","544","","","68","60","d","","","","","","","","","","","","","","",""
"","S2","","html-keyboard-response","405","408794","0.0-1.0-544.0","0","0","41433","","null","","","null","60","","NaN","","","","","","","","","","","","","",""
"","response","","html-keyboard-response","406","408897","0.0-1.0-545.0","0","0","41433","","100","","","75","60","","","2","60","training","adjacent","CD","3","4","M.jpg","R.jpg","1","1","1","",""
"","feedback","","html-keyboard-response","407","409900","0.0-1.0-546.0-0.0","0","0","41433","","null","","","null","60","","","","","","","","","","","","","","","",""
"","ITI","","html-keyboard-response","408","410903","0.0-1.0-549.0","0","0","41433","","null","","","null","60","","","","","","","","","","","","","","","NaN",""
"","S1","","html-keyboard-response","409","411156","0.0-1.0-551.0","0","0","41433","","null","","","null","61","","","","","","","","","","","","","","","",""
"","ISI","","html-keyboard-response","410","413159","0.0-1.0-552.0","0","0","41433","","1755","","","68","61","d","","","","","","","","","","","","","","",""
"","S2","","html-keyboard-response","411","413414","0.0-1.0-553.0","0","0","41433","","null","","","null","61","","NaN","","","","","","","","","","","","","",""
"","response","","html-keyboard-response","412","413502","0.0-1.0-554.0","0","0","41433","","86","","","68","61","","","2","61","training","adjacent","BA","2","1","P.jpg","Q.jpg","0","0","1","",""
"","feedback","","html-keyboard-response","413","414505","0.0-1.0-555.0-0.0","0","0","41433","","null","","","null","61","","","","","","","","","","","","","","","",""
"","ITI","","html-keyboard-response","414","415508","0.0-1.0-558.0","0","0","41433","","null","","","null","61","","","","","","","","","","","","","","","NaN",""
"","S1","","html-keyboard-response","415","415762","0.0-1.0-560.0","0","0","41433","","null","","","null","62","","","","","","","","","","","","","","","",""
"","ISI","","html-keyboard-response","416","417764","0.0-1.0-561.0","0","0","41433","","null","","","null","62","NaN","","","","","","","","","","","","","","",""
"","S2","","html-keyboard-response","417","418018","0.0-1.0-562.0","0","0","41433","","null","","","null","62","","NaN","","","","","","","","","","","","","",""
"","response","","html-keyboard-response","418","418283","0.0-1.0-563.0","0","0","41433","","262","","","75","62","","","2","62","training","adjacent","FE","6","5","N.jpg","O.jpg","1","0","0","",""
"","feedback","","html-keyboard-response","419","419287","0.0-1.0-564.0-0.0","0","0","41433","","null","","","null","62","","","","","","","","","","","","","","","",""
"","time_out","","html-keyboard-response","420","421289","0.0-1.0-566.0-0.0","0","0","41433","","null","","","null","62","","","","","","","","","","","","","","","",""
"","ITI","","html-keyboard-response","421","422292","0.0-1.0-567.0","0","0","41433","","null","","","null","62","","","","","","","","","","","","","","","NaN",""
"","S1","","html-keyboard-response","422","422547","0.0-1.0-569.0","0","0","41433","","null","","","null","63","","","","","","","","","","","","","","","",""
"","ISI","","html-keyboard-response","423","424550","0.0-1.0-570.0","0","0","41433","","443","","","68","63","d","","","","","","","","","","","","","","",""
"","S2","","html-keyboard-response","424","424803","0.0-1.0-571.0","0","0","41433","","null","","","null","63","","NaN","","","","","","","","","","","","","",""
"","response","","html-keyboard-response","425","424934","0.0-1.0-572.0","0","0","41433","","130","","","68","63","","","2","63","training","adjacent","DE","4","5","R.jpg","O.jpg","0","1","0","",""
"","feedback","","html-keyboard-response","426","425937","0.0-1.0-573.0-0.0","0","0","41433","","null","","","null","63","","","","","","","","","","","","","","","",""
"","time_out","","html-keyboard-response","427","427940","0.0-1.0-575.0-0.0","0","0","41433","","null","","","null","63","","","","","","","","","","","","","","","",""
"","ITI","","html-keyboard-response","428","428942","0.0-1.0-576.0","0","0","41433","","747","","","68","63","","","","","","","","","","","","","","","d",""
"","S1","","html-keyboard-response","429","429196","0.0-1.0-578.0","0","0","41433","","null","","","null","64","","","","","","","","","","","","","","","",""
"","ISI","","html-keyboard-response","430","431197","0.0-1.0-579.0","0","0","41433","","437","","","75","64","k","","","","","","","","","","","","","","",""
"","S2","","html-keyboard-response","431","431451","0.0-1.0-580.0","0","0","41433","","null","","","null","64","","NaN","","","","","","","","","","","","","",""
"","response","","html-keyboard-response","432","431770","0.0-1.0-581.0","0","0","41433","","317","","","75","64","","","2","64","training","adjacent","FG","6","7","N.jpg","L.jpg","1","1","1","",""
"","feedback","","html-keyboard-response","433","432774","0.0-1.0-582.0-0.0","0","0","41433","","null","","","null","64","","","","","","","","","","","","","","","",""
"","ITI","","html-keyboard-response","434","433777","0.0-1.0-585.0","0","0","41433","","null","","","null","64","","","","","","","","","","","","","","","NaN",""
"","S1","","html-keyboard-response","435","434030","0.0-1.0-587.0","0","0","41433","","null","","","null","65","","","","","","","","","","","","","","","",""
"","ISI","","html-keyboard-response","436","436032","0.0-1.0-588.0","0","0","41433","","null","","","null","65","NaN","","","","","","","","","","","","","","",""
"","S2","","html-keyboard-response","437","436286","0.0-1.0-589.0","0","0","41433","","null","","","null","65","","NaN","","","","","","","","","","","","","",""
"","response","","html-keyboard-response","438","436520","0.0-1.0-590.0","0","0","41433","","232","","","75","65","","","2","65","training","adjacent","EF","5","6","O.jpg","N.jpg","1","1","1","",""
"","feedback","","html-keyboard-response","439","437524","0.0-1.0-591.0-0.0","0","0","41433","","null","","","null","65","","","","","","","","","","","","","","","",""
"","ITI","","html-keyboard-response","440","438528","0.0-1.0-594.0","0","0","41433","","null","","","null","65","","","","","","","","","","","","","","","NaN",""
"","S1","","html-keyboard-response","441","438781","0.0-1.0-596.0","0","0","41433","","null","","","null","66","","","","","","","","","","","","","","","",""
"","ISI","","html-keyboard-response","442","440785","0.0-1.0-597.0","0","0","41433","","null","","","null","66","NaN","","","","","","","","","","","","","","",""
"","S2","","html-keyboard-response","443","441038","0.0-1.0-598.0","0","0","41433","","249","","","75","66","","k","","","","","","","","","","","","","",""
"","response","","html-keyboard-response","444","441666","0.0-1.0-599.0","0","0","41433","","625","","","75","66","","","2","66","training","adjacent","FE","6","5","N.jpg","O.jpg","1","0","0","",""
"","feedback","","html-keyboard-response","445","442668","0.0-1.0-600.0-0.0","0","0","41433","","null","","","null","66","","","","","","","","","","","","","","","",""
"","time_out","","html-keyboard-response","446","444670","0.0-1.0-602.0-0.0","0","0","41433","","null","","","null","66","","","","","","","","","","","","","","","",""
"","ITI","","html-keyboard-response","447","445672","0.0-1.0-603.0","0","0","41433","","null","","","null","66","","","","","","","","","","","","","","","NaN",""
"","S1","","html-keyboard-response","448","445925","0.0-1.0-605.0","0","0","41433","","null","","","null","67","","","","","","","","","","","","","","","",""
"","ISI","","html-keyboard-response","449","447928","0.0-1.0-606.0","0","0","41433","","30","","","68","67","d","","","","","","","","","","","","","","",""
"","S2","","html-keyboard-response","450","448181","0.0-1.0-607.0","0","0","41433","","null","","","null","67","","NaN","","","","","","","","","","","","","",""
"","response","","html-keyboard-response","451","448540","0.0-1.0-608.0","0","0","41433","","356","","","68","67","","","2","67","training","adjacent","EF","5","6","O.jpg","N.jpg","0","1","0","",""
"","feedback","","html-keyboard-response","452","449544","0.0-1.0-609.0-0.0","0","0","41433","","null","","","null","67","","","","","","","","","","","","","","","",""
"","time_out","","html-keyboard-response","453","451547","0.0-1.0-611.0-0.0","0","0","41433","","null","","","null","67","","","","","","","","","","","","","","","",""
"","ITI","","html-keyboard-response","454","452551","0.0-1.0-612.0","0","0","41433","","null","","","null","67","","","","","","","","","","","","","","","NaN",""
"","S1","","html-keyboard-response","455","452803","0.0-1.0-614.0","0","0","41433","","null","","","null","68","","","","","","","","","","","","","","","",""
"","ISI","","html-keyboard-response","456","454806","0.0-1.0-615.0","0","0","41433","","167","","","75","68","k","","","","","","","","","","","","","","",""
"","S2","","html-keyboard-response","457","455059","0.0-1.0-616.0","0","0","41433","","null","","","null","68","","NaN","","","","","","","","","","","","","",""
"","response","","html-keyboard-response","458","455740","0.0-1.0-617.0","0","0","41433","","679","","","68","68","","","2","68","training","adjacent","GF","7","6","L.jpg","N.jpg","0","0","1","",""
"","feedback","","html-keyboard-response","459","456744","0.0-1.0-618.0-0.0","0","0","41433","","null","","","null","68","","","","","","","","","","","","","","","",""
"","ITI","","html-keyboard-response","460","457749","0.0-1.0-621.0","0","0","41433","","null","","","null","68","","","","","","","","","","","","","","","NaN",""
"","S1","","html-keyboard-response","461","458003","0.0-1.0-623.0","0","0","41433","","null","","","null","69","","","","","","","","","","","","","","","",""
"","ISI","","html-keyboard-response","462","460006","0.0-1.0-624.0","0","0","41433","","null","","","null","69","NaN","","","","","","","","","","","","","","",""
"","S2","","html-keyboard-response","463","460259","0.0-1.0-625.0","0","0","41433","","null","","","null","69","","NaN","","","","","","","","","","","","","",""
"","response","","html-keyboard-response","464","461313","0.0-1.0-626.0","0","0","41433","","1052","","","68","69","","","2","69","training","adjacent","DE","4","5","R.jpg","O.jpg","0","1","0","",""
"","feedback","","html-keyboard-response","465","462316","0.0-1.0-627.0-0.0","0","0","41433","","null","","","null","69","","","","","","","","","","","","","","","",""
"","time_out","","html-keyboard-response","466","464318","0.0-1.0-629.0-0.0","0","0","41433","","null","","","null","69","","","","","","","","","","","","","","","",""
"","ITI","","html-keyboard-response","467","465320","0.0-1.0-630.0","0","0","41433","","null","","","null","69","","","","","","","","","","","","","","","NaN",""
"","S1","","html-keyboard-response","468","465573","0.0-1.0-632.0","0","0","41433","","null","","","null","70","","","","","","","","","","","","","","","",""
"","ISI","","html-keyboard-response","469","467576","0.0-1.0-633.0","0","0","41433","","null","","","null","70","NaN","","","","","","","","","","","","","","",""
"","S2","","html-keyboard-response","470","467830","0.0-1.0-634.0","0","0","41433","","null","","","null","70","","NaN","","","","","","","","","","","","","",""
"","response","","html-keyboard-response","471","468269","0.0-1.0-635.0","0","0","41433","","437","","","75","70","","","2","70","training","adjacent","GF","7","6","L.jpg","N.jpg","1","0","0","",""
"","feedback","","html-keyboard-response","472","469272","0.0-1.0-636.0-0.0","0","0","41433","","null","","","null","70","","","","","","","","","","","","","","","",""
"","time_out","","html-keyboard-response","473","471275","0.0-1.0-638.0-0.0","0","0","41433","","null","","","null","70","","","","","","","","","","","","","","","",""
"","ITI","","html-keyboard-response","474","472279","0.0-1.0-639.0","0","0","41433","","null","","","null","70","","","","","","","","","","","","","","","NaN",""
"","S1","","html-keyboard-response","475","472531","0.0-1.0-641.0","0","0","41433","","null","","","null","71","","","","","","","","","","","","","","","",""
"","ISI","","html-keyboard-response","476","474533","0.0-1.0-642.0","0","0","41433","","332","","","75","71","k","","","","","","","","","","","","","","",""
"","S2","","html-keyboard-response","477","474785","0.0-1.0-643.0","0","0","41433","","null","","","null","71","","NaN","","","","","","","","","","","","","",""
"","response","","html-keyboard-response","478","474788","0.0-1.0-644.0","0","0","41433","","0","","","68","71","","","2","71","training","adjacent","BA","2","1","P.jpg","Q.jpg","0","0","1","",""
"","feedback","","html-keyboard-response","479","475790","0.0-1.0-645.0-0.0","0","0","41433","","null","","","null","71","","","","","","","","","","","","","","","",""
"","ITI","","html-keyboard-response","480","476793","0.0-1.0-648.0","0","0","41433","","null","","","null","71","","","","","","","","","","","","","","","NaN",""
"","S1","","html-keyboard-response","481","477048","0.0-1.0-650.0","0","0","41433","","null","","","null","72","","","","","","","","","","","","","","","",""
"","ISI","","html-keyboard-response","482","479050","0.0-1.0-651.0","0","0","41433","","null","","","null","72","NaN","","","","","","","","","","","","","","",""
"","S2","","html-keyboard-response","483","479302","0.0-1.0-652.0","0","0","41433","","null","","","null","72","","NaN","","","","","","","","","","","","","",""
"","response","","html-keyboard-response","484","480078","0.0-1.0-653.0","0","0","41433","","773","","","68","72","","","2","72","training","adjacent","BC","2","3","P.jpg","M.jpg","0","1","0","",""
"","feedback","","html-keyboard-response","485","481082","0.0-1.0-654.0-0.0","0","0","41433","","null","","","null","72","","","","","","","","","","","","","","","",""
"","time_out","","html-keyboard-response","486","483085","0.0-1.0-656.0-0.0","0","0","41433","","null","","","null","72","","","","","","","","","","","","","","","",""
"","ITI","","html-keyboard-response","487","484088","0.0-1.0-657.0","0","0","41433","","null","","","null","72","","","","","","","","","","","","","","","NaN",""
"","S1","","html-keyboard-response","488","484341","0.0-1.0-659.0","0","0","41433","","null","","","null","73","","","","","","","","","","","","","","","",""
"","ISI","","html-keyboard-response","489","486345","0.0-1.0-660.0","0","0","41433","","220","","","75","73","k","","","","","","","","","","","","","","",""
"","S2","","html-keyboard-response","490","486598","0.0-1.0-661.0","0","0","41433","","null","","","null","73","","NaN","","","","","","","","","","","","","",""
"","response","","html-keyboard-response","491","487697","0.0-1.0-662.0","0","0","41433","","1096","","","75","73","","","2","73","training","adjacent","ED","5","4","O.jpg","R.jpg","1","0","0","",""
"","feedback","","html-keyboard-response","492","488699","0.0-1.0-663.0-0.0","0","0","41433","","null","","","null","73","","","","","","","","","","","","","","","",""
"","time_out","","html-keyboard-response","493","490702","0.0-1.0-665.0-0.0","0","0","41433","","null","","","null","73","","","","","","","","","","","","","","","",""
"","ITI","","html-keyboard-response","494","491705","0.0-1.0-666.0","0","0","41433","","null","","","null","73","","","","","","","","","","","","","","","NaN",""
"","S1","","html-keyboard-response","495","491959","0.0-1.0-668.0","0","0","41433","","null","","","null","74","","","","","","","","","","","","","","","",""
"","ISI","","html-keyboard-response","496","493963","0.0-1.0-669.0","0","0","41433","","null","","","null","74","NaN","","","","","","","","","","","","","","",""
"","S2","","html-keyboard-response","497","494216","0.0-1.0-670.0","0","0","41433","","null","","","null","74","","NaN","","","","","","","","","","","","","",""
"","response","","html-keyboard-response","498","494299","0.0-1.0-671.0","0","0","41433","","81","","","68","74","","","2","74","training","adjacent","CB","3","2","M.jpg","P.jpg","0","0","1","",""
"","feedback","","html-keyboard-response","499","495302","0.0-1.0-672.0-0.0","0","0","41433","","null","","","null","74","","","","","","","","","","","","","","","",""
"","ITI","","html-keyboard-response","500","496305","0.0-1.0-675.0","0","0","41433","","null","","","null","74","","","","","","","","","","","","","","","NaN",""
"","S1","","html-keyboard-response","501","496558","0.0-1.0-677.0","0","0","41433","","null","","","null","75","","","","","","","","","","","","","","","",""
"","ISI","","html-keyboard-response","502","498561","0.0-1.0-678.0","0","0","41433","","null","","","null","75","NaN","","","","","","","","","","","","","","",""
"","S2","","html-keyboard-response","503","498814","0.0-1.0-679.0","0","0","41433","","null","","","null","75","","NaN","","","","","","","","","","","","","",""
"","response","","html-keyboard-response","504","499060","0.0-1.0-680.0","0","0","41433","","243","","","75","75","","","2","75","training","adjacent","FE","6","5","N.jpg","O.jpg","1","0","0","",""
"","feedback","","html-keyboard-response","505","500064","0.0-1.0-681.0-0.0","0","0","41433","","null","","","null","75","","","","","","","","","","","","","","","",""
"","time_out","","html-keyboard-response","506","502067","0.0-1.0-683.0-0.0","0","0","41433","","null","","","null","75","","","","","","","","","","","","","","","",""
"","ITI","","html-keyboard-response","507","503070","0.0-1.0-684.0","0","0","41433","","null","","","null","75","","","","","","","","","","","","","","","NaN",""
"","S1","","html-keyboard-response","508","503324","0.0-1.0-686.0","0","0","41433","","null","","","null","76","","","","","","","","","","","","","","","",""
"","ISI","","html-keyboard-response","509","505327","0.0-1.0-687.0","0","0","41433","","249","","","68","76","d","","","","","","","","","","","","","","",""
"","S2","","html-keyboard-response","510","505581","0.0-1.0-688.0","0","0","41433","","null","","","null","76","","NaN","","","","","","","","","","","","","",""
"","response","","html-keyboard-response","511","505732","0.0-1.0-689.0","0","0","41433","","149","","","68","76","","","2","76","training","adjacent","BC","2","3","P.jpg","M.jpg","0","1","0","",""
"","feedback","","html-keyboard-response","512","506734","0.0-1.0-690.0-0.0","0","0","41433","","null","","","null","76","","","","","","","","","","","","","","","",""
"","time_out","","html-keyboard-response","513","508738","0.0-1.0-692.0-0.0","0","0","41433","","null","","","null","76","","","","","","","","","","","","","","","",""
"","ITI","","html-keyboard-response","514","509740","0.0-1.0-693.0","0","0","41433","","1000","","","75","76","","","","","","","","","","","","","","","k",""
"","S1","","html-keyboard-response","515","510009","0.0-1.0-695.0","0","0","41433","","null","","","null","77","","","","","","","","","","","","","","","",""
"","ISI","","html-keyboard-response","516","512014","0.0-1.0-696.0","0","0","41433","","653","","","68","77","d","","","","","","","","","","","","","","",""
"","S2","","html-keyboard-response","517","512266","0.0-1.0-697.0","0","0","41433","","null","","","null","77","","NaN","","","","","","","","","","","","","",""
"","response","","html-keyboard-response","518","512304","0.0-1.0-698.0","0","0","41433","","35","","","75","77","","","2","77","training","adjacent","DC","4","3","R.jpg","M.jpg","1","0","0","",""
"","feedback","","html-keyboard-response","519","513308","0.0-1.0-699.0-0.0","0","0","41433","","null","","","null","77","","","","","","","","","","","","","","","",""
"","time_out","","html-keyboard-response","520","515311","0.0-1.0-701.0-0.0","0","0","41433","","null","","","null","77","","","","","","","","","","","","","","","",""
"","ITI","","html-keyboard-response","521","516313","0.0-1.0-702.0","0","0","41433","","null","","","null","77","","","","","","","","","","","","","","","NaN",""
"","S1","","html-keyboard-response","522","516566","0.0-1.0-704.0","0","0","41433","","null","","","null","78","","","","","","","","","","","","","","","",""
"","ISI","","html-keyboard-response","523","518569","0.0-1.0-705.0","0","0","41433","","null","","","null","78","NaN","","","","","","","","","","","","","","",""
"","S2","","html-keyboard-response","524","518824","0.0-1.0-706.0","0","0","41433","","null","","","null","78","","NaN","","","","","","","","","","","","","",""
"","response","","html-keyboard-response","525","519404","0.0-1.0-707.0","0","0","41433","","577","","","68","78","","","2","78","training","adjacent","CD","3","4","M.jpg","R.jpg","0","1","0","",""
"","feedback","","html-keyboard-response","526","520407","0.0-1.0-708.0-0.0","0","0","41433","","null","","","null","78","","","","","","","","","","","","","","","",""
"","time_out","","html-keyboard-response","527","522410","0.0-1.0-710.0-0.0","0","0","41433","","null","","","null","78","","","","","","","","","","","","","","","",""
"","ITI","","html-keyboard-response","528","523412","0.0-1.0-711.0","0","0","41433","","null","","","null","78","","","","","","","","","","","","","","","NaN",""
"","S1","","html-keyboard-response","529","523665","0.0-1.0-713.0","0","0","41433","","null","","","null","79","","","","","","","","","","","","","","","",""
"","ISI","","html-keyboard-response","530","525668","0.0-1.0-714.0","0","0","41433","","null","","","null","79","NaN","","","","","","","","","","","","","","",""
"","S2","","html-keyboard-response","531","525926","0.0-1.0-715.0","0","0","41433","","null","","","null","79","","NaN","","","","","","","","","","","","","",""
"","response","","html-keyboard-response","532","526423","0.0-1.0-716.0","0","0","41433","","493","","","68","79","","","2","79","training","adjacent","ED","5","4","O.jpg","R.jpg","0","0","1","",""
"","feedback","","html-keyboard-response","533","527428","0.0-1.0-717.0-0.0","0","0","41433","","null","","","null","79","","","","","","","","","","","","","","","",""
"","ITI","","html-keyboard-response","534","528430","0.0-1.0-720.0","0","0","41433","","null","","","null","79","","","","","","","","","","","","","","","NaN",""
"","S1","","html-keyboard-response","535","528683","0.0-1.0-722.0","0","0","41433","","null","","","null","80","","","","","","","","","","","","","","","",""
"","ISI","","html-keyboard-response","536","530685","0.0-1.0-723.0","0","0","41433","","null","","","null","80","NaN","","","","","","","","","","","","","","",""
"","S2","","html-keyboard-response","537","530938","0.0-1.0-724.0","0","0","41433","","null","","","null","80","","NaN","","","","","","","","","","","","","",""
"","response","","html-keyboard-response","538","531305","0.0-1.0-725.0","0","0","41433","","365","","","75","80","","","2","80","training","adjacent","AB","1","2","Q.jpg","P.jpg","1","1","1","",""
"","feedback","","html-keyboard-response","539","532318","0.0-1.0-726.0-0.0","0","0","41433","","null","","","null","80","","","","","","","","","","","","","","","",""
"","ITI","","html-keyboard-response","540","533328","0.0-1.0-729.0","0","0","41433","","null","","","null","80","","","","","","","","","","","","","","","NaN",""
"","S1","","html-keyboard-response","541","533580","0.0-1.0-731.0","0","0","41433","","null","","","null","81","","","","","","","","","","","","","","","",""
"","ISI","","html-keyboard-response","542","535582","0.0-1.0-732.0","0","0","41433","","null","","","null","81","NaN","","","","","","","","","","","","","","",""
"","S2","","html-keyboard-response","543","535835","0.0-1.0-733.0","0","0","41433","","null","","","null","81","","NaN","","","","","","","","","","","","","",""
"","response","","html-keyboard-response","544","536524","0.0-1.0-734.0","0","0","41433","","686","","","75","81","","","2","81","training","adjacent","DE","4","5","R.jpg","O.jpg","1","1","1","",""
"","feedback","","html-keyboard-response","545","537528","0.0-1.0-735.0-0.0","0","0","41433","","null","","","null","81","","","","","","","","","","","","","","","",""
"","ITI","","html-keyboard-response","546","538530","0.0-1.0-738.0","0","0","41433","","null","","","null","81","","","","","","","","","","","","","","","NaN",""
"","S1","","html-keyboard-response","547","538783","0.0-1.0-740.0","0","0","41433","","null","","","null","82","","","","","","","","","","","","","","","",""
"","ISI","","html-keyboard-response","548","540786","0.0-1.0-741.0","0","0","41433","","null","","","null","82","NaN","","","","","","","","","","","","","","",""
"","S2","","html-keyboard-response","549","541040","0.0-1.0-742.0","0","0","41433","","null","","","null","82","","NaN","","","","","","","","","","","","","",""
"","response","","html-keyboard-response","550","542169","0.0-1.0-743.0","0","0","41433","","1127","","","68","82","","","2","82","training","adjacent","BC","2","3","P.jpg","M.jpg","0","1","0","",""
"","feedback","","html-keyboard-response","551","543172","0.0-1.0-744.0-0.0","0","0","41433","","null","","","null","82","","","","","","","","","","","","","","","",""
"","time_out","","html-keyboard-response","552","545174","0.0-1.0-746.0-0.0","0","0","41433","","null","","","null","82","","","","","","","","","","","","","","","",""
"","ITI","","html-keyboard-response","553","546177","0.0-1.0-747.0","0","0","41433","","null","","","null","82","","","","","","","","","","","","","","","NaN",""
"","S1","","html-keyboard-response","554","546430","0.0-1.0-749.0","0","0","41433","","null","","","null","83","","","","","","","","","","","","","","","",""
"","ISI","","html-keyboard-response","555","548433","0.0-1.0-750.0","0","0","41433","","null","","","null","83","NaN","","","","","","","","","","","","","","",""
"","S2","","html-keyboard-response","556","548687","0.0-1.0-751.0","0","0","41433","","null","","","null","83","","NaN","","","","","","","","","","","","","",""
"","response","","html-keyboard-response","557","549220","0.0-1.0-752.0","0","0","41433","","530","","","68","83","","","2","83","training","adjacent","FG","6","7","N.jpg","L.jpg","0","1","0","",""
"","feedback","","html-keyboard-response","558","550224","0.0-1.0-753.0-0.0","0","0","41433","","null","","","null","83","","","","","","","","","","","","","","","",""
"","time_out","","html-keyboard-response","559","552227","0.0-1.0-755.0-0.0","0","0","41433","","null","","","null","83","","","","","","","","","","","","","","","",""
"","ITI","","html-keyboard-response","560","553241","0.0-1.0-756.0","0","0","41433","","null","","","null","83","","","","","","","","","","","","","","","NaN",""
"","S1","","html-keyboard-response","561","553501","0.0-1.0-758.0","0","0","41433","","null","","","null","84","","","","","","","","","","","","","","","",""
"","ISI","","html-keyboard-response","562","555504","0.0-1.0-759.0","0","0","41433","","null","","","null","84","NaN","","","","","","","","","","","","","","",""
"","S2","","html-keyboard-response","563","555758","0.0-1.0-760.0","0","0","41433","","null","","","null","84","","NaN","","","","","","","","","","","","","",""
"","response","","html-keyboard-response","564","555987","0.0-1.0-761.0","0","0","41433","","225","","","75","84","","","2","84","training","adjacent","CD","3","4","M.jpg","R.jpg","1","1","1","",""
"","feedback","","html-keyboard-response","565","556992","0.0-1.0-762.0-0.0","0","0","41433","","null","","","null","84","","","","","","","","","","","","","","","",""
"","ITI","","html-keyboard-response","566","557995","0.0-1.0-765.0","0","0","41433","","null","","","null","84","","","","","","","","","","","","","","","NaN",""
"","S1","","html-keyboard-response","567","558247","0.0-1.0-767.0","0","0","41433","","null","","","null","85","","","","","","","","","","","","","","","",""
"","ISI","","html-keyboard-response","568","560253","0.0-1.0-768.0","0","0","41433","","null","","","null","85","NaN","","","","","","","","","","","","","","",""
"","S2","","html-keyboard-response","569","560507","0.0-1.0-769.0","0","0","41433","","null","","","null","85","","NaN","","","","","","","","","","","","","",""
"","response","","html-keyboard-response","570","560879","0.0-1.0-770.0","0","0","41433","","370","","","75","85","","","2","85","training","adjacent","AB","1","2","Q.jpg","P.jpg","1","1","1","",""
"","feedback","","html-keyboard-response","571","561892","0.0-1.0-771.0-0.0","0","0","41433","","null","","","null","85","","","","","","","","","","","","","","","",""
"","ITI","","html-keyboard-response","572","562895","0.0-1.0-774.0","0","0","41433","","null","","","null","85","","","","","","","","","","","","","","","NaN",""
"","S1","","html-keyboard-response","573","563148","0.0-1.0-776.0","0","0","41433","","null","","","null","86","","","","","","","","","","","","","","","",""
"","ISI","","html-keyboard-response","574","565152","0.0-1.0-777.0","0","0","41433","","null","","","null","86","NaN","","","","","","","","","","","","","","",""
"","S2","","html-keyboard-response","575","565404","0.0-1.0-778.0","0","0","41433","","null","","","null","86","","NaN","","","","","","","","","","","","","",""
"","response","","html-keyboard-response","576","565976","0.0-1.0-779.0","0","0","41433","","570","","","75","86","","","2","86","training","adjacent","GF","7","6","L.jpg","N.jpg","1","0","0","",""
"","feedback","","html-keyboard-response","577","566979","0.0-1.0-780.0-0.0","0","0","41433","","null","","","null","86","","","","","","","","","","","","","","","",""
"","time_out","","html-keyboard-response","578","568981","0.0-1.0-782.0-0.0","0","0","41433","","null","","","null","86","","","","","","","","","","","","","","","",""
"","ITI","","html-keyboard-response","579","569986","0.0-1.0-783.0","0","0","41433","","null","","","null","86","","","","","","","","","","","","","","","NaN",""
"","S1","","html-keyboard-response","580","570240","0.0-1.0-785.0","0","0","41433","","null","","","null","87","","","","","","","","","","","","","","","",""
"","ISI","","html-keyboard-response","581","572242","0.0-1.0-786.0","0","0","41433","","343","","","68","87","d","","","","","","","","","","","","","","",""
"","S2","","html-keyboard-response","582","572495","0.0-1.0-787.0","0","0","41433","","null","","","null","87","","NaN","","","","","","","","","","","","","",""
"","response","","html-keyboard-response","583","572812","0.0-1.0-788.0","0","0","41433","","315","","","68","87","","","2","87","training","adjacent","ED","5","4","O.jpg","R.jpg","0","0","1","",""
"","feedback","","html-keyboard-response","584","573815","0.0-1.0-789.0-0.0","0","0","41433","","null","","","null","87","","","","","","","","","","","","","","","",""
"","ITI","","html-keyboard-response","585","574821","0.0-1.0-792.0","0","0","41433","","null","","","null","87","","","","","","","","","","","","","","","NaN",""
"","S1","","html-keyboard-response","586","575074","0.0-1.0-794.0","0","0","41433","","null","","","null","88","","","","","","","","","","","","","","","",""
