"success","ttype","start_time","trial_type","trial_index","time_elapsed","internal_node_id","warning","missed_checkup","PID","view_history","rt","responses","repeat_instructions","key_press","index","keypress_isi","keypress_S2","block","trial_num","phase","group_type","pair_type","S1_stim","S2_stim","S1_img","S2_img","S1_chosen","S1_higher","accuracy","keypress_iti","total_bonus_tally"
"true","full_screen","d03032023hr2115","fullscreen","0","7367","0.0-0.0","0","0","75150","","","","","","","","","","","","","","","","","","","","","",""
"","instructions","","instructions","1","328529","0.0-1.0-0.0-0.0","0","0","75150","[{""page_index"":0,""viewing_time"":9880},{""page_index"":1,""viewing_time"":4419},{""page_index"":2,""viewing_time"":185400},{""page_index"":1,""viewing_time"":17936},{""page_index"":2,""viewing_time"":103320},{""page_index"":3,""viewing_time"":188}]","321146","","","","","","","","","","","","","","","","","","","",""
"","comprehension_check","","survey-multi-choice","2","354865","0.0-1.0-0.0-1.0","0","0","75150","","26309","{""Q0"":""True"",""Q1"":""D"",""Q2"":""Only when the screen 'MAKE A CHOICE' is shown"",""Q3"":""Green mark"",""Q4"":""either D or K""}","1","","","","","","","","","","","","","","","","","",""
"","missed_instruction_checkup","","html-keyboard-response","3","356781","0.0-1.0-0.0-2.0-0.0","0","1","75150","","1902","","","32","","","","","","","","","","","","","","","","",""
"","instructions","","instructions","4","367956","0.0-1.0-0.1-0.1","0","0","75150","[{""page_index"":0,""viewing_time"":1956},{""page_index"":1,""viewing_time"":4903},{""page_index"":2,""viewing_time"":3179},{""page_index"":3,""viewing_time"":1127}]","11166","","","","","","","","","","","","","","","","","","","",""
"","comprehension_check","","survey-multi-choice","5","381196","0.0-1.0-0.1-1.1","0","0","75150","","13215","{""Q0"":""True"",""Q1"":""D"",""Q2"":""Once the second image appears and while the screen 'MAKE A CHOICE' is shown"",""Q3"":""Green mark"",""Q4"":""either D or K""}","0","","","","","","","","","","","","","","","","","",""
"","start_exp","","html-keyboard-response","6","383338","0.0-1.0-1.0","0","0","75150","","2125","","","32","","","","","","","","","","","","","","","","",""
"","S1","","html-keyboard-response","7","383610","0.0-1.0-2.0","0","0","75150","","null","","","null","0","","","","","","","","","","","","","","","",""
"","ISI","","html-keyboard-response","8","384131","0.0-1.0-3.0","0","0","75150","","null","","","null","0","NaN","","","","","","","","","","","","","","",""
"","S2","","html-keyboard-response","9","384388","0.0-1.0-4.0","0","0","75150","","null","","","null","0","","NaN","","","","","","","","","","","","","",""
"","response","","html-keyboard-response","10","385179","0.0-1.0-5.0-0.0","0","0","75150","","785","","","75","0","","","1","0","training","adjacent","AB","1","2","R.jpg","O.jpg","0","1","0","",""
"","feedback","","html-keyboard-response","11","386187","0.0-1.0-6.0-0.0","0","0","75150","","null","","","null","0","","","","","","","","","","","","","","","",""
"","time_out","","html-keyboard-response","12","388196","0.0-1.0-8.0-0.0","0","0","75150","","null","","","null","0","","","","","","","","","","","","","","","",""
"","ITI","","html-keyboard-response","13","389204","0.0-1.0-9.0","0","0","75150","","null","","","null","0","","","","","","","","","","","","","","","NaN",""
"","S1","","html-keyboard-response","14","389465","0.0-1.0-11.0","0","0","75150","","null","","","null","1","","","","","","","","","","","","","","","",""
"","ISI","","html-keyboard-response","15","389980","0.0-1.0-12.0","0","0","75150","","null","","","null","1","NaN","","","","","","","","","","","","","","",""
"","S2","","html-keyboard-response","16","390244","0.0-1.0-13.0","0","0","75150","","null","","","null","1","","NaN","","","","","","","","","","","","","",""
"","response","","html-keyboard-response","17","390866","0.0-1.0-14.0-0.0","0","0","75150","","616","","","68","1","","","1","1","training","adjacent","BA","2","1","O.jpg","R.jpg","1","0","0","",""
"","feedback","","html-keyboard-response","18","391876","0.0-1.0-15.0-0.0","0","0","75150","","null","","","null","1","","","","","","","","","","","","","","","",""
"","time_out","","html-keyboard-response","19","393883","0.0-1.0-17.0-0.0","0","0","75150","","null","","","null","1","","","","","","","","","","","","","","","",""
"","ITI","","html-keyboard-response","20","394892","0.0-1.0-18.0","0","0","75150","","null","","","null","1","","","","","","","","","","","","","","","NaN",""
"","S1","","html-keyboard-response","21","395151","0.0-1.0-20.0","0","0","75150","","null","","","null","2","","","","","","","","","","","","","","","",""
"","ISI","","html-keyboard-response","22","395667","0.0-1.0-21.0","0","0","75150","","null","","","null","2","NaN","","","","","","","","","","","","","","",""
"","S2","","html-keyboard-response","23","395937","0.0-1.0-22.0","0","0","75150","","null","","","null","2","","NaN","","","","","","","","","","","","","",""
"","response","","html-keyboard-response","24","396690","0.0-1.0-23.0-0.0","0","0","75150","","745","","","68","2","","","1","2","training","adjacent","EF","5","6","N.jpg","Q.jpg","1","1","1","",""
"","feedback","","html-keyboard-response","25","397700","0.0-1.0-24.0-0.0","0","0","75150","","null","","","null","2","","","","","","","","","","","","","","","",""
"","ITI","","html-keyboard-response","26","398715","0.0-1.0-27.0","0","0","75150","","null","","","null","2","","","","","","","","","","","","","","","NaN",""
"","S1","","html-keyboard-response","27","398984","0.0-1.0-29.0","0","0","75150","","null","","","null","3","","","","","","","","","","","","","","","",""
"","ISI","","html-keyboard-response","28","399499","0.0-1.0-30.0","0","0","75150","","null","","","null","3","NaN","","","","","","","","","","","","","","",""
"","S2","","html-keyboard-response","29","399763","0.0-1.0-31.0","0","0","75150","","null","","","null","3","","NaN","","","","","","","","","","","","","",""
"","response","","html-keyboard-response","30","400331","0.0-1.0-32.0-0.0","0","0","75150","","563","","","75","3","","","1","3","training","adjacent","BA","2","1","O.jpg","R.jpg","0","0","1","",""
"","feedback","","html-keyboard-response","31","401339","0.0-1.0-33.0-0.0","0","0","75150","","null","","","null","3","","","","","","","","","","","","","","","",""
"","ITI","","html-keyboard-response","32","402355","0.0-1.0-36.0","0","0","75150","","null","","","null","3","","","","","","","","","","","","","","","NaN",""
"","S1","","html-keyboard-response","33","402626","0.0-1.0-38.0","0","0","75150","","null","","","null","4","","","","","","","","","","","","","","","",""
"","ISI","","html-keyboard-response","34","403147","0.0-1.0-39.0","0","0","75150","","null","","","null","4","NaN","","","","","","","","","","","","","","",""
"","S2","","html-keyboard-response","35","403412","0.0-1.0-40.0","0","0","75150","","null","","","null","4","","NaN","","","","","","","","","","","","","",""
"","response","","html-keyboard-response","36","403933","0.0-1.0-41.0-0.0","0","0","75150","","514","","","75","4","","","1","4","training","adjacent","BC","2","3","O.jpg","M.jpg","0","1","0","",""
"","feedback","","html-keyboard-response","37","404948","0.0-1.0-42.0-0.0","0","0","75150","","null","","","null","4","","","","","","","","","","","","","","","",""
"","time_out","","html-keyboard-response","38","406956","0.0-1.0-44.0-0.0","0","0","75150","","null","","","null","4","","","","","","","","","","","","","","","",""
"","ITI","","html-keyboard-response","39","407963","0.0-1.0-45.0","0","0","75150","","null","","","null","4","","","","","","","","","","","","","","","NaN",""
"","S1","","html-keyboard-response","40","408227","0.0-1.0-47.0","0","0","75150","","null","","","null","5","","","","","","","","","","","","","","","",""
"","ISI","","html-keyboard-response","41","408746","0.0-1.0-48.0","0","0","75150","","null","","","null","5","NaN","","","","","","","","","","","","","","",""
"","S2","","html-keyboard-response","42","409018","0.0-1.0-49.0","0","0","75150","","null","","","null","5","","NaN","","","","","","","","","","","","","",""
"","response","","html-keyboard-response","43","409688","0.0-1.0-50.0-0.0","0","0","75150","","663","","","75","5","","","1","5","training","adjacent","ED","5","4","N.jpg","P.jpg","0","0","1","",""
"","feedback","","html-keyboard-response","44","410700","0.0-1.0-51.0-0.0","0","0","75150","","null","","","null","5","","","","","","","","","","","","","","","",""
"","ITI","","html-keyboard-response","45","411708","0.0-1.0-54.0","0","0","75150","","null","","","null","5","","","","","","","","","","","","","","","NaN",""
"","S1","","html-keyboard-response","46","411973","0.0-1.0-56.0","0","0","75150","","null","","","null","6","","","","","","","","","","","","","","","",""
"","ISI","","html-keyboard-response","47","412484","0.0-1.0-57.0","0","0","75150","","null","","","null","6","NaN","","","","","","","","","","","","","","",""
"","S2","","html-keyboard-response","48","412756","0.0-1.0-58.0","0","0","75150","","null","","","null","6","","NaN","","","","","","","","","","","","","",""
"","response","","html-keyboard-response","49","413121","0.0-1.0-59.0-0.0","0","0","75150","","351","","","75","6","","","1","6","training","adjacent","EF","5","6","N.jpg","Q.jpg","0","1","0","",""
"","feedback","","html-keyboard-response","50","414138","0.0-1.0-60.0-0.0","0","0","75150","","null","","","null","6","","","","","","","","","","","","","","","",""
"","time_out","","html-keyboard-response","51","416155","0.0-1.0-62.0-0.0","0","0","75150","","null","","","null","6","","","","","","","","","","","","","","","",""
"","ITI","","html-keyboard-response","52","417163","0.0-1.0-63.0","0","0","75150","","null","","","null","6","","","","","","","","","","","","","","","NaN",""
"","S1","","html-keyboard-response","53","417436","0.0-1.0-65.0","0","0","75150","","null","","","null","7","","","","","","","","","","","","","","","",""
"","ISI","","html-keyboard-response","54","417947","0.0-1.0-66.0","0","0","75150","","null","","","null","7","NaN","","","","","","","","","","","","","","",""
"","S2","","html-keyboard-response","55","418210","0.0-1.0-67.0","0","0","75150","","null","","","null","7","","NaN","","","","","","","","","","","","","",""
"","response","","html-keyboard-response","56","418517","0.0-1.0-68.0-0.0","0","0","75150","","295","","","68","7","","","1","7","training","adjacent","DC","4","3","P.jpg","M.jpg","1","0","0","",""
"","feedback","","html-keyboard-response","57","419526","0.0-1.0-69.0-0.0","0","0","75150","","null","","","null","7","","","","","","","","","","","","","","","",""
"","time_out","","html-keyboard-response","58","421540","0.0-1.0-71.0-0.0","0","0","75150","","null","","","null","7","","","","","","","","","","","","","","","",""
"","ITI","","html-keyboard-response","59","422548","0.0-1.0-72.0","0","0","75150","","null","","","null","7","","","","","","","","","","","","","","","NaN",""
"","S1","","html-keyboard-response","60","422819","0.0-1.0-74.0","0","0","75150","","null","","","null","8","","","","","","","","","","","","","","","",""
"","ISI","","html-keyboard-response","61","423338","0.0-1.0-75.0","0","0","75150","","null","","","null","8","NaN","","","","","","","","","","","","","","",""
"","S2","","html-keyboard-response","62","423609","0.0-1.0-76.0","0","0","75150","","null","","","null","8","","NaN","","","","","","","","","","","","","",""
"","response","","html-keyboard-response","63","424210","0.0-1.0-77.0-0.0","0","0","75150","","593","","","75","8","","","1","8","training","adjacent","DE","4","5","P.jpg","N.jpg","0","1","0","",""
"","feedback","","html-keyboard-response","64","425219","0.0-1.0-78.0-0.0","0","0","75150","","null","","","null","8","","","","","","","","","","","","","","","",""
"","time_out","","html-keyboard-response","65","427236","0.0-1.0-80.0-0.0","0","0","75150","","null","","","null","8","","","","","","","","","","","","","","","",""
"","ITI","","html-keyboard-response","66","428250","0.0-1.0-81.0","0","0","75150","","null","","","null","8","","","","","","","","","","","","","","","NaN",""
"","S1","","html-keyboard-response","67","428508","0.0-1.0-83.0","0","0","75150","","null","","","null","9","","","","","","","","","","","","","","","",""
"","ISI","","html-keyboard-response","68","429019","0.0-1.0-84.0","0","0","75150","","null","","","null","9","NaN","","","","","","","","","","","","","","",""
"","S2","","html-keyboard-response","69","429292","0.0-1.0-85.0","0","0","75150","","null","","","null","9","","NaN","","","","","","","","","","","","","",""
"","response","","html-keyboard-response","70","429862","0.0-1.0-86.0-0.0","0","0","75150","","564","","","75","9","","","1","9","training","adjacent","AB","1","2","R.jpg","O.jpg","0","1","0","",""
"","feedback","","html-keyboard-response","71","430879","0.0-1.0-87.0-0.0","0","0","75150","","null","","","null","9","","","","","","","","","","","","","","","",""
"","time_out","","html-keyboard-response","72","432899","0.0-1.0-89.0-0.0","0","0","75150","","null","","","null","9","","","","","","","","","","","","","","","",""
"","ITI","","html-keyboard-response","73","433908","0.0-1.0-90.0","0","0","75150","","null","","","null","9","","","","","","","","","","","","","","","NaN",""
"","S1","","html-keyboard-response","74","434166","0.0-1.0-92.0","0","0","75150","","null","","","null","10","","","","","","","","","","","","","","","",""
"","ISI","","html-keyboard-response","75","434675","0.0-1.0-93.0","0","0","75150","","null","","","null","10","NaN","","","","","","","","","","","","","","",""
"","S2","","html-keyboard-response","76","434939","0.0-1.0-94.0","0","0","75150","","null","","","null","10","","NaN","","","","","","","","","","","","","",""
"","response","","html-keyboard-response","77","435545","0.0-1.0-95.0-0.0","0","0","75150","","600","","","68","10","","","1","10","training","adjacent","BA","2","1","O.jpg","R.jpg","1","0","0","",""
"","feedback","","html-keyboard-response","78","436555","0.0-1.0-96.0-0.0","0","0","75150","","null","","","null","10","","","","","","","","","","","","","","","",""
"","time_out","","html-keyboard-response","79","438571","0.0-1.0-98.0-0.0","0","0","75150","","null","","","null","10","","","","","","","","","","","","","","","",""
"","ITI","","html-keyboard-response","80","439580","0.0-1.0-99.0","0","0","75150","","null","","","null","10","","","","","","","","","","","","","","","NaN",""
"","S1","","html-keyboard-response","81","439838","0.0-1.0-101.0","0","0","75150","","null","","","null","11","","","","","","","","","","","","","","","",""
"","ISI","","html-keyboard-response","82","440355","0.0-1.0-102.0","0","0","75150","","null","","","null","11","NaN","","","","","","","","","","","","","","",""
"","S2","","html-keyboard-response","83","440624","0.0-1.0-103.0","0","0","75150","","null","","","null","11","","NaN","","","","","","","","","","","","","",""
"","response","","html-keyboard-response","84","440724","0.0-1.0-104.0-0.0","0","0","75150","","92","","","75","11","","","1","11","training","adjacent","DE","4","5","P.jpg","N.jpg","0","1","0","",""
"","feedback","","html-keyboard-response","85","441737","0.0-1.0-105.0-0.0","0","0","75150","","null","","","null","11","","","","","","","","","","","","","","","",""
"","time_out","","html-keyboard-response","86","443749","0.0-1.0-107.0-0.0","0","0","75150","","null","","","null","11","","","","","","","","","","","","","","","",""
"","ITI","","html-keyboard-response","87","444764","0.0-1.0-108.0","0","0","75150","","null","","","null","11","","","","","","","","","","","","","","","NaN",""
"","S1","","html-keyboard-response","88","445028","0.0-1.0-110.0","0","0","75150","","null","","","null","12","","","","","","","","","","","","","","","",""
"","ISI","","html-keyboard-response","89","445546","0.0-1.0-111.0","0","0","75150","","null","","","null","12","NaN","","","","","","","","","","","","","","",""
"","S2","","html-keyboard-response","90","445811","0.0-1.0-112.0","0","0","75150","","null","","","null","12","","NaN","","","","","","","","","","","","","",""
"","response","","html-keyboard-response","91","446019","0.0-1.0-113.0-0.0","0","0","75150","","202","","","68","12","","","1","12","training","adjacent","DE","4","5","P.jpg","N.jpg","1","1","1","",""
"","feedback","","html-keyboard-response","92","447041","0.0-1.0-114.0-0.0","0","0","75150","","null","","","null","12","","","","","","","","","","","","","","","",""
"","ITI","","html-keyboard-response","93","448058","0.0-1.0-117.0","0","0","75150","","null","","","null","12","","","","","","","","","","","","","","","NaN",""
"","S1","","html-keyboard-response","94","448330","0.0-1.0-119.0","0","0","75150","","null","","","null","13","","","","","","","","","","","","","","","",""
"","ISI","","html-keyboard-response","95","448838","0.0-1.0-120.0","0","0","75150","","null","","","null","13","NaN","","","","","","","","","","","","","","",""
"","S2","","html-keyboard-response","96","449100","0.0-1.0-121.0","0","0","75150","","null","","","null","13","","NaN","","","","","","","","","","","","","",""
"","response","","html-keyboard-response","97","449409","0.0-1.0-122.0-0.0","0","0","75150","","296","","","68","13","","","1","13","training","adjacent","EF","5","6","N.jpg","Q.jpg","1","1","1","",""
"","feedback","","html-keyboard-response","98","450420","0.0-1.0-123.0-0.0","0","0","75150","","null","","","null","13","","","","","","","","","","","","","","","",""
"","ITI","","html-keyboard-response","99","451435","0.0-1.0-126.0","0","0","75150","","null","","","null","13","","","","","","","","","","","","","","","NaN",""
"","S1","","html-keyboard-response","100","451707","0.0-1.0-128.0","0","0","75150","","null","","","null","14","","","","","","","","","","","","","","","",""
"","ISI","","html-keyboard-response","101","452214","0.0-1.0-129.0","0","0","75150","","null","","","null","14","NaN","","","","","","","","","","","","","","",""
"","S2","","html-keyboard-response","102","452483","0.0-1.0-130.0","0","0","75150","","null","","","null","14","","NaN","","","","","","","","","","","","","",""
"","response","","html-keyboard-response","103","452935","0.0-1.0-131.0-0.0","0","0","75150","","438","","","68","14","","","1","14","training","adjacent","FE","6","5","Q.jpg","N.jpg","1","0","0","",""
"","feedback","","html-keyboard-response","104","453945","0.0-1.0-132.0-0.0","0","0","75150","","null","","","null","14","","","","","","","","","","","","","","","",""
"","time_out","","html-keyboard-response","105","455955","0.0-1.0-134.0-0.0","0","0","75150","","null","","","null","14","","","","","","","","","","","","","","","",""
"","ITI","","html-keyboard-response","106","456970","0.0-1.0-135.0","0","0","75150","","null","","","null","14","","","","","","","","","","","","","","","NaN",""
"","S1","","html-keyboard-response","107","457237","0.0-1.0-137.0","0","0","75150","","null","","","null","15","","","","","","","","","","","","","","","",""
"","ISI","","html-keyboard-response","108","457747","0.0-1.0-138.0","0","0","75150","","null","","","null","15","NaN","","","","","","","","","","","","","","",""
"","S2","","html-keyboard-response","109","458006","0.0-1.0-139.0","0","0","75150","","null","","","null","15","","NaN","","","","","","","","","","","","","",""
"","response","","html-keyboard-response","110","458223","0.0-1.0-140.0-0.0","0","0","75150","","201","","","75","15","","","1","15","training","adjacent","BC","2","3","O.jpg","M.jpg","0","1","0","",""
"","feedback","","html-keyboard-response","111","459236","0.0-1.0-141.0-0.0","0","0","75150","","null","","","null","15","","","","","","","","","","","","","","","",""
"","time_out","","html-keyboard-response","112","461243","0.0-1.0-143.0-0.0","0","0","75150","","null","","","null","15","","","","","","","","","","","","","","","",""
"","ITI","","html-keyboard-response","113","462259","0.0-1.0-144.0","0","0","75150","","null","","","null","15","","","","","","","","","","","","","","","NaN",""
"","S1","","html-keyboard-response","114","462531","0.0-1.0-146.0","0","0","75150","","null","","","null","16","","","","","","","","","","","","","","","",""
"","ISI","","html-keyboard-response","115","463044","0.0-1.0-147.0","0","0","75150","","null","","","null","16","NaN","","","","","","","","","","","","","","",""
"","S2","","html-keyboard-response","116","463309","0.0-1.0-148.0","0","0","75150","","null","","","null","16","","NaN","","","","","","","","","","","","","",""
"","response","","html-keyboard-response","117","463632","0.0-1.0-149.0-0.0","0","0","75150","","317","","","75","16","","","1","16","training","adjacent","CB","3","2","M.jpg","O.jpg","0","0","1","",""
"","feedback","","html-keyboard-response","118","464645","0.0-1.0-150.0-0.0","0","0","75150","","null","","","null","16","","","","","","","","","","","","","","","",""
"","ITI","","html-keyboard-response","119","465659","0.0-1.0-153.0","0","0","75150","","null","","","null","16","","","","","","","","","","","","","","","NaN",""
"","S1","","html-keyboard-response","120","465922","0.0-1.0-155.0","0","0","75150","","null","","","null","17","","","","","","","","","","","","","","","",""
"","ISI","","html-keyboard-response","121","466442","0.0-1.0-156.0","0","0","75150","","null","","","null","17","NaN","","","","","","","","","","","","","","",""
"","S2","","html-keyboard-response","122","466707","0.0-1.0-157.0","0","0","75150","","null","","","null","17","","NaN","","","","","","","","","","","","","",""
"","response","","html-keyboard-response","123","467190","0.0-1.0-158.0-0.0","0","0","75150","","475","","","68","17","","","1","17","training","adjacent","GF","7","6","L.jpg","Q.jpg","1","0","0","",""
"","feedback","","html-keyboard-response","124","468203","0.0-1.0-159.0-0.0","0","0","75150","","null","","","null","17","","","","","","","","","","","","","","","",""
"","time_out","","html-keyboard-response","125","470218","0.0-1.0-161.0-0.0","0","0","75150","","null","","","null","17","","","","","","","","","","","","","","","",""
"","ITI","","html-keyboard-response","126","471229","0.0-1.0-162.0","0","0","75150","","null","","","null","17","","","","","","","","","","","","","","","NaN",""
"","S1","","html-keyboard-response","127","471492","0.0-1.0-164.0","0","0","75150","","null","","","null","18","","","","","","","","","","","","","","","",""
"","ISI","","html-keyboard-response","128","472005","0.0-1.0-165.0","0","0","75150","","null","","","null","18","NaN","","","","","","","","","","","","","","",""
"","S2","","html-keyboard-response","129","472271","0.0-1.0-166.0","0","0","75150","","null","","","null","18","","NaN","","","","","","","","","","","","","",""
"","response","","html-keyboard-response","130","472486","0.0-1.0-167.0-0.0","0","0","75150","","208","","","68","18","","","1","18","training","adjacent","FE","6","5","Q.jpg","N.jpg","1","0","0","",""
"","feedback","","html-keyboard-response","131","473494","0.0-1.0-168.0-0.0","0","0","75150","","null","","","null","18","","","","","","","","","","","","","","","",""
"","time_out","","html-keyboard-response","132","475514","0.0-1.0-170.0-0.0","0","0","75150","","null","","","null","18","","","","","","","","","","","","","","","",""
"","ITI","","html-keyboard-response","133","476522","0.0-1.0-171.0","0","0","75150","","null","","","null","18","","","","","","","","","","","","","","","NaN",""
"","S1","","html-keyboard-response","134","476789","0.0-1.0-173.0","0","0","75150","","null","","","null","19","","","","","","","","","","","","","","","",""
"","ISI","","html-keyboard-response","135","477307","0.0-1.0-174.0","0","0","75150","","null","","","null","19","NaN","","","","","","","","","","","","","","",""
"","S2","","html-keyboard-response","136","477570","0.0-1.0-175.0","0","0","75150","","null","","","null","19","","NaN","","","","","","","","","","","","","",""
"","response","","html-keyboard-response","137","478055","0.0-1.0-176.0-0.0","0","0","75150","","471","","","75","19","","","1","19","training","adjacent","GF","7","6","L.jpg","Q.jpg","0","0","1","",""
"","feedback","","html-keyboard-response","138","479076","0.0-1.0-177.0-0.0","0","0","75150","","null","","","null","19","","","","","","","","","","","","","","","",""
"","ITI","","html-keyboard-response","139","480083","0.0-1.0-180.0","0","0","75150","","null","","","null","19","","","","","","","","","","","","","","","NaN",""
"","S1","","html-keyboard-response","140","480355","0.0-1.0-182.0","0","0","75150","","null","","","null","20","","","","","","","","","","","","","","","",""
"","ISI","","html-keyboard-response","141","480865","0.0-1.0-183.0","0","0","75150","","null","","","null","20","NaN","","","","","","","","","","","","","","",""
"","S2","","html-keyboard-response","142","481125","0.0-1.0-184.0","0","0","75150","","null","","","null","20","","NaN","","","","","","","","","","","","","",""
"","response","","html-keyboard-response","143","481676","0.0-1.0-185.0-0.0","0","0","75150","","543","","","75","20","","","1","20","training","adjacent","DC","4","3","P.jpg","M.jpg","0","0","1","",""
"","feedback","","html-keyboard-response","144","482693","0.0-1.0-186.0-0.0","0","0","75150","","null","","","null","20","","","","","","","","","","","","","","","",""
"","ITI","","html-keyboard-response","145","483706","0.0-1.0-189.0","0","0","75150","","null","","","null","20","","","","","","","","","","","","","","","NaN",""
"","S1","","html-keyboard-response","146","483971","0.0-1.0-191.0","0","0","75150","","null","","","null","21","","","","","","","","","","","","","","","",""
"","ISI","","html-keyboard-response","147","484491","0.0-1.0-192.0","0","0","75150","","null","","","null","21","NaN","","","","","","","","","","","","","","",""
"","S2","","html-keyboard-response","148","484757","0.0-1.0-193.0","0","0","75150","","null","","","null","21","","NaN","","","","","","","","","","","","","",""
"","response","","html-keyboard-response","149","484994","0.0-1.0-194.0-0.0","0","0","75150","","224","","","68","21","","","1","21","training","adjacent","ED","5","4","N.jpg","P.jpg","1","0","0","",""
"","feedback","","html-keyboard-response","150","486005","0.0-1.0-195.0-0.0","0","0","75150","","null","","","null","21","","","","","","","","","","","","","","","",""
"","time_out","","html-keyboard-response","151","488019","0.0-1.0-197.0-0.0","0","0","75150","","null","","","null","21","","","","","","","","","","","","","","","",""
"","ITI","","html-keyboard-response","152","489027","0.0-1.0-198.0","0","0","75150","","null","","","null","21","","","","","","","","","","","","","","","NaN",""
"","S1","","html-keyboard-response","153","489283","0.0-1.0-200.0","0","0","75150","","null","","","null","22","","","","","","","","","","","","","","","",""
"","ISI","","html-keyboard-response","154","489796","0.0-1.0-201.0","0","0","75150","","null","","","null","22","NaN","","","","","","","","","","","","","","",""
"","S2","","html-keyboard-response","155","490060","0.0-1.0-202.0","0","0","75150","","null","","","null","22","","NaN","","","","","","","","","","","","","",""
"","response","","html-keyboard-response","156","490332","0.0-1.0-203.0-0.0","0","0","75150","","257","","","68","22","","","1","22","training","adjacent","FG","6","7","Q.jpg","L.jpg","1","1","1","",""
"","feedback","","html-keyboard-response","157","491344","0.0-1.0-204.0-0.0","0","0","75150","","null","","","null","22","","","","","","","","","","","","","","","",""
"","ITI","","html-keyboard-response","158","492355","0.0-1.0-207.0","0","0","75150","","null","","","null","22","","","","","","","","","","","","","","","NaN",""
"","S1","","html-keyboard-response","159","492620","0.0-1.0-209.0","0","0","75150","","null","","","null","23","","","","","","","","","","","","","","","",""
"","ISI","","html-keyboard-response","160","493126","0.0-1.0-210.0","0","0","75150","","null","","","null","23","NaN","","","","","","","","","","","","","","",""
"","S2","","html-keyboard-response","161","493386","0.0-1.0-211.0","0","0","75150","","null","","","null","23","","NaN","","","","","","","","","","","","","",""
"","response","","html-keyboard-response","162","493705","0.0-1.0-212.0-0.0","0","0","75150","","306","","","68","23","","","1","23","training","adjacent","FG","6","7","Q.jpg","L.jpg","1","1","1","",""
"","feedback","","html-keyboard-response","163","494723","0.0-1.0-213.0-0.0","0","0","75150","","null","","","null","23","","","","","","","","","","","","","","","",""
"","ITI","","html-keyboard-response","164","495732","0.0-1.0-216.0","0","0","75150","","null","","","null","23","","","","","","","","","","","","","","","NaN",""
"","S1","","html-keyboard-response","165","495996","0.0-1.0-218.0","0","0","75150","","null","","","null","24","","","","","","","","","","","","","","","",""
"","ISI","","html-keyboard-response","166","496515","0.0-1.0-219.0","0","0","75150","","null","","","null","24","NaN","","","","","","","","","","","","","","",""
"","S2","","html-keyboard-response","167","496787","0.0-1.0-220.0","0","0","75150","","null","","","null","24","","NaN","","","","","","","","","","","","","",""
"","response","","html-keyboard-response","168","497112","0.0-1.0-221.0-0.0","0","0","75150","","311","","","75","24","","","1","24","training","adjacent","CD","3","4","M.jpg","P.jpg","0","1","0","",""
"","feedback","","html-keyboard-response","169","498131","0.0-1.0-222.0-0.0","0","0","75150","","null","","","null","24","","","","","","","","","","","","","","","",""
"","time_out","","html-keyboard-response","170","500146","0.0-1.0-224.0-0.0","0","0","75150","","null","","","null","24","","","","","","","","","","","","","","","",""
"","ITI","","html-keyboard-response","171","501162","0.0-1.0-225.0","0","0","75150","","null","","","null","24","","","","","","","","","","","","","","","NaN",""
"","S1","","html-keyboard-response","172","501435","0.0-1.0-227.0","0","0","75150","","null","","","null","25","","","","","","","","","","","","","","","",""
"","ISI","","html-keyboard-response","173","501942","0.0-1.0-228.0","0","0","75150","","null","","","null","25","NaN","","","","","","","","","","","","","","",""
"","S2","","html-keyboard-response","174","502211","0.0-1.0-229.0","0","0","75150","","null","","","null","25","","NaN","","","","","","","","","","","","","",""
"","response","","html-keyboard-response","175","502756","0.0-1.0-230.0-0.0","0","0","75150","","531","","","75","25","","","1","25","training","adjacent","BA","2","1","O.jpg","R.jpg","0","0","1","",""
"","feedback","","html-keyboard-response","176","503778","0.0-1.0-231.0-0.0","0","0","75150","","null","","","null","25","","","","","","","","","","","","","","","",""
"","ITI","","html-keyboard-response","177","504788","0.0-1.0-234.0","0","0","75150","","null","","","null","25","","","","","","","","","","","","","","","NaN",""
"","S1","","html-keyboard-response","178","505054","0.0-1.0-236.0","0","0","75150","","null","","","null","26","","","","","","","","","","","","","","","",""
"","ISI","","html-keyboard-response","179","505571","0.0-1.0-237.0","0","0","75150","","null","","","null","26","NaN","","","","","","","","","","","","","","",""
"","S2","","html-keyboard-response","180","505841","0.0-1.0-238.0","0","0","75150","","null","","","null","26","","NaN","","","","","","","","","","","","","",""
"","response","","html-keyboard-response","181","506190","0.0-1.0-239.0-0.0","0","0","75150","","342","","","68","26","","","1","26","training","adjacent","CB","3","2","M.jpg","O.jpg","1","0","0","",""
"","feedback","","html-keyboard-response","182","507199","0.0-1.0-240.0-0.0","0","0","75150","","null","","","null","26","","","","","","","","","","","","","","","",""
"","time_out","","html-keyboard-response","183","509212","0.0-1.0-242.0-0.0","0","0","75150","","null","","","null","26","","","","","","","","","","","","","","","",""
"","ITI","","html-keyboard-response","184","510220","0.0-1.0-243.0","0","0","75150","","null","","","null","26","","","","","","","","","","","","","","","NaN",""
"","S1","","html-keyboard-response","185","510491","0.0-1.0-245.0","0","0","75150","","null","","","null","27","","","","","","","","","","","","","","","",""
"","ISI","","html-keyboard-response","186","511011","0.0-1.0-246.0","0","0","75150","","null","","","null","27","NaN","","","","","","","","","","","","","","",""
"","S2","","html-keyboard-response","187","511283","0.0-1.0-247.0","0","0","75150","","null","","","null","27","","NaN","","","","","","","","","","","","","",""
"","response","","html-keyboard-response","188","511673","0.0-1.0-248.0-0.0","0","0","75150","","375","","","68","27","","","1","27","training","adjacent","FG","6","7","Q.jpg","L.jpg","1","1","1","",""
"","feedback","","html-keyboard-response","189","512684","0.0-1.0-249.0-0.0","0","0","75150","","null","","","null","27","","","","","","","","","","","","","","","",""
"","ITI","","html-keyboard-response","190","513691","0.0-1.0-252.0","0","0","75150","","null","","","null","27","","","","","","","","","","","","","","","NaN",""
"","S1","","html-keyboard-response","191","513952","0.0-1.0-254.0","0","0","75150","","null","","","null","28","","","","","","","","","","","","","","","",""
"","ISI","","html-keyboard-response","192","514466","0.0-1.0-255.0","0","0","75150","","null","","","null","28","NaN","","","","","","","","","","","","","","",""
"","S2","","html-keyboard-response","193","514732","0.0-1.0-256.0","0","0","75150","","null","","","null","28","","NaN","","","","","","","","","","","","","",""
"","response","","html-keyboard-response","194","515446","0.0-1.0-257.0-0.0","0","0","75150","","708","","","75","28","","","1","28","training","adjacent","DE","4","5","P.jpg","N.jpg","0","1","0","",""
"","feedback","","html-keyboard-response","195","516467","0.0-1.0-258.0-0.0","0","0","75150","","null","","","null","28","","","","","","","","","","","","","","","",""
"","time_out","","html-keyboard-response","196","518476","0.0-1.0-260.0-0.0","0","0","75150","","null","","","null","28","","","","","","","","","","","","","","","",""
"","ITI","","html-keyboard-response","197","519491","0.0-1.0-261.0","0","0","75150","","null","","","null","28","","","","","","","","","","","","","","","NaN",""
"","S1","","html-keyboard-response","198","519763","0.0-1.0-263.0","0","0","75150","","null","","","null","29","","","","","","","","","","","","","","","",""
"","ISI","","html-keyboard-response","199","520279","0.0-1.0-264.0","0","0","75150","","null","","","null","29","NaN","","","","","","","","","","","","","","",""
"","S2","","html-keyboard-response","200","520542","0.0-1.0-265.0","0","0","75150","","null","","","null","29","","NaN","","","","","","","","","","","","","",""
"","response","","html-keyboard-response","201","521378","0.0-1.0-266.0-0.0","0","0","75150","","824","","","75","29","","","1","29","training","adjacent","AB","1","2","R.jpg","O.jpg","0","1","0","",""
"","feedback","","html-keyboard-response","202","522388","0.0-1.0-267.0-0.0","0","0","75150","","null","","","null","29","","","","","","","","","","","","","","","",""
"","time_out","","html-keyboard-response","203","524408","0.0-1.0-269.0-0.0","0","0","75150","","null","","","null","29","","","","","","","","","","","","","","","",""
"","ITI","","html-keyboard-response","204","525416","0.0-1.0-270.0","0","0","75150","","null","","","null","29","","","","","","","","","","","","","","","NaN",""
"","S1","","html-keyboard-response","205","525676","0.0-1.0-272.0","0","0","75150","","null","","","null","30","","","","","","","","","","","","","","","",""
"","ISI","","html-keyboard-response","206","526188","0.0-1.0-273.0","0","0","75150","","null","","","null","30","NaN","","","","","","","","","","","","","","",""
"","S2","","html-keyboard-response","207","526446","0.0-1.0-274.0","0","0","75150","","null","","","null","30","","NaN","","","","","","","","","","","","","",""
"","response","","html-keyboard-response","208","527011","0.0-1.0-275.0-0.0","0","0","75150","","559","","","75","30","","","1","30","training","adjacent","AB","1","2","R.jpg","O.jpg","0","1","0","",""
"","feedback","","html-keyboard-response","209","528021","0.0-1.0-276.0-0.0","0","0","75150","","null","","","null","30","","","","","","","","","","","","","","","",""
"","time_out","","html-keyboard-response","210","530036","0.0-1.0-278.0-0.0","0","0","75150","","null","","","null","30","","","","","","","","","","","","","","","",""
"","ITI","","html-keyboard-response","211","531051","0.0-1.0-279.0","0","0","75150","","null","","","null","30","","","","","","","","","","","","","","","NaN",""
"","S1","","html-keyboard-response","212","531318","0.0-1.0-281.0","0","0","75150","","null","","","null","31","","","","","","","","","","","","","","","",""
"","ISI","","html-keyboard-response","213","531835","0.0-1.0-282.0","0","0","75150","","null","","","null","31","NaN","","","","","","","","","","","","","","",""
"","S2","","html-keyboard-response","214","532100","0.0-1.0-283.0","0","0","75150","","null","","","null","31","","NaN","","","","","","","","","","","","","",""
"","response","","html-keyboard-response","215","532700","0.0-1.0-284.0-0.0","0","0","75150","","593","","","68","31","","","1","31","training","adjacent","CD","3","4","M.jpg","P.jpg","1","1","1","",""
"","feedback","","html-keyboard-response","216","533718","0.0-1.0-285.0-0.0","0","0","75150","","null","","","null","31","","","","","","","","","","","","","","","",""
"","ITI","","html-keyboard-response","217","534733","0.0-1.0-288.0","0","0","75150","","null","","","null","31","","","","","","","","","","","","","","","NaN",""
"","S1","","html-keyboard-response","218","534998","0.0-1.0-290.0","0","0","75150","","null","","","null","32","","","","","","","","","","","","","","","",""
"","ISI","","html-keyboard-response","219","535507","0.0-1.0-291.0","0","0","75150","","null","","","null","32","NaN","","","","","","","","","","","","","","",""
"","S2","","html-keyboard-response","220","535772","0.0-1.0-292.0","0","0","75150","","null","","","null","32","","NaN","","","","","","","","","","","","","",""
"","response","","html-keyboard-response","221","536450","0.0-1.0-293.0-0.0","0","0","75150","","665","","","68","32","","","1","32","training","adjacent","FE","6","5","Q.jpg","N.jpg","1","0","0","",""
"","feedback","","html-keyboard-response","222","537461","0.0-1.0-294.0-0.0","0","0","75150","","null","","","null","32","","","","","","","","","","","","","","","",""
"","time_out","","html-keyboard-response","223","539473","0.0-1.0-296.0-0.0","0","0","75150","","null","","","null","32","","","","","","","","","","","","","","","",""
"","ITI","","html-keyboard-response","224","540491","0.0-1.0-297.0","0","0","75150","","null","","","null","32","","","","","","","","","","","","","","","NaN",""
"","S1","","html-keyboard-response","225","540761","0.0-1.0-299.0","0","0","75150","","null","","","null","33","","","","","","","","","","","","","","","",""
"","ISI","","html-keyboard-response","226","541270","0.0-1.0-300.0","0","0","75150","","null","","","null","33","NaN","","","","","","","","","","","","","","",""
"","S2","","html-keyboard-response","227","541538","0.0-1.0-301.0","0","0","75150","","null","","","null","33","","NaN","","","","","","","","","","","","","",""
"","response","","html-keyboard-response","228","541922","0.0-1.0-302.0-0.0","0","0","75150","","377","","","75","33","","","1","33","training","adjacent","GF","7","6","L.jpg","Q.jpg","0","0","1","",""
"","feedback","","html-keyboard-response","229","542934","0.0-1.0-303.0-0.0","0","0","75150","","null","","","null","33","","","","","","","","","","","","","","","",""
"","ITI","","html-keyboard-response","230","543948","0.0-1.0-306.0","0","0","75150","","null","","","null","33","","","","","","","","","","","","","","","NaN",""
"","S1","","html-keyboard-response","231","544219","0.0-1.0-308.0","0","0","75150","","null","","","null","34","","","","","","","","","","","","","","","",""
"","ISI","","html-keyboard-response","232","544729","0.0-1.0-309.0","0","0","75150","","null","","","null","34","NaN","","","","","","","","","","","","","","",""
"","S2","","html-keyboard-response","233","544995","0.0-1.0-310.0","0","0","75150","","null","","","null","34","","NaN","","","","","","","","","","","","","",""
"","response","","html-keyboard-response","234","545606","0.0-1.0-311.0-0.0","0","0","75150","","604","","","75","34","","","1","34","training","adjacent","CD","3","4","M.jpg","P.jpg","0","1","0","",""
"","feedback","","html-keyboard-response","235","546626","0.0-1.0-312.0-0.0","0","0","75150","","null","","","null","34","","","","","","","","","","","","","","","",""
"","time_out","","html-keyboard-response","236","548642","0.0-1.0-314.0-0.0","0","0","75150","","null","","","null","34","","","","","","","","","","","","","","","",""
"","ITI","","html-keyboard-response","237","549652","0.0-1.0-315.0","0","0","75150","","null","","","null","34","","","","","","","","","","","","","","","NaN",""
"","S1","","html-keyboard-response","238","549923","0.0-1.0-317.0","0","0","75150","","null","","","null","35","","","","","","","","","","","","","","","",""
"","ISI","","html-keyboard-response","239","550435","0.0-1.0-318.0","0","0","75150","","null","","","null","35","NaN","","","","","","","","","","","","","","",""
"","S2","","html-keyboard-response","240","550700","0.0-1.0-319.0","0","0","75150","","null","","","null","35","","NaN","","","","","","","","","","","","","",""
"","response","","html-keyboard-response","241","550889","0.0-1.0-320.0-0.0","0","0","75150","","182","","","75","35","","","1","35","training","adjacent","BC","2","3","O.jpg","M.jpg","0","1","0","",""
"","feedback","","html-keyboard-response","242","551908","0.0-1.0-321.0-0.0","0","0","75150","","null","","","null","35","","","","","","","","","","","","","","","",""
"","time_out","","html-keyboard-response","243","553922","0.0-1.0-323.0-0.0","0","0","75150","","null","","","null","35","","","","","","","","","","","","","","","",""
"","ITI","","html-keyboard-response","244","554932","0.0-1.0-324.0","0","0","75150","","null","","","null","35","","","","","","","","","","","","","","","NaN",""
"","S1","","html-keyboard-response","245","555194","0.0-1.0-326.0","0","0","75150","","null","","","null","36","","","","","","","","","","","","","","","",""
"","ISI","","html-keyboard-response","246","555724","0.0-1.0-327.0","0","0","75150","","null","","","null","36","NaN","","","","","","","","","","","","","","",""
"","S2","","html-keyboard-response","247","555988","0.0-1.0-328.0","0","0","75150","","null","","","null","36","","NaN","","","","","","","","","","","","","",""
"","response","","html-keyboard-response","248","556323","0.0-1.0-329.0-0.0","0","0","75150","","321","","","68","36","","","1","36","training","adjacent","BC","2","3","O.jpg","M.jpg","1","1","1","",""
"","feedback","","html-keyboard-response","249","557342","0.0-1.0-330.0-0.0","0","0","75150","","null","","","null","36","","","","","","","","","","","","","","","",""
"","ITI","","html-keyboard-response","250","558356","0.0-1.0-333.0","0","0","75150","","null","","","null","36","","","","","","","","","","","","","","","NaN",""
"","S1","","html-keyboard-response","251","558628","0.0-1.0-335.0","0","0","75150","","null","","","null","37","","","","","","","","","","","","","","","",""
"","ISI","","html-keyboard-response","252","559138","0.0-1.0-336.0","0","0","75150","","null","","","null","37","NaN","","","","","","","","","","","","","","",""
"","S2","","html-keyboard-response","253","559412","0.0-1.0-337.0","0","0","75150","","null","","","null","37","","NaN","","","","","","","","","","","","","",""
"","response","","html-keyboard-response","254","559819","0.0-1.0-338.0-0.0","0","0","75150","","400","","","75","37","","","1","37","training","adjacent","CD","3","4","M.jpg","P.jpg","0","1","0","",""
"","feedback","","html-keyboard-response","255","560829","0.0-1.0-339.0-0.0","0","0","75150","","null","","","null","37","","","","","","","","","","","","","","","",""
"","time_out","","html-keyboard-response","256","562851","0.0-1.0-341.0-0.0","0","0","75150","","null","","","null","37","","","","","","","","","","","","","","","",""
"","ITI","","html-keyboard-response","257","563867","0.0-1.0-342.0","0","0","75150","","null","","","null","37","","","","","","","","","","","","","","","NaN",""
"","S1","","html-keyboard-response","258","564128","0.0-1.0-344.0","0","0","75150","","null","","","null","38","","","","","","","","","","","","","","","",""
"","ISI","","html-keyboard-response","259","564644","0.0-1.0-345.0","0","0","75150","","null","","","null","38","NaN","","","","","","","","","","","","","","",""
"","S2","","html-keyboard-response","260","564908","0.0-1.0-346.0","0","0","75150","","null","","","null","38","","NaN","","","","","","","","","","","","","",""
"","response","","html-keyboard-response","261","565180","0.0-1.0-347.0-0.0","0","0","75150","","265","","","68","38","","","1","38","training","adjacent","DC","4","3","P.jpg","M.jpg","1","0","0","",""
"","feedback","","html-keyboard-response","262","566192","0.0-1.0-348.0-0.0","0","0","75150","","null","","","null","38","","","","","","","","","","","","","","","",""
"","time_out","","html-keyboard-response","263","568204","0.0-1.0-350.0-0.0","0","0","75150","","null","","","null","38","","","","","","","","","","","","","","","",""
"","ITI","","html-keyboard-response","264","569212","0.0-1.0-351.0","0","0","75150","","null","","","null","38","","","","","","","","","","","","","","","NaN",""
"","S1","","html-keyboard-response","265","569470","0.0-1.0-353.0","0","0","75150","","null","","","null","39","","","","","","","","","","","","","","","",""
"","ISI","","html-keyboard-response","266","569986","0.0-1.0-354.0","0","0","75150","","null","","","null","39","NaN","","","","","","","","","","","","","","",""
"","S2","","html-keyboard-response","267","570258","0.0-1.0-355.0","0","0","75150","","null","","","null","39","","NaN","","","","","","","","","","","","","",""
"","response","","html-keyboard-response","268","571170","0.0-1.0-356.0-0.0","0","0","75150","","900","","","68","39","","","1","39","training","adjacent","CB","3","2","M.jpg","O.jpg","1","0","0","",""
"","feedback","","html-keyboard-response","269","572187","0.0-1.0-357.0-0.0","0","0","75150","","null","","","null","39","","","","","","","","","","","","","","","",""
"","time_out","","html-keyboard-response","270","574196","0.0-1.0-359.0-0.0","0","0","75150","","null","","","null","39","","","","","","","","","","","","","","","",""
"","ITI","","html-keyboard-response","271","575203","0.0-1.0-360.0","0","0","75150","","null","","","null","39","","","","","","","","","","","","","","","NaN",""
"","S1","","html-keyboard-response","272","575467","0.0-1.0-362.0","0","0","75150","","null","","","null","40","","","","","","","","","","","","","","","",""
"","ISI","","html-keyboard-response","273","575980","0.0-1.0-363.0","0","0","75150","","null","","","null","40","NaN","","","","","","","","","","","","","","",""
"","S2","","html-keyboard-response","274","576239","0.0-1.0-364.0","0","0","75150","","null","","","null","40","","NaN","","","","","","","","","","","","","",""
"","response","","html-keyboard-response","275","576664","0.0-1.0-365.0-0.0","0","0","75150","","411","","","68","40","","","1","40","training","adjacent","ED","5","4","N.jpg","P.jpg","1","0","0","",""
"","feedback","","html-keyboard-response","276","577677","0.0-1.0-366.0-0.0","0","0","75150","","null","","","null","40","","","","","","","","","","","","","","","",""
"","time_out","","html-keyboard-response","277","579690","0.0-1.0-368.0-0.0","0","0","75150","","null","","","null","40","","","","","","","","","","","","","","","",""
"","ITI","","html-keyboard-response","278","580699","0.0-1.0-369.0","0","0","75150","","null","","","null","40","","","","","","","","","","","","","","","NaN",""
"","S1","","html-keyboard-response","279","580963","0.0-1.0-371.0","0","0","75150","","null","","","null","41","","","","","","","","","","","","","","","",""
"","ISI","","html-keyboard-response","280","581475","0.0-1.0-372.0","0","0","75150","","null","","","null","41","NaN","","","","","","","","","","","","","","",""
"","S2","","html-keyboard-response","281","581747","0.0-1.0-373.0","0","0","75150","","null","","","null","41","","NaN","","","","","","","","","","","","","",""
"","response","","html-keyboard-response","282","582196","0.0-1.0-374.0-0.0","0","0","75150","","435","","","75","41","","","1","41","training","adjacent","ED","5","4","N.jpg","P.jpg","0","0","1","",""
"","feedback","","html-keyboard-response","283","583210","0.0-1.0-375.0-0.0","0","0","75150","","null","","","null","41","","","","","","","","","","","","","","","",""
"","ITI","","html-keyboard-response","284","584228","0.0-1.0-378.0","0","0","75150","","null","","","null","41","","","","","","","","","","","","","","","NaN",""
"","S1","","html-keyboard-response","285","584498","0.0-1.0-380.0","0","0","75150","","null","","","null","42","","","","","","","","","","","","","","","",""
"","ISI","","html-keyboard-response","286","585006","0.0-1.0-381.0","0","0","75150","","null","","","null","42","NaN","","","","","","","","","","","","","","",""
"","S2","","html-keyboard-response","287","585274","0.0-1.0-382.0","0","0","75150","","null","","","null","42","","NaN","","","","","","","","","","","","","",""
"","response","","html-keyboard-response","288","585687","0.0-1.0-383.0-0.0","0","0","75150","","407","","","68","42","","","1","42","training","adjacent","CB","3","2","M.jpg","O.jpg","1","0","0","",""
"","feedback","","html-keyboard-response","289","586707","0.0-1.0-384.0-0.0","0","0","75150","","null","","","null","42","","","","","","","","","","","","","","","",""
"","time_out","","html-keyboard-response","290","588717","0.0-1.0-386.0-0.0","0","0","75150","","null","","","null","42","","","","","","","","","","","","","","","",""
"","ITI","","html-keyboard-response","291","589734","0.0-1.0-387.0","0","0","75150","","null","","","null","42","","","","","","","","","","","","","","","NaN",""
"","S1","","html-keyboard-response","292","590004","0.0-1.0-389.0","0","0","75150","","null","","","null","43","","","","","","","","","","","","","","","",""
"","ISI","","html-keyboard-response","293","590513","0.0-1.0-390.0","0","0","75150","","null","","","null","43","NaN","","","","","","","","","","","","","","",""
"","S2","","html-keyboard-response","294","590779","0.0-1.0-391.0","0","0","75150","","null","","","null","43","","NaN","","","","","","","","","","","","","",""
"","response","","html-keyboard-response","295","591164","0.0-1.0-392.0-0.0","0","0","75150","","378","","","75","43","","","1","43","training","adjacent","GF","7","6","L.jpg","Q.jpg","0","0","1","",""
"","feedback","","html-keyboard-response","296","592177","0.0-1.0-393.0-0.0","0","0","75150","","null","","","null","43","","","","","","","","","","","","","","","",""
"","ITI","","html-keyboard-response","297","593188","0.0-1.0-396.0","0","0","75150","","null","","","null","43","","","","","","","","","","","","","","","NaN",""
"","S1","","html-keyboard-response","298","593446","0.0-1.0-398.0","0","0","75150","","null","","","null","44","","","","","","","","","","","","","","","",""
"","ISI","","html-keyboard-response","299","593962","0.0-1.0-399.0","0","0","75150","","null","","","null","44","NaN","","","","","","","","","","","","","","",""
"","S2","","html-keyboard-response","300","594220","0.0-1.0-400.0","0","0","75150","","null","","","null","44","","NaN","","","","","","","","","","","","","",""
"","response","","html-keyboard-response","301","594851","0.0-1.0-401.0-0.0","0","0","75150","","614","","","75","44","","","1","44","training","adjacent","EF","5","6","N.jpg","Q.jpg","0","1","0","",""
"","feedback","","html-keyboard-response","302","595868","0.0-1.0-402.0-0.0","0","0","75150","","null","","","null","44","","","","","","","","","","","","","","","",""
"","time_out","","html-keyboard-response","303","597882","0.0-1.0-404.0-0.0","0","0","75150","","null","","","null","44","","","","","","","","","","","","","","","",""
"","ITI","","html-keyboard-response","304","598898","0.0-1.0-405.0","0","0","75150","","null","","","null","44","","","","","","","","","","","","","","","NaN",""
"","S1","","html-keyboard-response","305","599164","0.0-1.0-407.0","0","0","75150","","null","","","null","45","","","","","","","","","","","","","","","",""
"","ISI","","html-keyboard-response","306","599677","0.0-1.0-408.0","0","0","75150","","null","","","null","45","NaN","","","","","","","","","","","","","","",""
"","S2","","html-keyboard-response","307","599946","0.0-1.0-409.0","0","0","75150","","null","","","null","45","","NaN","","","","","","","","","","","","","",""
"","response","","html-keyboard-response","308","600503","0.0-1.0-410.0-0.0","0","0","75150","","549","","","75","45","","","1","45","training","adjacent","DC","4","3","P.jpg","M.jpg","0","0","1","",""
"","feedback","","html-keyboard-response","309","601522","0.0-1.0-411.0-0.0","0","0","75150","","null","","","null","45","","","","","","","","","","","","","","","",""
"","ITI","","html-keyboard-response","310","602539","0.0-1.0-414.0","0","0","75150","","null","","","null","45","","","","","","","","","","","","","","","NaN",""
"","S1","","html-keyboard-response","311","602811","0.0-1.0-416.0","0","0","75150","","null","","","null","46","","","","","","","","","","","","","","","",""
"","ISI","","html-keyboard-response","312","603323","0.0-1.0-417.0","0","0","75150","","null","","","null","46","NaN","","","","","","","","","","","","","","",""
"","S2","","html-keyboard-response","313","603589","0.0-1.0-418.0","0","0","75150","","null","","","null","46","","NaN","","","","","","","","","","","","","",""
"","response","","html-keyboard-response","314","604717","0.0-1.0-419.0-0.0","0","0","75150","","1123","","","68","46","","","1","46","training","adjacent","FE","6","5","Q.jpg","N.jpg","1","0","0","",""
"","feedback","","html-keyboard-response","315","605731","0.0-1.0-420.0-0.0","0","0","75150","","null","","","null","46","","","","","","","","","","","","","","","",""
"","time_out","","html-keyboard-response","316","607740","0.0-1.0-422.0-0.0","0","0","75150","","null","","","null","46","","","","","","","","","","","","","","","",""
"","ITI","","html-keyboard-response","317","608748","0.0-1.0-423.0","0","0","75150","","null","","","null","46","","","","","","","","","","","","","","","NaN",""
"","S1","","html-keyboard-response","318","609014","0.0-1.0-425.0","0","0","75150","","null","","","null","47","","","","","","","","","","","","","","","",""
"","ISI","","html-keyboard-response","319","609524","0.0-1.0-426.0","0","0","75150","","null","","","null","47","NaN","","","","","","","","","","","","","","",""
"","S2","","html-keyboard-response","320","609788","0.0-1.0-427.0","0","0","75150","","null","","","null","47","","NaN","","","","","","","","","","","","","",""
"","response","","html-keyboard-response","321","610062","0.0-1.0-428.0-0.0","0","0","75150","","260","","","68","47","","","1","47","training","adjacent","FG","6","7","Q.jpg","L.jpg","1","1","1","",""
"","feedback","","html-keyboard-response","322","611077","0.0-1.0-429.0-0.0","0","0","75150","","null","","","null","47","","","","","","","","","","","","","","","",""
"","ITI","","html-keyboard-response","323","612089","0.0-1.0-432.0","0","0","75150","","null","","","null","47","","","","","","","","","","","","","","","NaN",""
"","block_over","","html-keyboard-response","324","614986","0.0-1.0-433.0-0.0","0","0","75150","","2890","","","32","47","","","","","","","","","","","","","","","",""
"","S1","","html-keyboard-response","325","615251","0.0-1.0-434.0","0","0","75150","","null","","","null","48","","","","","","","","","","","","","","","",""
"","ISI","","html-keyboard-response","326","615766","0.0-1.0-435.0","0","0","75150","","null","","","null","48","NaN","","","","","","","","","","","","","","",""
"","S2","","html-keyboard-response","327","616031","0.0-1.0-436.0","0","0","75150","","null","","","null","48","","NaN","","","","","","","","","","","","","",""
"","response","","html-keyboard-response","328","616534","0.0-1.0-437.0-0.0","0","0","75150","","489","","","75","48","","","2","48","training","adjacent","DE","4","5","P.jpg","N.jpg","0","1","0","",""
"","feedback","","html-keyboard-response","329","617548","0.0-1.0-438.0-0.0","0","0","75150","","null","","","null","48","","","","","","","","","","","","","","","",""
"","time_out","","html-keyboard-response","330","619554","0.0-1.0-440.0-0.0","0","0","75150","","null","","","null","48","","","","","","","","","","","","","","","",""
"","ITI","","html-keyboard-response","331","620570","0.0-1.0-441.0","0","0","75150","","null","","","null","48","","","","","","","","","","","","","","","NaN",""
"","S1","","html-keyboard-response","332","620842","0.0-1.0-443.0","0","0","75150","","null","","","null","49","","","","","","","","","","","","","","","",""
"","ISI","","html-keyboard-response","333","621357","0.0-1.0-444.0","0","0","75150","","null","","","null","49","NaN","","","","","","","","","","","","","","",""
"","S2","","html-keyboard-response","334","621620","0.0-1.0-445.0","0","0","75150","","null","","","null","49","","NaN","","","","","","","","","","","","","",""
"","response","","html-keyboard-response","335","622022","0.0-1.0-446.0-0.0","0","0","75150","","388","","","68","49","","","2","49","training","adjacent","ED","5","4","N.jpg","P.jpg","1","0","0","",""
"","feedback","","html-keyboard-response","336","623037","0.0-1.0-447.0-0.0","0","0","75150","","null","","","null","49","","","","","","","","","","","","","","","",""
"","time_out","","html-keyboard-response","337","625051","0.0-1.0-449.0-0.0","0","0","75150","","null","","","null","49","","","","","","","","","","","","","","","",""
"","ITI","","html-keyboard-response","338","626067","0.0-1.0-450.0","0","0","75150","","null","","","null","49","","","","","","","","","","","","","","","NaN",""
"","S1","","html-keyboard-response","339","626332","0.0-1.0-452.0","0","0","75150","","null","","","null","50","","","","","","","","","","","","","","","",""
"","ISI","","html-keyboard-response","340","626844","0.0-1.0-453.0","0","0","75150","","null","","","null","50","NaN","","","","","","","","","","","","","","",""
"","S2","","html-keyboard-response","341","627115","0.0-1.0-454.0","0","0","75150","","null","","","null","50","","NaN","","","","","","","","","","","","","",""
"","response","","html-keyboard-response","342","627600","0.0-1.0-455.0-0.0","0","0","75150","","478","","","68","50","","","2","50","training","adjacent","EF","5","6","N.jpg","Q.jpg","1","1","1","",""
"","feedback","","html-keyboard-response","343","628617","0.0-1.0-456.0-0.0","0","0","75150","","null","","","null","50","","","","","","","","","","","","","","","",""
"","ITI","","html-keyboard-response","344","629635","0.0-1.0-459.0","0","0","75150","","null","","","null","50","","","","","","","","","","","","","","","NaN",""
"","S1","","html-keyboard-response","345","629898","0.0-1.0-461.0","0","0","75150","","null","","","null","51","","","","","","","","","","","","","","","",""
"","ISI","","html-keyboard-response","346","630415","0.0-1.0-462.0","0","0","75150","","null","","","null","51","NaN","","","","","","","","","","","","","","",""
"","S2","","html-keyboard-response","347","630678","0.0-1.0-463.0","0","0","75150","","null","","","null","51","","NaN","","","","","","","","","","","","","",""
"","response","","html-keyboard-response","348","631082","0.0-1.0-464.0-0.0","0","0","75150","","393","","","75","51","","","2","51","training","adjacent","GF","7","6","L.jpg","Q.jpg","0","0","1","",""
"","feedback","","html-keyboard-response","349","632092","0.0-1.0-465.0-0.0","0","0","75150","","null","","","null","51","","","","","","","","","","","","","","","",""
"","ITI","","html-keyboard-response","350","633099","0.0-1.0-468.0","0","0","75150","","null","","","null","51","","","","","","","","","","","","","","","NaN",""
"","S1","","html-keyboard-response","351","633364","0.0-1.0-470.0","0","0","75150","","null","","","null","52","","","","","","","","","","","","","","","",""
"","ISI","","html-keyboard-response","352","633882","0.0-1.0-471.0","0","0","75150","","null","","","null","52","NaN","","","","","","","","","","","","","","",""
"","S2","","html-keyboard-response","353","634156","0.0-1.0-472.0","0","0","75150","","null","","","null","52","","NaN","","","","","","","","","","","","","",""
"","response","","html-keyboard-response","354","634855","0.0-1.0-473.0-0.0","0","0","75150","","692","","","75","52","","","2","52","training","adjacent","BA","2","1","O.jpg","R.jpg","0","0","1","",""
"","feedback","","html-keyboard-response","355","635864","0.0-1.0-474.0-0.0","0","0","75150","","null","","","null","52","","","","","","","","","","","","","","","",""
"","ITI","","html-keyboard-response","356","636876","0.0-1.0-477.0","0","0","75150","","null","","","null","52","","","","","","","","","","","","","","","NaN",""
"","S1","","html-keyboard-response","357","637146","0.0-1.0-479.0","0","0","75150","","null","","","null","53","","","","","","","","","","","","","","","",""
"","ISI","","html-keyboard-response","358","637661","0.0-1.0-480.0","0","0","75150","","null","","","null","53","NaN","","","","","","","","","","","","","","",""
"","S2","","html-keyboard-response","359","637924","0.0-1.0-481.0","0","0","75150","","null","","","null","53","","NaN","","","","","","","","","","","","","",""
"","response","","html-keyboard-response","360","638293","0.0-1.0-482.0-0.0","0","0","75150","","356","","","75","53","","","2","53","training","adjacent","BA","2","1","O.jpg","R.jpg","0","0","1","",""
"","feedback","","html-keyboard-response","361","639315","0.0-1.0-483.0-0.0","0","0","75150","","null","","","null","53","","","","","","","","","","","","","","","",""
"","ITI","","html-keyboard-response","362","640325","0.0-1.0-486.0","0","0","75150","","null","","","null","53","","","","","","","","","","","","","","","NaN",""
"","S1","","html-keyboard-response","363","640597","0.0-1.0-488.0","0","0","75150","","null","","","null","54","","","","","","","","","","","","","","","",""
"","ISI","","html-keyboard-response","364","641103","0.0-1.0-489.0","0","0","75150","","null","","","null","54","NaN","","","","","","","","","","","","","","",""
"","S2","","html-keyboard-response","365","641371","0.0-1.0-490.0","0","0","75150","","null","","","null","54","","NaN","","","","","","","","","","","","","",""
"","response","","html-keyboard-response","366","641772","0.0-1.0-491.0-0.0","0","0","75150","","395","","","75","54","","","2","54","training","adjacent","GF","7","6","L.jpg","Q.jpg","0","0","1","",""
"","feedback","","html-keyboard-response","367","642793","0.0-1.0-492.0-0.0","0","0","75150","","null","","","null","54","","","","","","","","","","","","","","","",""
"","ITI","","html-keyboard-response","368","643804","0.0-1.0-495.0","0","0","75150","","null","","","null","54","","","","","","","","","","","","","","","NaN",""
"","S1","","html-keyboard-response","369","644071","0.0-1.0-497.0","0","0","75150","","null","","","null","55","","","","","","","","","","","","","","","",""
"","ISI","","html-keyboard-response","370","644581","0.0-1.0-498.0","0","0","75150","","null","","","null","55","NaN","","","","","","","","","","","","","","",""
"","S2","","html-keyboard-response","371","644845","0.0-1.0-499.0","0","0","75150","","null","","","null","55","","NaN","","","","","","","","","","","","","",""
"","response","","html-keyboard-response","372","645303","0.0-1.0-500.0-0.0","0","0","75150","","445","","","68","55","","","2","55","training","adjacent","AB","1","2","R.jpg","O.jpg","1","1","1","",""
"","feedback","","html-keyboard-response","373","646322","0.0-1.0-501.0-0.0","0","0","75150","","null","","","null","55","","","","","","","","","","","","","","","",""
"","ITI","","html-keyboard-response","374","647347","0.0-1.0-504.0","0","0","75150","","null","","","null","55","","","","","","","","","","","","","","","NaN",""
"","S1","","html-keyboard-response","375","647609","0.0-1.0-506.0","0","0","75150","","null","","","null","56","","","","","","","","","","","","","","","",""
"","ISI","","html-keyboard-response","376","648130","0.0-1.0-507.0","0","0","75150","","null","","","null","56","NaN","","","","","","","","","","","","","","",""
"","S2","","html-keyboard-response","377","648389","0.0-1.0-508.0","0","0","75150","","null","","","null","56","","NaN","","","","","","","","","","","","","",""
"","response","","html-keyboard-response","378","648524","0.0-1.0-509.0-0.0","0","0","75150","","127","","","68","56","","","2","56","training","adjacent","AB","1","2","R.jpg","O.jpg","1","1","1","",""
"","feedback","","html-keyboard-response","379","649539","0.0-1.0-510.0-0.0","0","0","75150","","null","","","null","56","","","","","","","","","","","","","","","",""
"","ITI","","html-keyboard-response","380","650553","0.0-1.0-513.0","0","0","75150","","null","","","null","56","","","","","","","","","","","","","","","NaN",""
"","S1","","html-keyboard-response","381","650819","0.0-1.0-515.0","0","0","75150","","null","","","null","57","","","","","","","","","","","","","","","",""
"","ISI","","html-keyboard-response","382","651339","0.0-1.0-516.0","0","0","75150","","null","","","null","57","NaN","","","","","","","","","","","","","","",""
"","S2","","html-keyboard-response","383","651601","0.0-1.0-517.0","0","0","75150","","null","","","null","57","","NaN","","","","","","","","","","","","","",""
"","response","","html-keyboard-response","384","652868","0.0-1.0-518.0-0.0","0","0","75150","","1252","","","75","57","","","2","57","training","adjacent","BA","2","1","O.jpg","R.jpg","0","0","1","",""
"","feedback","","html-keyboard-response","385","653883","0.0-1.0-519.0-0.0","0","0","75150","","null","","","null","57","","","","","","","","","","","","","","","",""
"","ITI","","html-keyboard-response","386","654892","0.0-1.0-522.0","0","0","75150","","null","","","null","57","","","","","","","","","","","","","","","NaN",""
"","S1","","html-keyboard-response","387","655163","0.0-1.0-524.0","0","0","75150","","null","","","null","58","","","","","","","","","","","","","","","",""
"","ISI","","html-keyboard-response","388","655680","0.0-1.0-525.0","0","0","75150","","null","","","null","58","NaN","","","","","","","","","","","","","","",""
"","S2","","html-keyboard-response","389","655944","0.0-1.0-526.0","0","0","75150","","null","","","null","58","","NaN","","","","","","","","","","","","","",""
"","response","","html-keyboard-response","390","656810","0.0-1.0-527.0-0.0","0","0","75150","","853","","","68","58","","","2","58","training","adjacent","ED","5","4","N.jpg","P.jpg","1","0","0","",""
"","feedback","","html-keyboard-response","391","657832","0.0-1.0-528.0-0.0","0","0","75150","","null","","","null","58","","","","","","","","","","","","","","","",""
"","time_out","","html-keyboard-response","392","659844","0.0-1.0-530.0-0.0","0","0","75150","","null","","","null","58","","","","","","","","","","","","","","","",""
"","ITI","","html-keyboard-response","393","660853","0.0-1.0-531.0","0","0","75150","","null","","","null","58","","","","","","","","","","","","","","","NaN",""
"","S1","","html-keyboard-response","394","661125","0.0-1.0-533.0","0","0","75150","","null","","","null","59","","","","","","","","","","","","","","","",""
"","ISI","","html-keyboard-response","395","661634","0.0-1.0-534.0","0","0","75150","","null","","","null","59","NaN","","","","","","","","","","","","","","",""
"","S2","","html-keyboard-response","396","661907","0.0-1.0-535.0","0","0","75150","","null","","","null","59","","NaN","","","","","","","","","","","","","",""
"","response","","html-keyboard-response","397","662286","0.0-1.0-536.0-0.0","0","0","75150","","373","","","68","59","","","2","59","training","adjacent","FE","6","5","Q.jpg","N.jpg","1","0","0","",""
"","feedback","","html-keyboard-response","398","663304","0.0-1.0-537.0-0.0","0","0","75150","","null","","","null","59","","","","","","","","","","","","","","","",""
"","time_out","","html-keyboard-response","399","665331","0.0-1.0-539.0-0.0","0","0","75150","","null","","","null","59","","","","","","","","","","","","","","","",""
"","ITI","","html-keyboard-response","400","666340","0.0-1.0-540.0","0","0","75150","","null","","","null","59","","","","","","","","","","","","","","","NaN",""
"","S1","","html-keyboard-response","401","666609","0.0-1.0-542.0","0","0","75150","","null","","","null","60","","","","","","","","","","","","","","","",""
"","ISI","","html-keyboard-response","402","667124","0.0-1.0-543.0","0","0","75150","","null","","","null","60","NaN","","","","","","","","","","","","","","",""
"","S2","","html-keyboard-response","403","667390","0.0-1.0-544.0","0","0","75150","","null","","","null","60","","NaN","","","","","","","","","","","","","",""
"","response","","html-keyboard-response","404","668558","0.0-1.0-545.0-0.0","0","0","75150","","1161","","","68","60","","","2","60","training","adjacent","BC","2","3","O.jpg","M.jpg","1","1","1","",""
"","feedback","","html-keyboard-response","405","669568","0.0-1.0-546.0-0.0","0","0","75150","","null","","","null","60","","","","","","","","","","","","","","","",""
"","ITI","","html-keyboard-response","406","670579","0.0-1.0-549.0","0","0","75150","","null","","","null","60","","","","","","","","","","","","","","","NaN",""
"","S1","","html-keyboard-response","407","670843","0.0-1.0-551.0","0","0","75150","","null","","","null","61","","","","","","","","","","","","","","","",""
"","ISI","","html-keyboard-response","408","671363","0.0-1.0-552.0","0","0","75150","","null","","","null","61","NaN","","","","","","","","","","","","","","",""
"","S2","","html-keyboard-response","409","671659","0.0-1.0-553.0","0","0","75150","","null","","","null","61","","NaN","","","","","","","","","","","","","",""
"","response","","html-keyboard-response","410","671877","0.0-1.0-554.0-0.0","0","0","75150","","211","","","75","61","","","2","61","training","adjacent","CB","3","2","M.jpg","O.jpg","0","0","1","",""
"","feedback","","html-keyboard-response","411","672891","0.0-1.0-555.0-0.0","0","0","75150","","null","","","null","61","","","","","","","","","","","","","","","",""
"","ITI","","html-keyboard-response","412","673899","0.0-1.0-558.0","0","0","75150","","null","","","null","61","","","","","","","","","","","","","","","NaN",""
"","S1","","html-keyboard-response","413","674161","0.0-1.0-560.0","0","0","75150","","null","","","null","62","","","","","","","","","","","","","","","",""
"","ISI","","html-keyboard-response","414","674675","0.0-1.0-561.0","0","0","75150","","null","","","null","62","NaN","","","","","","","","","","","","","","",""
"","S2","","html-keyboard-response","415","674948","0.0-1.0-562.0","0","0","75150","","null","","","null","62","","NaN","","","","","","","","","","","","","",""
"","response","","html-keyboard-response","416","675565","0.0-1.0-563.0-0.0","0","0","75150","","602","","","68","62","","","2","62","training","adjacent","FG","6","7","Q.jpg","L.jpg","1","1","1","",""
"","feedback","","html-keyboard-response","417","676586","0.0-1.0-564.0-0.0","0","0","75150","","null","","","null","62","","","","","","","","","","","","","","","",""
"","ITI","","html-keyboard-response","418","677596","0.0-1.0-567.0","0","0","75150","","null","","","null","62","","","","","","","","","","","","","","","NaN",""
"","S1","","html-keyboard-response","419","677859","0.0-1.0-569.0","0","0","75150","","null","","","null","63","","","","","","","","","","","","","","","",""
"","ISI","","html-keyboard-response","420","678378","0.0-1.0-570.0","0","0","75150","","null","","","null","63","NaN","","","","","","","","","","","","","","",""
"","S2","","html-keyboard-response","421","678643","0.0-1.0-571.0","0","0","75150","","null","","","null","63","","NaN","","","","","","","","","","","","","",""
"","response","","html-keyboard-response","422","679022","0.0-1.0-572.0-0.0","0","0","75150","","373","","","68","63","","","2","63","training","adjacent","BC","2","3","O.jpg","M.jpg","1","1","1","",""
"","feedback","","html-keyboard-response","423","680039","0.0-1.0-573.0-0.0","0","0","75150","","null","","","null","63","","","","","","","","","","","","","","","",""
"","ITI","","html-keyboard-response","424","681047","0.0-1.0-576.0","0","0","75150","","null","","","null","63","","","","","","","","","","","","","","","NaN",""
"","S1","","html-keyboard-response","425","681314","0.0-1.0-578.0","0","0","75150","","null","","","null","64","","","","","","","","","","","","","","","",""
"","ISI","","html-keyboard-response","426","681829","0.0-1.0-579.0","0","0","75150","","null","","","null","64","NaN","","","","","","","","","","","","","","",""
"","S2","","html-keyboard-response","427","682093","0.0-1.0-580.0","0","0","75150","","null","","","null","64","","NaN","","","","","","","","","","","","","",""
"","response","","html-keyboard-response","428","682575","0.0-1.0-581.0-0.0","0","0","75150","","476","","","68","64","","","2","64","training","adjacent","FE","6","5","Q.jpg","N.jpg","1","0","0","",""
"","feedback","","html-keyboard-response","429","683589","0.0-1.0-582.0-0.0","0","0","75150","","null","","","null","64","","","","","","","","","","","","","","","",""
"","time_out","","html-keyboard-response","430","685603","0.0-1.0-584.0-0.0","0","0","75150","","null","","","null","64","","","","","","","","","","","","","","","",""
"","ITI","","html-keyboard-response","431","686612","0.0-1.0-585.0","0","0","75150","","null","","","null","64","","","","","","","","","","","","","","","NaN",""
"","S1","","html-keyboard-response","432","686876","0.0-1.0-587.0","0","0","75150","","null","","","null","65","","","","","","","","","","","","","","","",""
"","ISI","","html-keyboard-response","433","687394","0.0-1.0-588.0","0","0","75150","","null","","","null","65","NaN","","","","","","","","","","","","","","",""
"","S2","","html-keyboard-response","434","687668","0.0-1.0-589.0","0","0","75150","","null","","","null","65","","NaN","","","","","","","","","","","","","",""
"","response","","html-keyboard-response","435","688150","0.0-1.0-590.0-0.0","0","0","75150","","475","","","75","65","","","2","65","training","adjacent","DC","4","3","P.jpg","M.jpg","0","0","1","",""
"","feedback","","html-keyboard-response","436","689163","0.0-1.0-591.0-0.0","0","0","75150","","null","","","null","65","","","","","","","","","","","","","","","",""
"","ITI","","html-keyboard-response","437","690172","0.0-1.0-594.0","0","0","75150","","null","","","null","65","","","","","","","","","","","","","","","NaN",""
"","S1","","html-keyboard-response","438","690431","0.0-1.0-596.0","0","0","75150","","null","","","null","66","","","","","","","","","","","","","","","",""
"","ISI","","html-keyboard-response","439","690939","0.0-1.0-597.0","0","0","75150","","null","","","null","66","NaN","","","","","","","","","","","","","","",""
"","S2","","html-keyboard-response","440","691211","0.0-1.0-598.0","0","0","75150","","null","","","null","66","","NaN","","","","","","","","","","","","","",""
"","response","","html-keyboard-response","441","692745","0.0-1.0-599.0-0.0","0","0","75150","","1528","","","75","66","","","2","66","training","adjacent","FE","6","5","Q.jpg","N.jpg","0","0","1","",""
"","feedback","","html-keyboard-response","442","693755","0.0-1.0-600.0-0.0","0","0","75150","","null","","","null","66","","","","","","","","","","","","","","","",""
"","ITI","","html-keyboard-response","443","694764","0.0-1.0-603.0","0","0","75150","","null","","","null","66","","","","","","","","","","","","","","","NaN",""
"","S1","","html-keyboard-response","444","695026","0.0-1.0-605.0","0","0","75150","","null","","","null","67","","","","","","","","","","","","","","","",""
"","ISI","","html-keyboard-response","445","695538","0.0-1.0-606.0","0","0","75150","","null","","","null","67","NaN","","","","","","","","","","","","","","",""
"","S2","","html-keyboard-response","446","695812","0.0-1.0-607.0","0","0","75150","","null","","","null","67","","NaN","","","","","","","","","","","","","",""
"","response","","html-keyboard-response","447","696154","0.0-1.0-608.0-0.0","0","0","75150","","335","","","68","67","","","2","67","training","adjacent","EF","5","6","N.jpg","Q.jpg","1","1","1","",""
"","feedback","","html-keyboard-response","448","697163","0.0-1.0-609.0-0.0","0","0","75150","","null","","","null","67","","","","","","","","","","","","","","","",""
"","ITI","","html-keyboard-response","449","698179","0.0-1.0-612.0","0","0","75150","","null","","","null","67","","","","","","","","","","","","","","","NaN",""
"","S1","","html-keyboard-response","450","698450","0.0-1.0-614.0","0","0","75150","","null","","","null","68","","","","","","","","","","","","","","","",""
"","ISI","","html-keyboard-response","451","698964","0.0-1.0-615.0","0","0","75150","","null","","","null","68","NaN","","","","","","","","","","","","","","",""
"","S2","","html-keyboard-response","452","699230","0.0-1.0-616.0","0","0","75150","","null","","","null","68","","NaN","","","","","","","","","","","","","",""
"","response","","html-keyboard-response","453","699708","0.0-1.0-617.0-0.0","0","0","75150","","465","","","68","68","","","2","68","training","adjacent","CD","3","4","M.jpg","P.jpg","1","1","1","",""
"","feedback","","html-keyboard-response","454","700731","0.0-1.0-618.0-0.0","0","0","75150","","null","","","null","68","","","","","","","","","","","","","","","",""
"","ITI","","html-keyboard-response","455","701740","0.0-1.0-621.0","0","0","75150","","null","","","null","68","","","","","","","","","","","","","","","NaN",""
"","S1","","html-keyboard-response","456","702010","0.0-1.0-623.0","0","0","75150","","null","","","null","69","","","","","","","","","","","","","","","",""
"","ISI","","html-keyboard-response","457","702526","0.0-1.0-624.0","0","0","75150","","null","","","null","69","NaN","","","","","","","","","","","","","","",""
"","S2","","html-keyboard-response","458","702793","0.0-1.0-625.0","0","0","75150","","null","","","null","69","","NaN","","","","","","","","","","","","","",""
"","response","","html-keyboard-response","459","703171","0.0-1.0-626.0-0.0","0","0","75150","","373","","","75","69","","","2","69","training","adjacent","BA","2","1","O.jpg","R.jpg","0","0","1","",""
"","feedback","","html-keyboard-response","460","704180","0.0-1.0-627.0-0.0","0","0","75150","","null","","","null","69","","","","","","","","","","","","","","","",""
"","ITI","","html-keyboard-response","461","705195","0.0-1.0-630.0","0","0","75150","","null","","","null","69","","","","","","","","","","","","","","","NaN",""
"","S1","","html-keyboard-response","462","705459","0.0-1.0-632.0","0","0","75150","","null","","","null","70","","","","","","","","","","","","","","","",""
"","ISI","","html-keyboard-response","463","705975","0.0-1.0-633.0","0","0","75150","","null","","","null","70","NaN","","","","","","","","","","","","","","",""
"","S2","","html-keyboard-response","464","706235","0.0-1.0-634.0","0","0","75150","","null","","","null","70","","NaN","","","","","","","","","","","","","",""
"","response","","html-keyboard-response","465","706752","0.0-1.0-635.0-0.0","0","0","75150","","510","","","75","70","","","2","70","training","adjacent","EF","5","6","N.jpg","Q.jpg","0","1","0","",""
"","feedback","","html-keyboard-response","466","707766","0.0-1.0-636.0-0.0","0","0","75150","","null","","","null","70","","","","","","","","","","","","","","","",""
"","time_out","","html-keyboard-response","467","709780","0.0-1.0-638.0-0.0","0","0","75150","","null","","","null","70","","","","","","","","","","","","","","","",""
"","ITI","","html-keyboard-response","468","710795","0.0-1.0-639.0","0","0","75150","","null","","","null","70","","","","","","","","","","","","","","","NaN",""
"","S1","","html-keyboard-response","469","711059","0.0-1.0-641.0","0","0","75150","","null","","","null","71","","","","","","","","","","","","","","","",""
"","ISI","","html-keyboard-response","470","711579","0.0-1.0-642.0","0","0","75150","","null","","","null","71","NaN","","","","","","","","","","","","","","",""
"","S2","","html-keyboard-response","471","711832","0.0-1.0-643.0","0","0","75150","","246","","","75","71","","k","2","71","training","adjacent","AB","1","2","R.jpg","O.jpg","0","1","0","",""
"","feedback","","html-keyboard-response","472","712850","0.0-1.0-645.0-0.0","0","0","75150","","null","","","null","71","","","","","","","","","","","","","","","",""
"","time_out","","html-keyboard-response","473","714867","0.0-1.0-647.0-0.0","0","0","75150","","null","","","null","71","","","","","","","","","","","","","","","",""
"","ITI","","html-keyboard-response","474","715890","0.0-1.0-648.0","0","0","75150","","null","","","null","71","","","","","","","","","","","","","","","NaN",""
"","S1","","html-keyboard-response","475","716155","0.0-1.0-650.0","0","0","75150","","null","","","null","72","","","","","","","","","","","","","","","",""
"","ISI","","html-keyboard-response","476","716666","0.0-1.0-651.0","0","0","75150","","null","","","null","72","NaN","","","","","","","","","","","","","","",""
"","S2","","html-keyboard-response","477","716940","0.0-1.0-652.0","0","0","75150","","null","","","null","72","","NaN","","","","","","","","","","","","","",""
"","response","","html-keyboard-response","478","717681","0.0-1.0-653.0-0.0","0","0","75150","","732","","","68","72","","","2","72","training","adjacent","ED","5","4","N.jpg","P.jpg","1","0","0","",""
"","feedback","","html-keyboard-response","479","718698","0.0-1.0-654.0-0.0","0","0","75150","","null","","","null","72","","","","","","","","","","","","","","","",""
"","time_out","","html-keyboard-response","480","720714","0.0-1.0-656.0-0.0","0","0","75150","","null","","","null","72","","","","","","","","","","","","","","","",""
"","ITI","","html-keyboard-response","481","721723","0.0-1.0-657.0","0","0","75150","","null","","","null","72","","","","","","","","","","","","","","","NaN",""
"","S1","","html-keyboard-response","482","721990","0.0-1.0-659.0","0","0","75150","","null","","","null","73","","","","","","","","","","","","","","","",""
"","ISI","","html-keyboard-response","483","722500","0.0-1.0-660.0","0","0","75150","","null","","","null","73","NaN","","","","","","","","","","","","","","",""
"","S2","","html-keyboard-response","484","722771","0.0-1.0-661.0","0","0","75150","","null","","","null","73","","NaN","","","","","","","","","","","","","",""
"","response","","html-keyboard-response","485","723937","0.0-1.0-662.0-0.0","0","0","75150","","1159","","","75","73","","","2","73","training","adjacent","DE","4","5","P.jpg","N.jpg","0","1","0","",""
"","feedback","","html-keyboard-response","486","724948","0.0-1.0-663.0-0.0","0","0","75150","","null","","","null","73","","","","","","","","","","","","","","","",""
"","time_out","","html-keyboard-response","487","726956","0.0-1.0-665.0-0.0","0","0","75150","","null","","","null","73","","","","","","","","","","","","","","","",""
"","ITI","","html-keyboard-response","488","727970","0.0-1.0-666.0","0","0","75150","","null","","","null","73","","","","","","","","","","","","","","","NaN",""
"","S1","","html-keyboard-response","489","728242","0.0-1.0-668.0","0","0","75150","","null","","","null","74","","","","","","","","","","","","","","","",""
"","ISI","","html-keyboard-response","490","728756","0.0-1.0-669.0","0","0","75150","","null","","","null","74","NaN","","","","","","","","","","","","","","",""
"","S2","","html-keyboard-response","491","729026","0.0-1.0-670.0","0","0","75150","","null","","","null","74","","NaN","","","","","","","","","","","","","",""
"","response","","html-keyboard-response","492","729484","0.0-1.0-671.0-0.0","0","0","75150","","450","","","68","74","","","2","74","training","adjacent","FE","6","5","Q.jpg","N.jpg","1","0","0","",""
"","feedback","","html-keyboard-response","493","730506","0.0-1.0-672.0-0.0","0","0","75150","","null","","","null","74","","","","","","","","","","","","","","","",""
"","time_out","","html-keyboard-response","494","732522","0.0-1.0-674.0-0.0","0","0","75150","","null","","","null","74","","","","","","","","","","","","","","","",""
"","ITI","","html-keyboard-response","495","733538","0.0-1.0-675.0","0","0","75150","","null","","","null","74","","","","","","","","","","","","","","","NaN",""
"","S1","","html-keyboard-response","496","733801","0.0-1.0-677.0","0","0","75150","","null","","","null","75","","","","","","","","","","","","","","","",""
"","ISI","","html-keyboard-response","497","734308","0.0-1.0-678.0","0","0","75150","","null","","","null","75","NaN","","","","","","","","","","","","","","",""
"","S2","","html-keyboard-response","498","734571","0.0-1.0-679.0","0","0","75150","","null","","","null","75","","NaN","","","","","","","","","","","","","",""
"","response","","html-keyboard-response","499","735177","0.0-1.0-680.0-0.0","0","0","75150","","592","","","75","75","","","2","75","training","adjacent","ED","5","4","N.jpg","P.jpg","0","0","1","",""
"","feedback","","html-keyboard-response","500","736195","0.0-1.0-681.0-0.0","0","0","75150","","null","","","null","75","","","","","","","","","","","","","","","",""
"","ITI","","html-keyboard-response","501","737220","0.0-1.0-684.0","0","0","75150","","null","","","null","75","","","","","","","","","","","","","","","NaN",""
"","S1","","html-keyboard-response","502","737484","0.0-1.0-686.0","0","0","75150","","null","","","null","76","","","","","","","","","","","","","","","",""
"","ISI","","html-keyboard-response","503","737990","0.0-1.0-687.0","0","0","75150","","null","","","null","76","NaN","","","","","","","","","","","","","","",""
"","S2","","html-keyboard-response","504","738258","0.0-1.0-688.0","0","0","75150","","null","","","null","76","","NaN","","","","","","","","","","","","","",""
"","response","","html-keyboard-response","505","738686","0.0-1.0-689.0-0.0","0","0","75150","","414","","","68","76","","","2","76","training","adjacent","CD","3","4","M.jpg","P.jpg","1","1","1","",""
"","feedback","","html-keyboard-response","506","739700","0.0-1.0-690.0-0.0","0","0","75150","","null","","","null","76","","","","","","","","","","","","","","","",""
"","ITI","","html-keyboard-response","507","740723","0.0-1.0-693.0","0","0","75150","","null","","","null","76","","","","","","","","","","","","","","","NaN",""
"","S1","","html-keyboard-response","508","740988","0.0-1.0-695.0","0","0","75150","","null","","","null","77","","","","","","","","","","","","","","","",""
"","ISI","","html-keyboard-response","509","741500","0.0-1.0-696.0","0","0","75150","","null","","","null","77","NaN","","","","","","","","","","","","","","",""
"","S2","","html-keyboard-response","510","741764","0.0-1.0-697.0","0","0","75150","","null","","","null","77","","NaN","","","","","","","","","","","","","",""
"","response","","html-keyboard-response","511","742360","0.0-1.0-698.0-0.0","0","0","75150","","589","","","75","77","","","2","77","training","adjacent","EF","5","6","N.jpg","Q.jpg","0","1","0","",""
"","feedback","","html-keyboard-response","512","743378","0.0-1.0-699.0-0.0","0","0","75150","","null","","","null","77","","","","","","","","","","","","","","","",""
"","time_out","","html-keyboard-response","513","745394","0.0-1.0-701.0-0.0","0","0","75150","","null","","","null","77","","","","","","","","","","","","","","","",""
"","ITI","","html-keyboard-response","514","746409","0.0-1.0-702.0","0","0","75150","","null","","","null","77","","","","","","","","","","","","","","","NaN",""
"","S1","","html-keyboard-response","515","746675","0.0-1.0-704.0","0","0","75150","","null","","","null","78","","","","","","","","","","","","","","","",""
"","ISI","","html-keyboard-response","516","747195","0.0-1.0-705.0","0","0","75150","","null","","","null","78","NaN","","","","","","","","","","","","","","",""
"","S2","","html-keyboard-response","517","747468","0.0-1.0-706.0","0","0","75150","","null","","","null","78","","NaN","","","","","","","","","","","","","",""
"","response","","html-keyboard-response","518","747963","0.0-1.0-707.0-0.0","0","0","75150","","487","","","68","78","","","2","78","training","adjacent","FG","6","7","Q.jpg","L.jpg","1","1","1","",""
"","feedback","","html-keyboard-response","519","748972","0.0-1.0-708.0-0.0","0","0","75150","","null","","","null","78","","","","","","","","","","","","","","","",""
"","ITI","","html-keyboard-response","520","749986","0.0-1.0-711.0","0","0","75150","","null","","","null","78","","","","","","","","","","","","","","","NaN",""
"","S1","","html-keyboard-response","521","750245","0.0-1.0-713.0","0","0","75150","","null","","","null","79","","","","","","","","","","","","","","","",""
"","ISI","","html-keyboard-response","522","750760","0.0-1.0-714.0","0","0","75150","","null","","","null","79","NaN","","","","","","","","","","","","","","",""
"","S2","","html-keyboard-response","523","751027","0.0-1.0-715.0","0","0","75150","","null","","","null","79","","NaN","","","","","","","","","","","","","",""
"","response","","html-keyboard-response","524","751503","0.0-1.0-716.0-0.0","0","0","75150","","462","","","75","79","","","2","79","training","adjacent","GF","7","6","L.jpg","Q.jpg","0","0","1","",""
"","feedback","","html-keyboard-response","525","752517","0.0-1.0-717.0-0.0","0","0","75150","","null","","","null","79","","","","","","","","","","","","","","","",""
"","ITI","","html-keyboard-response","526","753540","0.0-1.0-720.0","0","0","75150","","null","","","null","79","","","","","","","","","","","","","","","NaN",""
"","S1","","html-keyboard-response","527","753804","0.0-1.0-722.0","0","0","75150","","null","","","null","80","","","","","","","","","","","","","","","",""
"","ISI","","html-keyboard-response","528","754314","0.0-1.0-723.0","0","0","75150","","null","","","null","80","NaN","","","","","","","","","","","","","","",""
"","S2","","html-keyboard-response","529","754588","0.0-1.0-724.0","0","0","75150","","null","","","null","80","","NaN","","","","","","","","","","","","","",""
"","response","","html-keyboard-response","530","755017","0.0-1.0-725.0-0.0","0","0","75150","","420","","","68","80","","","2","80","training","adjacent","CD","3","4","M.jpg","P.jpg","1","1","1","",""
"","feedback","","html-keyboard-response","531","756026","0.0-1.0-726.0-0.0","0","0","75150","","null","","","null","80","","","","","","","","","","","","","","","",""
"","ITI","","html-keyboard-response","532","757043","0.0-1.0-729.0","0","0","75150","","null","","","null","80","","","","","","","","","","","","","","","NaN",""
"","S1","","html-keyboard-response","533","757317","0.0-1.0-731.0","0","0","75150","","null","","","null","81","","","","","","","","","","","","","","","",""
"","ISI","","html-keyboard-response","534","757834","0.0-1.0-732.0","0","0","75150","","null","","","null","81","NaN","","","","","","","","","","","","","","",""
"","S2","","html-keyboard-response","535","758106","0.0-1.0-733.0","0","0","75150","","null","","","null","81","","NaN","","","","","","","","","","","","","",""
"","response","","html-keyboard-response","536","758732","0.0-1.0-734.0-0.0","0","0","75150","","618","","","68","81","","","2","81","training","adjacent","FG","6","7","Q.jpg","L.jpg","1","1","1","",""
"","feedback","","html-keyboard-response","537","759754","0.0-1.0-735.0-0.0","0","0","75150","","null","","","null","81","","","","","","","","","","","","","","","",""
"","ITI","","html-keyboard-response","538","760774","0.0-1.0-738.0","0","0","75150","","null","","","null","81","","","","","","","","","","","","","","","NaN",""
"","S1","","html-keyboard-response","539","761041","0.0-1.0-740.0","0","0","75150","","null","","","null","82","","","","","","","","","","","","","","","",""
"","ISI","","html-keyboard-response","540","761551","0.0-1.0-741.0","0","0","75150","","null","","","null","82","NaN","","","","","","","","","","","","","","",""
"","S2","","html-keyboard-response","541","761818","0.0-1.0-742.0","0","0","75150","","null","","","null","82","","NaN","","","","","","","","","","","","","",""
"","response","","html-keyboard-response","542","762288","0.0-1.0-743.0-0.0","0","0","75150","","455","","","75","82","","","2","82","training","adjacent","DE","4","5","P.jpg","N.jpg","0","1","0","",""
"","feedback","","html-keyboard-response","543","763306","0.0-1.0-744.0-0.0","0","0","75150","","null","","","null","82","","","","","","","","","","","","","","","",""
"","time_out","","html-keyboard-response","544","765323","0.0-1.0-746.0-0.0","0","0","75150","","null","","","null","82","","","","","","","","","","","","","","","",""
"","ITI","","html-keyboard-response","545","766330","0.0-1.0-747.0","0","0","75150","","null","","","null","82","","","","","","","","","","","","","","","NaN",""
"","S1","","html-keyboard-response","546","766589","0.0-1.0-749.0","0","0","75150","","null","","","null","83","","","","","","","","","","","","","","","",""
"","ISI","","html-keyboard-response","547","767107","0.0-1.0-750.0","0","0","75150","","null","","","null","83","NaN","","","","","","","","","","","","","","",""
"","S2","","html-keyboard-response","548","767380","0.0-1.0-751.0","0","0","75150","","null","","","null","83","","NaN","","","","","","","","","","","","","",""
"","response","","html-keyboard-response","549","767926","0.0-1.0-752.0-0.0","0","0","75150","","538","","","75","83","","","2","83","training","adjacent","DC","4","3","P.jpg","M.jpg","0","0","1","",""
"","feedback","","html-keyboard-response","550","768944","0.0-1.0-753.0-0.0","0","0","75150","","null","","","null","83","","","","","","","","","","","","","","","",""
"","ITI","","html-keyboard-response","551","769962","0.0-1.0-756.0","0","0","75150","","null","","","null","83","","","","","","","","","","","","","","","NaN",""
"","S1","","html-keyboard-response","552","770234","0.0-1.0-758.0","0","0","75150","","null","","","null","84","","","","","","","","","","","","","","","",""
"","ISI","","html-keyboard-response","553","770747","0.0-1.0-759.0","0","0","75150","","null","","","null","84","NaN","","","","","","","","","","","","","","",""
"","S2","","html-keyboard-response","554","771012","0.0-1.0-760.0","0","0","75150","","null","","","null","84","","NaN","","","","","","","","","","","","","",""
"","response","","html-keyboard-response","555","771489","0.0-1.0-761.0-0.0","0","0","75150","","470","","","75","84","","","2","84","training","adjacent","GF","7","6","L.jpg","Q.jpg","0","0","1","",""
"","feedback","","html-keyboard-response","556","772506","0.0-1.0-762.0-0.0","0","0","75150","","null","","","null","84","","","","","","","","","","","","","","","",""
"","ITI","","html-keyboard-response","557","773515","0.0-1.0-765.0","0","0","75150","","null","","","null","84","","","","","","","","","","","","","","","NaN",""
"","S1","","html-keyboard-response","558","773779","0.0-1.0-767.0","0","0","75150","","null","","","null","85","","","","","","","","","","","","","","","",""
"","ISI","","html-keyboard-response","559","774293","0.0-1.0-768.0","0","0","75150","","null","","","null","85","NaN","","","","","","","","","","","","","","",""
"","S2","","html-keyboard-response","560","774563","0.0-1.0-769.0","0","0","75150","","null","","","null","85","","NaN","","","","","","","","","","","","","",""
"","response","","html-keyboard-response","561","776067","0.0-1.0-770.0-0.0","0","0","75150","","1496","","","68","85","","","2","85","training","adjacent","AB","1","2","R.jpg","O.jpg","1","1","1","",""
"","feedback","","html-keyboard-response","562","777091","0.0-1.0-771.0-0.0","0","0","75150","","null","","","null","85","","","","","","","","","","","","","","","",""
"","ITI","","html-keyboard-response","563","778103","0.0-1.0-774.0","0","0","75150","","null","","","null","85","","","","","","","","","","","","","","","NaN",""
"","S1","","html-keyboard-response","564","778362","0.0-1.0-776.0","0","0","75150","","null","","","null","86","","","","","","","","","","","","","","","",""
"","ISI","","html-keyboard-response","565","778877","0.0-1.0-777.0","0","0","75150","","null","","","null","86","NaN","","","","","","","","","","","","","","",""
"","S2","","html-keyboard-response","566","779147","0.0-1.0-778.0","0","0","75150","","null","","","null","86","","NaN","","","","","","","","","","","","","",""
"","response","","html-keyboard-response","567","779376","0.0-1.0-779.0-0.0","0","0","75150","","222","","","75","86","","","2","86","training","adjacent","BC","2","3","O.jpg","M.jpg","0","1","0","",""
"","feedback","","html-keyboard-response","568","780389","0.0-1.0-780.0-0.0","0","0","75150","","null","","","null","86","","","","","","","","","","","","","","","",""
"","time_out","","html-keyboard-response","569","782404","0.0-1.0-782.0-0.0","0","0","75150","","null","","","null","86","","","","","","","","","","","","","","","",""
"","ITI","","html-keyboard-response","570","783419","0.0-1.0-783.0","0","0","75150","","null","","","null","86","","","","","","","","","","","","","","","NaN",""
"","S1","","html-keyboard-response","571","783683","0.0-1.0-785.0","0","0","75150","","null","","","null","87","","","","","","","","","","","","","","","",""
"","ISI","","html-keyboard-response","572","784193","0.0-1.0-786.0","0","0","75150","","null","","","null","87","NaN","","","","","","","","","","","","","","",""
"","S2","","html-keyboard-response","573","784451","0.0-1.0-787.0","0","0","75150","","null","","","null","87","","NaN","","","","","","","","","","","","","",""
"","response","","html-keyboard-response","574","784743","0.0-1.0-788.0-0.0","0","0","75150","","285","","","75","87","","","2","87","training","adjacent","DC","4","3","P.jpg","M.jpg","0","0","1","",""
"","feedback","","html-keyboard-response","575","785756","0.0-1.0-789.0-0.0","0","0","75150","","null","","","null","87","","","","","","","","","","","","","","","",""
"","ITI","","html-keyboard-response","576","786768","0.0-1.0-792.0","0","0","75150","","null","","","null","87","","","","","","","","","","","","","","","NaN",""
"","S1","","html-keyboard-response","577","787035","0.0-1.0-794.0","0","0","75150","","null","","","null","88","","","","","","","","","","","","","","","",""
"","ISI","","html-keyboard-response","578","787547","0.0-1.0-795.0","0","0","75150","","null","","","null","88","NaN","","","","","","","","","","","","","","",""
"","S2","","html-keyboard-response","579","787815","0.0-1.0-796.0","0","0","75150","","null","","","null","88","","NaN","","","","","","","","","","","","","",""
"","response","","html-keyboard-response","580","789017","0.0-1.0-797.0-0.0","0","0","75150","","1195","","","75","88","","","2","88","training","adjacent","CB","3","2","M.jpg","O.jpg","0","0","1","",""
