"success","ttype","start_time","trial_type","trial_index","time_elapsed","internal_node_id","warning","missed_checkup","PID","view_history","rt","responses","repeat_instructions","key_press","index","keypress_isi","keypress_S2","block","trial_num","phase","group_type","pair_type","S1_stim","S2_stim","S1_img","S2_img","S1_chosen","S1_higher","accuracy","keypress_iti","total_bonus_tally"
"true","full_screen","d03082023hr1836","fullscreen","0","9700","0.0-0.0","0","0","99046","","","","","","","","","","","","","","","","","","","","","",""
"","instructions","","instructions","1","60488","0.0-1.0-0.0-0.0","0","0","99046","[{""page_index"":0,""viewing_time"":5604},{""page_index"":1,""viewing_time"":16671},{""page_index"":2,""viewing_time"":9864},{""page_index"":3,""viewing_time"":3352},{""page_index"":2,""viewing_time"":472},{""page_index"":1,""viewing_time"":608},{""page_index"":0,""viewing_time"":2744},{""page_index"":1,""viewing_time"":5480},{""page_index"":2,""viewing_time"":3936},{""page_index"":3,""viewing_time"":2048}]","50781","","","","","","","","","","","","","","","","","","","",""
"","comprehension_check","","survey-multi-choice","2","88370","0.0-1.0-0.0-1.0","0","0","99046","","27862","{""Q0"":""True"",""Q1"":""D"",""Q2"":""Only when the screen 'MAKE A CHOICE' is shown"",""Q3"":""Green mark"",""Q4"":""either D or K""}","1","","","","","","","","","","","","","","","","","",""
"","missed_instruction_checkup","","html-keyboard-response","3","91664","0.0-1.0-0.0-2.0-0.0","0","1","99046","","3282","","","32","","","","","","","","","","","","","","","","",""
"","instructions","","instructions","4","124687","0.0-1.0-0.1-0.1","0","0","99046","[{""page_index"":0,""viewing_time"":4256},{""page_index"":1,""viewing_time"":19472},{""page_index"":2,""viewing_time"":7640},{""page_index"":3,""viewing_time"":1648}]","33017","","","","","","","","","","","","","","","","","","","",""
"","comprehension_check","","survey-multi-choice","5","142505","0.0-1.0-0.1-1.1","0","0","99046","","17800","{""Q0"":""True"",""Q1"":""D"",""Q2"":""Once the second image appears and while the screen 'MAKE A CHOICE' is shown"",""Q3"":""Green mark"",""Q4"":""either D or K""}","0","","","","","","","","","","","","","","","","","",""
"","start_exp","","html-keyboard-response","6","149725","0.0-1.0-1.0","0","0","99046","","7212","","","32","","","","","","","","","","","","","","","","",""
"","S1","","html-keyboard-response","7","149984","0.0-1.0-2.0","0","0","99046","","null","","","null","0","","","","","","","","","","","","","","","",""
"","ISI","","html-keyboard-response","8","150143","0.0-1.0-3.0","0","0","99046","","null","","","null","0","NaN","","","","","","","","","","","","","","",""
"","S2","","html-keyboard-response","9","150401","0.0-1.0-4.0","0","0","99046","","null","","","null","0","","NaN","","","","","","","","","","","","","",""
"","response","","html-keyboard-response","10","151215","0.0-1.0-5.0-0.0","0","0","99046","","808","","","68","0","","","1","0","training","adjacent","DE","4","5","P.jpg","L.jpg","1","1","1","",""
"","feedback","","html-keyboard-response","11","152223","0.0-1.0-6.0-0.0","0","0","99046","","null","","","null","0","","","","","","","","","","","","","","","",""
"","ITI","","html-keyboard-response","12","153231","0.0-1.0-9.0","0","0","99046","","null","","","null","0","","","","","","","","","","","","","","","NaN",""
"","S1","","html-keyboard-response","13","153489","0.0-1.0-11.0","0","0","99046","","null","","","null","1","","","","","","","","","","","","","","","",""
"","ISI","","html-keyboard-response","14","153645","0.0-1.0-12.0","0","0","99046","","null","","","null","1","NaN","","","","","","","","","","","","","","",""
"","S2","","html-keyboard-response","15","153902","0.0-1.0-13.0","0","0","99046","","null","","","null","1","","NaN","","","","","","","","","","","","","",""
"","response","","html-keyboard-response","16","154500","0.0-1.0-14.0-0.0","0","0","99046","","592","","","68","1","","","1","1","training","adjacent","ED","5","4","L.jpg","P.jpg","1","0","0","",""
"","feedback","","html-keyboard-response","17","155507","0.0-1.0-15.0-0.0","0","0","99046","","null","","","null","1","","","","","","","","","","","","","","","",""
"","time_out","","html-keyboard-response","18","157513","0.0-1.0-17.0-0.0","0","0","99046","","null","","","null","1","","","","","","","","","","","","","","","",""
"","ITI","","html-keyboard-response","19","158519","0.0-1.0-18.0","0","0","99046","","null","","","null","1","","","","","","","","","","","","","","","NaN",""
"","S1","","html-keyboard-response","20","158776","0.0-1.0-20.0","0","0","99046","","null","","","null","2","","","","","","","","","","","","","","","",""
"","ISI","","html-keyboard-response","21","158931","0.0-1.0-21.0","0","0","99046","","null","","","null","2","NaN","","","","","","","","","","","","","","",""
"","S2","","html-keyboard-response","22","159188","0.0-1.0-22.0","0","0","99046","","null","","","null","2","","NaN","","","","","","","","","","","","","",""
"","response","","html-keyboard-response","23","159931","0.0-1.0-23.0-0.0","0","0","99046","","738","","","75","2","","","1","2","training","adjacent","BA","2","1","R.jpg","M.jpg","0","0","1","",""
"","feedback","","html-keyboard-response","24","160939","0.0-1.0-24.0-0.0","0","0","99046","","null","","","null","2","","","","","","","","","","","","","","","",""
"","ITI","","html-keyboard-response","25","161945","0.0-1.0-27.0","0","0","99046","","null","","","null","2","","","","","","","","","","","","","","","NaN",""
"","S1","","html-keyboard-response","26","162201","0.0-1.0-29.0","0","0","99046","","null","","","null","3","","","","","","","","","","","","","","","",""
"","ISI","","html-keyboard-response","27","162357","0.0-1.0-30.0","0","0","99046","","null","","","null","3","NaN","","","","","","","","","","","","","","",""
"","S2","","html-keyboard-response","28","162613","0.0-1.0-31.0","0","0","99046","","null","","","null","3","","NaN","","","","","","","","","","","","","",""
"","response","","html-keyboard-response","29","163256","0.0-1.0-32.0-0.0","0","0","99046","","637","","","75","3","","","1","3","training","adjacent","EF","5","6","L.jpg","O.jpg","0","1","0","",""
"","feedback","","html-keyboard-response","30","164263","0.0-1.0-33.0-0.0","0","0","99046","","null","","","null","3","","","","","","","","","","","","","","","",""
"","time_out","","html-keyboard-response","31","166269","0.0-1.0-35.0-0.0","0","0","99046","","null","","","null","3","","","","","","","","","","","","","","","",""
"","ITI","","html-keyboard-response","32","167285","0.0-1.0-36.0","0","0","99046","","null","","","null","3","","","","","","","","","","","","","","","NaN",""
"","S1","","html-keyboard-response","33","167542","0.0-1.0-38.0","0","0","99046","","null","","","null","4","","","","","","","","","","","","","","","",""
"","ISI","","html-keyboard-response","34","167697","0.0-1.0-39.0","0","0","99046","","null","","","null","4","NaN","","","","","","","","","","","","","","",""
"","S2","","html-keyboard-response","35","167954","0.0-1.0-40.0","0","0","99046","","null","","","null","4","","NaN","","","","","","","","","","","","","",""
"","response","","html-keyboard-response","36","168790","0.0-1.0-41.0-0.0","0","0","99046","","830","","","68","4","","","1","4","training","adjacent","BC","2","3","R.jpg","Q.jpg","1","1","1","",""
"","feedback","","html-keyboard-response","37","169797","0.0-1.0-42.0-0.0","0","0","99046","","null","","","null","4","","","","","","","","","","","","","","","",""
"","ITI","","html-keyboard-response","38","170803","0.0-1.0-45.0","0","0","99046","","null","","","null","4","","","","","","","","","","","","","","","NaN",""
"","S1","","html-keyboard-response","39","171060","0.0-1.0-47.0","0","0","99046","","null","","","null","5","","","","","","","","","","","","","","","",""
"","ISI","","html-keyboard-response","40","171215","0.0-1.0-48.0","0","0","99046","","null","","","null","5","NaN","","","","","","","","","","","","","","",""
"","S2","","html-keyboard-response","41","171472","0.0-1.0-49.0","0","0","99046","","null","","","null","5","","NaN","","","","","","","","","","","","","",""
"","response","","html-keyboard-response","42","171918","0.0-1.0-50.0-0.0","0","0","99046","","441","","","75","5","","","1","5","training","adjacent","CD","3","4","Q.jpg","P.jpg","0","1","0","",""
"","feedback","","html-keyboard-response","43","172926","0.0-1.0-51.0-0.0","0","0","99046","","null","","","null","5","","","","","","","","","","","","","","","",""
"","time_out","","html-keyboard-response","44","174939","0.0-1.0-53.0-0.0","0","0","99046","","null","","","null","5","","","","","","","","","","","","","","","",""
"","ITI","","html-keyboard-response","45","175946","0.0-1.0-54.0","0","0","99046","","null","","","null","5","","","","","","","","","","","","","","","NaN",""
"","S1","","html-keyboard-response","46","176201","0.0-1.0-56.0","0","0","99046","","null","","","null","6","","","","","","","","","","","","","","","",""
"","ISI","","html-keyboard-response","47","176357","0.0-1.0-57.0","0","0","99046","","null","","","null","6","NaN","","","","","","","","","","","","","","",""
"","S2","","html-keyboard-response","48","176614","0.0-1.0-58.0","0","0","99046","","null","","","null","6","","NaN","","","","","","","","","","","","","",""
"","response","","html-keyboard-response","49","177382","0.0-1.0-59.0-0.0","0","0","99046","","762","","","68","6","","","1","6","training","adjacent","FG","6","7","O.jpg","N.jpg","1","1","1","",""
"","feedback","","html-keyboard-response","50","178389","0.0-1.0-60.0-0.0","0","0","99046","","null","","","null","6","","","","","","","","","","","","","","","",""
"","ITI","","html-keyboard-response","51","179395","0.0-1.0-63.0","0","0","99046","","null","","","null","6","","","","","","","","","","","","","","","NaN",""
"","S1","","html-keyboard-response","52","179652","0.0-1.0-65.0","0","0","99046","","null","","","null","7","","","","","","","","","","","","","","","",""
"","ISI","","html-keyboard-response","53","179809","0.0-1.0-66.0","0","0","99046","","null","","","null","7","NaN","","","","","","","","","","","","","","",""
"","S2","","html-keyboard-response","54","180066","0.0-1.0-67.0","0","0","99046","","null","","","null","7","","NaN","","","","","","","","","","","","","",""
"","response","","html-keyboard-response","55","180409","0.0-1.0-68.0-0.0","0","0","99046","","338","","","68","7","","","1","7","training","adjacent","DC","4","3","P.jpg","Q.jpg","1","0","0","",""
"","feedback","","html-keyboard-response","56","181416","0.0-1.0-69.0-0.0","0","0","99046","","null","","","null","7","","","","","","","","","","","","","","","",""
"","time_out","","html-keyboard-response","57","183422","0.0-1.0-71.0-0.0","0","0","99046","","null","","","null","7","","","","","","","","","","","","","","","",""
"","ITI","","html-keyboard-response","58","184429","0.0-1.0-72.0","0","0","99046","","null","","","null","7","","","","","","","","","","","","","","","NaN",""
"","S1","","html-keyboard-response","59","184686","0.0-1.0-74.0","0","0","99046","","null","","","null","8","","","","","","","","","","","","","","","",""
"","ISI","","html-keyboard-response","60","184841","0.0-1.0-75.0","0","0","99046","","null","","","null","8","NaN","","","","","","","","","","","","","","",""
"","S2","","html-keyboard-response","61","185099","0.0-1.0-76.0","0","0","99046","","null","","","null","8","","NaN","","","","","","","","","","","","","",""
"","response","","html-keyboard-response","62","185723","0.0-1.0-77.0-0.0","0","0","99046","","619","","","68","8","","","1","8","training","adjacent","BA","2","1","R.jpg","M.jpg","1","0","0","",""
"","feedback","","html-keyboard-response","63","186730","0.0-1.0-78.0-0.0","0","0","99046","","null","","","null","8","","","","","","","","","","","","","","","",""
"","time_out","","html-keyboard-response","64","188737","0.0-1.0-80.0-0.0","0","0","99046","","null","","","null","8","","","","","","","","","","","","","","","",""
"","ITI","","html-keyboard-response","65","189743","0.0-1.0-81.0","0","0","99046","","null","","","null","8","","","","","","","","","","","","","","","NaN",""
"","S1","","html-keyboard-response","66","190000","0.0-1.0-83.0","0","0","99046","","null","","","null","9","","","","","","","","","","","","","","","",""
"","ISI","","html-keyboard-response","67","190157","0.0-1.0-84.0","0","0","99046","","null","","","null","9","NaN","","","","","","","","","","","","","","",""
"","S2","","html-keyboard-response","68","190413","0.0-1.0-85.0","0","0","99046","","null","","","null","9","","NaN","","","","","","","","","","","","","",""
"","response","","html-keyboard-response","69","191151","0.0-1.0-86.0-0.0","0","0","99046","","732","","","75","9","","","1","9","training","adjacent","DC","4","3","P.jpg","Q.jpg","0","0","1","",""
"","feedback","","html-keyboard-response","70","192158","0.0-1.0-87.0-0.0","0","0","99046","","null","","","null","9","","","","","","","","","","","","","","","",""
"","ITI","","html-keyboard-response","71","193163","0.0-1.0-90.0","0","0","99046","","null","","","null","9","","","","","","","","","","","","","","","NaN",""
"","S1","","html-keyboard-response","72","193420","0.0-1.0-92.0","0","0","99046","","null","","","null","10","","","","","","","","","","","","","","","",""
"","ISI","","html-keyboard-response","73","193576","0.0-1.0-93.0","0","0","99046","","null","","","null","10","NaN","","","","","","","","","","","","","","",""
"","S2","","html-keyboard-response","74","193832","0.0-1.0-94.0","0","0","99046","","null","","","null","10","","NaN","","","","","","","","","","","","","",""
"","response","","html-keyboard-response","75","194257","0.0-1.0-95.0-0.0","0","0","99046","","419","","","75","10","","","1","10","training","adjacent","DE","4","5","P.jpg","L.jpg","0","1","0","",""
"","feedback","","html-keyboard-response","76","195264","0.0-1.0-96.0-0.0","0","0","99046","","null","","","null","10","","","","","","","","","","","","","","","",""
"","time_out","","html-keyboard-response","77","197270","0.0-1.0-98.0-0.0","0","0","99046","","null","","","null","10","","","","","","","","","","","","","","","",""
"","ITI","","html-keyboard-response","78","198276","0.0-1.0-99.0","0","0","99046","","null","","","null","10","","","","","","","","","","","","","","","NaN",""
"","S1","","html-keyboard-response","79","198532","0.0-1.0-101.0","0","0","99046","","null","","","null","11","","","","","","","","","","","","","","","",""
"","ISI","","html-keyboard-response","80","198689","0.0-1.0-102.0","0","0","99046","","null","","","null","11","NaN","","","","","","","","","","","","","","",""
"","S2","","html-keyboard-response","81","198945","0.0-1.0-103.0","0","0","99046","","null","","","null","11","","NaN","","","","","","","","","","","","","",""
"","response","","html-keyboard-response","82","199678","0.0-1.0-104.0-0.0","0","0","99046","","727","","","75","11","","","1","11","training","adjacent","BC","2","3","R.jpg","Q.jpg","0","1","0","",""
"","feedback","","html-keyboard-response","83","200685","0.0-1.0-105.0-0.0","0","0","99046","","null","","","null","11","","","","","","","","","","","","","","","",""
"","time_out","","html-keyboard-response","84","202692","0.0-1.0-107.0-0.0","0","0","99046","","null","","","null","11","","","","","","","","","","","","","","","",""
"","ITI","","html-keyboard-response","85","203699","0.0-1.0-108.0","0","0","99046","","null","","","null","11","","","","","","","","","","","","","","","NaN",""
"","S1","","html-keyboard-response","86","203955","0.0-1.0-110.0","0","0","99046","","null","","","null","12","","","","","","","","","","","","","","","",""
"","ISI","","html-keyboard-response","87","204112","0.0-1.0-111.0","0","0","99046","","null","","","null","12","NaN","","","","","","","","","","","","","","",""
"","S2","","html-keyboard-response","88","204369","0.0-1.0-112.0","0","0","99046","","null","","","null","12","","NaN","","","","","","","","","","","","","",""
"","response","","html-keyboard-response","89","204960","0.0-1.0-113.0-0.0","0","0","99046","","585","","","68","12","","","1","12","training","adjacent","GF","7","6","N.jpg","O.jpg","1","0","0","",""
"","feedback","","html-keyboard-response","90","205966","0.0-1.0-114.0-0.0","0","0","99046","","null","","","null","12","","","","","","","","","","","","","","","",""
"","time_out","","html-keyboard-response","91","207973","0.0-1.0-116.0-0.0","0","0","99046","","null","","","null","12","","","","","","","","","","","","","","","",""
"","ITI","","html-keyboard-response","92","208979","0.0-1.0-117.0","0","0","99046","","null","","","null","12","","","","","","","","","","","","","","","NaN",""
"","S1","","html-keyboard-response","93","209236","0.0-1.0-119.0","0","0","99046","","null","","","null","13","","","","","","","","","","","","","","","",""
"","ISI","","html-keyboard-response","94","209392","0.0-1.0-120.0","0","0","99046","","null","","","null","13","NaN","","","","","","","","","","","","","","",""
"","S2","","html-keyboard-response","95","209650","0.0-1.0-121.0","0","0","99046","","null","","","null","13","","NaN","","","","","","","","","","","","","",""
"","response","","html-keyboard-response","96","210359","0.0-1.0-122.0-0.0","0","0","99046","","703","","","75","13","","","1","13","training","adjacent","FE","6","5","O.jpg","L.jpg","0","0","1","",""
"","feedback","","html-keyboard-response","97","211367","0.0-1.0-123.0-0.0","0","0","99046","","null","","","null","13","","","","","","","","","","","","","","","",""
"","ITI","","html-keyboard-response","98","212387","0.0-1.0-126.0","0","0","99046","","null","","","null","13","","","","","","","","","","","","","","","NaN",""
"","S1","","html-keyboard-response","99","212643","0.0-1.0-128.0","0","0","99046","","null","","","null","14","","","","","","","","","","","","","","","",""
"","ISI","","html-keyboard-response","100","212801","0.0-1.0-129.0","0","0","99046","","null","","","null","14","NaN","","","","","","","","","","","","","","",""
"","S2","","html-keyboard-response","101","213058","0.0-1.0-130.0","0","0","99046","","null","","","null","14","","NaN","","","","","","","","","","","","","",""
"","response","","html-keyboard-response","102","213756","0.0-1.0-131.0-0.0","0","0","99046","","692","","","68","14","","","1","14","training","adjacent","CB","3","2","Q.jpg","R.jpg","1","0","0","",""
"","feedback","","html-keyboard-response","103","214763","0.0-1.0-132.0-0.0","0","0","99046","","null","","","null","14","","","","","","","","","","","","","","","",""
"","time_out","","html-keyboard-response","104","216770","0.0-1.0-134.0-0.0","0","0","99046","","null","","","null","14","","","","","","","","","","","","","","","",""
"","ITI","","html-keyboard-response","105","217776","0.0-1.0-135.0","0","0","99046","","null","","","null","14","","","","","","","","","","","","","","","NaN",""
"","S1","","html-keyboard-response","106","218033","0.0-1.0-137.0","0","0","99046","","null","","","null","15","","","","","","","","","","","","","","","",""
"","ISI","","html-keyboard-response","107","218189","0.0-1.0-138.0","0","0","99046","","null","","","null","15","NaN","","","","","","","","","","","","","","",""
"","S2","","html-keyboard-response","108","218446","0.0-1.0-139.0","0","0","99046","","null","","","null","15","","NaN","","","","","","","","","","","","","",""
"","response","","html-keyboard-response","109","219164","0.0-1.0-140.0-0.0","0","0","99046","","713","","","68","15","","","1","15","training","adjacent","GF","7","6","N.jpg","O.jpg","1","0","0","",""
"","feedback","","html-keyboard-response","110","220171","0.0-1.0-141.0-0.0","0","0","99046","","null","","","null","15","","","","","","","","","","","","","","","",""
"","time_out","","html-keyboard-response","111","222177","0.0-1.0-143.0-0.0","0","0","99046","","null","","","null","15","","","","","","","","","","","","","","","",""
"","ITI","","html-keyboard-response","112","223183","0.0-1.0-144.0","0","0","99046","","null","","","null","15","","","","","","","","","","","","","","","NaN",""
"","S1","","html-keyboard-response","113","223440","0.0-1.0-146.0","0","0","99046","","null","","","null","16","","","","","","","","","","","","","","","",""
"","ISI","","html-keyboard-response","114","223596","0.0-1.0-147.0","0","0","99046","","null","","","null","16","NaN","","","","","","","","","","","","","","",""
"","S2","","html-keyboard-response","115","223853","0.0-1.0-148.0","0","0","99046","","null","","","null","16","","NaN","","","","","","","","","","","","","",""
"","response","","html-keyboard-response","116","224201","0.0-1.0-149.0-0.0","0","0","99046","","341","","","68","16","","","1","16","training","adjacent","EF","5","6","L.jpg","O.jpg","1","1","1","",""
"","feedback","","html-keyboard-response","117","225209","0.0-1.0-150.0-0.0","0","0","99046","","null","","","null","16","","","","","","","","","","","","","","","",""
"","ITI","","html-keyboard-response","118","226215","0.0-1.0-153.0","0","0","99046","","null","","","null","16","","","","","","","","","","","","","","","NaN",""
"","S1","","html-keyboard-response","119","226473","0.0-1.0-155.0","0","0","99046","","null","","","null","17","","","","","","","","","","","","","","","",""
"","ISI","","html-keyboard-response","120","226629","0.0-1.0-156.0","0","0","99046","","null","","","null","17","NaN","","","","","","","","","","","","","","",""
"","S2","","html-keyboard-response","121","226886","0.0-1.0-157.0","0","0","99046","","null","","","null","17","","NaN","","","","","","","","","","","","","",""
"","response","","html-keyboard-response","122","227238","0.0-1.0-158.0-0.0","0","0","99046","","346","","","68","17","","","1","17","training","adjacent","AB","1","2","M.jpg","R.jpg","1","1","1","",""
"","feedback","","html-keyboard-response","123","228245","0.0-1.0-159.0-0.0","0","0","99046","","null","","","null","17","","","","","","","","","","","","","","","",""
"","ITI","","html-keyboard-response","124","229251","0.0-1.0-162.0","0","0","99046","","null","","","null","17","","","","","","","","","","","","","","","NaN",""
"","S1","","html-keyboard-response","125","229508","0.0-1.0-164.0","0","0","99046","","null","","","null","18","","","","","","","","","","","","","","","",""
"","ISI","","html-keyboard-response","126","229664","0.0-1.0-165.0","0","0","99046","","null","","","null","18","NaN","","","","","","","","","","","","","","",""
"","S2","","html-keyboard-response","127","229921","0.0-1.0-166.0","0","0","99046","","null","","","null","18","","NaN","","","","","","","","","","","","","",""
"","response","","html-keyboard-response","128","230404","0.0-1.0-167.0-0.0","0","0","99046","","477","","","68","18","","","1","18","training","adjacent","ED","5","4","L.jpg","P.jpg","1","0","0","",""
"","feedback","","html-keyboard-response","129","231411","0.0-1.0-168.0-0.0","0","0","99046","","null","","","null","18","","","","","","","","","","","","","","","",""
"","time_out","","html-keyboard-response","130","233418","0.0-1.0-170.0-0.0","0","0","99046","","null","","","null","18","","","","","","","","","","","","","","","",""
"","ITI","","html-keyboard-response","131","234424","0.0-1.0-171.0","0","0","99046","","null","","","null","18","","","","","","","","","","","","","","","NaN",""
"","S1","","html-keyboard-response","132","234682","0.0-1.0-173.0","0","0","99046","","null","","","null","19","","","","","","","","","","","","","","","",""
"","ISI","","html-keyboard-response","133","234839","0.0-1.0-174.0","0","0","99046","","null","","","null","19","NaN","","","","","","","","","","","","","","",""
"","S2","","html-keyboard-response","134","235096","0.0-1.0-175.0","0","0","99046","","null","","","null","19","","NaN","","","","","","","","","","","","","",""
"","response","","html-keyboard-response","135","235573","0.0-1.0-176.0-0.0","0","0","99046","","472","","","75","19","","","1","19","training","adjacent","DE","4","5","P.jpg","L.jpg","0","1","0","",""
"","feedback","","html-keyboard-response","136","236580","0.0-1.0-177.0-0.0","0","0","99046","","null","","","null","19","","","","","","","","","","","","","","","",""
"","time_out","","html-keyboard-response","137","238586","0.0-1.0-179.0-0.0","0","0","99046","","null","","","null","19","","","","","","","","","","","","","","","",""
"","ITI","","html-keyboard-response","138","239593","0.0-1.0-180.0","0","0","99046","","null","","","null","19","","","","","","","","","","","","","","","NaN",""
"","S1","","html-keyboard-response","139","239850","0.0-1.0-182.0","0","0","99046","","null","","","null","20","","","","","","","","","","","","","","","",""
"","ISI","","html-keyboard-response","140","240006","0.0-1.0-183.0","0","0","99046","","null","","","null","20","NaN","","","","","","","","","","","","","","",""
"","S2","","html-keyboard-response","141","240264","0.0-1.0-184.0","0","0","99046","","null","","","null","20","","NaN","","","","","","","","","","","","","",""
"","response","","html-keyboard-response","142","240571","0.0-1.0-185.0-0.0","0","0","99046","","301","","","68","20","","","1","20","training","adjacent","CD","3","4","Q.jpg","P.jpg","1","1","1","",""
"","feedback","","html-keyboard-response","143","241579","0.0-1.0-186.0-0.0","0","0","99046","","null","","","null","20","","","","","","","","","","","","","","","",""
"","ITI","","html-keyboard-response","144","242586","0.0-1.0-189.0","0","0","99046","","null","","","null","20","","","","","","","","","","","","","","","NaN",""
"","S1","","html-keyboard-response","145","242842","0.0-1.0-191.0","0","0","99046","","null","","","null","21","","","","","","","","","","","","","","","",""
"","ISI","","html-keyboard-response","146","242999","0.0-1.0-192.0","0","0","99046","","null","","","null","21","NaN","","","","","","","","","","","","","","",""
"","S2","","html-keyboard-response","147","243256","0.0-1.0-193.0","0","0","99046","","null","","","null","21","","NaN","","","","","","","","","","","","","",""
"","response","","html-keyboard-response","148","243724","0.0-1.0-194.0-0.0","0","0","99046","","463","","","68","21","","","1","21","training","adjacent","FE","6","5","O.jpg","L.jpg","1","0","0","",""
"","feedback","","html-keyboard-response","149","244731","0.0-1.0-195.0-0.0","0","0","99046","","null","","","null","21","","","","","","","","","","","","","","","",""
"","time_out","","html-keyboard-response","150","246737","0.0-1.0-197.0-0.0","0","0","99046","","null","","","null","21","","","","","","","","","","","","","","","",""
"","ITI","","html-keyboard-response","151","247744","0.0-1.0-198.0","0","0","99046","","null","","","null","21","","","","","","","","","","","","","","","NaN",""
"","S1","","html-keyboard-response","152","248000","0.0-1.0-200.0","0","0","99046","","null","","","null","22","","","","","","","","","","","","","","","",""
"","ISI","","html-keyboard-response","153","248156","0.0-1.0-201.0","0","0","99046","","null","","","null","22","NaN","","","","","","","","","","","","","","",""
"","S2","","html-keyboard-response","154","248413","0.0-1.0-202.0","0","0","99046","","null","","","null","22","","NaN","","","","","","","","","","","","","",""
"","response","","html-keyboard-response","155","248815","0.0-1.0-203.0-0.0","0","0","99046","","397","","","68","22","","","1","22","training","adjacent","CB","3","2","Q.jpg","R.jpg","1","0","0","",""
"","feedback","","html-keyboard-response","156","249823","0.0-1.0-204.0-0.0","0","0","99046","","null","","","null","22","","","","","","","","","","","","","","","",""
"","time_out","","html-keyboard-response","157","251829","0.0-1.0-206.0-0.0","0","0","99046","","null","","","null","22","","","","","","","","","","","","","","","",""
"","ITI","","html-keyboard-response","158","252836","0.0-1.0-207.0","0","0","99046","","null","","","null","22","","","","","","","","","","","","","","","NaN",""
"","S1","","html-keyboard-response","159","253094","0.0-1.0-209.0","0","0","99046","","null","","","null","23","","","","","","","","","","","","","","","",""
"","ISI","","html-keyboard-response","160","253253","0.0-1.0-210.0","0","0","99046","","null","","","null","23","NaN","","","","","","","","","","","","","","",""
"","S2","","html-keyboard-response","161","253510","0.0-1.0-211.0","0","0","99046","","null","","","null","23","","NaN","","","","","","","","","","","","","",""
"","response","","html-keyboard-response","162","254239","0.0-1.0-212.0-0.0","0","0","99046","","724","","","75","23","","","1","23","training","adjacent","FG","6","7","O.jpg","N.jpg","0","1","0","",""
"","feedback","","html-keyboard-response","163","255246","0.0-1.0-213.0-0.0","0","0","99046","","null","","","null","23","","","","","","","","","","","","","","","",""
"","time_out","","html-keyboard-response","164","257252","0.0-1.0-215.0-0.0","0","0","99046","","null","","","null","23","","","","","","","","","","","","","","","",""
"","ITI","","html-keyboard-response","165","258271","0.0-1.0-216.0","0","0","99046","","null","","","null","23","","","","","","","","","","","","","","","NaN",""
"","S1","","html-keyboard-response","166","258527","0.0-1.0-218.0","0","0","99046","","null","","","null","24","","","","","","","","","","","","","","","",""
"","ISI","","html-keyboard-response","167","258682","0.0-1.0-219.0","0","0","99046","","null","","","null","24","NaN","","","","","","","","","","","","","","",""
"","S2","","html-keyboard-response","168","258940","0.0-1.0-220.0","0","0","99046","","null","","","null","24","","NaN","","","","","","","","","","","","","",""
"","response","","html-keyboard-response","169","259718","0.0-1.0-221.0-0.0","0","0","99046","","773","","","75","24","","","1","24","training","adjacent","CB","3","2","Q.jpg","R.jpg","0","0","1","",""
"","feedback","","html-keyboard-response","170","260725","0.0-1.0-222.0-0.0","0","0","99046","","null","","","null","24","","","","","","","","","","","","","","","",""
"","ITI","","html-keyboard-response","171","261731","0.0-1.0-225.0","0","0","99046","","null","","","null","24","","","","","","","","","","","","","","","NaN",""
"","S1","","html-keyboard-response","172","261989","0.0-1.0-227.0","0","0","99046","","null","","","null","25","","","","","","","","","","","","","","","",""
"","ISI","","html-keyboard-response","173","262144","0.0-1.0-228.0","0","0","99046","","null","","","null","25","NaN","","","","","","","","","","","","","","",""
"","S2","","html-keyboard-response","174","262401","0.0-1.0-229.0","0","0","99046","","null","","","null","25","","NaN","","","","","","","","","","","","","",""
"","response","","html-keyboard-response","175","262904","0.0-1.0-230.0-0.0","0","0","99046","","498","","","68","25","","","1","25","training","adjacent","GF","7","6","N.jpg","O.jpg","1","0","0","",""
"","feedback","","html-keyboard-response","176","263912","0.0-1.0-231.0-0.0","0","0","99046","","null","","","null","25","","","","","","","","","","","","","","","",""
"","time_out","","html-keyboard-response","177","265918","0.0-1.0-233.0-0.0","0","0","99046","","null","","","null","25","","","","","","","","","","","","","","","",""
"","ITI","","html-keyboard-response","178","266925","0.0-1.0-234.0","0","0","99046","","null","","","null","25","","","","","","","","","","","","","","","NaN",""
"","S1","","html-keyboard-response","179","267181","0.0-1.0-236.0","0","0","99046","","null","","","null","26","","","","","","","","","","","","","","","",""
"","ISI","","html-keyboard-response","180","267337","0.0-1.0-237.0","0","0","99046","","null","","","null","26","NaN","","","","","","","","","","","","","","",""
"","S2","","html-keyboard-response","181","267594","0.0-1.0-238.0","0","0","99046","","null","","","null","26","","NaN","","","","","","","","","","","","","",""
"","response","","html-keyboard-response","182","268313","0.0-1.0-239.0-0.0","0","0","99046","","714","","","75","26","","","1","26","training","adjacent","DC","4","3","P.jpg","Q.jpg","0","0","1","",""
"","feedback","","html-keyboard-response","183","269320","0.0-1.0-240.0-0.0","0","0","99046","","null","","","null","26","","","","","","","","","","","","","","","",""
"","ITI","","html-keyboard-response","184","270326","0.0-1.0-243.0","0","0","99046","","null","","","null","26","","","","","","","","","","","","","","","NaN",""
"","S1","","html-keyboard-response","185","270583","0.0-1.0-245.0","0","0","99046","","null","","","null","27","","","","","","","","","","","","","","","",""
"","ISI","","html-keyboard-response","186","270739","0.0-1.0-246.0","0","0","99046","","null","","","null","27","NaN","","","","","","","","","","","","","","",""
"","S2","","html-keyboard-response","187","270995","0.0-1.0-247.0","0","0","99046","","null","","","null","27","","NaN","","","","","","","","","","","","","",""
"","response","","html-keyboard-response","188","271427","0.0-1.0-248.0-0.0","0","0","99046","","426","","","75","27","","","1","27","training","adjacent","CD","3","4","Q.jpg","P.jpg","0","1","0","",""
"","feedback","","html-keyboard-response","189","272434","0.0-1.0-249.0-0.0","0","0","99046","","null","","","null","27","","","","","","","","","","","","","","","",""
"","time_out","","html-keyboard-response","190","274441","0.0-1.0-251.0-0.0","0","0","99046","","null","","","null","27","","","","","","","","","","","","","","","",""
"","ITI","","html-keyboard-response","191","275448","0.0-1.0-252.0","0","0","99046","","null","","","null","27","","","","","","","","","","","","","","","NaN",""
"","S1","","html-keyboard-response","192","275704","0.0-1.0-254.0","0","0","99046","","null","","","null","28","","","","","","","","","","","","","","","",""
"","ISI","","html-keyboard-response","193","275860","0.0-1.0-255.0","0","0","99046","","null","","","null","28","NaN","","","","","","","","","","","","","","",""
"","S2","","html-keyboard-response","194","276117","0.0-1.0-256.0","0","0","99046","","null","","","null","28","","NaN","","","","","","","","","","","","","",""
"","response","","html-keyboard-response","195","276838","0.0-1.0-257.0-0.0","0","0","99046","","716","","","75","28","","","1","28","training","adjacent","BC","2","3","R.jpg","Q.jpg","0","1","0","",""
"","feedback","","html-keyboard-response","196","277845","0.0-1.0-258.0-0.0","0","0","99046","","null","","","null","28","","","","","","","","","","","","","","","",""
"","time_out","","html-keyboard-response","197","279852","0.0-1.0-260.0-0.0","0","0","99046","","null","","","null","28","","","","","","","","","","","","","","","",""
"","ITI","","html-keyboard-response","198","280858","0.0-1.0-261.0","0","0","99046","","null","","","null","28","","","","","","","","","","","","","","","NaN",""
"","S1","","html-keyboard-response","199","281114","0.0-1.0-263.0","0","0","99046","","null","","","null","29","","","","","","","","","","","","","","","",""
"","ISI","","html-keyboard-response","200","281270","0.0-1.0-264.0","0","0","99046","","null","","","null","29","NaN","","","","","","","","","","","","","","",""
"","S2","","html-keyboard-response","201","281527","0.0-1.0-265.0","0","0","99046","","null","","","null","29","","NaN","","","","","","","","","","","","","",""
"","response","","html-keyboard-response","202","282152","0.0-1.0-266.0-0.0","0","0","99046","","619","","","68","29","","","1","29","training","adjacent","ED","5","4","L.jpg","P.jpg","1","0","0","",""
"","feedback","","html-keyboard-response","203","283160","0.0-1.0-267.0-0.0","0","0","99046","","null","","","null","29","","","","","","","","","","","","","","","",""
"","time_out","","html-keyboard-response","204","285166","0.0-1.0-269.0-0.0","0","0","99046","","null","","","null","29","","","","","","","","","","","","","","","",""
"","ITI","","html-keyboard-response","205","286173","0.0-1.0-270.0","0","0","99046","","null","","","null","29","","","","","","","","","","","","","","","NaN",""
"","S1","","html-keyboard-response","206","286431","0.0-1.0-272.0","0","0","99046","","null","","","null","30","","","","","","","","","","","","","","","",""
"","ISI","","html-keyboard-response","207","286586","0.0-1.0-273.0","0","0","99046","","null","","","null","30","NaN","","","","","","","","","","","","","","",""
"","S2","","html-keyboard-response","208","286843","0.0-1.0-274.0","0","0","99046","","null","","","null","30","","NaN","","","","","","","","","","","","","",""
"","response","","html-keyboard-response","209","287455","0.0-1.0-275.0-0.0","0","0","99046","","606","","","75","30","","","1","30","training","adjacent","BA","2","1","R.jpg","M.jpg","0","0","1","",""
"","feedback","","html-keyboard-response","210","288463","0.0-1.0-276.0-0.0","0","0","99046","","null","","","null","30","","","","","","","","","","","","","","","",""
"","ITI","","html-keyboard-response","211","289470","0.0-1.0-279.0","0","0","99046","","null","","","null","30","","","","","","","","","","","","","","","NaN",""
"","S1","","html-keyboard-response","212","289728","0.0-1.0-281.0","0","0","99046","","null","","","null","31","","","","","","","","","","","","","","","",""
"","ISI","","html-keyboard-response","213","289884","0.0-1.0-282.0","0","0","99046","","null","","","null","31","NaN","","","","","","","","","","","","","","",""
"","S2","","html-keyboard-response","214","290141","0.0-1.0-283.0","0","0","99046","","null","","","null","31","","NaN","","","","","","","","","","","","","",""
"","response","","html-keyboard-response","215","290545","0.0-1.0-284.0-0.0","0","0","99046","","399","","","75","31","","","1","31","training","adjacent","DE","4","5","P.jpg","L.jpg","0","1","0","",""
"","feedback","","html-keyboard-response","216","291552","0.0-1.0-285.0-0.0","0","0","99046","","null","","","null","31","","","","","","","","","","","","","","","",""
"","time_out","","html-keyboard-response","217","293559","0.0-1.0-287.0-0.0","0","0","99046","","null","","","null","31","","","","","","","","","","","","","","","",""
"","ITI","","html-keyboard-response","218","294564","0.0-1.0-288.0","0","0","99046","","null","","","null","31","","","","","","","","","","","","","","","NaN",""
"","S1","","html-keyboard-response","219","294821","0.0-1.0-290.0","0","0","99046","","null","","","null","32","","","","","","","","","","","","","","","",""
"","ISI","","html-keyboard-response","220","294978","0.0-1.0-291.0","0","0","99046","","null","","","null","32","NaN","","","","","","","","","","","","","","",""
"","S2","","html-keyboard-response","221","295234","0.0-1.0-292.0","0","0","99046","","null","","","null","32","","NaN","","","","","","","","","","","","","",""
"","response","","html-keyboard-response","222","296262","0.0-1.0-293.0-0.0","0","0","99046","","1022","","","68","32","","","1","32","training","adjacent","FG","6","7","O.jpg","N.jpg","1","1","1","",""
"","feedback","","html-keyboard-response","223","297270","0.0-1.0-294.0-0.0","0","0","99046","","null","","","null","32","","","","","","","","","","","","","","","",""
"","ITI","","html-keyboard-response","224","298277","0.0-1.0-297.0","0","0","99046","","null","","","null","32","","","","","","","","","","","","","","","NaN",""
"","S1","","html-keyboard-response","225","298534","0.0-1.0-299.0","0","0","99046","","null","","","null","33","","","","","","","","","","","","","","","",""
"","ISI","","html-keyboard-response","226","298691","0.0-1.0-300.0","0","0","99046","","null","","","null","33","NaN","","","","","","","","","","","","","","",""
"","S2","","html-keyboard-response","227","298955","0.0-1.0-301.0","0","0","99046","","null","","","null","33","","NaN","","","","","","","","","","","","","",""
"","response","","html-keyboard-response","228","299359","0.0-1.0-302.0-0.0","0","0","99046","","398","","","75","33","","","1","33","training","adjacent","CD","3","4","Q.jpg","P.jpg","0","1","0","",""
"","feedback","","html-keyboard-response","229","300367","0.0-1.0-303.0-0.0","0","0","99046","","null","","","null","33","","","","","","","","","","","","","","","",""
"","time_out","","html-keyboard-response","230","302373","0.0-1.0-305.0-0.0","0","0","99046","","null","","","null","33","","","","","","","","","","","","","","","",""
"","ITI","","html-keyboard-response","231","303379","0.0-1.0-306.0","0","0","99046","","null","","","null","33","","","","","","","","","","","","","","","NaN",""
"","S1","","html-keyboard-response","232","303636","0.0-1.0-308.0","0","0","99046","","null","","","null","34","","","","","","","","","","","","","","","",""
"","ISI","","html-keyboard-response","233","303792","0.0-1.0-309.0","0","0","99046","","null","","","null","34","NaN","","","","","","","","","","","","","","",""
"","S2","","html-keyboard-response","234","304050","0.0-1.0-310.0","0","0","99046","","null","","","null","34","","NaN","","","","","","","","","","","","","",""
"","response","","html-keyboard-response","235","304511","0.0-1.0-311.0-0.0","0","0","99046","","456","","","75","34","","","1","34","training","adjacent","BA","2","1","R.jpg","M.jpg","0","0","1","",""
"","feedback","","html-keyboard-response","236","305518","0.0-1.0-312.0-0.0","0","0","99046","","null","","","null","34","","","","","","","","","","","","","","","",""
"","ITI","","html-keyboard-response","237","306525","0.0-1.0-315.0","0","0","99046","","null","","","null","34","","","","","","","","","","","","","","","NaN",""
"","S1","","html-keyboard-response","238","306782","0.0-1.0-317.0","0","0","99046","","null","","","null","35","","","","","","","","","","","","","","","",""
"","ISI","","html-keyboard-response","239","306940","0.0-1.0-318.0","0","0","99046","","null","","","null","35","NaN","","","","","","","","","","","","","","",""
"","S2","","html-keyboard-response","240","307196","0.0-1.0-319.0","0","0","99046","","null","","","null","35","","NaN","","","","","","","","","","","","","",""
"","response","","html-keyboard-response","241","307657","0.0-1.0-320.0-0.0","0","0","99046","","454","","","68","35","","","1","35","training","adjacent","CB","3","2","Q.jpg","R.jpg","1","0","0","",""
"","feedback","","html-keyboard-response","242","308666","0.0-1.0-321.0-0.0","0","0","99046","","null","","","null","35","","","","","","","","","","","","","","","",""
"","time_out","","html-keyboard-response","243","310672","0.0-1.0-323.0-0.0","0","0","99046","","null","","","null","35","","","","","","","","","","","","","","","",""
"","ITI","","html-keyboard-response","244","311678","0.0-1.0-324.0","0","0","99046","","null","","","null","35","","","","","","","","","","","","","","","NaN",""
"","S1","","html-keyboard-response","245","311935","0.0-1.0-326.0","0","0","99046","","null","","","null","36","","","","","","","","","","","","","","","",""
"","ISI","","html-keyboard-response","246","312091","0.0-1.0-327.0","0","0","99046","","null","","","null","36","NaN","","","","","","","","","","","","","","",""
"","S2","","html-keyboard-response","247","312349","0.0-1.0-328.0","0","0","99046","","null","","","null","36","","NaN","","","","","","","","","","","","","",""
"","response","","html-keyboard-response","248","312799","0.0-1.0-329.0-0.0","0","0","99046","","445","","","75","36","","","1","36","training","adjacent","DC","4","3","P.jpg","Q.jpg","0","0","1","",""
"","feedback","","html-keyboard-response","249","313807","0.0-1.0-330.0-0.0","0","0","99046","","null","","","null","36","","","","","","","","","","","","","","","",""
"","ITI","","html-keyboard-response","250","314813","0.0-1.0-333.0","0","0","99046","","null","","","null","36","","","","","","","","","","","","","","","NaN",""
"","S1","","html-keyboard-response","251","315070","0.0-1.0-335.0","0","0","99046","","null","","","null","37","","","","","","","","","","","","","","","",""
"","ISI","","html-keyboard-response","252","315226","0.0-1.0-336.0","0","0","99046","","null","","","null","37","NaN","","","","","","","","","","","","","","",""
"","S2","","html-keyboard-response","253","315483","0.0-1.0-337.0","0","0","99046","","null","","","null","37","","NaN","","","","","","","","","","","","","",""
"","response","","html-keyboard-response","254","315812","0.0-1.0-338.0-0.0","0","0","99046","","324","","","75","37","","","1","37","training","adjacent","EF","5","6","L.jpg","O.jpg","0","1","0","",""
"","feedback","","html-keyboard-response","255","316819","0.0-1.0-339.0-0.0","0","0","99046","","null","","","null","37","","","","","","","","","","","","","","","",""
"","time_out","","html-keyboard-response","256","318826","0.0-1.0-341.0-0.0","0","0","99046","","null","","","null","37","","","","","","","","","","","","","","","",""
"","ITI","","html-keyboard-response","257","319832","0.0-1.0-342.0","0","0","99046","","null","","","null","37","","","","","","","","","","","","","","","NaN",""
"","S1","","html-keyboard-response","258","320090","0.0-1.0-344.0","0","0","99046","","null","","","null","38","","","","","","","","","","","","","","","",""
"","ISI","","html-keyboard-response","259","320247","0.0-1.0-345.0","0","0","99046","","null","","","null","38","NaN","","","","","","","","","","","","","","",""
"","S2","","html-keyboard-response","260","320503","0.0-1.0-346.0","0","0","99046","","null","","","null","38","","NaN","","","","","","","","","","","","","",""
"","response","","html-keyboard-response","261","321239","0.0-1.0-347.0-0.0","0","0","99046","","730","","","68","38","","","1","38","training","adjacent","FE","6","5","O.jpg","L.jpg","1","0","0","",""
"","feedback","","html-keyboard-response","262","322247","0.0-1.0-348.0-0.0","0","0","99046","","null","","","null","38","","","","","","","","","","","","","","","",""
"","time_out","","html-keyboard-response","263","324253","0.0-1.0-350.0-0.0","0","0","99046","","null","","","null","38","","","","","","","","","","","","","","","",""
"","ITI","","html-keyboard-response","264","325260","0.0-1.0-351.0","0","0","99046","","null","","","null","38","","","","","","","","","","","","","","","NaN",""
"","S1","","html-keyboard-response","265","325516","0.0-1.0-353.0","0","0","99046","","null","","","null","39","","","","","","","","","","","","","","","",""
"","ISI","","html-keyboard-response","266","325672","0.0-1.0-354.0","0","0","99046","","null","","","null","39","NaN","","","","","","","","","","","","","","",""
"","S2","","html-keyboard-response","267","325929","0.0-1.0-355.0","0","0","99046","","null","","","null","39","","NaN","","","","","","","","","","","","","",""
"","response","","html-keyboard-response","268","326339","0.0-1.0-356.0-0.0","0","0","99046","","404","","","68","39","","","1","39","training","adjacent","AB","1","2","M.jpg","R.jpg","1","1","1","",""
"","feedback","","html-keyboard-response","269","327347","0.0-1.0-357.0-0.0","0","0","99046","","null","","","null","39","","","","","","","","","","","","","","","",""
"","ITI","","html-keyboard-response","270","328354","0.0-1.0-360.0","0","0","99046","","null","","","null","39","","","","","","","","","","","","","","","NaN",""
"","S1","","html-keyboard-response","271","328610","0.0-1.0-362.0","0","0","99046","","null","","","null","40","","","","","","","","","","","","","","","",""
"","ISI","","html-keyboard-response","272","328766","0.0-1.0-363.0","0","0","99046","","null","","","null","40","NaN","","","","","","","","","","","","","","",""
"","S2","","html-keyboard-response","273","329023","0.0-1.0-364.0","0","0","99046","","null","","","null","40","","NaN","","","","","","","","","","","","","",""
"","response","","html-keyboard-response","274","329392","0.0-1.0-365.0-0.0","0","0","99046","","363","","","68","40","","","1","40","training","adjacent","ED","5","4","L.jpg","P.jpg","1","0","0","",""
"","feedback","","html-keyboard-response","275","330400","0.0-1.0-366.0-0.0","0","0","99046","","null","","","null","40","","","","","","","","","","","","","","","",""
"","time_out","","html-keyboard-response","276","332407","0.0-1.0-368.0-0.0","0","0","99046","","null","","","null","40","","","","","","","","","","","","","","","",""
"","ITI","","html-keyboard-response","277","333413","0.0-1.0-369.0","0","0","99046","","null","","","null","40","","","","","","","","","","","","","","","NaN",""
"","S1","","html-keyboard-response","278","333670","0.0-1.0-371.0","0","0","99046","","null","","","null","41","","","","","","","","","","","","","","","",""
"","ISI","","html-keyboard-response","279","333826","0.0-1.0-372.0","0","0","99046","","null","","","null","41","NaN","","","","","","","","","","","","","","",""
"","S2","","html-keyboard-response","280","334083","0.0-1.0-373.0","0","0","99046","","null","","","null","41","","NaN","","","","","","","","","","","","","",""
"","response","","html-keyboard-response","281","334526","0.0-1.0-374.0-0.0","0","0","99046","","437","","","75","41","","","1","41","training","adjacent","FG","6","7","O.jpg","N.jpg","0","1","0","",""
"","feedback","","html-keyboard-response","282","335533","0.0-1.0-375.0-0.0","0","0","99046","","null","","","null","41","","","","","","","","","","","","","","","",""
"","time_out","","html-keyboard-response","283","337540","0.0-1.0-377.0-0.0","0","0","99046","","null","","","null","41","","","","","","","","","","","","","","","",""
"","ITI","","html-keyboard-response","284","338546","0.0-1.0-378.0","0","0","99046","","null","","","null","41","","","","","","","","","","","","","","","NaN",""
"","S1","","html-keyboard-response","285","338802","0.0-1.0-380.0","0","0","99046","","null","","","null","42","","","","","","","","","","","","","","","",""
"","ISI","","html-keyboard-response","286","338959","0.0-1.0-381.0","0","0","99046","","null","","","null","42","NaN","","","","","","","","","","","","","","",""
"","S2","","html-keyboard-response","287","339216","0.0-1.0-382.0","0","0","99046","","null","","","null","42","","NaN","","","","","","","","","","","","","",""
"","response","","html-keyboard-response","288","339759","0.0-1.0-383.0-0.0","0","0","99046","","537","","","75","42","","","1","42","training","adjacent","FE","6","5","O.jpg","L.jpg","0","0","1","",""
"","feedback","","html-keyboard-response","289","340766","0.0-1.0-384.0-0.0","0","0","99046","","null","","","null","42","","","","","","","","","","","","","","","",""
"","ITI","","html-keyboard-response","290","341773","0.0-1.0-387.0","0","0","99046","","null","","","null","42","","","","","","","","","","","","","","","NaN",""
"","S1","","html-keyboard-response","291","342030","0.0-1.0-389.0","0","0","99046","","null","","","null","43","","","","","","","","","","","","","","","",""
"","ISI","","html-keyboard-response","292","342186","0.0-1.0-390.0","0","0","99046","","null","","","null","43","NaN","","","","","","","","","","","","","","",""
"","S2","","html-keyboard-response","293","342444","0.0-1.0-391.0","0","0","99046","","null","","","null","43","","NaN","","","","","","","","","","","","","",""
"","response","","html-keyboard-response","294","342747","0.0-1.0-392.0-0.0","0","0","99046","","297","","","68","43","","","1","43","training","adjacent","AB","1","2","M.jpg","R.jpg","1","1","1","",""
"","feedback","","html-keyboard-response","295","343761","0.0-1.0-393.0-0.0","0","0","99046","","null","","","null","43","","","","","","","","","","","","","","","",""
"","ITI","","html-keyboard-response","296","344769","0.0-1.0-396.0","0","0","99046","","null","","","null","43","","","","","","","","","","","","","","","NaN",""
"","S1","","html-keyboard-response","297","345026","0.0-1.0-398.0","0","0","99046","","null","","","null","44","","","","","","","","","","","","","","","",""
"","ISI","","html-keyboard-response","298","345183","0.0-1.0-399.0","0","0","99046","","null","","","null","44","NaN","","","","","","","","","","","","","","",""
"","S2","","html-keyboard-response","299","345440","0.0-1.0-400.0","0","0","99046","","null","","","null","44","","NaN","","","","","","","","","","","","","",""
"","response","","html-keyboard-response","300","345818","0.0-1.0-401.0-0.0","0","0","99046","","371","","","68","44","","","1","44","training","adjacent","EF","5","6","L.jpg","O.jpg","1","1","1","",""
"","feedback","","html-keyboard-response","301","346825","0.0-1.0-402.0-0.0","0","0","99046","","null","","","null","44","","","","","","","","","","","","","","","",""
"","ITI","","html-keyboard-response","302","347832","0.0-1.0-405.0","0","0","99046","","null","","","null","44","","","","","","","","","","","","","","","NaN",""
"","S1","","html-keyboard-response","303","348089","0.0-1.0-407.0","0","0","99046","","null","","","null","45","","","","","","","","","","","","","","","",""
"","ISI","","html-keyboard-response","304","348245","0.0-1.0-408.0","0","0","99046","","null","","","null","45","NaN","","","","","","","","","","","","","","",""
"","S2","","html-keyboard-response","305","348502","0.0-1.0-409.0","0","0","99046","","null","","","null","45","","NaN","","","","","","","","","","","","","",""
"","response","","html-keyboard-response","306","348970","0.0-1.0-410.0-0.0","0","0","99046","","463","","","75","45","","","1","45","training","adjacent","GF","7","6","N.jpg","O.jpg","0","0","1","",""
"","feedback","","html-keyboard-response","307","349977","0.0-1.0-411.0-0.0","0","0","99046","","null","","","null","45","","","","","","","","","","","","","","","",""
"","ITI","","html-keyboard-response","308","350984","0.0-1.0-414.0","0","0","99046","","null","","","null","45","","","","","","","","","","","","","","","NaN",""
"","S1","","html-keyboard-response","309","351241","0.0-1.0-416.0","0","0","99046","","null","","","null","46","","","","","","","","","","","","","","","",""
"","ISI","","html-keyboard-response","310","351397","0.0-1.0-417.0","0","0","99046","","null","","","null","46","NaN","","","","","","","","","","","","","","",""
"","S2","","html-keyboard-response","311","351655","0.0-1.0-418.0","0","0","99046","","null","","","null","46","","NaN","","","","","","","","","","","","","",""
"","response","","html-keyboard-response","312","352039","0.0-1.0-419.0-0.0","0","0","99046","","379","","","68","46","","","1","46","training","adjacent","BC","2","3","R.jpg","Q.jpg","1","1","1","",""
"","feedback","","html-keyboard-response","313","353047","0.0-1.0-420.0-0.0","0","0","99046","","null","","","null","46","","","","","","","","","","","","","","","",""
"","ITI","","html-keyboard-response","314","354055","0.0-1.0-423.0","0","0","99046","","null","","","null","46","","","","","","","","","","","","","","","NaN",""
"","S1","","html-keyboard-response","315","354312","0.0-1.0-425.0","0","0","99046","","null","","","null","47","","","","","","","","","","","","","","","",""
"","ISI","","html-keyboard-response","316","354469","0.0-1.0-426.0","0","0","99046","","null","","","null","47","NaN","","","","","","","","","","","","","","",""
"","S2","","html-keyboard-response","317","354726","0.0-1.0-427.0","0","0","99046","","null","","","null","47","","NaN","","","","","","","","","","","","","",""
"","response","","html-keyboard-response","318","355003","0.0-1.0-428.0-0.0","0","0","99046","","271","","","68","47","","","1","47","training","adjacent","AB","1","2","M.jpg","R.jpg","1","1","1","",""
"","feedback","","html-keyboard-response","319","356009","0.0-1.0-429.0-0.0","0","0","99046","","null","","","null","47","","","","","","","","","","","","","","","",""
"","ITI","","html-keyboard-response","320","357017","0.0-1.0-432.0","0","0","99046","","null","","","null","47","","","","","","","","","","","","","","","NaN",""
"","block_over","","html-keyboard-response","321","363359","0.0-1.0-433.0-0.0","0","0","99046","","6333","","","32","47","","","","","","","","","","","","","","","",""
"","S1","","html-keyboard-response","322","363616","0.0-1.0-434.0","0","0","99046","","null","","","null","48","","","","","","","","","","","","","","","",""
"","ISI","","html-keyboard-response","323","363772","0.0-1.0-435.0","0","0","99046","","null","","","null","48","NaN","","","","","","","","","","","","","","",""
"","S2","","html-keyboard-response","324","364029","0.0-1.0-436.0","0","0","99046","","null","","","null","48","","NaN","","","","","","","","","","","","","",""
"","response","","html-keyboard-response","325","364570","0.0-1.0-437.0-0.0","0","0","99046","","535","","","68","48","","","2","48","training","adjacent","ED","5","4","L.jpg","P.jpg","1","0","0","",""
"","feedback","","html-keyboard-response","326","365577","0.0-1.0-438.0-0.0","0","0","99046","","null","","","null","48","","","","","","","","","","","","","","","",""
"","time_out","","html-keyboard-response","327","367584","0.0-1.0-440.0-0.0","0","0","99046","","null","","","null","48","","","","","","","","","","","","","","","",""
"","ITI","","html-keyboard-response","328","368590","0.0-1.0-441.0","0","0","99046","","null","","","null","48","","","","","","","","","","","","","","","NaN",""
"","S1","","html-keyboard-response","329","368847","0.0-1.0-443.0","0","0","99046","","null","","","null","49","","","","","","","","","","","","","","","",""
"","ISI","","html-keyboard-response","330","369003","0.0-1.0-444.0","0","0","99046","","null","","","null","49","NaN","","","","","","","","","","","","","","",""
"","S2","","html-keyboard-response","331","369260","0.0-1.0-445.0","0","0","99046","","null","","","null","49","","NaN","","","","","","","","","","","","","",""
"","response","","html-keyboard-response","332","369726","0.0-1.0-446.0-0.0","0","0","99046","","460","","","68","49","","","2","49","training","adjacent","FG","6","7","O.jpg","N.jpg","1","1","1","",""
"","feedback","","html-keyboard-response","333","370734","0.0-1.0-447.0-0.0","0","0","99046","","null","","","null","49","","","","","","","","","","","","","","","",""
"","ITI","","html-keyboard-response","334","371740","0.0-1.0-450.0","0","0","99046","","null","","","null","49","","","","","","","","","","","","","","","NaN",""
"","S1","","html-keyboard-response","335","371997","0.0-1.0-452.0","0","0","99046","","null","","","null","50","","","","","","","","","","","","","","","",""
"","ISI","","html-keyboard-response","336","372153","0.0-1.0-453.0","0","0","99046","","null","","","null","50","NaN","","","","","","","","","","","","","","",""
"","S2","","html-keyboard-response","337","372410","0.0-1.0-454.0","0","0","99046","","null","","","null","50","","NaN","","","","","","","","","","","","","",""
"","response","","html-keyboard-response","338","372828","0.0-1.0-455.0-0.0","0","0","99046","","411","","","75","50","","","2","50","training","adjacent","FE","6","5","O.jpg","L.jpg","0","0","1","",""
"","feedback","","html-keyboard-response","339","373835","0.0-1.0-456.0-0.0","0","0","99046","","null","","","null","50","","","","","","","","","","","","","","","",""
"","ITI","","html-keyboard-response","340","374842","0.0-1.0-459.0","0","0","99046","","null","","","null","50","","","","","","","","","","","","","","","NaN",""
"","S1","","html-keyboard-response","341","375099","0.0-1.0-461.0","0","0","99046","","null","","","null","51","","","","","","","","","","","","","","","",""
"","ISI","","html-keyboard-response","342","375256","0.0-1.0-462.0","0","0","99046","","null","","","null","51","NaN","","","","","","","","","","","","","","",""
"","S2","","html-keyboard-response","343","375514","0.0-1.0-463.0","0","0","99046","","null","","","null","51","","NaN","","","","","","","","","","","","","",""
"","response","","html-keyboard-response","344","375759","0.0-1.0-464.0-0.0","0","0","99046","","238","","","68","51","","","2","51","training","adjacent","AB","1","2","M.jpg","R.jpg","1","1","1","",""
"","feedback","","html-keyboard-response","345","376766","0.0-1.0-465.0-0.0","0","0","99046","","null","","","null","51","","","","","","","","","","","","","","","",""
"","ITI","","html-keyboard-response","346","377773","0.0-1.0-468.0","0","0","99046","","null","","","null","51","","","","","","","","","","","","","","","NaN",""
"","S1","","html-keyboard-response","347","378030","0.0-1.0-470.0","0","0","99046","","null","","","null","52","","","","","","","","","","","","","","","",""
"","ISI","","html-keyboard-response","348","378186","0.0-1.0-471.0","0","0","99046","","null","","","null","52","NaN","","","","","","","","","","","","","","",""
"","S2","","html-keyboard-response","349","378444","0.0-1.0-472.0","0","0","99046","","null","","","null","52","","NaN","","","","","","","","","","","","","",""
"","response","","html-keyboard-response","350","378769","0.0-1.0-473.0-0.0","0","0","99046","","319","","","75","52","","","2","52","training","adjacent","GF","7","6","N.jpg","O.jpg","0","0","1","",""
"","feedback","","html-keyboard-response","351","379777","0.0-1.0-474.0-0.0","0","0","99046","","null","","","null","52","","","","","","","","","","","","","","","",""
"","ITI","","html-keyboard-response","352","380783","0.0-1.0-477.0","0","0","99046","","null","","","null","52","","","","","","","","","","","","","","","NaN",""
"","S1","","html-keyboard-response","353","381040","0.0-1.0-479.0","0","0","99046","","null","","","null","53","","","","","","","","","","","","","","","",""
"","ISI","","html-keyboard-response","354","381196","0.0-1.0-480.0","0","0","99046","","null","","","null","53","NaN","","","","","","","","","","","","","","",""
"","S2","","html-keyboard-response","355","381453","0.0-1.0-481.0","0","0","99046","","null","","","null","53","","NaN","","","","","","","","","","","","","",""
"","response","","html-keyboard-response","356","381790","0.0-1.0-482.0-0.0","0","0","99046","","331","","","68","53","","","2","53","training","adjacent","ED","5","4","L.jpg","P.jpg","1","0","0","",""
"","feedback","","html-keyboard-response","357","382797","0.0-1.0-483.0-0.0","0","0","99046","","null","","","null","53","","","","","","","","","","","","","","","",""
"","time_out","","html-keyboard-response","358","384805","0.0-1.0-485.0-0.0","0","0","99046","","null","","","null","53","","","","","","","","","","","","","","","",""
"","ITI","","html-keyboard-response","359","385812","0.0-1.0-486.0","0","0","99046","","null","","","null","53","","","","","","","","","","","","","","","NaN",""
"","S1","","html-keyboard-response","360","386070","0.0-1.0-488.0","0","0","99046","","null","","","null","54","","","","","","","","","","","","","","","",""
"","ISI","","html-keyboard-response","361","386238","0.0-1.0-489.0","0","0","99046","","null","","","null","54","NaN","","","","","","","","","","","","","","",""
"","S2","","html-keyboard-response","362","386494","0.0-1.0-490.0","0","0","99046","","null","","","null","54","","NaN","","","","","","","","","","","","","",""
"","response","","html-keyboard-response","363","386832","0.0-1.0-491.0-0.0","0","0","99046","","333","","","75","54","","","2","54","training","adjacent","CB","3","2","Q.jpg","R.jpg","0","0","1","",""
"","feedback","","html-keyboard-response","364","387839","0.0-1.0-492.0-0.0","0","0","99046","","null","","","null","54","","","","","","","","","","","","","","","",""
"","ITI","","html-keyboard-response","365","388846","0.0-1.0-495.0","0","0","99046","","null","","","null","54","","","","","","","","","","","","","","","NaN",""
"","S1","","html-keyboard-response","366","389103","0.0-1.0-497.0","0","0","99046","","null","","","null","55","","","","","","","","","","","","","","","",""
"","ISI","","html-keyboard-response","367","389259","0.0-1.0-498.0","0","0","99046","","null","","","null","55","NaN","","","","","","","","","","","","","","",""
"","S2","","html-keyboard-response","368","389517","0.0-1.0-499.0","0","0","99046","","null","","","null","55","","NaN","","","","","","","","","","","","","",""
"","response","","html-keyboard-response","369","389949","0.0-1.0-500.0-0.0","0","0","99046","","426","","","68","55","","","2","55","training","adjacent","CD","3","4","Q.jpg","P.jpg","1","1","1","",""
"","feedback","","html-keyboard-response","370","390956","0.0-1.0-501.0-0.0","0","0","99046","","null","","","null","55","","","","","","","","","","","","","","","",""
"","ITI","","html-keyboard-response","371","391963","0.0-1.0-504.0","0","0","99046","","null","","","null","55","","","","","","","","","","","","","","","NaN",""
"","S1","","html-keyboard-response","372","392221","0.0-1.0-506.0","0","0","99046","","null","","","null","56","","","","","","","","","","","","","","","",""
"","ISI","","html-keyboard-response","373","392377","0.0-1.0-507.0","0","0","99046","","null","","","null","56","NaN","","","","","","","","","","","","","","",""
"","S2","","html-keyboard-response","374","392635","0.0-1.0-508.0","0","0","99046","","null","","","null","56","","NaN","","","","","","","","","","","","","",""
"","response","","html-keyboard-response","375","393134","0.0-1.0-509.0-0.0","0","0","99046","","494","","","68","56","","","2","56","training","adjacent","CD","3","4","Q.jpg","P.jpg","1","1","1","",""
"","feedback","","html-keyboard-response","376","394142","0.0-1.0-510.0-0.0","0","0","99046","","null","","","null","56","","","","","","","","","","","","","","","",""
"","ITI","","html-keyboard-response","377","395149","0.0-1.0-513.0","0","0","99046","","null","","","null","56","","","","","","","","","","","","","","","NaN",""
"","S1","","html-keyboard-response","378","395405","0.0-1.0-515.0","0","0","99046","","null","","","null","57","","","","","","","","","","","","","","","",""
"","ISI","","html-keyboard-response","379","395562","0.0-1.0-516.0","0","0","99046","","null","","","null","57","NaN","","","","","","","","","","","","","","",""
"","S2","","html-keyboard-response","380","395818","0.0-1.0-517.0","0","0","99046","","null","","","null","57","","NaN","","","","","","","","","","","","","",""
"","response","","html-keyboard-response","381","396265","0.0-1.0-518.0-0.0","0","0","99046","","441","","","75","57","","","2","57","training","adjacent","DC","4","3","P.jpg","Q.jpg","0","0","1","",""
"","feedback","","html-keyboard-response","382","397272","0.0-1.0-519.0-0.0","0","0","99046","","null","","","null","57","","","","","","","","","","","","","","","",""
"","ITI","","html-keyboard-response","383","398279","0.0-1.0-522.0","0","0","99046","","null","","","null","57","","","","","","","","","","","","","","","NaN",""
"","S1","","html-keyboard-response","384","398536","0.0-1.0-524.0","0","0","99046","","null","","","null","58","","","","","","","","","","","","","","","",""
"","ISI","","html-keyboard-response","385","398692","0.0-1.0-525.0","0","0","99046","","null","","","null","58","NaN","","","","","","","","","","","","","","",""
"","S2","","html-keyboard-response","386","398949","0.0-1.0-526.0","0","0","99046","","null","","","null","58","","NaN","","","","","","","","","","","","","",""
"","response","","html-keyboard-response","387","399233","0.0-1.0-527.0-0.0","0","0","99046","","279","","","68","58","","","2","58","training","adjacent","EF","5","6","L.jpg","O.jpg","1","1","1","",""
"","feedback","","html-keyboard-response","388","400242","0.0-1.0-528.0-0.0","0","0","99046","","null","","","null","58","","","","","","","","","","","","","","","",""
"","ITI","","html-keyboard-response","389","401249","0.0-1.0-531.0","0","0","99046","","null","","","null","58","","","","","","","","","","","","","","","NaN",""
"","S1","","html-keyboard-response","390","401506","0.0-1.0-533.0","0","0","99046","","null","","","null","59","","","","","","","","","","","","","","","",""
"","ISI","","html-keyboard-response","391","401664","0.0-1.0-534.0","0","0","99046","","null","","","null","59","NaN","","","","","","","","","","","","","","",""
"","S2","","html-keyboard-response","392","401921","0.0-1.0-535.0","0","0","99046","","null","","","null","59","","NaN","","","","","","","","","","","","","",""
"","response","","html-keyboard-response","393","402488","0.0-1.0-536.0-0.0","0","0","99046","","561","","","75","59","","","2","59","training","adjacent","FG","6","7","O.jpg","N.jpg","0","1","0","",""
"","feedback","","html-keyboard-response","394","403496","0.0-1.0-537.0-0.0","0","0","99046","","null","","","null","59","","","","","","","","","","","","","","","",""
"","time_out","","html-keyboard-response","395","405503","0.0-1.0-539.0-0.0","0","0","99046","","null","","","null","59","","","","","","","","","","","","","","","",""
"","ITI","","html-keyboard-response","396","406509","0.0-1.0-540.0","0","0","99046","","null","","","null","59","","","","","","","","","","","","","","","NaN",""
"","S1","","html-keyboard-response","397","406765","0.0-1.0-542.0","0","0","99046","","null","","","null","60","","","","","","","","","","","","","","","",""
"","ISI","","html-keyboard-response","398","406921","0.0-1.0-543.0","0","0","99046","","null","","","null","60","NaN","","","","","","","","","","","","","","",""
"","S2","","html-keyboard-response","399","407177","0.0-1.0-544.0","0","0","99046","","null","","","null","60","","NaN","","","","","","","","","","","","","",""
"","response","","html-keyboard-response","400","407943","0.0-1.0-545.0-0.0","0","0","99046","","760","","","75","60","","","2","60","training","adjacent","CB","3","2","Q.jpg","R.jpg","0","0","1","",""
"","feedback","","html-keyboard-response","401","408950","0.0-1.0-546.0-0.0","0","0","99046","","null","","","null","60","","","","","","","","","","","","","","","",""
"","ITI","","html-keyboard-response","402","409958","0.0-1.0-549.0","0","0","99046","","null","","","null","60","","","","","","","","","","","","","","","NaN",""
"","S1","","html-keyboard-response","403","410215","0.0-1.0-551.0","0","0","99046","","null","","","null","61","","","","","","","","","","","","","","","",""
"","ISI","","html-keyboard-response","404","410372","0.0-1.0-552.0","0","0","99046","","null","","","null","61","NaN","","","","","","","","","","","","","","",""
"","S2","","html-keyboard-response","405","410630","0.0-1.0-553.0","0","0","99046","","null","","","null","61","","NaN","","","","","","","","","","","","","",""
"","response","","html-keyboard-response","406","411338","0.0-1.0-554.0-0.0","0","0","99046","","703","","","75","61","","","2","61","training","adjacent","CB","3","2","Q.jpg","R.jpg","0","0","1","",""
"","feedback","","html-keyboard-response","407","412345","0.0-1.0-555.0-0.0","0","0","99046","","null","","","null","61","","","","","","","","","","","","","","","",""
"","ITI","","html-keyboard-response","408","413352","0.0-1.0-558.0","0","0","99046","","null","","","null","61","","","","","","","","","","","","","","","NaN",""
"","S1","","html-keyboard-response","409","413609","0.0-1.0-560.0","0","0","99046","","null","","","null","62","","","","","","","","","","","","","","","",""
"","ISI","","html-keyboard-response","410","413765","0.0-1.0-561.0","0","0","99046","","null","","","null","62","NaN","","","","","","","","","","","","","","",""
"","S2","","html-keyboard-response","411","414024","0.0-1.0-562.0","0","0","99046","","null","","","null","62","","NaN","","","","","","","","","","","","","",""
"","response","","html-keyboard-response","412","414257","0.0-1.0-563.0-0.0","0","0","99046","","228","","","68","62","","","2","62","training","adjacent","EF","5","6","L.jpg","O.jpg","1","1","1","",""
"","feedback","","html-keyboard-response","413","415264","0.0-1.0-564.0-0.0","0","0","99046","","null","","","null","62","","","","","","","","","","","","","","","",""
"","ITI","","html-keyboard-response","414","416271","0.0-1.0-567.0","0","0","99046","","null","","","null","62","","","","","","","","","","","","","","","NaN",""
"","S1","","html-keyboard-response","415","416529","0.0-1.0-569.0","0","0","99046","","null","","","null","63","","","","","","","","","","","","","","","",""
"","ISI","","html-keyboard-response","416","416685","0.0-1.0-570.0","0","0","99046","","null","","","null","63","NaN","","","","","","","","","","","","","","",""
"","S2","","html-keyboard-response","417","416942","0.0-1.0-571.0","0","0","99046","","null","","","null","63","","NaN","","","","","","","","","","","","","",""
"","response","","html-keyboard-response","418","417467","0.0-1.0-572.0-0.0","0","0","99046","","520","","","68","63","","","2","63","training","adjacent","CD","3","4","Q.jpg","P.jpg","1","1","1","",""
"","feedback","","html-keyboard-response","419","418474","0.0-1.0-573.0-0.0","0","0","99046","","null","","","null","63","","","","","","","","","","","","","","","",""
"","ITI","","html-keyboard-response","420","419481","0.0-1.0-576.0","0","0","99046","","null","","","null","63","","","","","","","","","","","","","","","NaN",""
"","S1","","html-keyboard-response","421","419739","0.0-1.0-578.0","0","0","99046","","null","","","null","64","","","","","","","","","","","","","","","",""
"","ISI","","html-keyboard-response","422","419896","0.0-1.0-579.0","0","0","99046","","null","","","null","64","NaN","","","","","","","","","","","","","","",""
"","S2","","html-keyboard-response","423","420153","0.0-1.0-580.0","0","0","99046","","null","","","null","64","","NaN","","","","","","","","","","","","","",""
"","response","","html-keyboard-response","424","420640","0.0-1.0-581.0-0.0","0","0","99046","","481","","","75","64","","","2","64","training","adjacent","CB","3","2","Q.jpg","R.jpg","0","0","1","",""
"","feedback","","html-keyboard-response","425","421647","0.0-1.0-582.0-0.0","0","0","99046","","null","","","null","64","","","","","","","","","","","","","","","",""
"","ITI","","html-keyboard-response","426","422654","0.0-1.0-585.0","0","0","99046","","null","","","null","64","","","","","","","","","","","","","","","NaN",""
"","S1","","html-keyboard-response","427","422911","0.0-1.0-587.0","0","0","99046","","null","","","null","65","","","","","","","","","","","","","","","",""
"","ISI","","html-keyboard-response","428","423067","0.0-1.0-588.0","0","0","99046","","null","","","null","65","NaN","","","","","","","","","","","","","","",""
"","S2","","html-keyboard-response","429","423323","0.0-1.0-589.0","0","0","99046","","null","","","null","65","","NaN","","","","","","","","","","","","","",""
"","response","","html-keyboard-response","430","423773","0.0-1.0-590.0-0.0","0","0","99046","","443","","","75","65","","","2","65","training","adjacent","FE","6","5","O.jpg","L.jpg","0","0","1","",""
"","feedback","","html-keyboard-response","431","424780","0.0-1.0-591.0-0.0","0","0","99046","","null","","","null","65","","","","","","","","","","","","","","","",""
"","ITI","","html-keyboard-response","432","425786","0.0-1.0-594.0","0","0","99046","","null","","","null","65","","","","","","","","","","","","","","","NaN",""
"","S1","","html-keyboard-response","433","426043","0.0-1.0-596.0","0","0","99046","","null","","","null","66","","","","","","","","","","","","","","","",""
"","ISI","","html-keyboard-response","434","426200","0.0-1.0-597.0","0","0","99046","","null","","","null","66","NaN","","","","","","","","","","","","","","",""
"","S2","","html-keyboard-response","435","426458","0.0-1.0-598.0","0","0","99046","","null","","","null","66","","NaN","","","","","","","","","","","","","",""
"","response","","html-keyboard-response","436","427307","0.0-1.0-599.0-0.0","0","0","99046","","842","","","68","66","","","2","66","training","adjacent","CD","3","4","Q.jpg","P.jpg","1","1","1","",""
"","feedback","","html-keyboard-response","437","428315","0.0-1.0-600.0-0.0","0","0","99046","","null","","","null","66","","","","","","","","","","","","","","","",""
"","ITI","","html-keyboard-response","438","429323","0.0-1.0-603.0","0","0","99046","","null","","","null","66","","","","","","","","","","","","","","","NaN",""
"","S1","","html-keyboard-response","439","429579","0.0-1.0-605.0","0","0","99046","","null","","","null","67","","","","","","","","","","","","","","","",""
"","ISI","","html-keyboard-response","440","429736","0.0-1.0-606.0","0","0","99046","","null","","","null","67","NaN","","","","","","","","","","","","","","",""
"","S2","","html-keyboard-response","441","429993","0.0-1.0-607.0","0","0","99046","","null","","","null","67","","NaN","","","","","","","","","","","","","",""
"","response","","html-keyboard-response","442","430317","0.0-1.0-608.0-0.0","0","0","99046","","319","","","75","67","","","2","67","training","adjacent","DE","4","5","P.jpg","L.jpg","0","1","0","",""
"","feedback","","html-keyboard-response","443","431334","0.0-1.0-609.0-0.0","0","0","99046","","null","","","null","67","","","","","","","","","","","","","","","",""
"","time_out","","html-keyboard-response","444","433341","0.0-1.0-611.0-0.0","0","0","99046","","null","","","null","67","","","","","","","","","","","","","","","",""
"","ITI","","html-keyboard-response","445","434347","0.0-1.0-612.0","0","0","99046","","null","","","null","67","","","","","","","","","","","","","","","NaN",""
"","S1","","html-keyboard-response","446","434604","0.0-1.0-614.0","0","0","99046","","null","","","null","68","","","","","","","","","","","","","","","",""
"","ISI","","html-keyboard-response","447","434760","0.0-1.0-615.0","0","0","99046","","null","","","null","68","NaN","","","","","","","","","","","","","","",""
"","S2","","html-keyboard-response","448","435019","0.0-1.0-616.0","0","0","99046","","null","","","null","68","","NaN","","","","","","","","","","","","","",""
"","response","","html-keyboard-response","449","435539","0.0-1.0-617.0-0.0","0","0","99046","","513","","","75","68","","","2","68","training","adjacent","GF","7","6","N.jpg","O.jpg","0","0","1","",""
"","feedback","","html-keyboard-response","450","436546","0.0-1.0-618.0-0.0","0","0","99046","","null","","","null","68","","","","","","","","","","","","","","","",""
"","ITI","","html-keyboard-response","451","437554","0.0-1.0-621.0","0","0","99046","","null","","","null","68","","","","","","","","","","","","","","","NaN",""
"","S1","","html-keyboard-response","452","437811","0.0-1.0-623.0","0","0","99046","","null","","","null","69","","","","","","","","","","","","","","","",""
"","ISI","","html-keyboard-response","453","437967","0.0-1.0-624.0","0","0","99046","","null","","","null","69","NaN","","","","","","","","","","","","","","",""
"","S2","","html-keyboard-response","454","438224","0.0-1.0-625.0","0","0","99046","","null","","","null","69","","NaN","","","","","","","","","","","","","",""
"","response","","html-keyboard-response","455","438838","0.0-1.0-626.0-0.0","0","0","99046","","608","","","75","69","","","2","69","training","adjacent","BA","2","1","R.jpg","M.jpg","0","0","1","",""
"","feedback","","html-keyboard-response","456","439846","0.0-1.0-627.0-0.0","0","0","99046","","null","","","null","69","","","","","","","","","","","","","","","",""
"","ITI","","html-keyboard-response","457","440853","0.0-1.0-630.0","0","0","99046","","null","","","null","69","","","","","","","","","","","","","","","NaN",""
"","S1","","html-keyboard-response","458","441110","0.0-1.0-632.0","0","0","99046","","null","","","null","70","","","","","","","","","","","","","","","",""
"","ISI","","html-keyboard-response","459","441266","0.0-1.0-633.0","0","0","99046","","null","","","null","70","NaN","","","","","","","","","","","","","","",""
"","S2","","html-keyboard-response","460","441523","0.0-1.0-634.0","0","0","99046","","null","","","null","70","","NaN","","","","","","","","","","","","","",""
"","response","","html-keyboard-response","461","442007","0.0-1.0-635.0-0.0","0","0","99046","","479","","","75","70","","","2","70","training","adjacent","AB","1","2","M.jpg","R.jpg","0","1","0","",""
"","feedback","","html-keyboard-response","462","443016","0.0-1.0-636.0-0.0","0","0","99046","","null","","","null","70","","","","","","","","","","","","","","","",""
"","time_out","","html-keyboard-response","463","445023","0.0-1.0-638.0-0.0","0","0","99046","","null","","","null","70","","","","","","","","","","","","","","","",""
"","ITI","","html-keyboard-response","464","446030","0.0-1.0-639.0","0","0","99046","","null","","","null","70","","","","","","","","","","","","","","","NaN",""
"","S1","","html-keyboard-response","465","446287","0.0-1.0-641.0","0","0","99046","","null","","","null","71","","","","","","","","","","","","","","","",""
"","ISI","","html-keyboard-response","466","446444","0.0-1.0-642.0","0","0","99046","","null","","","null","71","NaN","","","","","","","","","","","","","","",""
"","S2","","html-keyboard-response","467","446701","0.0-1.0-643.0","0","0","99046","","null","","","null","71","","NaN","","","","","","","","","","","","","",""
"","response","","html-keyboard-response","468","447413","0.0-1.0-644.0-0.0","0","0","99046","","707","","","75","71","","","2","71","training","adjacent","BC","2","3","R.jpg","Q.jpg","0","1","0","",""
"","feedback","","html-keyboard-response","469","448423","0.0-1.0-645.0-0.0","0","0","99046","","null","","","null","71","","","","","","","","","","","","","","","",""
"","time_out","","html-keyboard-response","470","450429","0.0-1.0-647.0-0.0","0","0","99046","","null","","","null","71","","","","","","","","","","","","","","","",""
"","ITI","","html-keyboard-response","471","451441","0.0-1.0-648.0","0","0","99046","","null","","","null","71","","","","","","","","","","","","","","","NaN",""
"","S1","","html-keyboard-response","472","451699","0.0-1.0-650.0","0","0","99046","","null","","","null","72","","","","","","","","","","","","","","","",""
"","ISI","","html-keyboard-response","473","451856","0.0-1.0-651.0","0","0","99046","","null","","","null","72","NaN","","","","","","","","","","","","","","",""
"","S2","","html-keyboard-response","474","452112","0.0-1.0-652.0","0","0","99046","","null","","","null","72","","NaN","","","","","","","","","","","","","",""
"","response","","html-keyboard-response","475","452783","0.0-1.0-653.0-0.0","0","0","99046","","665","","","68","72","","","2","72","training","adjacent","BA","2","1","R.jpg","M.jpg","1","0","0","",""
"","feedback","","html-keyboard-response","476","453792","0.0-1.0-654.0-0.0","0","0","99046","","null","","","null","72","","","","","","","","","","","","","","","",""
"","time_out","","html-keyboard-response","477","455799","0.0-1.0-656.0-0.0","0","0","99046","","null","","","null","72","","","","","","","","","","","","","","","",""
"","ITI","","html-keyboard-response","478","456805","0.0-1.0-657.0","0","0","99046","","null","","","null","72","","","","","","","","","","","","","","","NaN",""
"","S1","","html-keyboard-response","479","457062","0.0-1.0-659.0","0","0","99046","","null","","","null","73","","","","","","","","","","","","","","","",""
"","ISI","","html-keyboard-response","480","457219","0.0-1.0-660.0","0","0","99046","","null","","","null","73","NaN","","","","","","","","","","","","","","",""
"","S2","","html-keyboard-response","481","457476","0.0-1.0-661.0","0","0","99046","","null","","","null","73","","NaN","","","","","","","","","","","","","",""
"","response","","html-keyboard-response","482","457948","0.0-1.0-662.0-0.0","0","0","99046","","466","","","75","73","","","2","73","training","adjacent","BC","2","3","R.jpg","Q.jpg","0","1","0","",""
"","feedback","","html-keyboard-response","483","458956","0.0-1.0-663.0-0.0","0","0","99046","","null","","","null","73","","","","","","","","","","","","","","","",""
"","time_out","","html-keyboard-response","484","460963","0.0-1.0-665.0-0.0","0","0","99046","","null","","","null","73","","","","","","","","","","","","","","","",""
"","ITI","","html-keyboard-response","485","461969","0.0-1.0-666.0","0","0","99046","","null","","","null","73","","","","","","","","","","","","","","","NaN",""
"","S1","","html-keyboard-response","486","462226","0.0-1.0-668.0","0","0","99046","","null","","","null","74","","","","","","","","","","","","","","","",""
"","ISI","","html-keyboard-response","487","462382","0.0-1.0-669.0","0","0","99046","","null","","","null","74","NaN","","","","","","","","","","","","","","",""
"","S2","","html-keyboard-response","488","462640","0.0-1.0-670.0","0","0","99046","","null","","","null","74","","NaN","","","","","","","","","","","","","",""
"","response","","html-keyboard-response","489","463547","0.0-1.0-671.0-0.0","0","0","99046","","901","","","68","74","","","2","74","training","adjacent","BA","2","1","R.jpg","M.jpg","1","0","0","",""
"","feedback","","html-keyboard-response","490","464554","0.0-1.0-672.0-0.0","0","0","99046","","null","","","null","74","","","","","","","","","","","","","","","",""
"","time_out","","html-keyboard-response","491","466562","0.0-1.0-674.0-0.0","0","0","99046","","null","","","null","74","","","","","","","","","","","","","","","",""
"","ITI","","html-keyboard-response","492","467568","0.0-1.0-675.0","0","0","99046","","null","","","null","74","","","","","","","","","","","","","","","NaN",""
"","S1","","html-keyboard-response","493","467825","0.0-1.0-677.0","0","0","99046","","null","","","null","75","","","","","","","","","","","","","","","",""
"","ISI","","html-keyboard-response","494","467981","0.0-1.0-678.0","0","0","99046","","null","","","null","75","NaN","","","","","","","","","","","","","","",""
"","S2","","html-keyboard-response","495","468238","0.0-1.0-679.0","0","0","99046","","null","","","null","75","","NaN","","","","","","","","","","","","","",""
"","response","","html-keyboard-response","496","468665","0.0-1.0-680.0-0.0","0","0","99046","","421","","","75","75","","","2","75","training","adjacent","GF","7","6","N.jpg","O.jpg","0","0","1","",""
"","feedback","","html-keyboard-response","497","469674","0.0-1.0-681.0-0.0","0","0","99046","","null","","","null","75","","","","","","","","","","","","","","","",""
"","ITI","","html-keyboard-response","498","470680","0.0-1.0-684.0","0","0","99046","","null","","","null","75","","","","","","","","","","","","","","","NaN",""
"","S1","","html-keyboard-response","499","470938","0.0-1.0-686.0","0","0","99046","","null","","","null","76","","","","","","","","","","","","","","","",""
"","ISI","","html-keyboard-response","500","471094","0.0-1.0-687.0","0","0","99046","","null","","","null","76","NaN","","","","","","","","","","","","","","",""
"","S2","","html-keyboard-response","501","471351","0.0-1.0-688.0","0","0","99046","","null","","","null","76","","NaN","","","","","","","","","","","","","",""
"","response","","html-keyboard-response","502","471967","0.0-1.0-689.0-0.0","0","0","99046","","610","","","75","76","","","2","76","training","adjacent","DC","4","3","P.jpg","Q.jpg","0","0","1","",""
"","feedback","","html-keyboard-response","503","472974","0.0-1.0-690.0-0.0","0","0","99046","","null","","","null","76","","","","","","","","","","","","","","","",""
"","ITI","","html-keyboard-response","504","473981","0.0-1.0-693.0","0","0","99046","","null","","","null","76","","","","","","","","","","","","","","","NaN",""
"","S1","","html-keyboard-response","505","474238","0.0-1.0-695.0","0","0","99046","","null","","","null","77","","","","","","","","","","","","","","","",""
"","ISI","","html-keyboard-response","506","474394","0.0-1.0-696.0","0","0","99046","","null","","","null","77","NaN","","","","","","","","","","","","","","",""
"","S2","","html-keyboard-response","507","474651","0.0-1.0-697.0","0","0","99046","","null","","","null","77","","NaN","","","","","","","","","","","","","",""
"","response","","html-keyboard-response","508","475078","0.0-1.0-698.0-0.0","0","0","99046","","421","","","68","77","","","2","77","training","adjacent","ED","5","4","L.jpg","P.jpg","1","0","0","",""
"","feedback","","html-keyboard-response","509","476086","0.0-1.0-699.0-0.0","0","0","99046","","null","","","null","77","","","","","","","","","","","","","","","",""
"","time_out","","html-keyboard-response","510","478092","0.0-1.0-701.0-0.0","0","0","99046","","null","","","null","77","","","","","","","","","","","","","","","",""
"","ITI","","html-keyboard-response","511","479100","0.0-1.0-702.0","0","0","99046","","null","","","null","77","","","","","","","","","","","","","","","NaN",""
"","S1","","html-keyboard-response","512","479357","0.0-1.0-704.0","0","0","99046","","null","","","null","78","","","","","","","","","","","","","","","",""
"","ISI","","html-keyboard-response","513","479514","0.0-1.0-705.0","0","0","99046","","null","","","null","78","NaN","","","","","","","","","","","","","","",""
"","S2","","html-keyboard-response","514","479771","0.0-1.0-706.0","0","0","99046","","null","","","null","78","","NaN","","","","","","","","","","","","","",""
"","response","","html-keyboard-response","515","480287","0.0-1.0-707.0-0.0","0","0","99046","","510","","","68","78","","","2","78","training","adjacent","DE","4","5","P.jpg","L.jpg","1","1","1","",""
"","feedback","","html-keyboard-response","516","481295","0.0-1.0-708.0-0.0","0","0","99046","","null","","","null","78","","","","","","","","","","","","","","","",""
"","ITI","","html-keyboard-response","517","482302","0.0-1.0-711.0","0","0","99046","","null","","","null","78","","","","","","","","","","","","","","","NaN",""
"","S1","","html-keyboard-response","518","482559","0.0-1.0-713.0","0","0","99046","","null","","","null","79","","","","","","","","","","","","","","","",""
"","ISI","","html-keyboard-response","519","482715","0.0-1.0-714.0","0","0","99046","","null","","","null","79","NaN","","","","","","","","","","","","","","",""
"","S2","","html-keyboard-response","520","482972","0.0-1.0-715.0","0","0","99046","","null","","","null","79","","NaN","","","","","","","","","","","","","",""
"","response","","html-keyboard-response","521","483406","0.0-1.0-716.0-0.0","0","0","99046","","429","","","68","79","","","2","79","training","adjacent","FG","6","7","O.jpg","N.jpg","1","1","1","",""
"","feedback","","html-keyboard-response","522","484415","0.0-1.0-717.0-0.0","0","0","99046","","null","","","null","79","","","","","","","","","","","","","","","",""
"","ITI","","html-keyboard-response","523","485424","0.0-1.0-720.0","0","0","99046","","null","","","null","79","","","","","","","","","","","","","","","NaN",""
"","S1","","html-keyboard-response","524","485681","0.0-1.0-722.0","0","0","99046","","null","","","null","80","","","","","","","","","","","","","","","",""
"","ISI","","html-keyboard-response","525","485837","0.0-1.0-723.0","0","0","99046","","null","","","null","80","NaN","","","","","","","","","","","","","","",""
"","S2","","html-keyboard-response","526","486094","0.0-1.0-724.0","0","0","99046","","null","","","null","80","","NaN","","","","","","","","","","","","","",""
"","response","","html-keyboard-response","527","486729","0.0-1.0-725.0-0.0","0","0","99046","","628","","","68","80","","","2","80","training","adjacent","EF","5","6","L.jpg","O.jpg","1","1","1","",""
"","feedback","","html-keyboard-response","528","487736","0.0-1.0-726.0-0.0","0","0","99046","","null","","","null","80","","","","","","","","","","","","","","","",""
"","ITI","","html-keyboard-response","529","488745","0.0-1.0-729.0","0","0","99046","","null","","","null","80","","","","","","","","","","","","","","","NaN",""
"","S1","","html-keyboard-response","530","489002","0.0-1.0-731.0","0","0","99046","","null","","","null","81","","","","","","","","","","","","","","","",""
"","ISI","","html-keyboard-response","531","489159","0.0-1.0-732.0","0","0","99046","","null","","","null","81","NaN","","","","","","","","","","","","","","",""
"","S2","","html-keyboard-response","532","489416","0.0-1.0-733.0","0","0","99046","","null","","","null","81","","NaN","","","","","","","","","","","","","",""
"","response","","html-keyboard-response","533","489873","0.0-1.0-734.0-0.0","0","0","99046","","451","","","75","81","","","2","81","training","adjacent","AB","1","2","M.jpg","R.jpg","0","1","0","",""
"","feedback","","html-keyboard-response","534","490881","0.0-1.0-735.0-0.0","0","0","99046","","null","","","null","81","","","","","","","","","","","","","","","",""
"","time_out","","html-keyboard-response","535","492888","0.0-1.0-737.0-0.0","0","0","99046","","null","","","null","81","","","","","","","","","","","","","","","",""
"","ITI","","html-keyboard-response","536","493894","0.0-1.0-738.0","0","0","99046","","null","","","null","81","","","","","","","","","","","","","","","NaN",""
"","S1","","html-keyboard-response","537","494151","0.0-1.0-740.0","0","0","99046","","null","","","null","82","","","","","","","","","","","","","","","",""
"","ISI","","html-keyboard-response","538","494307","0.0-1.0-741.0","0","0","99046","","null","","","null","82","NaN","","","","","","","","","","","","","","",""
"","S2","","html-keyboard-response","539","494565","0.0-1.0-742.0","0","0","99046","","null","","","null","82","","NaN","","","","","","","","","","","","","",""
"","response","","html-keyboard-response","540","494893","0.0-1.0-743.0-0.0","0","0","99046","","322","","","68","82","","","2","82","training","adjacent","EF","5","6","L.jpg","O.jpg","1","1","1","",""
"","feedback","","html-keyboard-response","541","495901","0.0-1.0-744.0-0.0","0","0","99046","","null","","","null","82","","","","","","","","","","","","","","","",""
"","ITI","","html-keyboard-response","542","496908","0.0-1.0-747.0","0","0","99046","","null","","","null","82","","","","","","","","","","","","","","","NaN",""
"","S1","","html-keyboard-response","543","497165","0.0-1.0-749.0","0","0","99046","","null","","","null","83","","","","","","","","","","","","","","","",""
"","ISI","","html-keyboard-response","544","497322","0.0-1.0-750.0","0","0","99046","","null","","","null","83","NaN","","","","","","","","","","","","","","",""
"","S2","","html-keyboard-response","545","497579","0.0-1.0-751.0","0","0","99046","","null","","","null","83","","NaN","","","","","","","","","","","","","",""
"","response","","html-keyboard-response","546","497987","0.0-1.0-752.0-0.0","0","0","99046","","401","","","75","83","","","2","83","training","adjacent","DC","4","3","P.jpg","Q.jpg","0","0","1","",""
"","feedback","","html-keyboard-response","547","498995","0.0-1.0-753.0-0.0","0","0","99046","","null","","","null","83","","","","","","","","","","","","","","","",""
"","ITI","","html-keyboard-response","548","500002","0.0-1.0-756.0","0","0","99046","","null","","","null","83","","","","","","","","","","","","","","","NaN",""
"","S1","","html-keyboard-response","549","500260","0.0-1.0-758.0","0","0","99046","","null","","","null","84","","","","","","","","","","","","","","","",""
"","ISI","","html-keyboard-response","550","500416","0.0-1.0-759.0","0","0","99046","","null","","","null","84","NaN","","","","","","","","","","","","","","",""
"","S2","","html-keyboard-response","551","500674","0.0-1.0-760.0","0","0","99046","","null","","","null","84","","NaN","","","","","","","","","","","","","",""
"","response","","html-keyboard-response","552","501214","0.0-1.0-761.0-0.0","0","0","99046","","534","","","75","84","","","2","84","training","adjacent","AB","1","2","M.jpg","R.jpg","0","1","0","",""
"","feedback","","html-keyboard-response","553","502223","0.0-1.0-762.0-0.0","0","0","99046","","null","","","null","84","","","","","","","","","","","","","","","",""
"","time_out","","html-keyboard-response","554","504230","0.0-1.0-764.0-0.0","0","0","99046","","null","","","null","84","","","","","","","","","","","","","","","",""
"","ITI","","html-keyboard-response","555","505237","0.0-1.0-765.0","0","0","99046","","null","","","null","84","","","","","","","","","","","","","","","NaN",""
"","S1","","html-keyboard-response","556","505493","0.0-1.0-767.0","0","0","99046","","null","","","null","85","","","","","","","","","","","","","","","",""
"","ISI","","html-keyboard-response","557","505649","0.0-1.0-768.0","0","0","99046","","null","","","null","85","NaN","","","","","","","","","","","","","","",""
"","S2","","html-keyboard-response","558","505915","0.0-1.0-769.0","0","0","99046","","null","","","null","85","","NaN","","","","","","","","","","","","","",""
"","response","","html-keyboard-response","559","506612","0.0-1.0-770.0-0.0","0","0","99046","","691","","","75","85","","","2","85","training","adjacent","BA","2","1","R.jpg","M.jpg","0","0","1","",""
"","feedback","","html-keyboard-response","560","507620","0.0-1.0-771.0-0.0","0","0","99046","","null","","","null","85","","","","","","","","","","","","","","","",""
"","ITI","","html-keyboard-response","561","508628","0.0-1.0-774.0","0","0","99046","","null","","","null","85","","","","","","","","","","","","","","","NaN",""
"","S1","","html-keyboard-response","562","508885","0.0-1.0-776.0","0","0","99046","","null","","","null","86","","","","","","","","","","","","","","","",""
"","ISI","","html-keyboard-response","563","509041","0.0-1.0-777.0","0","0","99046","","null","","","null","86","NaN","","","","","","","","","","","","","","",""
"","S2","","html-keyboard-response","564","509299","0.0-1.0-778.0","0","0","99046","","null","","","null","86","","NaN","","","","","","","","","","","","","",""
"","response","","html-keyboard-response","565","509752","0.0-1.0-779.0-0.0","0","0","99046","","448","","","75","86","","","2","86","training","adjacent","BC","2","3","R.jpg","Q.jpg","0","1","0","",""
"","feedback","","html-keyboard-response","566","510761","0.0-1.0-780.0-0.0","0","0","99046","","null","","","null","86","","","","","","","","","","","","","","","",""
"","time_out","","html-keyboard-response","567","512768","0.0-1.0-782.0-0.0","0","0","99046","","null","","","null","86","","","","","","","","","","","","","","","",""
"","ITI","","html-keyboard-response","568","513774","0.0-1.0-783.0","0","0","99046","","null","","","null","86","","","","","","","","","","","","","","","NaN",""
"","S1","","html-keyboard-response","569","514031","0.0-1.0-785.0","0","0","99046","","null","","","null","87","","","","","","","","","","","","","","","",""
"","ISI","","html-keyboard-response","570","514186","0.0-1.0-786.0","0","0","99046","","null","","","null","87","NaN","","","","","","","","","","","","","","",""
"","S2","","html-keyboard-response","571","514443","0.0-1.0-787.0","0","0","99046","","null","","","null","87","","NaN","","","","","","","","","","","","","",""
"","response","","html-keyboard-response","572","514940","0.0-1.0-788.0-0.0","0","0","99046","","491","","","68","87","","","2","87","training","adjacent","ED","5","4","L.jpg","P.jpg","1","0","0","",""
"","feedback","","html-keyboard-response","573","515949","0.0-1.0-789.0-0.0","0","0","99046","","null","","","null","87","","","","","","","","","","","","","","","",""
"","time_out","","html-keyboard-response","574","517956","0.0-1.0-791.0-0.0","0","0","99046","","null","","","null","87","","","","","","","","","","","","","","","",""
"","ITI","","html-keyboard-response","575","518963","0.0-1.0-792.0","0","0","99046","","null","","","null","87","","","","","","","","","","","","","","","NaN",""
"","S1","","html-keyboard-response","576","519220","0.0-1.0-794.0","0","0","99046","","null","","","null","88","","","","","","","","","","","","","","","",""
"","ISI","","html-keyboard-response","577","519376","0.0-1.0-795.0","0","0","99046","","null","","","null","88","NaN","","","","","","","","","","","","","","",""
"","S2","","html-keyboard-response","578","519633","0.0-1.0-796.0","0","0","99046","","null","","","null","88","","NaN","","","","","","","","","","","","","",""
"","response","","html-keyboard-response","579","520216","0.0-1.0-797.0-0.0","0","0","99046","","576","","","75","88","","","2","88","training","adjacent","FE","6","5","O.jpg","L.jpg","0","0","1","",""
