"success","ttype","start_time","trial_type","trial_index","time_elapsed","internal_node_id","warning","missed_checkup","PID","view_history","rt","responses","repeat_instructions","key_press","index","keypress_isi","keypress_S2","block","trial_num","phase","group_type","pair_type","S1_stim","S2_stim","S1_img","S2_img","S1_chosen","S1_higher","accuracy","keypress_iti","total_bonus_tally"
"true","full_screen","d03082023hr1438","fullscreen","0","13093","0.0-0.0","0","0","82247","","","","","","","","","","","","","","","","","","","","","",""
"","instructions","","instructions","1","70545","0.0-1.0-0.0-0.0","0","0","82247","[{""page_index"":0,""viewing_time"":9493},{""page_index"":1,""viewing_time"":33369},{""page_index"":2,""viewing_time"":11941},{""page_index"":3,""viewing_time"":2645}]","57449","","","","","","","","","","","","","","","","","","","",""
"","comprehension_check","","survey-multi-choice","2","102974","0.0-1.0-0.0-1.0","0","0","82247","","32421","{""Q0"":""True"",""Q1"":""K"",""Q2"":""Once the second image appears and while the screen 'MAKE A CHOICE' is shown"",""Q3"":""Green mark"",""Q4"":""either D or K""}","0","","","","","","","","","","","","","","","","","",""
"","start_exp","","html-keyboard-response","3","106525","0.0-1.0-1.0","0","0","82247","","3545","","","32","","","","","","","","","","","","","","","","",""
"","S1","","html-keyboard-response","4","106787","0.0-1.0-2.0","0","0","82247","","null","","","null","0","","","","","","","","","","","","","","","",""
"","ISI","","html-keyboard-response","5","106947","0.0-1.0-3.0","0","0","82247","","null","","","null","0","NaN","","","","","","","","","","","","","","",""
"","S2","","html-keyboard-response","6","107210","0.0-1.0-4.0","0","0","82247","","null","","","null","0","","NaN","","","","","","","","","","","","","",""
"","response","","html-keyboard-response","7","107672","0.0-1.0-5.0-0.0","0","0","82247","","459","","","75","0","","","1","0","training","adjacent","FG","6","7","L.jpg","Q.jpg","1","1","1","",""
"","feedback","","html-keyboard-response","8","108683","0.0-1.0-6.0-0.0","0","0","82247","","null","","","null","0","","","","","","","","","","","","","","","",""
"","ITI","","html-keyboard-response","9","109693","0.0-1.0-9.0","0","0","82247","","null","","","null","0","","","","","","","","","","","","","","","NaN",""
"","S1","","html-keyboard-response","10","109956","0.0-1.0-11.0","0","0","82247","","null","","","null","1","","","","","","","","","","","","","","","",""
"","ISI","","html-keyboard-response","11","110116","0.0-1.0-12.0","0","0","82247","","null","","","null","1","NaN","","","","","","","","","","","","","","",""
"","S2","","html-keyboard-response","12","110379","0.0-1.0-13.0","0","0","82247","","null","","","null","1","","NaN","","","","","","","","","","","","","",""
"","response","","html-keyboard-response","13","110854","0.0-1.0-14.0-0.0","0","0","82247","","473","","","68","1","","","1","1","training","adjacent","AB","1","2","M.jpg","R.jpg","0","1","0","",""
"","feedback","","html-keyboard-response","14","111866","0.0-1.0-15.0-0.0","0","0","82247","","null","","","null","1","","","","","","","","","","","","","","","",""
"","time_out","","html-keyboard-response","15","113875","0.0-1.0-17.0-0.0","0","0","82247","","null","","","null","1","","","","","","","","","","","","","","","",""
"","ITI","","html-keyboard-response","16","114884","0.0-1.0-18.0","0","0","82247","","null","","","null","1","","","","","","","","","","","","","","","NaN",""
"","S1","","html-keyboard-response","17","115146","0.0-1.0-20.0","0","0","82247","","null","","","null","2","","","","","","","","","","","","","","","",""
"","ISI","","html-keyboard-response","18","115308","0.0-1.0-21.0","0","0","82247","","null","","","null","2","NaN","","","","","","","","","","","","","","",""
"","S2","","html-keyboard-response","19","115570","0.0-1.0-22.0","0","0","82247","","null","","","null","2","","NaN","","","","","","","","","","","","","",""
"","response","","html-keyboard-response","20","116001","0.0-1.0-23.0-0.0","0","0","82247","","430","","","75","2","","","1","2","training","adjacent","ED","5","4","O.jpg","N.jpg","1","0","0","",""
"","feedback","","html-keyboard-response","21","117013","0.0-1.0-24.0-0.0","0","0","82247","","null","","","null","2","","","","","","","","","","","","","","","",""
"","time_out","","html-keyboard-response","22","119018","0.0-1.0-26.0-0.0","0","0","82247","","null","","","null","2","","","","","","","","","","","","","","","",""
"","ITI","","html-keyboard-response","23","120027","0.0-1.0-27.0","0","0","82247","","null","","","null","2","","","","","","","","","","","","","","","NaN",""
"","S1","","html-keyboard-response","24","120292","0.0-1.0-29.0","0","0","82247","","null","","","null","3","","","","","","","","","","","","","","","",""
"","ISI","","html-keyboard-response","25","120451","0.0-1.0-30.0","0","0","82247","","null","","","null","3","NaN","","","","","","","","","","","","","","",""
"","S2","","html-keyboard-response","26","120716","0.0-1.0-31.0","0","0","82247","","null","","","null","3","","NaN","","","","","","","","","","","","","",""
"","response","","html-keyboard-response","27","121290","0.0-1.0-32.0-0.0","0","0","82247","","572","","","75","3","","","1","3","training","adjacent","DE","4","5","N.jpg","O.jpg","1","1","1","",""
"","feedback","","html-keyboard-response","28","122298","0.0-1.0-33.0-0.0","0","0","82247","","null","","","null","3","","","","","","","","","","","","","","","",""
"","ITI","","html-keyboard-response","29","123308","0.0-1.0-36.0","0","0","82247","","null","","","null","3","","","","","","","","","","","","","","","NaN",""
"","S1","","html-keyboard-response","30","123572","0.0-1.0-38.0","0","0","82247","","null","","","null","4","","","","","","","","","","","","","","","",""
"","ISI","","html-keyboard-response","31","123731","0.0-1.0-39.0","0","0","82247","","null","","","null","4","NaN","","","","","","","","","","","","","","",""
"","S2","","html-keyboard-response","32","123996","0.0-1.0-40.0","0","0","82247","","null","","","null","4","","NaN","","","","","","","","","","","","","",""
"","response","","html-keyboard-response","33","124435","0.0-1.0-41.0-0.0","0","0","82247","","437","","","75","4","","","1","4","training","adjacent","CD","3","4","P.jpg","N.jpg","1","1","1","",""
"","feedback","","html-keyboard-response","34","125444","0.0-1.0-42.0-0.0","0","0","82247","","null","","","null","4","","","","","","","","","","","","","","","",""
"","ITI","","html-keyboard-response","35","126452","0.0-1.0-45.0","0","0","82247","","null","","","null","4","","","","","","","","","","","","","","","NaN",""
"","S1","","html-keyboard-response","36","126715","0.0-1.0-47.0","0","0","82247","","null","","","null","5","","","","","","","","","","","","","","","",""
"","ISI","","html-keyboard-response","37","126875","0.0-1.0-48.0","0","0","82247","","null","","","null","5","NaN","","","","","","","","","","","","","","",""
"","S2","","html-keyboard-response","38","127139","0.0-1.0-49.0","0","0","82247","","null","","","null","5","","NaN","","","","","","","","","","","","","",""
"","response","","html-keyboard-response","39","127772","0.0-1.0-50.0-0.0","0","0","82247","","631","","","75","5","","","1","5","training","adjacent","BC","2","3","R.jpg","P.jpg","1","1","1","",""
"","feedback","","html-keyboard-response","40","128779","0.0-1.0-51.0-0.0","0","0","82247","","null","","","null","5","","","","","","","","","","","","","","","",""
"","ITI","","html-keyboard-response","41","129786","0.0-1.0-54.0","0","0","82247","","null","","","null","5","","","","","","","","","","","","","","","NaN",""
"","S1","","html-keyboard-response","42","130041","0.0-1.0-56.0","0","0","82247","","null","","","null","6","","","","","","","","","","","","","","","",""
"","ISI","","html-keyboard-response","43","130204","0.0-1.0-57.0","0","0","82247","","null","","","null","6","NaN","","","","","","","","","","","","","","",""
"","S2","","html-keyboard-response","44","130469","0.0-1.0-58.0","0","0","82247","","null","","","null","6","","NaN","","","","","","","","","","","","","",""
"","response","","html-keyboard-response","45","131245","0.0-1.0-59.0-0.0","0","0","82247","","775","","","68","6","","","1","6","training","adjacent","GF","7","6","Q.jpg","L.jpg","0","0","1","",""
"","feedback","","html-keyboard-response","46","132259","0.0-1.0-60.0-0.0","0","0","82247","","null","","","null","6","","","","","","","","","","","","","","","",""
"","ITI","","html-keyboard-response","47","133266","0.0-1.0-63.0","0","0","82247","","null","","","null","6","","","","","","","","","","","","","","","NaN",""
"","S1","","html-keyboard-response","48","133524","0.0-1.0-65.0","0","0","82247","","null","","","null","7","","","","","","","","","","","","","","","",""
"","ISI","","html-keyboard-response","49","133685","0.0-1.0-66.0","0","0","82247","","null","","","null","7","NaN","","","","","","","","","","","","","","",""
"","S2","","html-keyboard-response","50","133948","0.0-1.0-67.0","0","0","82247","","null","","","null","7","","NaN","","","","","","","","","","","","","",""
"","response","","html-keyboard-response","51","134390","0.0-1.0-68.0-0.0","0","0","82247","","440","","","68","7","","","1","7","training","adjacent","DE","4","5","N.jpg","O.jpg","0","1","0","",""
"","feedback","","html-keyboard-response","52","135403","0.0-1.0-69.0-0.0","0","0","82247","","null","","","null","7","","","","","","","","","","","","","","","",""
"","time_out","","html-keyboard-response","53","137411","0.0-1.0-71.0-0.0","0","0","82247","","null","","","null","7","","","","","","","","","","","","","","","",""
"","ITI","","html-keyboard-response","54","138418","0.0-1.0-72.0","0","0","82247","","null","","","null","7","","","","","","","","","","","","","","","NaN",""
"","S1","","html-keyboard-response","55","138673","0.0-1.0-74.0","0","0","82247","","null","","","null","8","","","","","","","","","","","","","","","",""
"","ISI","","html-keyboard-response","56","138836","0.0-1.0-75.0","0","0","82247","","null","","","null","8","NaN","","","","","","","","","","","","","","",""
"","S2","","html-keyboard-response","57","139101","0.0-1.0-76.0","0","0","82247","","null","","","null","8","","NaN","","","","","","","","","","","","","",""
"","response","","html-keyboard-response","58","139977","0.0-1.0-77.0-0.0","0","0","82247","","874","","","75","8","","","1","8","training","adjacent","CD","3","4","P.jpg","N.jpg","1","1","1","",""
"","feedback","","html-keyboard-response","59","140987","0.0-1.0-78.0-0.0","0","0","82247","","null","","","null","8","","","","","","","","","","","","","","","",""
"","ITI","","html-keyboard-response","60","141994","0.0-1.0-81.0","0","0","82247","","null","","","null","8","","","","","","","","","","","","","","","NaN",""
"","S1","","html-keyboard-response","61","142249","0.0-1.0-83.0","0","0","82247","","null","","","null","9","","","","","","","","","","","","","","","",""
"","ISI","","html-keyboard-response","62","142412","0.0-1.0-84.0","0","0","82247","","null","","","null","9","NaN","","","","","","","","","","","","","","",""
"","S2","","html-keyboard-response","63","142676","0.0-1.0-85.0","0","0","82247","","null","","","null","9","","NaN","","","","","","","","","","","","","",""
"","response","","html-keyboard-response","64","143448","0.0-1.0-86.0-0.0","0","0","82247","","769","","","68","9","","","1","9","training","adjacent","BC","2","3","R.jpg","P.jpg","0","1","0","",""
"","feedback","","html-keyboard-response","65","144458","0.0-1.0-87.0-0.0","0","0","82247","","null","","","null","9","","","","","","","","","","","","","","","",""
"","time_out","","html-keyboard-response","66","146467","0.0-1.0-89.0-0.0","0","0","82247","","null","","","null","9","","","","","","","","","","","","","","","",""
"","ITI","","html-keyboard-response","67","147474","0.0-1.0-90.0","0","0","82247","","null","","","null","9","","","","","","","","","","","","","","","NaN",""
"","S1","","html-keyboard-response","68","147732","0.0-1.0-92.0","0","0","82247","","null","","","null","10","","","","","","","","","","","","","","","",""
"","ISI","","html-keyboard-response","69","147892","0.0-1.0-93.0","0","0","82247","","null","","","null","10","NaN","","","","","","","","","","","","","","",""
"","S2","","html-keyboard-response","70","148156","0.0-1.0-94.0","0","0","82247","","null","","","null","10","","NaN","","","","","","","","","","","","","",""
"","response","","html-keyboard-response","71","149010","0.0-1.0-95.0-0.0","0","0","82247","","851","","","75","10","","","1","10","training","adjacent","BC","2","3","R.jpg","P.jpg","1","1","1","",""
"","feedback","","html-keyboard-response","72","150019","0.0-1.0-96.0-0.0","0","0","82247","","null","","","null","10","","","","","","","","","","","","","","","",""
"","ITI","","html-keyboard-response","73","151026","0.0-1.0-99.0","0","0","82247","","null","","","null","10","","","","","","","","","","","","","","","NaN",""
"","S1","","html-keyboard-response","74","151290","0.0-1.0-101.0","0","0","82247","","null","","","null","11","","","","","","","","","","","","","","","",""
"","ISI","","html-keyboard-response","75","151450","0.0-1.0-102.0","0","0","82247","","null","","","null","11","NaN","","","","","","","","","","","","","","",""
"","S2","","html-keyboard-response","76","151705","0.0-1.0-103.0","0","0","82247","","null","","","null","11","","NaN","","","","","","","","","","","","","",""
"","response","","html-keyboard-response","77","152617","0.0-1.0-104.0-0.0","0","0","82247","","909","","","68","11","","","1","11","training","adjacent","CD","3","4","P.jpg","N.jpg","0","1","0","",""
"","feedback","","html-keyboard-response","78","153626","0.0-1.0-105.0-0.0","0","0","82247","","null","","","null","11","","","","","","","","","","","","","","","",""
"","time_out","","html-keyboard-response","79","155635","0.0-1.0-107.0-0.0","0","0","82247","","null","","","null","11","","","","","","","","","","","","","","","",""
"","ITI","","html-keyboard-response","80","156643","0.0-1.0-108.0","0","0","82247","","null","","","null","11","","","","","","","","","","","","","","","NaN",""
"","S1","","html-keyboard-response","81","156907","0.0-1.0-110.0","0","0","82247","","null","","","null","12","","","","","","","","","","","","","","","",""
"","ISI","","html-keyboard-response","82","157067","0.0-1.0-111.0","0","0","82247","","null","","","null","12","NaN","","","","","","","","","","","","","","",""
"","S2","","html-keyboard-response","83","157332","0.0-1.0-112.0","0","0","82247","","null","","","null","12","","NaN","","","","","","","","","","","","","",""
"","response","","html-keyboard-response","84","158049","0.0-1.0-113.0-0.0","0","0","82247","","715","","","75","12","","","1","12","training","adjacent","FG","6","7","L.jpg","Q.jpg","1","1","1","",""
"","feedback","","html-keyboard-response","85","159060","0.0-1.0-114.0-0.0","0","0","82247","","null","","","null","12","","","","","","","","","","","","","","","",""
"","ITI","","html-keyboard-response","86","160068","0.0-1.0-117.0","0","0","82247","","null","","","null","12","","","","","","","","","","","","","","","NaN",""
"","S1","","html-keyboard-response","87","160332","0.0-1.0-119.0","0","0","82247","","null","","","null","13","","","","","","","","","","","","","","","",""
"","ISI","","html-keyboard-response","88","160492","0.0-1.0-120.0","0","0","82247","","null","","","null","13","NaN","","","","","","","","","","","","","","",""
"","S2","","html-keyboard-response","89","160755","0.0-1.0-121.0","0","0","82247","","null","","","null","13","","NaN","","","","","","","","","","","","","",""
"","response","","html-keyboard-response","90","161665","0.0-1.0-122.0-0.0","0","0","82247","","908","","","75","13","","","1","13","training","adjacent","CB","3","2","P.jpg","R.jpg","1","0","0","",""
"","feedback","","html-keyboard-response","91","162674","0.0-1.0-123.0-0.0","0","0","82247","","null","","","null","13","","","","","","","","","","","","","","","",""
"","time_out","","html-keyboard-response","92","164683","0.0-1.0-125.0-0.0","0","0","82247","","null","","","null","13","","","","","","","","","","","","","","","",""
"","ITI","","html-keyboard-response","93","165690","0.0-1.0-126.0","0","0","82247","","null","","","null","13","","","","","","","","","","","","","","","NaN",""
"","S1","","html-keyboard-response","94","165945","0.0-1.0-128.0","0","0","82247","","null","","","null","14","","","","","","","","","","","","","","","",""
"","ISI","","html-keyboard-response","95","166107","0.0-1.0-129.0","0","0","82247","","null","","","null","14","NaN","","","","","","","","","","","","","","",""
"","S2","","html-keyboard-response","96","166372","0.0-1.0-130.0","0","0","82247","","null","","","null","14","","NaN","","","","","","","","","","","","","",""
"","response","","html-keyboard-response","97","167081","0.0-1.0-131.0-0.0","0","0","82247","","707","","","75","14","","","1","14","training","adjacent","AB","1","2","M.jpg","R.jpg","1","1","1","",""
"","feedback","","html-keyboard-response","98","168090","0.0-1.0-132.0-0.0","0","0","82247","","null","","","null","14","","","","","","","","","","","","","","","",""
"","ITI","","html-keyboard-response","99","169097","0.0-1.0-135.0","0","0","82247","","null","","","null","14","","","","","","","","","","","","","","","NaN",""
"","S1","","html-keyboard-response","100","169356","0.0-1.0-137.0","0","0","82247","","null","","","null","15","","","","","","","","","","","","","","","",""
"","ISI","","html-keyboard-response","101","169515","0.0-1.0-138.0","0","0","82247","","null","","","null","15","NaN","","","","","","","","","","","","","","",""
"","S2","","html-keyboard-response","102","169780","0.0-1.0-139.0","0","0","82247","","null","","","null","15","","NaN","","","","","","","","","","","","","",""
"","response","","html-keyboard-response","103","170713","0.0-1.0-140.0-0.0","0","0","82247","","931","","","68","15","","","1","15","training","adjacent","DC","4","3","N.jpg","P.jpg","0","0","1","",""
"","feedback","","html-keyboard-response","104","171720","0.0-1.0-141.0-0.0","0","0","82247","","null","","","null","15","","","","","","","","","","","","","","","",""
"","ITI","","html-keyboard-response","105","172731","0.0-1.0-144.0","0","0","82247","","null","","","null","15","","","","","","","","","","","","","","","NaN",""
"","S1","","html-keyboard-response","106","172996","0.0-1.0-146.0","0","0","82247","","null","","","null","16","","","","","","","","","","","","","","","",""
"","ISI","","html-keyboard-response","107","173155","0.0-1.0-147.0","0","0","82247","","null","","","null","16","NaN","","","","","","","","","","","","","","",""
"","S2","","html-keyboard-response","108","173420","0.0-1.0-148.0","0","0","82247","","null","","","null","16","","NaN","","","","","","","","","","","","","",""
"","response","","html-keyboard-response","109","174503","0.0-1.0-149.0-0.0","0","0","82247","","1082","","","75","16","","","1","16","training","adjacent","CB","3","2","P.jpg","R.jpg","1","0","0","",""
"","feedback","","html-keyboard-response","110","175514","0.0-1.0-150.0-0.0","0","0","82247","","null","","","null","16","","","","","","","","","","","","","","","",""
"","time_out","","html-keyboard-response","111","177524","0.0-1.0-152.0-0.0","0","0","82247","","null","","","null","16","","","","","","","","","","","","","","","",""
"","ITI","","html-keyboard-response","112","178530","0.0-1.0-153.0","0","0","82247","","null","","","null","16","","","","","","","","","","","","","","","NaN",""
"","S1","","html-keyboard-response","113","178795","0.0-1.0-155.0","0","0","82247","","null","","","null","17","","","","","","","","","","","","","","","",""
"","ISI","","html-keyboard-response","114","178954","0.0-1.0-156.0","0","0","82247","","null","","","null","17","NaN","","","","","","","","","","","","","","",""
"","S2","","html-keyboard-response","115","179219","0.0-1.0-157.0","0","0","82247","","null","","","null","17","","NaN","","","","","","","","","","","","","",""
"","response","","html-keyboard-response","116","180042","0.0-1.0-158.0-0.0","0","0","82247","","820","","","75","17","","","1","17","training","adjacent","AB","1","2","M.jpg","R.jpg","1","1","1","",""
"","feedback","","html-keyboard-response","117","181050","0.0-1.0-159.0-0.0","0","0","82247","","null","","","null","17","","","","","","","","","","","","","","","",""
"","ITI","","html-keyboard-response","118","182060","0.0-1.0-162.0","0","0","82247","","null","","","null","17","","","","","","","","","","","","","","","NaN",""
"","S1","","html-keyboard-response","119","182324","0.0-1.0-164.0","0","0","82247","","null","","","null","18","","","","","","","","","","","","","","","",""
"","ISI","","html-keyboard-response","120","182483","0.0-1.0-165.0","0","0","82247","","null","","","null","18","NaN","","","","","","","","","","","","","","",""
"","S2","","html-keyboard-response","121","182748","0.0-1.0-166.0","0","0","82247","","null","","","null","18","","NaN","","","","","","","","","","","","","",""
"","response","","html-keyboard-response","122","183709","0.0-1.0-167.0-0.0","0","0","82247","","958","","","75","18","","","1","18","training","adjacent","CB","3","2","P.jpg","R.jpg","1","0","0","",""
"","feedback","","html-keyboard-response","123","184724","0.0-1.0-168.0-0.0","0","0","82247","","null","","","null","18","","","","","","","","","","","","","","","",""
"","time_out","","html-keyboard-response","124","186730","0.0-1.0-170.0-0.0","0","0","82247","","null","","","null","18","","","","","","","","","","","","","","","",""
"","ITI","","html-keyboard-response","125","187740","0.0-1.0-171.0","0","0","82247","","null","","","null","18","","","","","","","","","","","","","","","NaN",""
"","S1","","html-keyboard-response","126","188004","0.0-1.0-173.0","0","0","82247","","null","","","null","19","","","","","","","","","","","","","","","",""
"","ISI","","html-keyboard-response","127","188164","0.0-1.0-174.0","0","0","82247","","null","","","null","19","NaN","","","","","","","","","","","","","","",""
"","S2","","html-keyboard-response","128","188428","0.0-1.0-175.0","0","0","82247","","null","","","null","19","","NaN","","","","","","","","","","","","","",""
"","response","","html-keyboard-response","129","190094","0.0-1.0-176.0-0.0","0","0","82247","","1664","","","68","19","","","1","19","training","adjacent","EF","5","6","O.jpg","L.jpg","0","1","0","",""
"","feedback","","html-keyboard-response","130","191107","0.0-1.0-177.0-0.0","0","0","82247","","null","","","null","19","","","","","","","","","","","","","","","",""
"","time_out","","html-keyboard-response","131","193116","0.0-1.0-179.0-0.0","0","0","82247","","null","","","null","19","","","","","","","","","","","","","","","",""
"","ITI","","html-keyboard-response","132","194122","0.0-1.0-180.0","0","0","82247","","null","","","null","19","","","","","","","","","","","","","","","NaN",""
"","S1","","html-keyboard-response","133","194387","0.0-1.0-182.0","0","0","82247","","null","","","null","20","","","","","","","","","","","","","","","",""
"","ISI","","html-keyboard-response","134","194546","0.0-1.0-183.0","0","0","82247","","null","","","null","20","NaN","","","","","","","","","","","","","","",""
"","S2","","html-keyboard-response","135","194811","0.0-1.0-184.0","0","0","82247","","null","","","null","20","","NaN","","","","","","","","","","","","","",""
"","response","","html-keyboard-response","136","195330","0.0-1.0-185.0-0.0","0","0","82247","","517","","","75","20","","","1","20","training","adjacent","AB","1","2","M.jpg","R.jpg","1","1","1","",""
"","feedback","","html-keyboard-response","137","196339","0.0-1.0-186.0-0.0","0","0","82247","","null","","","null","20","","","","","","","","","","","","","","","",""
"","ITI","","html-keyboard-response","138","197344","0.0-1.0-189.0","0","0","82247","","null","","","null","20","","","","","","","","","","","","","","","NaN",""
"","S1","","html-keyboard-response","139","197603","0.0-1.0-191.0","0","0","82247","","null","","","null","21","","","","","","","","","","","","","","","",""
"","ISI","","html-keyboard-response","140","197762","0.0-1.0-192.0","0","0","82247","","null","","","null","21","NaN","","","","","","","","","","","","","","",""
"","S2","","html-keyboard-response","141","198027","0.0-1.0-193.0","0","0","82247","","null","","","null","21","","NaN","","","","","","","","","","","","","",""
"","response","","html-keyboard-response","142","198864","0.0-1.0-194.0-0.0","0","0","82247","","834","","","75","21","","","1","21","training","adjacent","BA","2","1","R.jpg","M.jpg","1","0","0","",""
"","feedback","","html-keyboard-response","143","199875","0.0-1.0-195.0-0.0","0","0","82247","","null","","","null","21","","","","","","","","","","","","","","","",""
"","time_out","","html-keyboard-response","144","201884","0.0-1.0-197.0-0.0","0","0","82247","","null","","","null","21","","","","","","","","","","","","","","","",""
"","ITI","","html-keyboard-response","145","202891","0.0-1.0-198.0","0","0","82247","","null","","","null","21","","","","","","","","","","","","","","","NaN",""
"","S1","","html-keyboard-response","146","203155","0.0-1.0-200.0","0","0","82247","","null","","","null","22","","","","","","","","","","","","","","","",""
"","ISI","","html-keyboard-response","147","203315","0.0-1.0-201.0","0","0","82247","","null","","","null","22","NaN","","","","","","","","","","","","","","",""
"","S2","","html-keyboard-response","148","203579","0.0-1.0-202.0","0","0","82247","","null","","","null","22","","NaN","","","","","","","","","","","","","",""
"","response","","html-keyboard-response","149","204897","0.0-1.0-203.0-0.0","0","0","82247","","1316","","","68","22","","","1","22","training","adjacent","GF","7","6","Q.jpg","L.jpg","0","0","1","",""
"","feedback","","html-keyboard-response","150","205906","0.0-1.0-204.0-0.0","0","0","82247","","null","","","null","22","","","","","","","","","","","","","","","",""
"","ITI","","html-keyboard-response","151","206914","0.0-1.0-207.0","0","0","82247","","null","","","null","22","","","","","","","","","","","","","","","NaN",""
"","S1","","html-keyboard-response","152","207172","0.0-1.0-209.0","0","0","82247","","null","","","null","23","","","","","","","","","","","","","","","",""
"","ISI","","html-keyboard-response","153","207332","0.0-1.0-210.0","0","0","82247","","null","","","null","23","NaN","","","","","","","","","","","","","","",""
"","S2","","html-keyboard-response","154","207596","0.0-1.0-211.0","0","0","82247","","null","","","null","23","","NaN","","","","","","","","","","","","","",""
"","response","","html-keyboard-response","155","208119","0.0-1.0-212.0-0.0","0","0","82247","","520","","","75","23","","","1","23","training","adjacent","FE","6","5","L.jpg","O.jpg","1","0","0","",""
"","feedback","","html-keyboard-response","156","209132","0.0-1.0-213.0-0.0","0","0","82247","","null","","","null","23","","","","","","","","","","","","","","","",""
"","time_out","","html-keyboard-response","157","211140","0.0-1.0-215.0-0.0","0","0","82247","","null","","","null","23","","","","","","","","","","","","","","","",""
"","ITI","","html-keyboard-response","158","212147","0.0-1.0-216.0","0","0","82247","","null","","","null","23","","","","","","","","","","","","","","","NaN",""
"","S1","","html-keyboard-response","159","212411","0.0-1.0-218.0","0","0","82247","","null","","","null","24","","","","","","","","","","","","","","","",""
"","ISI","","html-keyboard-response","160","212570","0.0-1.0-219.0","0","0","82247","","null","","","null","24","NaN","","","","","","","","","","","","","","",""
"","S2","","html-keyboard-response","161","212835","0.0-1.0-220.0","0","0","82247","","null","","","null","24","","NaN","","","","","","","","","","","","","",""
"","response","","html-keyboard-response","162","213893","0.0-1.0-221.0-0.0","0","0","82247","","1055","","","68","24","","","1","24","training","adjacent","ED","5","4","O.jpg","N.jpg","0","0","1","",""
"","feedback","","html-keyboard-response","163","214907","0.0-1.0-222.0-0.0","0","0","82247","","null","","","null","24","","","","","","","","","","","","","","","",""
"","ITI","","html-keyboard-response","164","215914","0.0-1.0-225.0","0","0","82247","","null","","","null","24","","","","","","","","","","","","","","","NaN",""
"","S1","","html-keyboard-response","165","216179","0.0-1.0-227.0","0","0","82247","","null","","","null","25","","","","","","","","","","","","","","","",""
"","ISI","","html-keyboard-response","166","216338","0.0-1.0-228.0","0","0","82247","","null","","","null","25","NaN","","","","","","","","","","","","","","",""
"","S2","","html-keyboard-response","167","216603","0.0-1.0-229.0","0","0","82247","","null","","","null","25","","NaN","","","","","","","","","","","","","",""
"","response","","html-keyboard-response","168","217378","0.0-1.0-230.0-0.0","0","0","82247","","774","","","68","25","","","1","25","training","adjacent","FE","6","5","L.jpg","O.jpg","0","0","1","",""
"","feedback","","html-keyboard-response","169","218387","0.0-1.0-231.0-0.0","0","0","82247","","null","","","null","25","","","","","","","","","","","","","","","",""
"","ITI","","html-keyboard-response","170","219394","0.0-1.0-234.0","0","0","82247","","null","","","null","25","","","","","","","","","","","","","","","NaN",""
"","S1","","html-keyboard-response","171","219658","0.0-1.0-236.0","0","0","82247","","null","","","null","26","","","","","","","","","","","","","","","",""
"","ISI","","html-keyboard-response","172","219819","0.0-1.0-237.0","0","0","82247","","null","","","null","26","NaN","","","","","","","","","","","","","","",""
"","S2","","html-keyboard-response","173","220082","0.0-1.0-238.0","0","0","82247","","null","","","null","26","","NaN","","","","","","","","","","","","","",""
"","response","","html-keyboard-response","174","220705","0.0-1.0-239.0-0.0","0","0","82247","","621","","","68","26","","","1","26","training","adjacent","FE","6","5","L.jpg","O.jpg","0","0","1","",""
"","feedback","","html-keyboard-response","175","221713","0.0-1.0-240.0-0.0","0","0","82247","","null","","","null","26","","","","","","","","","","","","","","","",""
"","ITI","","html-keyboard-response","176","222723","0.0-1.0-243.0","0","0","82247","","null","","","null","26","","","","","","","","","","","","","","","NaN",""
"","S1","","html-keyboard-response","177","222988","0.0-1.0-245.0","0","0","82247","","null","","","null","27","","","","","","","","","","","","","","","",""
"","ISI","","html-keyboard-response","178","223147","0.0-1.0-246.0","0","0","82247","","null","","","null","27","NaN","","","","","","","","","","","","","","",""
"","S2","","html-keyboard-response","179","223412","0.0-1.0-247.0","0","0","82247","","null","","","null","27","","NaN","","","","","","","","","","","","","",""
"","response","","html-keyboard-response","180","224904","0.0-1.0-248.0-0.0","0","0","82247","","1490","","","68","27","","","1","27","training","adjacent","BA","2","1","R.jpg","M.jpg","0","0","1","",""
"","feedback","","html-keyboard-response","181","225916","0.0-1.0-249.0-0.0","0","0","82247","","null","","","null","27","","","","","","","","","","","","","","","",""
"","ITI","","html-keyboard-response","182","226932","0.0-1.0-252.0","0","0","82247","","null","","","null","27","","","","","","","","","","","","","","","NaN",""
"","S1","","html-keyboard-response","183","227193","0.0-1.0-254.0","0","0","82247","","null","","","null","28","","","","","","","","","","","","","","","",""
"","ISI","","html-keyboard-response","184","227356","0.0-1.0-255.0","0","0","82247","","null","","","null","28","NaN","","","","","","","","","","","","","","",""
"","S2","","html-keyboard-response","185","227617","0.0-1.0-256.0","0","0","82247","","null","","","null","28","","NaN","","","","","","","","","","","","","",""
"","response","","html-keyboard-response","186","229161","0.0-1.0-257.0-0.0","0","0","82247","","1542","","","75","28","","","1","28","training","adjacent","DE","4","5","N.jpg","O.jpg","1","1","1","",""
"","feedback","","html-keyboard-response","187","230171","0.0-1.0-258.0-0.0","0","0","82247","","null","","","null","28","","","","","","","","","","","","","","","",""
"","ITI","","html-keyboard-response","188","231179","0.0-1.0-261.0","0","0","82247","","null","","","null","28","","","","","","","","","","","","","","","NaN",""
"","S1","","html-keyboard-response","189","231442","0.0-1.0-263.0","0","0","82247","","null","","","null","29","","","","","","","","","","","","","","","",""
"","ISI","","html-keyboard-response","190","231603","0.0-1.0-264.0","0","0","82247","","null","","","null","29","NaN","","","","","","","","","","","","","","",""
"","S2","","html-keyboard-response","191","231866","0.0-1.0-265.0","0","0","82247","","null","","","null","29","","NaN","","","","","","","","","","","","","",""
"","response","","html-keyboard-response","192","232739","0.0-1.0-266.0-0.0","0","0","82247","","871","","","75","29","","","1","29","training","adjacent","CD","3","4","P.jpg","N.jpg","1","1","1","",""
"","feedback","","html-keyboard-response","193","233746","0.0-1.0-267.0-0.0","0","0","82247","","null","","","null","29","","","","","","","","","","","","","","","",""
"","ITI","","html-keyboard-response","194","234754","0.0-1.0-270.0","0","0","82247","","null","","","null","29","","","","","","","","","","","","","","","NaN",""
"","S1","","html-keyboard-response","195","235018","0.0-1.0-272.0","0","0","82247","","null","","","null","30","","","","","","","","","","","","","","","",""
"","ISI","","html-keyboard-response","196","235178","0.0-1.0-273.0","0","0","82247","","null","","","null","30","NaN","","","","","","","","","","","","","","",""
"","S2","","html-keyboard-response","197","235442","0.0-1.0-274.0","0","0","82247","","null","","","null","30","","NaN","","","","","","","","","","","","","",""
"","response","","html-keyboard-response","198","236778","0.0-1.0-275.0-0.0","0","0","82247","","1333","","","68","30","","","1","30","training","adjacent","CB","3","2","P.jpg","R.jpg","0","0","1","",""
"","feedback","","html-keyboard-response","199","237787","0.0-1.0-276.0-0.0","0","0","82247","","null","","","null","30","","","","","","","","","","","","","","","",""
"","ITI","","html-keyboard-response","200","238795","0.0-1.0-279.0","0","0","82247","","null","","","null","30","","","","","","","","","","","","","","","NaN",""
"","S1","","html-keyboard-response","201","239059","0.0-1.0-281.0","0","0","82247","","null","","","null","31","","","","","","","","","","","","","","","",""
"","ISI","","html-keyboard-response","202","239219","0.0-1.0-282.0","0","0","82247","","null","","","null","31","NaN","","","","","","","","","","","","","","",""
"","S2","","html-keyboard-response","203","239482","0.0-1.0-283.0","0","0","82247","","null","","","null","31","","NaN","","","","","","","","","","","","","",""
"","response","","html-keyboard-response","204","241241","0.0-1.0-284.0-0.0","0","0","82247","","null","","","null","31","","","1","31","training","adjacent","DC","4","3","N.jpg","P.jpg","NaN","0","0","",""
"","too_slow_prompt","","html-keyboard-response","205","242251","0.0-1.0-286.0-0.0","1","0","82247","","null","","","null","","","","","","","","","","","","","","","","",""
"","time_out","","html-keyboard-response","206","244260","0.0-1.0-287.0-0.0","0","0","82247","","null","","","null","31","","","","","","","","","","","","","","","",""
"","ITI","","html-keyboard-response","207","245268","0.0-1.0-288.0","0","0","82247","","null","","","null","31","","","","","","","","","","","","","","","NaN",""
"","S1","","html-keyboard-response","208","245523","0.0-1.0-290.0","0","0","82247","","null","","","null","32","","","","","","","","","","","","","","","",""
"","ISI","","html-keyboard-response","209","245682","0.0-1.0-291.0","0","0","82247","","null","","","null","32","NaN","","","","","","","","","","","","","","",""
"","S2","","html-keyboard-response","210","245947","0.0-1.0-292.0","0","0","82247","","null","","","null","32","","NaN","","","","","","","","","","","","","",""
"","response","","html-keyboard-response","211","246680","0.0-1.0-293.0-0.0","0","0","82247","","731","","","68","32","","","1","32","training","adjacent","DC","4","3","N.jpg","P.jpg","0","0","1","",""
"","feedback","","html-keyboard-response","212","247690","0.0-1.0-294.0-0.0","0","0","82247","","null","","","null","32","","","","","","","","","","","","","","","",""
"","ITI","","html-keyboard-response","213","248698","0.0-1.0-297.0","0","0","82247","","null","","","null","32","","","","","","","","","","","","","","","NaN",""
"","S1","","html-keyboard-response","214","248962","0.0-1.0-299.0","0","0","82247","","null","","","null","33","","","","","","","","","","","","","","","",""
"","ISI","","html-keyboard-response","215","249122","0.0-1.0-300.0","0","0","82247","","null","","","null","33","NaN","","","","","","","","","","","","","","",""
"","S2","","html-keyboard-response","216","249386","0.0-1.0-301.0","0","0","82247","","null","","","null","33","","NaN","","","","","","","","","","","","","",""
"","response","","html-keyboard-response","217","249881","0.0-1.0-302.0-0.0","0","0","82247","","493","","","75","33","","","1","33","training","adjacent","ED","5","4","O.jpg","N.jpg","1","0","0","",""
"","feedback","","html-keyboard-response","218","250889","0.0-1.0-303.0-0.0","0","0","82247","","null","","","null","33","","","","","","","","","","","","","","","",""
"","time_out","","html-keyboard-response","219","252898","0.0-1.0-305.0-0.0","0","0","82247","","null","","","null","33","","","","","","","","","","","","","","","",""
"","ITI","","html-keyboard-response","220","253908","0.0-1.0-306.0","0","0","82247","","null","","","null","33","","","","","","","","","","","","","","","NaN",""
"","S1","","html-keyboard-response","221","254169","0.0-1.0-308.0","0","0","82247","","null","","","null","34","","","","","","","","","","","","","","","",""
"","ISI","","html-keyboard-response","222","254332","0.0-1.0-309.0","0","0","82247","","null","","","null","34","NaN","","","","","","","","","","","","","","",""
"","S2","","html-keyboard-response","223","254593","0.0-1.0-310.0","0","0","82247","","null","","","null","34","","NaN","","","","","","","","","","","","","",""
"","response","","html-keyboard-response","224","255472","0.0-1.0-311.0-0.0","0","0","82247","","876","","","75","34","","","1","34","training","adjacent","FG","6","7","L.jpg","Q.jpg","1","1","1","",""
"","feedback","","html-keyboard-response","225","256482","0.0-1.0-312.0-0.0","0","0","82247","","null","","","null","34","","","","","","","","","","","","","","","",""
"","ITI","","html-keyboard-response","226","257489","0.0-1.0-315.0","0","0","82247","","null","","","null","34","","","","","","","","","","","","","","","NaN",""
"","S1","","html-keyboard-response","227","257745","0.0-1.0-317.0","0","0","82247","","null","","","null","35","","","","","","","","","","","","","","","",""
"","ISI","","html-keyboard-response","228","257907","0.0-1.0-318.0","0","0","82247","","null","","","null","35","NaN","","","","","","","","","","","","","","",""
"","S2","","html-keyboard-response","229","258172","0.0-1.0-319.0","0","0","82247","","null","","","null","35","","NaN","","","","","","","","","","","","","",""
"","response","","html-keyboard-response","230","258769","0.0-1.0-320.0-0.0","0","0","82247","","595","","","68","35","","","1","35","training","adjacent","EF","5","6","O.jpg","L.jpg","0","1","0","",""
"","feedback","","html-keyboard-response","231","259780","0.0-1.0-321.0-0.0","0","0","82247","","null","","","null","35","","","","","","","","","","","","","","","",""
"","time_out","","html-keyboard-response","232","261785","0.0-1.0-323.0-0.0","0","0","82247","","null","","","null","35","","","","","","","","","","","","","","","",""
"","ITI","","html-keyboard-response","233","262795","0.0-1.0-324.0","0","0","82247","","null","","","null","35","","","","","","","","","","","","","","","NaN",""
"","S1","","html-keyboard-response","234","263060","0.0-1.0-326.0","0","0","82247","","null","","","null","36","","","","","","","","","","","","","","","",""
"","ISI","","html-keyboard-response","235","263219","0.0-1.0-327.0","0","0","82247","","null","","","null","36","NaN","","","","","","","","","","","","","","",""
"","S2","","html-keyboard-response","236","263484","0.0-1.0-328.0","0","0","82247","","null","","","null","36","","NaN","","","","","","","","","","","","","",""
"","response","","html-keyboard-response","237","264376","0.0-1.0-329.0-0.0","0","0","82247","","889","","","68","36","","","1","36","training","adjacent","GF","7","6","Q.jpg","L.jpg","0","0","1","",""
"","feedback","","html-keyboard-response","238","265387","0.0-1.0-330.0-0.0","0","0","82247","","null","","","null","36","","","","","","","","","","","","","","","",""
"","ITI","","html-keyboard-response","239","266394","0.0-1.0-333.0","0","0","82247","","null","","","null","36","","","","","","","","","","","","","","","NaN",""
"","S1","","html-keyboard-response","240","266659","0.0-1.0-335.0","0","0","82247","","null","","","null","37","","","","","","","","","","","","","","","",""
"","ISI","","html-keyboard-response","241","266818","0.0-1.0-336.0","0","0","82247","","null","","","null","37","NaN","","","","","","","","","","","","","","",""
"","S2","","html-keyboard-response","242","267083","0.0-1.0-337.0","0","0","82247","","null","","","null","37","","NaN","","","","","","","","","","","","","",""
"","response","","html-keyboard-response","243","267605","0.0-1.0-338.0-0.0","0","0","82247","","520","","","75","37","","","1","37","training","adjacent","DC","4","3","N.jpg","P.jpg","1","0","0","",""
"","feedback","","html-keyboard-response","244","268617","0.0-1.0-339.0-0.0","0","0","82247","","null","","","null","37","","","","","","","","","","","","","","","",""
"","time_out","","html-keyboard-response","245","270626","0.0-1.0-341.0-0.0","0","0","82247","","null","","","null","37","","","","","","","","","","","","","","","",""
"","ITI","","html-keyboard-response","246","271632","0.0-1.0-342.0","0","0","82247","","null","","","null","37","","","","","","","","","","","","","","","NaN",""
"","S1","","html-keyboard-response","247","271891","0.0-1.0-344.0","0","0","82247","","null","","","null","38","","","","","","","","","","","","","","","",""
"","ISI","","html-keyboard-response","248","272052","0.0-1.0-345.0","0","0","82247","","null","","","null","38","NaN","","","","","","","","","","","","","","",""
"","S2","","html-keyboard-response","249","272315","0.0-1.0-346.0","0","0","82247","","null","","","null","38","","NaN","","","","","","","","","","","","","",""
"","response","","html-keyboard-response","250","272753","0.0-1.0-347.0-0.0","0","0","82247","","435","","","68","38","","","1","38","training","adjacent","ED","5","4","O.jpg","N.jpg","0","0","1","",""
"","feedback","","html-keyboard-response","251","273761","0.0-1.0-348.0-0.0","0","0","82247","","null","","","null","38","","","","","","","","","","","","","","","",""
"","ITI","","html-keyboard-response","252","274771","0.0-1.0-351.0","0","0","82247","","null","","","null","38","","","","","","","","","","","","","","","NaN",""
"","S1","","html-keyboard-response","253","275035","0.0-1.0-353.0","0","0","82247","","null","","","null","39","","","","","","","","","","","","","","","",""
"","ISI","","html-keyboard-response","254","275194","0.0-1.0-354.0","0","0","82247","","null","","","null","39","NaN","","","","","","","","","","","","","","",""
"","S2","","html-keyboard-response","255","275459","0.0-1.0-355.0","0","0","82247","","null","","","null","39","","NaN","","","","","","","","","","","","","",""
"","response","","html-keyboard-response","256","276056","0.0-1.0-356.0-0.0","0","0","82247","","595","","","75","39","","","1","39","training","adjacent","BA","2","1","R.jpg","M.jpg","1","0","0","",""
"","feedback","","html-keyboard-response","257","277067","0.0-1.0-357.0-0.0","0","0","82247","","null","","","null","39","","","","","","","","","","","","","","","",""
"","time_out","","html-keyboard-response","258","279076","0.0-1.0-359.0-0.0","0","0","82247","","null","","","null","39","","","","","","","","","","","","","","","",""
"","ITI","","html-keyboard-response","259","280082","0.0-1.0-360.0","0","0","82247","","null","","","null","39","","","","","","","","","","","","","","","NaN",""
"","S1","","html-keyboard-response","260","280347","0.0-1.0-362.0","0","0","82247","","null","","","null","40","","","","","","","","","","","","","","","",""
"","ISI","","html-keyboard-response","261","280506","0.0-1.0-363.0","0","0","82247","","null","","","null","40","NaN","","","","","","","","","","","","","","",""
"","S2","","html-keyboard-response","262","280771","0.0-1.0-364.0","0","0","82247","","null","","","null","40","","NaN","","","","","","","","","","","","","",""
"","response","","html-keyboard-response","263","281241","0.0-1.0-365.0-0.0","0","0","82247","","468","","","68","40","","","1","40","training","adjacent","FG","6","7","L.jpg","Q.jpg","0","1","0","",""
"","feedback","","html-keyboard-response","264","282251","0.0-1.0-366.0-0.0","0","0","82247","","null","","","null","40","","","","","","","","","","","","","","","",""
"","time_out","","html-keyboard-response","265","284259","0.0-1.0-368.0-0.0","0","0","82247","","null","","","null","40","","","","","","","","","","","","","","","",""
"","ITI","","html-keyboard-response","266","285266","0.0-1.0-369.0","0","0","82247","","null","","","null","40","","","","","","","","","","","","","","","NaN",""
"","S1","","html-keyboard-response","267","285531","0.0-1.0-371.0","0","0","82247","","null","","","null","41","","","","","","","","","","","","","","","",""
"","ISI","","html-keyboard-response","268","285687","0.0-1.0-372.0","0","0","82247","","null","","","null","41","NaN","","","","","","","","","","","","","","",""
"","S2","","html-keyboard-response","269","285945","0.0-1.0-373.0","0","0","82247","","null","","","null","41","","NaN","","","","","","","","","","","","","",""
"","response","","html-keyboard-response","270","286276","0.0-1.0-374.0-0.0","0","0","82247","","328","","","75","41","","","1","41","training","adjacent","EF","5","6","O.jpg","L.jpg","1","1","1","",""
"","feedback","","html-keyboard-response","271","287284","0.0-1.0-375.0-0.0","0","0","82247","","null","","","null","41","","","","","","","","","","","","","","","",""
"","ITI","","html-keyboard-response","272","288300","0.0-1.0-378.0","0","0","82247","","null","","","null","41","","","","","","","","","","","","","","","NaN",""
"","S1","","html-keyboard-response","273","288563","0.0-1.0-380.0","0","0","82247","","null","","","null","42","","","","","","","","","","","","","","","",""
"","ISI","","html-keyboard-response","274","288723","0.0-1.0-381.0","0","0","82247","","null","","","null","42","NaN","","","","","","","","","","","","","","",""
"","S2","","html-keyboard-response","275","288987","0.0-1.0-382.0","0","0","82247","","null","","","null","42","","NaN","","","","","","","","","","","","","",""
"","response","","html-keyboard-response","276","289386","0.0-1.0-383.0-0.0","0","0","82247","","396","","","75","42","","","1","42","training","adjacent","BC","2","3","R.jpg","P.jpg","1","1","1","",""
"","feedback","","html-keyboard-response","277","290395","0.0-1.0-384.0-0.0","0","0","82247","","null","","","null","42","","","","","","","","","","","","","","","",""
"","ITI","","html-keyboard-response","278","291402","0.0-1.0-387.0","0","0","82247","","null","","","null","42","","","","","","","","","","","","","","","NaN",""
"","S1","","html-keyboard-response","279","291667","0.0-1.0-389.0","0","0","82247","","null","","","null","43","","","","","","","","","","","","","","","",""
"","ISI","","html-keyboard-response","280","291825","0.0-1.0-390.0","0","0","82247","","null","","","null","43","NaN","","","","","","","","","","","","","","",""
"","S2","","html-keyboard-response","281","292081","0.0-1.0-391.0","0","0","82247","","null","","","null","43","","NaN","","","","","","","","","","","","","",""
"","response","","html-keyboard-response","282","292450","0.0-1.0-392.0-0.0","0","0","82247","","367","","","75","43","","","1","43","training","adjacent","EF","5","6","O.jpg","L.jpg","1","1","1","",""
"","feedback","","html-keyboard-response","283","293457","0.0-1.0-393.0-0.0","0","0","82247","","null","","","null","43","","","","","","","","","","","","","","","",""
"","ITI","","html-keyboard-response","284","294467","0.0-1.0-396.0","0","0","82247","","null","","","null","43","","","","","","","","","","","","","","","NaN",""
"","S1","","html-keyboard-response","285","294732","0.0-1.0-398.0","0","0","82247","","null","","","null","44","","","","","","","","","","","","","","","",""
"","ISI","","html-keyboard-response","286","294891","0.0-1.0-399.0","0","0","82247","","null","","","null","44","NaN","","","","","","","","","","","","","","",""
"","S2","","html-keyboard-response","287","295155","0.0-1.0-400.0","0","0","82247","","null","","","null","44","","NaN","","","","","","","","","","","","","",""
"","response","","html-keyboard-response","288","295782","0.0-1.0-401.0-0.0","0","0","82247","","625","","","75","44","","","1","44","training","adjacent","DE","4","5","N.jpg","O.jpg","1","1","1","",""
"","feedback","","html-keyboard-response","289","296795","0.0-1.0-402.0-0.0","0","0","82247","","null","","","null","44","","","","","","","","","","","","","","","",""
"","ITI","","html-keyboard-response","290","297802","0.0-1.0-405.0","0","0","82247","","null","","","null","44","","","","","","","","","","","","","","","NaN",""
"","S1","","html-keyboard-response","291","298066","0.0-1.0-407.0","0","0","82247","","null","","","null","45","","","","","","","","","","","","","","","",""
"","ISI","","html-keyboard-response","292","298226","0.0-1.0-408.0","0","0","82247","","null","","","null","45","NaN","","","","","","","","","","","","","","",""
"","S2","","html-keyboard-response","293","298490","0.0-1.0-409.0","0","0","82247","","null","","","null","45","","NaN","","","","","","","","","","","","","",""
"","response","","html-keyboard-response","294","298907","0.0-1.0-410.0-0.0","0","0","82247","","414","","","75","45","","","1","45","training","adjacent","FE","6","5","L.jpg","O.jpg","1","0","0","",""
"","feedback","","html-keyboard-response","295","299915","0.0-1.0-411.0-0.0","0","0","82247","","null","","","null","45","","","","","","","","","","","","","","","",""
"","time_out","","html-keyboard-response","296","301921","0.0-1.0-413.0-0.0","0","0","82247","","null","","","null","45","","","","","","","","","","","","","","","",""
"","ITI","","html-keyboard-response","297","302931","0.0-1.0-414.0","0","0","82247","","null","","","null","45","","","","","","","","","","","","","","","NaN",""
"","S1","","html-keyboard-response","298","303195","0.0-1.0-416.0","0","0","82247","","null","","","null","46","","","","","","","","","","","","","","","",""
"","ISI","","html-keyboard-response","299","303354","0.0-1.0-417.0","0","0","82247","","null","","","null","46","NaN","","","","","","","","","","","","","","",""
"","S2","","html-keyboard-response","300","303619","0.0-1.0-418.0","0","0","82247","","null","","","null","46","","NaN","","","","","","","","","","","","","",""
"","response","","html-keyboard-response","301","304153","0.0-1.0-419.0-0.0","0","0","82247","","531","","","68","46","","","1","46","training","adjacent","BA","2","1","R.jpg","M.jpg","0","0","1","",""
"","feedback","","html-keyboard-response","302","305163","0.0-1.0-420.0-0.0","0","0","82247","","null","","","null","46","","","","","","","","","","","","","","","",""
"","ITI","","html-keyboard-response","303","306170","0.0-1.0-423.0","0","0","82247","","null","","","null","46","","","","","","","","","","","","","","","NaN",""
"","S1","","html-keyboard-response","304","306434","0.0-1.0-425.0","0","0","82247","","null","","","null","47","","","","","","","","","","","","","","","",""
"","ISI","","html-keyboard-response","305","306593","0.0-1.0-426.0","0","0","82247","","null","","","null","47","NaN","","","","","","","","","","","","","","",""
"","S2","","html-keyboard-response","306","306858","0.0-1.0-427.0","0","0","82247","","null","","","null","47","","NaN","","","","","","","","","","","","","",""
"","response","","html-keyboard-response","307","307273","0.0-1.0-428.0-0.0","0","0","82247","","413","","","68","47","","","1","47","training","adjacent","GF","7","6","Q.jpg","L.jpg","0","0","1","",""
"","feedback","","html-keyboard-response","308","308283","0.0-1.0-429.0-0.0","0","0","82247","","null","","","null","47","","","","","","","","","","","","","","","",""
"","ITI","","html-keyboard-response","309","309290","0.0-1.0-432.0","0","0","82247","","null","","","null","47","","","","","","","","","","","","","","","NaN",""
"","block_over","","html-keyboard-response","310","315216","0.0-1.0-433.0-0.0","0","0","82247","","5923","","","32","47","","","","","","","","","","","","","","","",""
"","S1","","html-keyboard-response","311","315475","0.0-1.0-434.0","0","0","82247","","null","","","null","48","","","","","","","","","","","","","","","",""
"","ISI","","html-keyboard-response","312","315635","0.0-1.0-435.0","0","0","82247","","null","","","null","48","NaN","","","","","","","","","","","","","","",""
"","S2","","html-keyboard-response","313","315899","0.0-1.0-436.0","0","0","82247","","null","","","null","48","","NaN","","","","","","","","","","","","","",""
"","response","","html-keyboard-response","314","316258","0.0-1.0-437.0-0.0","0","0","82247","","357","","","75","48","","","2","48","training","adjacent","AB","1","2","M.jpg","R.jpg","1","1","1","",""
"","feedback","","html-keyboard-response","315","317266","0.0-1.0-438.0-0.0","0","0","82247","","null","","","null","48","","","","","","","","","","","","","","","",""
"","ITI","","html-keyboard-response","316","318273","0.0-1.0-441.0","0","0","82247","","null","","","null","48","","","","","","","","","","","","","","","NaN",""
"","S1","","html-keyboard-response","317","318529","0.0-1.0-443.0","0","0","82247","","null","","","null","49","","","","","","","","","","","","","","","",""
"","ISI","","html-keyboard-response","318","318691","0.0-1.0-444.0","0","0","82247","","null","","","null","49","NaN","","","","","","","","","","","","","","",""
"","S2","","html-keyboard-response","319","318956","0.0-1.0-445.0","0","0","82247","","null","","","null","49","","NaN","","","","","","","","","","","","","",""
"","response","","html-keyboard-response","320","319238","0.0-1.0-446.0-0.0","0","0","82247","","280","","","75","49","","","2","49","training","adjacent","DC","4","3","N.jpg","P.jpg","1","0","0","",""
"","feedback","","html-keyboard-response","321","320250","0.0-1.0-447.0-0.0","0","0","82247","","null","","","null","49","","","","","","","","","","","","","","","",""
"","time_out","","html-keyboard-response","322","322258","0.0-1.0-449.0-0.0","0","0","82247","","null","","","null","49","","","","","","","","","","","","","","","",""
"","ITI","","html-keyboard-response","323","323265","0.0-1.0-450.0","0","0","82247","","null","","","null","49","","","","","","","","","","","","","","","NaN",""
"","S1","","html-keyboard-response","324","323521","0.0-1.0-452.0","0","0","82247","","null","","","null","50","","","","","","","","","","","","","","","",""
"","ISI","","html-keyboard-response","325","323683","0.0-1.0-453.0","0","0","82247","","null","","","null","50","NaN","","","","","","","","","","","","","","",""
"","S2","","html-keyboard-response","326","323944","0.0-1.0-454.0","0","0","82247","","null","","","null","50","","NaN","","","","","","","","","","","","","",""
"","response","","html-keyboard-response","327","324261","0.0-1.0-455.0-0.0","0","0","82247","","314","","","75","50","","","2","50","training","adjacent","GF","7","6","Q.jpg","L.jpg","1","0","0","",""
"","feedback","","html-keyboard-response","328","325274","0.0-1.0-456.0-0.0","0","0","82247","","null","","","null","50","","","","","","","","","","","","","","","",""
"","time_out","","html-keyboard-response","329","327283","0.0-1.0-458.0-0.0","0","0","82247","","null","","","null","50","","","","","","","","","","","","","","","",""
"","ITI","","html-keyboard-response","330","328290","0.0-1.0-459.0","0","0","82247","","null","","","null","50","","","","","","","","","","","","","","","NaN",""
"","S1","","html-keyboard-response","331","328554","0.0-1.0-461.0","0","0","82247","","null","","","null","51","","","","","","","","","","","","","","","",""
"","ISI","","html-keyboard-response","332","328714","0.0-1.0-462.0","0","0","82247","","null","","","null","51","NaN","","","","","","","","","","","","","","",""
"","S2","","html-keyboard-response","333","328977","0.0-1.0-463.0","0","0","82247","","null","","","null","51","","NaN","","","","","","","","","","","","","",""
"","response","","html-keyboard-response","334","329167","0.0-1.0-464.0-0.0","0","0","82247","","188","","","68","51","","","2","51","training","adjacent","CD","3","4","P.jpg","N.jpg","0","1","0","",""
"","feedback","","html-keyboard-response","335","330179","0.0-1.0-465.0-0.0","0","0","82247","","null","","","null","51","","","","","","","","","","","","","","","",""
"","time_out","","html-keyboard-response","336","332188","0.0-1.0-467.0-0.0","0","0","82247","","null","","","null","51","","","","","","","","","","","","","","","",""
"","ITI","","html-keyboard-response","337","333204","0.0-1.0-468.0","0","0","82247","","null","","","null","51","","","","","","","","","","","","","","","NaN",""
"","S1","","html-keyboard-response","338","333465","0.0-1.0-470.0","0","0","82247","","null","","","null","52","","","","","","","","","","","","","","","",""
"","ISI","","html-keyboard-response","339","333627","0.0-1.0-471.0","0","0","82247","","null","","","null","52","NaN","","","","","","","","","","","","","","",""
"","S2","","html-keyboard-response","340","333888","0.0-1.0-472.0","0","0","82247","","null","","","null","52","","NaN","","","","","","","","","","","","","",""
"","response","","html-keyboard-response","341","334496","0.0-1.0-473.0-0.0","0","0","82247","","606","","","75","52","","","2","52","training","adjacent","FG","6","7","L.jpg","Q.jpg","1","1","1","",""
"","feedback","","html-keyboard-response","342","335505","0.0-1.0-474.0-0.0","0","0","82247","","null","","","null","52","","","","","","","","","","","","","","","",""
"","ITI","","html-keyboard-response","343","336512","0.0-1.0-477.0","0","0","82247","","null","","","null","52","","","","","","","","","","","","","","","NaN",""
"","S1","","html-keyboard-response","344","336771","0.0-1.0-479.0","0","0","82247","","null","","","null","53","","","","","","","","","","","","","","","",""
"","ISI","","html-keyboard-response","345","336930","0.0-1.0-480.0","0","0","82247","","null","","","null","53","NaN","","","","","","","","","","","","","","",""
"","S2","","html-keyboard-response","346","337195","0.0-1.0-481.0","0","0","82247","","null","","","null","53","","NaN","","","","","","","","","","","","","",""
"","response","","html-keyboard-response","347","337811","0.0-1.0-482.0-0.0","0","0","82247","","614","","","68","53","","","2","53","training","adjacent","BA","2","1","R.jpg","M.jpg","0","0","1","",""
"","feedback","","html-keyboard-response","348","338817","0.0-1.0-483.0-0.0","0","0","82247","","null","","","null","53","","","","","","","","","","","","","","","",""
"","ITI","","html-keyboard-response","349","339826","0.0-1.0-486.0","0","0","82247","","null","","","null","53","","","","","","","","","","","","","","","NaN",""
"","S1","","html-keyboard-response","350","340092","0.0-1.0-488.0","0","0","82247","","null","","","null","54","","","","","","","","","","","","","","","",""
"","ISI","","html-keyboard-response","351","340251","0.0-1.0-489.0","0","0","82247","","null","","","null","54","NaN","","","","","","","","","","","","","","",""
"","S2","","html-keyboard-response","352","340515","0.0-1.0-490.0","0","0","82247","","null","","","null","54","","NaN","","","","","","","","","","","","","",""
"","response","","html-keyboard-response","353","341084","0.0-1.0-491.0-0.0","0","0","82247","","567","","","75","54","","","2","54","training","adjacent","FG","6","7","L.jpg","Q.jpg","1","1","1","",""
"","feedback","","html-keyboard-response","354","342097","0.0-1.0-492.0-0.0","0","0","82247","","null","","","null","54","","","","","","","","","","","","","","","",""
"","ITI","","html-keyboard-response","355","343107","0.0-1.0-495.0","0","0","82247","","null","","","null","54","","","","","","","","","","","","","","","NaN",""
"","S1","","html-keyboard-response","356","343371","0.0-1.0-497.0","0","0","82247","","null","","","null","55","","","","","","","","","","","","","","","",""
"","ISI","","html-keyboard-response","357","343530","0.0-1.0-498.0","0","0","82247","","null","","","null","55","NaN","","","","","","","","","","","","","","",""
"","S2","","html-keyboard-response","358","343795","0.0-1.0-499.0","0","0","82247","","null","","","null","55","","NaN","","","","","","","","","","","","","",""
"","response","","html-keyboard-response","359","344235","0.0-1.0-500.0-0.0","0","0","82247","","437","","","68","55","","","2","55","training","adjacent","DE","4","5","N.jpg","O.jpg","0","1","0","",""
"","feedback","","html-keyboard-response","360","345243","0.0-1.0-501.0-0.0","0","0","82247","","null","","","null","55","","","","","","","","","","","","","","","",""
"","time_out","","html-keyboard-response","361","347251","0.0-1.0-503.0-0.0","0","0","82247","","null","","","null","55","","","","","","","","","","","","","","","",""
"","ITI","","html-keyboard-response","362","348259","0.0-1.0-504.0","0","0","82247","","null","","","null","55","","","","","","","","","","","","","","","NaN",""
"","S1","","html-keyboard-response","363","348523","0.0-1.0-506.0","0","0","82247","","null","","","null","56","","","","","","","","","","","","","","","",""
"","ISI","","html-keyboard-response","364","348683","0.0-1.0-507.0","0","0","82247","","null","","","null","56","NaN","","","","","","","","","","","","","","",""
"","S2","","html-keyboard-response","365","348947","0.0-1.0-508.0","0","0","82247","","null","","","null","56","","NaN","","","","","","","","","","","","","",""
"","response","","html-keyboard-response","366","349253","0.0-1.0-509.0-0.0","0","0","82247","","304","","","75","56","","","2","56","training","adjacent","ED","5","4","O.jpg","N.jpg","1","0","0","",""
"","feedback","","html-keyboard-response","367","350264","0.0-1.0-510.0-0.0","0","0","82247","","null","","","null","56","","","","","","","","","","","","","","","",""
"","time_out","","html-keyboard-response","368","352273","0.0-1.0-512.0-0.0","0","0","82247","","null","","","null","56","","","","","","","","","","","","","","","",""
"","ITI","","html-keyboard-response","369","353283","0.0-1.0-513.0","0","0","82247","","null","","","null","56","","","","","","","","","","","","","","","NaN",""
"","S1","","html-keyboard-response","370","353548","0.0-1.0-515.0","0","0","82247","","null","","","null","57","","","","","","","","","","","","","","","",""
"","ISI","","html-keyboard-response","371","353707","0.0-1.0-516.0","0","0","82247","","null","","","null","57","NaN","","","","","","","","","","","","","","",""
"","S2","","html-keyboard-response","372","353971","0.0-1.0-517.0","0","0","82247","","null","","","null","57","","NaN","","","","","","","","","","","","","",""
"","response","","html-keyboard-response","373","354173","0.0-1.0-518.0-0.0","0","0","82247","","199","","","75","57","","","2","57","training","adjacent","BC","2","3","R.jpg","P.jpg","1","1","1","",""
"","feedback","","html-keyboard-response","374","355187","0.0-1.0-519.0-0.0","0","0","82247","","null","","","null","57","","","","","","","","","","","","","","","",""
"","ITI","","html-keyboard-response","375","356194","0.0-1.0-522.0","0","0","82247","","null","","","null","57","","","","","","","","","","","","","","","NaN",""
"","S1","","html-keyboard-response","376","356458","0.0-1.0-524.0","0","0","82247","","null","","","null","58","","","","","","","","","","","","","","","",""
"","ISI","","html-keyboard-response","377","356618","0.0-1.0-525.0","0","0","82247","","null","","","null","58","NaN","","","","","","","","","","","","","","",""
"","S2","","html-keyboard-response","378","356882","0.0-1.0-526.0","0","0","82247","","null","","","null","58","","NaN","","","","","","","","","","","","","",""
"","response","","html-keyboard-response","379","357561","0.0-1.0-527.0-0.0","0","0","82247","","676","","","75","58","","","2","58","training","adjacent","CD","3","4","P.jpg","N.jpg","1","1","1","",""
"","feedback","","html-keyboard-response","380","358571","0.0-1.0-528.0-0.0","0","0","82247","","null","","","null","58","","","","","","","","","","","","","","","",""
"","ITI","","html-keyboard-response","381","359578","0.0-1.0-531.0","0","0","82247","","null","","","null","58","","","","","","","","","","","","","","","NaN",""
"","S1","","html-keyboard-response","382","359842","0.0-1.0-533.0","0","0","82247","","null","","","null","59","","","","","","","","","","","","","","","",""
"","ISI","","html-keyboard-response","383","360003","0.0-1.0-534.0","0","0","82247","","null","","","null","59","NaN","","","","","","","","","","","","","","",""
"","S2","","html-keyboard-response","384","360266","0.0-1.0-535.0","0","0","82247","","null","","","null","59","","NaN","","","","","","","","","","","","","",""
"","response","","html-keyboard-response","385","360784","0.0-1.0-536.0-0.0","0","0","82247","","516","","","75","59","","","2","59","training","adjacent","FE","6","5","L.jpg","O.jpg","1","0","0","",""
"","feedback","","html-keyboard-response","386","361793","0.0-1.0-537.0-0.0","0","0","82247","","null","","","null","59","","","","","","","","","","","","","","","",""
"","time_out","","html-keyboard-response","387","363801","0.0-1.0-539.0-0.0","0","0","82247","","null","","","null","59","","","","","","","","","","","","","","","",""
"","ITI","","html-keyboard-response","388","364811","0.0-1.0-540.0","0","0","82247","","null","","","null","59","","","","","","","","","","","","","","","NaN",""
"","S1","","html-keyboard-response","389","365073","0.0-1.0-542.0","0","0","82247","","null","","","null","60","","","","","","","","","","","","","","","",""
"","ISI","","html-keyboard-response","390","365235","0.0-1.0-543.0","0","0","82247","","null","","","null","60","NaN","","","","","","","","","","","","","","",""
"","S2","","html-keyboard-response","391","365497","0.0-1.0-544.0","0","0","82247","","null","","","null","60","","NaN","","","","","","","","","","","","","",""
"","response","","html-keyboard-response","392","365768","0.0-1.0-545.0-0.0","0","0","82247","","268","","","75","60","","","2","60","training","adjacent","FG","6","7","L.jpg","Q.jpg","1","1","1","",""
"","feedback","","html-keyboard-response","393","366780","0.0-1.0-546.0-0.0","0","0","82247","","null","","","null","60","","","","","","","","","","","","","","","",""
"","ITI","","html-keyboard-response","394","367795","0.0-1.0-549.0","0","0","82247","","null","","","null","60","","","","","","","","","","","","","","","NaN",""
"","S1","","html-keyboard-response","395","368056","0.0-1.0-551.0","0","0","82247","","null","","","null","61","","","","","","","","","","","","","","","",""
"","ISI","","html-keyboard-response","396","368219","0.0-1.0-552.0","0","0","82247","","null","","","null","61","NaN","","","","","","","","","","","","","","",""
"","S2","","html-keyboard-response","397","368480","0.0-1.0-553.0","0","0","82247","","null","","","null","61","","NaN","","","","","","","","","","","","","",""
"","response","","html-keyboard-response","398","368534","0.0-1.0-554.0-0.0","0","0","82247","","52","","","75","61","","","2","61","training","adjacent","GF","7","6","Q.jpg","L.jpg","1","0","0","",""
"","feedback","","html-keyboard-response","399","369546","0.0-1.0-555.0-0.0","0","0","82247","","null","","","null","61","","","","","","","","","","","","","","","",""
"","time_out","","html-keyboard-response","400","371554","0.0-1.0-557.0-0.0","0","0","82247","","null","","","null","61","","","","","","","","","","","","","","","",""
"","ITI","","html-keyboard-response","401","372561","0.0-1.0-558.0","0","0","82247","","null","","","null","61","","","","","","","","","","","","","","","NaN",""
"","S1","","html-keyboard-response","402","372817","0.0-1.0-560.0","0","0","82247","","null","","","null","62","","","","","","","","","","","","","","","",""
"","ISI","","html-keyboard-response","403","372979","0.0-1.0-561.0","0","0","82247","","null","","","null","62","NaN","","","","","","","","","","","","","","",""
"","S2","","html-keyboard-response","404","373240","0.0-1.0-562.0","0","0","82247","","null","","","null","62","","NaN","","","","","","","","","","","","","",""
"","response","","html-keyboard-response","405","373625","0.0-1.0-563.0-0.0","0","0","82247","","382","","","75","62","","","2","62","training","adjacent","FE","6","5","L.jpg","O.jpg","1","0","0","",""
"","feedback","","html-keyboard-response","406","374633","0.0-1.0-564.0-0.0","0","0","82247","","null","","","null","62","","","","","","","","","","","","","","","",""
"","time_out","","html-keyboard-response","407","376642","0.0-1.0-566.0-0.0","0","0","82247","","null","","","null","62","","","","","","","","","","","","","","","",""
"","ITI","","html-keyboard-response","408","377650","0.0-1.0-567.0","0","0","82247","","null","","","null","62","","","","","","","","","","","","","","","NaN",""
"","S1","","html-keyboard-response","409","377913","0.0-1.0-569.0","0","0","82247","","null","","","null","63","","","","","","","","","","","","","","","",""
"","ISI","","html-keyboard-response","410","378073","0.0-1.0-570.0","0","0","82247","","null","","","null","63","NaN","","","","","","","","","","","","","","",""
"","S2","","html-keyboard-response","411","378331","0.0-1.0-571.0","0","0","82247","","null","","","null","63","","NaN","","","","","","","","","","","","","",""
"","response","","html-keyboard-response","412","378651","0.0-1.0-572.0-0.0","0","0","82247","","317","","","68","63","","","2","63","training","adjacent","DC","4","3","N.jpg","P.jpg","0","0","1","",""
"","feedback","","html-keyboard-response","413","379658","0.0-1.0-573.0-0.0","0","0","82247","","null","","","null","63","","","","","","","","","","","","","","","",""
"","ITI","","html-keyboard-response","414","380665","0.0-1.0-576.0","0","0","82247","","null","","","null","63","","","","","","","","","","","","","","","NaN",""
"","S1","","html-keyboard-response","415","380920","0.0-1.0-578.0","0","0","82247","","null","","","null","64","","","","","","","","","","","","","","","",""
"","ISI","","html-keyboard-response","416","381083","0.0-1.0-579.0","0","0","82247","","null","","","null","64","NaN","","","","","","","","","","","","","","",""
"","S2","","html-keyboard-response","417","381348","0.0-1.0-580.0","0","0","82247","","null","","","null","64","","NaN","","","","","","","","","","","","","",""
"","response","","html-keyboard-response","418","381784","0.0-1.0-581.0-0.0","0","0","82247","","433","","","68","64","","","2","64","training","adjacent","CD","3","4","P.jpg","N.jpg","0","1","0","",""
"","feedback","","html-keyboard-response","419","382795","0.0-1.0-582.0-0.0","0","0","82247","","null","","","null","64","","","","","","","","","","","","","","","",""
"","time_out","","html-keyboard-response","420","384810","0.0-1.0-584.0-0.0","0","0","82247","","null","","","null","64","","","","","","","","","","","","","","","",""
"","ITI","","html-keyboard-response","421","385817","0.0-1.0-585.0","0","0","82247","","null","","","null","64","","","","","","","","","","","","","","","NaN",""
"","S1","","html-keyboard-response","422","386075","0.0-1.0-587.0","0","0","82247","","null","","","null","65","","","","","","","","","","","","","","","",""
"","ISI","","html-keyboard-response","423","386235","0.0-1.0-588.0","0","0","82247","","null","","","null","65","NaN","","","","","","","","","","","","","","",""
"","S2","","html-keyboard-response","424","386499","0.0-1.0-589.0","0","0","82247","","null","","","null","65","","NaN","","","","","","","","","","","","","",""
"","response","","html-keyboard-response","425","386727","0.0-1.0-590.0-0.0","0","0","82247","","225","","","68","65","","","2","65","training","adjacent","DE","4","5","N.jpg","O.jpg","0","1","0","",""
"","feedback","","html-keyboard-response","426","387738","0.0-1.0-591.0-0.0","0","0","82247","","null","","","null","65","","","","","","","","","","","","","","","",""
"","time_out","","html-keyboard-response","427","389747","0.0-1.0-593.0-0.0","0","0","82247","","null","","","null","65","","","","","","","","","","","","","","","",""
"","ITI","","html-keyboard-response","428","390754","0.0-1.0-594.0","0","0","82247","","null","","","null","65","","","","","","","","","","","","","","","NaN",""
"","S1","","html-keyboard-response","429","391019","0.0-1.0-596.0","0","0","82247","","null","","","null","66","","","","","","","","","","","","","","","",""
"","ISI","","html-keyboard-response","430","391178","0.0-1.0-597.0","0","0","82247","","null","","","null","66","NaN","","","","","","","","","","","","","","",""
"","S2","","html-keyboard-response","431","391442","0.0-1.0-598.0","0","0","82247","","null","","","null","66","","NaN","","","","","","","","","","","","","",""
"","response","","html-keyboard-response","432","391659","0.0-1.0-599.0-0.0","0","0","82247","","215","","","75","66","","","2","66","training","adjacent","CB","3","2","P.jpg","R.jpg","1","0","0","",""
"","feedback","","html-keyboard-response","433","392675","0.0-1.0-600.0-0.0","0","0","82247","","null","","","null","66","","","","","","","","","","","","","","","",""
"","time_out","","html-keyboard-response","434","394690","0.0-1.0-602.0-0.0","0","0","82247","","null","","","null","66","","","","","","","","","","","","","","","",""
"","ITI","","html-keyboard-response","435","395697","0.0-1.0-603.0","0","0","82247","","null","","","null","66","","","","","","","","","","","","","","","NaN",""
"","S1","","html-keyboard-response","436","395961","0.0-1.0-605.0","0","0","82247","","null","","","null","67","","","","","","","","","","","","","","","",""
"","ISI","","html-keyboard-response","437","396115","0.0-1.0-606.0","0","0","82247","","null","","","null","67","NaN","","","","","","","","","","","","","","",""
"","S2","","html-keyboard-response","438","396379","0.0-1.0-607.0","0","0","82247","","null","","","null","67","","NaN","","","","","","","","","","","","","",""
"","response","","html-keyboard-response","439","396435","0.0-1.0-608.0-0.0","0","0","82247","","53","","","75","67","","","2","67","training","adjacent","FE","6","5","L.jpg","O.jpg","1","0","0","",""
"","feedback","","html-keyboard-response","440","397441","0.0-1.0-609.0-0.0","0","0","82247","","null","","","null","67","","","","","","","","","","","","","","","",""
"","time_out","","html-keyboard-response","441","399450","0.0-1.0-611.0-0.0","0","0","82247","","null","","","null","67","","","","","","","","","","","","","","","",""
"","ITI","","html-keyboard-response","442","400457","0.0-1.0-612.0","0","0","82247","","null","","","null","67","","","","","","","","","","","","","","","NaN",""
"","S1","","html-keyboard-response","443","400715","0.0-1.0-614.0","0","0","82247","","null","","","null","68","","","","","","","","","","","","","","","",""
"","ISI","","html-keyboard-response","444","400875","0.0-1.0-615.0","0","0","82247","","null","","","null","68","NaN","","","","","","","","","","","","","","",""
"","S2","","html-keyboard-response","445","401139","0.0-1.0-616.0","0","0","82247","","null","","","null","68","","NaN","","","","","","","","","","","","","",""
"","response","","html-keyboard-response","446","401677","0.0-1.0-617.0-0.0","0","0","82247","","535","","","75","68","","","2","68","training","adjacent","BC","2","3","R.jpg","P.jpg","1","1","1","",""
"","feedback","","html-keyboard-response","447","402688","0.0-1.0-618.0-0.0","0","0","82247","","null","","","null","68","","","","","","","","","","","","","","","",""
"","ITI","","html-keyboard-response","448","403699","0.0-1.0-621.0","0","0","82247","","null","","","null","68","","","","","","","","","","","","","","","NaN",""
"","S1","","html-keyboard-response","449","403960","0.0-1.0-623.0","0","0","82247","","null","","","null","69","","","","","","","","","","","","","","","",""
"","ISI","","html-keyboard-response","450","404123","0.0-1.0-624.0","0","0","82247","","null","","","null","69","NaN","","","","","","","","","","","","","","",""
"","S2","","html-keyboard-response","451","404387","0.0-1.0-625.0","0","0","82247","","null","","","null","69","","NaN","","","","","","","","","","","","","",""
"","response","","html-keyboard-response","452","404933","0.0-1.0-626.0-0.0","0","0","82247","","544","","","75","69","","","2","69","training","adjacent","FE","6","5","L.jpg","O.jpg","1","0","0","",""
"","feedback","","html-keyboard-response","453","405946","0.0-1.0-627.0-0.0","0","0","82247","","null","","","null","69","","","","","","","","","","","","","","","",""
"","time_out","","html-keyboard-response","454","407953","0.0-1.0-629.0-0.0","0","0","82247","","null","","","null","69","","","","","","","","","","","","","","","",""
"","ITI","","html-keyboard-response","455","408962","0.0-1.0-630.0","0","0","82247","","null","","","null","69","","","","","","","","","","","","","","","NaN",""
"","S1","","html-keyboard-response","456","409226","0.0-1.0-632.0","0","0","82247","","null","","","null","70","","","","","","","","","","","","","","","",""
"","ISI","","html-keyboard-response","457","409385","0.0-1.0-633.0","0","0","82247","","null","","","null","70","NaN","","","","","","","","","","","","","","",""
"","S2","","html-keyboard-response","458","409649","0.0-1.0-634.0","0","0","82247","","null","","","null","70","","NaN","","","","","","","","","","","","","",""
"","response","","html-keyboard-response","459","409780","0.0-1.0-635.0-0.0","0","0","82247","","128","","","75","70","","","2","70","training","adjacent","CB","3","2","P.jpg","R.jpg","1","0","0","",""
"","feedback","","html-keyboard-response","460","410793","0.0-1.0-636.0-0.0","0","0","82247","","null","","","null","70","","","","","","","","","","","","","","","",""
"","time_out","","html-keyboard-response","461","412801","0.0-1.0-638.0-0.0","0","0","82247","","null","","","null","70","","","","","","","","","","","","","","","",""
"","ITI","","html-keyboard-response","462","413811","0.0-1.0-639.0","0","0","82247","","null","","","null","70","","","","","","","","","","","","","","","NaN",""
"","S1","","html-keyboard-response","463","414072","0.0-1.0-641.0","0","0","82247","","null","","","null","71","","","","","","","","","","","","","","","",""
"","ISI","","html-keyboard-response","464","414235","0.0-1.0-642.0","0","0","82247","","null","","","null","71","NaN","","","","","","","","","","","","","","",""
"","S2","","html-keyboard-response","465","414496","0.0-1.0-643.0","0","0","82247","","null","","","null","71","","NaN","","","","","","","","","","","","","",""
"","response","","html-keyboard-response","466","414847","0.0-1.0-644.0-0.0","0","0","82247","","349","","","75","71","","","2","71","training","adjacent","EF","5","6","O.jpg","L.jpg","1","1","1","",""
"","feedback","","html-keyboard-response","467","415858","0.0-1.0-645.0-0.0","0","0","82247","","null","","","null","71","","","","","","","","","","","","","","","",""
"","ITI","","html-keyboard-response","468","416865","0.0-1.0-648.0","0","0","82247","","null","","","null","71","","","","","","","","","","","","","","","NaN",""
"","S1","","html-keyboard-response","469","417120","0.0-1.0-650.0","0","0","82247","","null","","","null","72","","","","","","","","","","","","","","","",""
"","ISI","","html-keyboard-response","470","417283","0.0-1.0-651.0","0","0","82247","","null","","","null","72","NaN","","","","","","","","","","","","","","",""
"","S2","","html-keyboard-response","471","417547","0.0-1.0-652.0","0","0","82247","","null","","","null","72","","NaN","","","","","","","","","","","","","",""
"","response","","html-keyboard-response","472","417969","0.0-1.0-653.0-0.0","0","0","82247","","419","","","75","72","","","2","72","training","adjacent","BC","2","3","R.jpg","P.jpg","1","1","1","",""
"","feedback","","html-keyboard-response","473","418978","0.0-1.0-654.0-0.0","0","0","82247","","null","","","null","72","","","","","","","","","","","","","","","",""
"","ITI","","html-keyboard-response","474","419985","0.0-1.0-657.0","0","0","82247","","null","","","null","72","","","","","","","","","","","","","","","NaN",""
"","S1","","html-keyboard-response","475","420243","0.0-1.0-659.0","0","0","82247","","null","","","null","73","","","","","","","","","","","","","","","",""
"","ISI","","html-keyboard-response","476","420403","0.0-1.0-660.0","0","0","82247","","null","","","null","73","NaN","","","","","","","","","","","","","","",""
"","S2","","html-keyboard-response","477","420667","0.0-1.0-661.0","0","0","82247","","null","","","null","73","","NaN","","","","","","","","","","","","","",""
"","response","","html-keyboard-response","478","421348","0.0-1.0-662.0-0.0","0","0","82247","","678","","","75","73","","","2","73","training","adjacent","ED","5","4","O.jpg","N.jpg","1","0","0","",""
"","feedback","","html-keyboard-response","479","422362","0.0-1.0-663.0-0.0","0","0","82247","","null","","","null","73","","","","","","","","","","","","","","","",""
"","time_out","","html-keyboard-response","480","424370","0.0-1.0-665.0-0.0","0","0","82247","","null","","","null","73","","","","","","","","","","","","","","","",""
"","ITI","","html-keyboard-response","481","425378","0.0-1.0-666.0","0","0","82247","","null","","","null","73","","","","","","","","","","","","","","","NaN",""
"","S1","","html-keyboard-response","482","425642","0.0-1.0-668.0","0","0","82247","","null","","","null","74","","","","","","","","","","","","","","","",""
"","ISI","","html-keyboard-response","483","425802","0.0-1.0-669.0","0","0","82247","","null","","","null","74","NaN","","","","","","","","","","","","","","",""
"","S2","","html-keyboard-response","484","426065","0.0-1.0-670.0","0","0","82247","","null","","","null","74","","NaN","","","","","","","","","","","","","",""
"","response","","html-keyboard-response","485","426245","0.0-1.0-671.0-0.0","0","0","82247","","176","","","75","74","","","2","74","training","adjacent","CD","3","4","P.jpg","N.jpg","1","1","1","",""
"","feedback","","html-keyboard-response","486","427259","0.0-1.0-672.0-0.0","0","0","82247","","null","","","null","74","","","","","","","","","","","","","","","",""
"","ITI","","html-keyboard-response","487","428275","0.0-1.0-675.0","0","0","82247","","null","","","null","74","","","","","","","","","","","","","","","NaN",""
"","S1","","html-keyboard-response","488","428538","0.0-1.0-677.0","0","0","82247","","null","","","null","75","","","","","","","","","","","","","","","",""
"","ISI","","html-keyboard-response","489","428698","0.0-1.0-678.0","0","0","82247","","null","","","null","75","NaN","","","","","","","","","","","","","","",""
"","S2","","html-keyboard-response","490","428962","0.0-1.0-679.0","0","0","82247","","null","","","null","75","","NaN","","","","","","","","","","","","","",""
"","response","","html-keyboard-response","491","429382","0.0-1.0-680.0-0.0","0","0","82247","","418","","","75","75","","","2","75","training","adjacent","BA","2","1","R.jpg","M.jpg","1","0","0","",""
"","feedback","","html-keyboard-response","492","430394","0.0-1.0-681.0-0.0","0","0","82247","","null","","","null","75","","","","","","","","","","","","","","","",""
"","time_out","","html-keyboard-response","493","432402","0.0-1.0-683.0-0.0","0","0","82247","","null","","","null","75","","","","","","","","","","","","","","","",""
"","ITI","","html-keyboard-response","494","433409","0.0-1.0-684.0","0","0","82247","","null","","","null","75","","","","","","","","","","","","","","","NaN",""
"","S1","","html-keyboard-response","495","433673","0.0-1.0-686.0","0","0","82247","","null","","","null","76","","","","","","","","","","","","","","","",""
"","ISI","","html-keyboard-response","496","433832","0.0-1.0-687.0","0","0","82247","","null","","","null","76","NaN","","","","","","","","","","","","","","",""
"","S2","","html-keyboard-response","497","434088","0.0-1.0-688.0","0","0","82247","","null","","","null","76","","NaN","","","","","","","","","","","","","",""
"","response","","html-keyboard-response","498","434795","0.0-1.0-689.0-0.0","0","0","82247","","704","","","75","76","","","2","76","training","adjacent","AB","1","2","M.jpg","R.jpg","1","1","1","",""
"","feedback","","html-keyboard-response","499","435800","0.0-1.0-690.0-0.0","0","0","82247","","null","","","null","76","","","","","","","","","","","","","","","",""
"","ITI","","html-keyboard-response","500","436810","0.0-1.0-693.0","0","0","82247","","null","","","null","76","","","","","","","","","","","","","","","NaN",""
"","S1","","html-keyboard-response","501","437074","0.0-1.0-695.0","0","0","82247","","null","","","null","77","","","","","","","","","","","","","","","",""
"","ISI","","html-keyboard-response","502","437234","0.0-1.0-696.0","0","0","82247","","null","","","null","77","NaN","","","","","","","","","","","","","","",""
"","S2","","html-keyboard-response","503","437499","0.0-1.0-697.0","0","0","82247","","null","","","null","77","","NaN","","","","","","","","","","","","","",""
"","response","","html-keyboard-response","504","438095","0.0-1.0-698.0-0.0","0","0","82247","","594","","","75","77","","","2","77","training","adjacent","DE","4","5","N.jpg","O.jpg","1","1","1","",""
"","feedback","","html-keyboard-response","505","439107","0.0-1.0-699.0-0.0","0","0","82247","","null","","","null","77","","","","","","","","","","","","","","","",""
"","ITI","","html-keyboard-response","506","440123","0.0-1.0-702.0","0","0","82247","","null","","","null","77","","","","","","","","","","","","","","","NaN",""
"","S1","","html-keyboard-response","507","440386","0.0-1.0-704.0","0","0","82247","","null","","","null","78","","","","","","","","","","","","","","","",""
"","ISI","","html-keyboard-response","508","440546","0.0-1.0-705.0","0","0","82247","","null","","","null","78","NaN","","","","","","","","","","","","","","",""
"","S2","","html-keyboard-response","509","440810","0.0-1.0-706.0","0","0","82247","","null","","","null","78","","NaN","","","","","","","","","","","","","",""
"","response","","html-keyboard-response","510","441852","0.0-1.0-707.0-0.0","0","0","82247","","1040","","","68","78","","","2","78","training","adjacent","DC","4","3","N.jpg","P.jpg","0","0","1","",""
"","feedback","","html-keyboard-response","511","442865","0.0-1.0-708.0-0.0","0","0","82247","","null","","","null","78","","","","","","","","","","","","","","","",""
"","ITI","","html-keyboard-response","512","443875","0.0-1.0-711.0","0","0","82247","","null","","","null","78","","","","","","","","","","","","","","","NaN",""
"","S1","","html-keyboard-response","513","444136","0.0-1.0-713.0","0","0","82247","","null","","","null","79","","","","","","","","","","","","","","","",""
"","ISI","","html-keyboard-response","514","444299","0.0-1.0-714.0","0","0","82247","","null","","","null","79","NaN","","","","","","","","","","","","","","",""
"","S2","","html-keyboard-response","515","444560","0.0-1.0-715.0","0","0","82247","","null","","","null","79","","NaN","","","","","","","","","","","","","",""
"","response","","html-keyboard-response","516","445223","0.0-1.0-716.0-0.0","0","0","82247","","661","","","68","79","","","2","79","training","adjacent","BC","2","3","R.jpg","P.jpg","0","1","0","",""
"","feedback","","html-keyboard-response","517","446232","0.0-1.0-717.0-0.0","0","0","82247","","null","","","null","79","","","","","","","","","","","","","","","",""
"","time_out","","html-keyboard-response","518","448240","0.0-1.0-719.0-0.0","0","0","82247","","null","","","null","79","","","","","","","","","","","","","","","",""
"","ITI","","html-keyboard-response","519","449251","0.0-1.0-720.0","0","0","82247","","null","","","null","79","","","","","","","","","","","","","","","NaN",""
"","S1","","html-keyboard-response","520","449515","0.0-1.0-722.0","0","0","82247","","null","","","null","80","","","","","","","","","","","","","","","",""
"","ISI","","html-keyboard-response","521","449674","0.0-1.0-723.0","0","0","82247","","null","","","null","80","NaN","","","","","","","","","","","","","","",""
"","S2","","html-keyboard-response","522","449939","0.0-1.0-724.0","0","0","82247","","null","","","null","80","","NaN","","","","","","","","","","","","","",""
"","response","","html-keyboard-response","523","450103","0.0-1.0-725.0-0.0","0","0","82247","","161","","","75","80","","","2","80","training","adjacent","DE","4","5","N.jpg","O.jpg","1","1","1","",""
"","feedback","","html-keyboard-response","524","451114","0.0-1.0-726.0-0.0","0","0","82247","","null","","","null","80","","","","","","","","","","","","","","","",""
"","ITI","","html-keyboard-response","525","452122","0.0-1.0-729.0","0","0","82247","","null","","","null","80","","","","","","","","","","","","","","","NaN",""
"","S1","","html-keyboard-response","526","452385","0.0-1.0-731.0","0","0","82247","","null","","","null","81","","","","","","","","","","","","","","","",""
"","ISI","","html-keyboard-response","527","452545","0.0-1.0-732.0","0","0","82247","","null","","","null","81","NaN","","","","","","","","","","","","","","",""
"","S2","","html-keyboard-response","528","452809","0.0-1.0-733.0","0","0","82247","","null","","","null","81","","NaN","","","","","","","","","","","","","",""
"","response","","html-keyboard-response","529","453650","0.0-1.0-734.0-0.0","0","0","82247","","839","","","75","81","","","2","81","training","adjacent","FG","6","7","L.jpg","Q.jpg","1","1","1","",""
"","feedback","","html-keyboard-response","530","454658","0.0-1.0-735.0-0.0","0","0","82247","","null","","","null","81","","","","","","","","","","","","","","","",""
"","ITI","","html-keyboard-response","531","455665","0.0-1.0-738.0","0","0","82247","","null","","","null","81","","","","","","","","","","","","","","","NaN",""
"","S1","","html-keyboard-response","532","455930","0.0-1.0-740.0","0","0","82247","","null","","","null","82","","","","","","","","","","","","","","","",""
"","ISI","","html-keyboard-response","533","456088","0.0-1.0-741.0","0","0","82247","","null","","","null","82","NaN","","","","","","","","","","","","","","",""
"","S2","","html-keyboard-response","534","456344","0.0-1.0-742.0","0","0","82247","","null","","","null","82","","NaN","","","","","","","","","","","","","",""
"","response","","html-keyboard-response","535","457307","0.0-1.0-743.0-0.0","0","0","82247","","960","","","68","82","","","2","82","training","adjacent","DC","4","3","N.jpg","P.jpg","0","0","1","",""
"","feedback","","html-keyboard-response","536","458311","0.0-1.0-744.0-0.0","0","0","82247","","null","","","null","82","","","","","","","","","","","","","","","",""
"","ITI","","html-keyboard-response","537","459322","0.0-1.0-747.0","0","0","82247","","null","","","null","82","","","","","","","","","","","","","","","NaN",""
"","S1","","html-keyboard-response","538","459587","0.0-1.0-749.0","0","0","82247","","null","","","null","83","","","","","","","","","","","","","","","",""
"","ISI","","html-keyboard-response","539","459746","0.0-1.0-750.0","0","0","82247","","null","","","null","83","NaN","","","","","","","","","","","","","","",""
"","S2","","html-keyboard-response","540","460011","0.0-1.0-751.0","0","0","82247","","null","","","null","83","","NaN","","","","","","","","","","","","","",""
"","response","","html-keyboard-response","541","460614","0.0-1.0-752.0-0.0","0","0","82247","","600","","","75","83","","","2","83","training","adjacent","ED","5","4","O.jpg","N.jpg","1","0","0","",""
"","feedback","","html-keyboard-response","542","461627","0.0-1.0-753.0-0.0","0","0","82247","","null","","","null","83","","","","","","","","","","","","","","","",""
"","time_out","","html-keyboard-response","543","463633","0.0-1.0-755.0-0.0","0","0","82247","","null","","","null","83","","","","","","","","","","","","","","","",""
"","ITI","","html-keyboard-response","544","464643","0.0-1.0-756.0","0","0","82247","","null","","","null","83","","","","","","","","","","","","","","","NaN",""
"","S1","","html-keyboard-response","545","464907","0.0-1.0-758.0","0","0","82247","","null","","","null","84","","","","","","","","","","","","","","","",""
"","ISI","","html-keyboard-response","546","465067","0.0-1.0-759.0","0","0","82247","","null","","","null","84","NaN","","","","","","","","","","","","","","",""
"","S2","","html-keyboard-response","547","465331","0.0-1.0-760.0","0","0","82247","","null","","","null","84","","NaN","","","","","","","","","","","","","",""
"","response","","html-keyboard-response","548","465752","0.0-1.0-761.0-0.0","0","0","82247","","419","","","75","84","","","2","84","training","adjacent","BA","2","1","R.jpg","M.jpg","1","0","0","",""
"","feedback","","html-keyboard-response","549","466762","0.0-1.0-762.0-0.0","0","0","82247","","null","","","null","84","","","","","","","","","","","","","","","",""
"","time_out","","html-keyboard-response","550","468770","0.0-1.0-764.0-0.0","0","0","82247","","null","","","null","84","","","","","","","","","","","","","","","",""
"","ITI","","html-keyboard-response","551","469777","0.0-1.0-765.0","0","0","82247","","null","","","null","84","","","","","","","","","","","","","","","NaN",""
"","S1","","html-keyboard-response","552","470041","0.0-1.0-767.0","0","0","82247","","null","","","null","85","","","","","","","","","","","","","","","",""
"","ISI","","html-keyboard-response","553","470200","0.0-1.0-768.0","0","0","82247","","null","","","null","85","NaN","","","","","","","","","","","","","","",""
"","S2","","html-keyboard-response","554","470456","0.0-1.0-769.0","0","0","82247","","null","","","null","85","","NaN","","","","","","","","","","","","","",""
"","response","","html-keyboard-response","555","471333","0.0-1.0-770.0-0.0","0","0","82247","","876","","","68","85","","","2","85","training","adjacent","GF","7","6","Q.jpg","L.jpg","0","0","1","",""
"","feedback","","html-keyboard-response","556","472346","0.0-1.0-771.0-0.0","0","0","82247","","null","","","null","85","","","","","","","","","","","","","","","",""
"","ITI","","html-keyboard-response","557","473353","0.0-1.0-774.0","0","0","82247","","null","","","null","85","","","","","","","","","","","","","","","NaN",""
"","S1","","html-keyboard-response","558","473608","0.0-1.0-776.0","0","0","82247","","null","","","null","86","","","","","","","","","","","","","","","",""
"","ISI","","html-keyboard-response","559","473771","0.0-1.0-777.0","0","0","82247","","null","","","null","86","NaN","","","","","","","","","","","","","","",""
"","S2","","html-keyboard-response","560","474032","0.0-1.0-778.0","0","0","82247","","null","","","null","86","","NaN","","","","","","","","","","","","","",""
"","response","","html-keyboard-response","561","474510","0.0-1.0-779.0-0.0","0","0","82247","","475","","","75","86","","","2","86","training","adjacent","CB","3","2","P.jpg","R.jpg","1","0","0","",""
"","feedback","","html-keyboard-response","562","475521","0.0-1.0-780.0-0.0","0","0","82247","","null","","","null","86","","","","","","","","","","","","","","","",""
"","time_out","","html-keyboard-response","563","477530","0.0-1.0-782.0-0.0","0","0","82247","","null","","","null","86","","","","","","","","","","","","","","","",""
"","ITI","","html-keyboard-response","564","478537","0.0-1.0-783.0","0","0","82247","","null","","","null","86","","","","","","","","","","","","","","","NaN",""
"","S1","","html-keyboard-response","565","478792","0.0-1.0-785.0","0","0","82247","","null","","","null","87","","","","","","","","","","","","","","","",""
"","ISI","","html-keyboard-response","566","478955","0.0-1.0-786.0","0","0","82247","","null","","","null","87","NaN","","","","","","","","","","","","","","",""
"","S2","","html-keyboard-response","567","479215","0.0-1.0-787.0","0","0","82247","","null","","","null","87","","NaN","","","","","","","","","","","","","",""
"","response","","html-keyboard-response","568","479690","0.0-1.0-788.0-0.0","0","0","82247","","472","","","75","87","","","2","87","training","adjacent","BA","2","1","R.jpg","M.jpg","1","0","0","",""
"","feedback","","html-keyboard-response","569","480696","0.0-1.0-789.0-0.0","0","0","82247","","null","","","null","87","","","","","","","","","","","","","","","",""
"","time_out","","html-keyboard-response","570","482705","0.0-1.0-791.0-0.0","0","0","82247","","null","","","null","87","","","","","","","","","","","","","","","",""
"","ITI","","html-keyboard-response","571","483715","0.0-1.0-792.0","0","0","82247","","null","","","null","87","","","","","","","","","","","","","","","NaN",""
"","S1","","html-keyboard-response","572","483976","0.0-1.0-794.0","0","0","82247","","null","","","null","88","","","","","","","","","","","","","","","",""
"","ISI","","html-keyboard-response","573","484138","0.0-1.0-795.0","0","0","82247","","null","","","null","88","NaN","","","","","","","","","","","","","","",""
"","S2","","html-keyboard-response","574","484403","0.0-1.0-796.0","0","0","82247","","null","","","null","88","","NaN","","","","","","","","","","","","","",""
"","response","","html-keyboard-response","575","485294","0.0-1.0-797.0-0.0","0","0","82247","","889","","","75","88","","","2","88","training","adjacent","AB","1","2","M.jpg","R.jpg","1","1","1","",""
"","feedback","","html-keyboard-response","576","486304","0.0-1.0-798.0-0.0","0","0","82247","","null","","","null","88","","","","","","","","","","","","","","","",""
"","ITI","","html-keyboard-response","577","487314","0.0-1.0-801.0","0","0","82247","","null","","","null","88","","","","","","","","","","","","","","","NaN",""
"","S1","","html-keyboard-response","578","487578","0.0-1.0-803.0","0","0","82247","","null","","","null","89","","","","","","","","","","","","","","","",""
"","ISI","","html-keyboard-response","579","487737","0.0-1.0-804.0","0","0","82247","","null","","","null","89","NaN","","","","","","","","","","","","","","",""
"","S2","","html-keyboard-response","580","488002","0.0-1.0-805.0","0","0","82247","","null","","","null","89","","NaN","","","","","","","","","","","","","",""
"","response","","html-keyboard-response","581","488594","0.0-1.0-806.0-0.0","0","0","82247","","590","","","68","89","","","2","89","training","adjacent","GF","7","6","Q.jpg","L.jpg","0","0","1","",""
"","feedback","","html-keyboard-response","582","489601","0.0-1.0-807.0-0.0","0","0","82247","","null","","","null","89","","","","","","","","","","","","","","","",""
