"success","ttype","start_time","trial_type","trial_index","time_elapsed","internal_node_id","warning","missed_checkup","PID","view_history","rt","responses","repeat_instructions","key_press","index","keypress_isi","keypress_S2","block","trial_num","phase","group_type","pair_type","S1_stim","S2_stim","S1_img","S2_img","S1_chosen","S1_higher","accuracy","keypress_iti","total_bonus_tally"
"true","full_screen","d08052022hr1242","fullscreen","0","9544","0.0-0.0","0","0","49348","","","","","","","","","","","","","","","","","","","","","",""
"","instructions","","instructions","1","38783","0.0-1.0-0.0-0.0","0","0","49348","[{""page_index"":0,""viewing_time"":7293},{""page_index"":1,""viewing_time"":8704},{""page_index"":2,""viewing_time"":12088},{""page_index"":3,""viewing_time"":1152}]","29237","","","","","","","","","","","","","","","","","","","",""
"","comprehension_check","","survey-multi-choice","2","56759","0.0-1.0-0.0-1.0","0","0","49348","","17972","{""Q0"":""True"",""Q1"":""D"",""Q2"":""Once the second image appears and while the screen 'MAKE A CHOICE' is shown"",""Q3"":""Green mark"",""Q4"":""either D or K""}","0","","","","","","","","","","","","","","","","","",""
"","start_exp","","html-keyboard-response","3","59507","0.0-1.0-1.0","0","0","49348","","2744","","","32","","","","","","","","","","","","","","","","",""
"","S1","","html-keyboard-response","4","59760","0.0-1.0-2.0","0","0","49348","","null","","","null","0","","","","","","","","","","","","","","","",""
"","ISI","","html-keyboard-response","5","61762","0.0-1.0-3.0","0","0","49348","","1121","","","68","0","d","","","","","","","","","","","","","","",""
"","S2","","html-keyboard-response","6","62014","0.0-1.0-4.0","0","0","49348","","null","","","null","0","","NaN","","","","","","","","","","","","","",""
"","response","","html-keyboard-response","7","62548","0.0-1.0-5.0-0.0","0","0","49348","","531","","","68","0","","","1","0","training","adjacent","ED","5","4","P.jpg","M.jpg","1","0","0","",""
"","feedback","","html-keyboard-response","8","63551","0.0-1.0-6.0-0.0","0","0","49348","","null","","","null","0","","","","","","","","","","","","","","","",""
"","time_out","","html-keyboard-response","9","65554","0.0-1.0-8.0-0.0","0","0","49348","","null","","","null","0","","","","","","","","","","","","","","","",""
"","ITI","","html-keyboard-response","10","66556","0.0-1.0-9.0","0","0","49348","","null","","","null","0","","","","","","","","","","","","","","","NaN",""
"","S1","","html-keyboard-response","11","66808","0.0-1.0-11.0","0","0","49348","","null","","","null","1","","","","","","","","","","","","","","","",""
"","ISI","","html-keyboard-response","12","68810","0.0-1.0-12.0","0","0","49348","","null","","","null","1","NaN","","","","","","","","","","","","","","",""
"","S2","","html-keyboard-response","13","69062","0.0-1.0-13.0","0","0","49348","","null","","","null","1","","NaN","","","","","","","","","","","","","",""
"","response","","html-keyboard-response","14","69491","0.0-1.0-14.0-0.0","0","0","49348","","428","","","75","1","","","1","1","training","adjacent","FE","6","5","L.jpg","P.jpg","0","0","1","",""
"","feedback","","html-keyboard-response","15","70493","0.0-1.0-15.0-0.0","0","0","49348","","null","","","null","1","","","","","","","","","","","","","","","",""
"","ITI","","html-keyboard-response","16","71495","0.0-1.0-18.0","0","0","49348","","null","","","null","1","","","","","","","","","","","","","","","NaN",""
"","S1","","html-keyboard-response","17","71747","0.0-1.0-20.0","0","0","49348","","null","","","null","2","","","","","","","","","","","","","","","",""
"","ISI","","html-keyboard-response","18","73749","0.0-1.0-21.0","0","0","49348","","null","","","null","2","NaN","","","","","","","","","","","","","","",""
"","S2","","html-keyboard-response","19","74001","0.0-1.0-22.0","0","0","49348","","null","","","null","2","","NaN","","","","","","","","","","","","","",""
"","response","","html-keyboard-response","20","74315","0.0-1.0-23.0-0.0","0","0","49348","","312","","","75","2","","","1","2","training","adjacent","DE","4","5","M.jpg","P.jpg","0","1","0","",""
"","feedback","","html-keyboard-response","21","75318","0.0-1.0-24.0-0.0","0","0","49348","","null","","","null","2","","","","","","","","","","","","","","","",""
"","time_out","","html-keyboard-response","22","77320","0.0-1.0-26.0-0.0","0","0","49348","","null","","","null","2","","","","","","","","","","","","","","","",""
"","ITI","","html-keyboard-response","23","78322","0.0-1.0-27.0","0","0","49348","","null","","","null","2","","","","","","","","","","","","","","","NaN",""
"","S1","","html-keyboard-response","24","78574","0.0-1.0-29.0","0","0","49348","","null","","","null","3","","","","","","","","","","","","","","","",""
"","ISI","","html-keyboard-response","25","80576","0.0-1.0-30.0","0","0","49348","","null","","","null","3","NaN","","","","","","","","","","","","","","",""
"","S2","","html-keyboard-response","26","80828","0.0-1.0-31.0","0","0","49348","","null","","","null","3","","NaN","","","","","","","","","","","","","",""
"","response","","html-keyboard-response","27","81323","0.0-1.0-32.0-0.0","0","0","49348","","494","","","68","3","","","1","3","training","adjacent","AB","1","2","Q.jpg","N.jpg","1","1","1","",""
"","feedback","","html-keyboard-response","28","82326","0.0-1.0-33.0-0.0","0","0","49348","","null","","","null","3","","","","","","","","","","","","","","","",""
"","ITI","","html-keyboard-response","29","83328","0.0-1.0-36.0","0","0","49348","","null","","","null","3","","","","","","","","","","","","","","","NaN",""
"","S1","","html-keyboard-response","30","83580","0.0-1.0-38.0","0","0","49348","","null","","","null","4","","","","","","","","","","","","","","","",""
"","ISI","","html-keyboard-response","31","85583","0.0-1.0-39.0","0","0","49348","","null","","","null","4","NaN","","","","","","","","","","","","","","",""
"","S2","","html-keyboard-response","32","85835","0.0-1.0-40.0","0","0","49348","","null","","","null","4","","NaN","","","","","","","","","","","","","",""
"","response","","html-keyboard-response","33","86315","0.0-1.0-41.0-0.0","0","0","49348","","479","","","68","4","","","1","4","training","adjacent","FG","6","7","L.jpg","O.jpg","1","1","1","",""
"","feedback","","html-keyboard-response","34","87317","0.0-1.0-42.0-0.0","0","0","49348","","null","","","null","4","","","","","","","","","","","","","","","",""
"","ITI","","html-keyboard-response","35","88320","0.0-1.0-45.0","0","0","49348","","null","","","null","4","","","","","","","","","","","","","","","NaN",""
"","S1","","html-keyboard-response","36","88572","0.0-1.0-47.0","0","0","49348","","null","","","null","5","","","","","","","","","","","","","","","",""
"","ISI","","html-keyboard-response","37","90574","0.0-1.0-48.0","0","0","49348","","null","","","null","5","NaN","","","","","","","","","","","","","","",""
"","S2","","html-keyboard-response","38","90826","0.0-1.0-49.0","0","0","49348","","null","","","null","5","","NaN","","","","","","","","","","","","","",""
"","response","","html-keyboard-response","39","91372","0.0-1.0-50.0-0.0","0","0","49348","","545","","","68","5","","","1","5","training","adjacent","ED","5","4","P.jpg","M.jpg","1","0","0","",""
"","feedback","","html-keyboard-response","40","92374","0.0-1.0-51.0-0.0","0","0","49348","","null","","","null","5","","","","","","","","","","","","","","","",""
"","time_out","","html-keyboard-response","41","94376","0.0-1.0-53.0-0.0","0","0","49348","","null","","","null","5","","","","","","","","","","","","","","","",""
"","ITI","","html-keyboard-response","42","95378","0.0-1.0-54.0","0","0","49348","","null","","","null","5","","","","","","","","","","","","","","","NaN",""
"","S1","","html-keyboard-response","43","95630","0.0-1.0-56.0","0","0","49348","","null","","","null","6","","","","","","","","","","","","","","","",""
"","ISI","","html-keyboard-response","44","97632","0.0-1.0-57.0","0","0","49348","","null","","","null","6","NaN","","","","","","","","","","","","","","",""
"","S2","","html-keyboard-response","45","97884","0.0-1.0-58.0","0","0","49348","","null","","","null","6","","NaN","","","","","","","","","","","","","",""
"","response","","html-keyboard-response","46","98276","0.0-1.0-59.0-0.0","0","0","49348","","391","","","75","6","","","1","6","training","adjacent","CD","3","4","R.jpg","M.jpg","0","1","0","",""
"","feedback","","html-keyboard-response","47","99278","0.0-1.0-60.0-0.0","0","0","49348","","null","","","null","6","","","","","","","","","","","","","","","",""
"","time_out","","html-keyboard-response","48","101279","0.0-1.0-62.0-0.0","0","0","49348","","null","","","null","6","","","","","","","","","","","","","","","",""
"","ITI","","html-keyboard-response","49","102282","0.0-1.0-63.0","0","0","49348","","null","","","null","6","","","","","","","","","","","","","","","NaN",""
"","S1","","html-keyboard-response","50","102534","0.0-1.0-65.0","0","0","49348","","null","","","null","7","","","","","","","","","","","","","","","",""
"","ISI","","html-keyboard-response","51","104536","0.0-1.0-66.0","0","0","49348","","null","","","null","7","NaN","","","","","","","","","","","","","","",""
"","S2","","html-keyboard-response","52","104788","0.0-1.0-67.0","0","0","49348","","null","","","null","7","","NaN","","","","","","","","","","","","","",""
"","response","","html-keyboard-response","53","105221","0.0-1.0-68.0-0.0","0","0","49348","","432","","","68","7","","","1","7","training","adjacent","DC","4","3","M.jpg","R.jpg","1","0","0","",""
"","feedback","","html-keyboard-response","54","106223","0.0-1.0-69.0-0.0","0","0","49348","","null","","","null","7","","","","","","","","","","","","","","","",""
"","time_out","","html-keyboard-response","55","108226","0.0-1.0-71.0-0.0","0","0","49348","","null","","","null","7","","","","","","","","","","","","","","","",""
"","ITI","","html-keyboard-response","56","109228","0.0-1.0-72.0","0","0","49348","","null","","","null","7","","","","","","","","","","","","","","","NaN",""
"","S1","","html-keyboard-response","57","109480","0.0-1.0-74.0","0","0","49348","","null","","","null","8","","","","","","","","","","","","","","","",""
"","ISI","","html-keyboard-response","58","111481","0.0-1.0-75.0","0","0","49348","","null","","","null","8","NaN","","","","","","","","","","","","","","",""
"","S2","","html-keyboard-response","59","111734","0.0-1.0-76.0","0","0","49348","","null","","","null","8","","NaN","","","","","","","","","","","","","",""
"","response","","html-keyboard-response","60","112029","0.0-1.0-77.0-0.0","0","0","49348","","294","","","75","8","","","1","8","training","adjacent","CB","3","2","R.jpg","N.jpg","0","0","1","",""
"","feedback","","html-keyboard-response","61","113031","0.0-1.0-78.0-0.0","0","0","49348","","null","","","null","8","","","","","","","","","","","","","","","",""
"","ITI","","html-keyboard-response","62","114033","0.0-1.0-81.0","0","0","49348","","null","","","null","8","","","","","","","","","","","","","","","NaN",""
"","S1","","html-keyboard-response","63","114285","0.0-1.0-83.0","0","0","49348","","null","","","null","9","","","","","","","","","","","","","","","",""
"","ISI","","html-keyboard-response","64","116287","0.0-1.0-84.0","0","0","49348","","null","","","null","9","NaN","","","","","","","","","","","","","","",""
"","S2","","html-keyboard-response","65","116539","0.0-1.0-85.0","0","0","49348","","null","","","null","9","","NaN","","","","","","","","","","","","","",""
"","response","","html-keyboard-response","66","116957","0.0-1.0-86.0-0.0","0","0","49348","","417","","","75","9","","","1","9","training","adjacent","BA","2","1","N.jpg","Q.jpg","0","0","1","",""
"","feedback","","html-keyboard-response","67","117959","0.0-1.0-87.0-0.0","0","0","49348","","null","","","null","9","","","","","","","","","","","","","","","",""
"","ITI","","html-keyboard-response","68","118961","0.0-1.0-90.0","0","0","49348","","null","","","null","9","","","","","","","","","","","","","","","NaN",""
"","S1","","html-keyboard-response","69","119213","0.0-1.0-92.0","0","0","49348","","null","","","null","10","","","","","","","","","","","","","","","",""
"","ISI","","html-keyboard-response","70","121215","0.0-1.0-93.0","0","0","49348","","null","","","null","10","NaN","","","","","","","","","","","","","","",""
"","S2","","html-keyboard-response","71","121467","0.0-1.0-94.0","0","0","49348","","null","","","null","10","","NaN","","","","","","","","","","","","","",""
"","response","","html-keyboard-response","72","121845","0.0-1.0-95.0-0.0","0","0","49348","","377","","","75","10","","","1","10","training","adjacent","EF","5","6","P.jpg","L.jpg","0","1","0","",""
"","feedback","","html-keyboard-response","73","122847","0.0-1.0-96.0-0.0","0","0","49348","","null","","","null","10","","","","","","","","","","","","","","","",""
"","time_out","","html-keyboard-response","74","124850","0.0-1.0-98.0-0.0","0","0","49348","","null","","","null","10","","","","","","","","","","","","","","","",""
"","ITI","","html-keyboard-response","75","125852","0.0-1.0-99.0","0","0","49348","","null","","","null","10","","","","","","","","","","","","","","","NaN",""
"","S1","","html-keyboard-response","76","126104","0.0-1.0-101.0","0","0","49348","","null","","","null","11","","","","","","","","","","","","","","","",""
"","ISI","","html-keyboard-response","77","128105","0.0-1.0-102.0","0","0","49348","","null","","","null","11","NaN","","","","","","","","","","","","","","",""
"","S2","","html-keyboard-response","78","128357","0.0-1.0-103.0","0","0","49348","","null","","","null","11","","NaN","","","","","","","","","","","","","",""
"","response","","html-keyboard-response","79","128949","0.0-1.0-104.0-0.0","0","0","49348","","590","","","75","11","","","1","11","training","adjacent","FG","6","7","L.jpg","O.jpg","0","1","0","",""
"","feedback","","html-keyboard-response","80","129952","0.0-1.0-105.0-0.0","0","0","49348","","null","","","null","11","","","","","","","","","","","","","","","",""
"","time_out","","html-keyboard-response","81","131954","0.0-1.0-107.0-0.0","0","0","49348","","null","","","null","11","","","","","","","","","","","","","","","",""
"","ITI","","html-keyboard-response","82","132956","0.0-1.0-108.0","0","0","49348","","null","","","null","11","","","","","","","","","","","","","","","NaN",""
"","S1","","html-keyboard-response","83","133208","0.0-1.0-110.0","0","0","49348","","null","","","null","12","","","","","","","","","","","","","","","",""
"","ISI","","html-keyboard-response","84","135210","0.0-1.0-111.0","0","0","49348","","null","","","null","12","NaN","","","","","","","","","","","","","","",""
"","S2","","html-keyboard-response","85","135462","0.0-1.0-112.0","0","0","49348","","null","","","null","12","","NaN","","","","","","","","","","","","","",""
"","response","","html-keyboard-response","86","135861","0.0-1.0-113.0-0.0","0","0","49348","","398","","","75","12","","","1","12","training","adjacent","CD","3","4","R.jpg","M.jpg","0","1","0","",""
"","feedback","","html-keyboard-response","87","136863","0.0-1.0-114.0-0.0","0","0","49348","","null","","","null","12","","","","","","","","","","","","","","","",""
"","time_out","","html-keyboard-response","88","138866","0.0-1.0-116.0-0.0","0","0","49348","","null","","","null","12","","","","","","","","","","","","","","","",""
"","ITI","","html-keyboard-response","89","139868","0.0-1.0-117.0","0","0","49348","","null","","","null","12","","","","","","","","","","","","","","","NaN",""
"","S1","","html-keyboard-response","90","140120","0.0-1.0-119.0","0","0","49348","","null","","","null","13","","","","","","","","","","","","","","","",""
"","ISI","","html-keyboard-response","91","142121","0.0-1.0-120.0","0","0","49348","","null","","","null","13","NaN","","","","","","","","","","","","","","",""
"","S2","","html-keyboard-response","92","142373","0.0-1.0-121.0","0","0","49348","","null","","","null","13","","NaN","","","","","","","","","","","","","",""
"","response","","html-keyboard-response","93","142829","0.0-1.0-122.0-0.0","0","0","49348","","454","","","68","13","","","1","13","training","adjacent","AB","1","2","Q.jpg","N.jpg","1","1","1","",""
"","feedback","","html-keyboard-response","94","143832","0.0-1.0-123.0-0.0","0","0","49348","","null","","","null","13","","","","","","","","","","","","","","","",""
"","ITI","","html-keyboard-response","95","144834","0.0-1.0-126.0","0","0","49348","","null","","","null","13","","","","","","","","","","","","","","","NaN",""
"","S1","","html-keyboard-response","96","145086","0.0-1.0-128.0","0","0","49348","","null","","","null","14","","","","","","","","","","","","","","","",""
"","ISI","","html-keyboard-response","97","147088","0.0-1.0-129.0","0","0","49348","","null","","","null","14","NaN","","","","","","","","","","","","","","",""
"","S2","","html-keyboard-response","98","147340","0.0-1.0-130.0","0","0","49348","","null","","","null","14","","NaN","","","","","","","","","","","","","",""
"","response","","html-keyboard-response","99","147565","0.0-1.0-131.0-0.0","0","0","49348","","224","","","68","14","","","1","14","training","adjacent","EF","5","6","P.jpg","L.jpg","1","1","1","",""
"","feedback","","html-keyboard-response","100","148568","0.0-1.0-132.0-0.0","0","0","49348","","null","","","null","14","","","","","","","","","","","","","","","",""
"","ITI","","html-keyboard-response","101","149570","0.0-1.0-135.0","0","0","49348","","null","","","null","14","","","","","","","","","","","","","","","NaN",""
"","S1","","html-keyboard-response","102","149822","0.0-1.0-137.0","0","0","49348","","null","","","null","15","","","","","","","","","","","","","","","",""
"","ISI","","html-keyboard-response","103","151824","0.0-1.0-138.0","0","0","49348","","null","","","null","15","NaN","","","","","","","","","","","","","","",""
"","S2","","html-keyboard-response","104","152076","0.0-1.0-139.0","0","0","49348","","null","","","null","15","","NaN","","","","","","","","","","","","","",""
"","response","","html-keyboard-response","105","152550","0.0-1.0-140.0-0.0","0","0","49348","","473","","","68","15","","","1","15","training","adjacent","CD","3","4","R.jpg","M.jpg","1","1","1","",""
"","feedback","","html-keyboard-response","106","153552","0.0-1.0-141.0-0.0","0","0","49348","","null","","","null","15","","","","","","","","","","","","","","","",""
"","ITI","","html-keyboard-response","107","154554","0.0-1.0-144.0","0","0","49348","","null","","","null","15","","","","","","","","","","","","","","","NaN",""
"","S1","","html-keyboard-response","108","154806","0.0-1.0-146.0","0","0","49348","","null","","","null","16","","","","","","","","","","","","","","","",""
"","ISI","","html-keyboard-response","109","156808","0.0-1.0-147.0","0","0","49348","","null","","","null","16","NaN","","","","","","","","","","","","","","",""
"","S2","","html-keyboard-response","110","157060","0.0-1.0-148.0","0","0","49348","","null","","","null","16","","NaN","","","","","","","","","","","","","",""
"","response","","html-keyboard-response","111","157990","0.0-1.0-149.0-0.0","0","0","49348","","929","","","68","16","","","1","16","training","adjacent","BA","2","1","N.jpg","Q.jpg","1","0","0","",""
"","feedback","","html-keyboard-response","112","158992","0.0-1.0-150.0-0.0","0","0","49348","","null","","","null","16","","","","","","","","","","","","","","","",""
"","time_out","","html-keyboard-response","113","160995","0.0-1.0-152.0-0.0","0","0","49348","","null","","","null","16","","","","","","","","","","","","","","","",""
"","ITI","","html-keyboard-response","114","161997","0.0-1.0-153.0","0","0","49348","","null","","","null","16","","","","","","","","","","","","","","","NaN",""
"","S1","","html-keyboard-response","115","162249","0.0-1.0-155.0","0","0","49348","","null","","","null","17","","","","","","","","","","","","","","","",""
"","ISI","","html-keyboard-response","116","164251","0.0-1.0-156.0","0","0","49348","","null","","","null","17","NaN","","","","","","","","","","","","","","",""
"","S2","","html-keyboard-response","117","164503","0.0-1.0-157.0","0","0","49348","","null","","","null","17","","NaN","","","","","","","","","","","","","",""
"","response","","html-keyboard-response","118","165501","0.0-1.0-158.0-0.0","0","0","49348","","997","","","75","17","","","1","17","training","adjacent","CD","3","4","R.jpg","M.jpg","0","1","0","",""
"","feedback","","html-keyboard-response","119","166504","0.0-1.0-159.0-0.0","0","0","49348","","null","","","null","17","","","","","","","","","","","","","","","",""
"","time_out","","html-keyboard-response","120","168506","0.0-1.0-161.0-0.0","0","0","49348","","null","","","null","17","","","","","","","","","","","","","","","",""
"","ITI","","html-keyboard-response","121","169508","0.0-1.0-162.0","0","0","49348","","null","","","null","17","","","","","","","","","","","","","","","NaN",""
"","S1","","html-keyboard-response","122","169760","0.0-1.0-164.0","0","0","49348","","null","","","null","18","","","","","","","","","","","","","","","",""
"","ISI","","html-keyboard-response","123","171762","0.0-1.0-165.0","0","0","49348","","475","","","68","18","d","","","","","","","","","","","","","","",""
"","S2","","html-keyboard-response","124","172014","0.0-1.0-166.0","0","0","49348","","null","","","null","18","","NaN","","","","","","","","","","","","","",""
"","response","","html-keyboard-response","125","172405","0.0-1.0-167.0-0.0","0","0","49348","","390","","","68","18","","","1","18","training","adjacent","EF","5","6","P.jpg","L.jpg","1","1","1","",""
"","feedback","","html-keyboard-response","126","173407","0.0-1.0-168.0-0.0","0","0","49348","","null","","","null","18","","","","","","","","","","","","","","","",""
"","ITI","","html-keyboard-response","127","174409","0.0-1.0-171.0","0","0","49348","","null","","","null","18","","","","","","","","","","","","","","","NaN",""
"","S1","","html-keyboard-response","128","174661","0.0-1.0-173.0","0","0","49348","","null","","","null","19","","","","","","","","","","","","","","","",""
"","ISI","","html-keyboard-response","129","176663","0.0-1.0-174.0","0","0","49348","","null","","","null","19","NaN","","","","","","","","","","","","","","",""
"","S2","","html-keyboard-response","130","176915","0.0-1.0-175.0","0","0","49348","","null","","","null","19","","NaN","","","","","","","","","","","","","",""
"","response","","html-keyboard-response","131","177494","0.0-1.0-176.0-0.0","0","0","49348","","577","","","68","19","","","1","19","training","adjacent","ED","5","4","P.jpg","M.jpg","1","0","0","",""
"","feedback","","html-keyboard-response","132","178496","0.0-1.0-177.0-0.0","0","0","49348","","null","","","null","19","","","","","","","","","","","","","","","",""
"","time_out","","html-keyboard-response","133","180499","0.0-1.0-179.0-0.0","0","0","49348","","null","","","null","19","","","","","","","","","","","","","","","",""
"","ITI","","html-keyboard-response","134","181501","0.0-1.0-180.0","0","0","49348","","null","","","null","19","","","","","","","","","","","","","","","NaN",""
"","S1","","html-keyboard-response","135","181754","0.0-1.0-182.0","0","0","49348","","null","","","null","20","","","","","","","","","","","","","","","",""
"","ISI","","html-keyboard-response","136","183755","0.0-1.0-183.0","0","0","49348","","null","","","null","20","NaN","","","","","","","","","","","","","","",""
"","S2","","html-keyboard-response","137","184007","0.0-1.0-184.0","0","0","49348","","null","","","null","20","","NaN","","","","","","","","","","","","","",""
"","response","","html-keyboard-response","138","184270","0.0-1.0-185.0-0.0","0","0","49348","","262","","","75","20","","","1","20","training","adjacent","FG","6","7","L.jpg","O.jpg","0","1","0","",""
"","feedback","","html-keyboard-response","139","185272","0.0-1.0-186.0-0.0","0","0","49348","","null","","","null","20","","","","","","","","","","","","","","","",""
"","time_out","","html-keyboard-response","140","187275","0.0-1.0-188.0-0.0","0","0","49348","","null","","","null","20","","","","","","","","","","","","","","","",""
"","ITI","","html-keyboard-response","141","188277","0.0-1.0-189.0","0","0","49348","","null","","","null","20","","","","","","","","","","","","","","","NaN",""
"","S1","","html-keyboard-response","142","188529","0.0-1.0-191.0","0","0","49348","","null","","","null","21","","","","","","","","","","","","","","","",""
"","ISI","","html-keyboard-response","143","190531","0.0-1.0-192.0","0","0","49348","","null","","","null","21","NaN","","","","","","","","","","","","","","",""
"","S2","","html-keyboard-response","144","190783","0.0-1.0-193.0","0","0","49348","","null","","","null","21","","NaN","","","","","","","","","","","","","",""
"","response","","html-keyboard-response","145","191278","0.0-1.0-194.0-0.0","0","0","49348","","494","","","68","21","","","1","21","training","adjacent","CB","3","2","R.jpg","N.jpg","1","0","0","",""
"","feedback","","html-keyboard-response","146","192280","0.0-1.0-195.0-0.0","0","0","49348","","null","","","null","21","","","","","","","","","","","","","","","",""
"","time_out","","html-keyboard-response","147","194282","0.0-1.0-197.0-0.0","0","0","49348","","null","","","null","21","","","","","","","","","","","","","","","",""
"","ITI","","html-keyboard-response","148","195285","0.0-1.0-198.0","0","0","49348","","null","","","null","21","","","","","","","","","","","","","","","NaN",""
"","S1","","html-keyboard-response","149","195537","0.0-1.0-200.0","0","0","49348","","null","","","null","22","","","","","","","","","","","","","","","",""
"","ISI","","html-keyboard-response","150","197538","0.0-1.0-201.0","0","0","49348","","null","","","null","22","NaN","","","","","","","","","","","","","","",""
"","S2","","html-keyboard-response","151","197790","0.0-1.0-202.0","0","0","49348","","null","","","null","22","","NaN","","","","","","","","","","","","","",""
"","response","","html-keyboard-response","152","198470","0.0-1.0-203.0-0.0","0","0","49348","","678","","","75","22","","","1","22","training","adjacent","BC","2","3","N.jpg","R.jpg","0","1","0","",""
"","feedback","","html-keyboard-response","153","199473","0.0-1.0-204.0-0.0","0","0","49348","","null","","","null","22","","","","","","","","","","","","","","","",""
"","time_out","","html-keyboard-response","154","201475","0.0-1.0-206.0-0.0","0","0","49348","","null","","","null","22","","","","","","","","","","","","","","","",""
"","ITI","","html-keyboard-response","155","202477","0.0-1.0-207.0","0","0","49348","","null","","","null","22","","","","","","","","","","","","","","","NaN",""
"","S1","","html-keyboard-response","156","202729","0.0-1.0-209.0","0","0","49348","","null","","","null","23","","","","","","","","","","","","","","","",""
"","ISI","","html-keyboard-response","157","204731","0.0-1.0-210.0","0","0","49348","","null","","","null","23","NaN","","","","","","","","","","","","","","",""
"","S2","","html-keyboard-response","158","204983","0.0-1.0-211.0","0","0","49348","","null","","","null","23","","NaN","","","","","","","","","","","","","",""
"","response","","html-keyboard-response","159","205446","0.0-1.0-212.0-0.0","0","0","49348","","462","","","68","23","","","1","23","training","adjacent","ED","5","4","P.jpg","M.jpg","1","0","0","",""
"","feedback","","html-keyboard-response","160","206448","0.0-1.0-213.0-0.0","0","0","49348","","null","","","null","23","","","","","","","","","","","","","","","",""
"","time_out","","html-keyboard-response","161","208451","0.0-1.0-215.0-0.0","0","0","49348","","null","","","null","23","","","","","","","","","","","","","","","",""
"","ITI","","html-keyboard-response","162","209453","0.0-1.0-216.0","0","0","49348","","null","","","null","23","","","","","","","","","","","","","","","NaN",""
"","S1","","html-keyboard-response","163","209705","0.0-1.0-218.0","0","0","49348","","null","","","null","24","","","","","","","","","","","","","","","",""
"","ISI","","html-keyboard-response","164","211707","0.0-1.0-219.0","0","0","49348","","null","","","null","24","NaN","","","","","","","","","","","","","","",""
"","S2","","html-keyboard-response","165","211960","0.0-1.0-220.0","0","0","49348","","null","","","null","24","","NaN","","","","","","","","","","","","","",""
"","response","","html-keyboard-response","166","212254","0.0-1.0-221.0-0.0","0","0","49348","","292","","","68","24","","","1","24","training","adjacent","BC","2","3","N.jpg","R.jpg","1","1","1","",""
"","feedback","","html-keyboard-response","167","213257","0.0-1.0-222.0-0.0","0","0","49348","","null","","","null","24","","","","","","","","","","","","","","","",""
"","ITI","","html-keyboard-response","168","214259","0.0-1.0-225.0","0","0","49348","","null","","","null","24","","","","","","","","","","","","","","","NaN",""
"","S1","","html-keyboard-response","169","214511","0.0-1.0-227.0","0","0","49348","","null","","","null","25","","","","","","","","","","","","","","","",""
"","ISI","","html-keyboard-response","170","216513","0.0-1.0-228.0","0","0","49348","","null","","","null","25","NaN","","","","","","","","","","","","","","",""
"","S2","","html-keyboard-response","171","216765","0.0-1.0-229.0","0","0","49348","","null","","","null","25","","NaN","","","","","","","","","","","","","",""
"","response","","html-keyboard-response","172","217302","0.0-1.0-230.0-0.0","0","0","49348","","535","","","68","25","","","1","25","training","adjacent","DE","4","5","M.jpg","P.jpg","1","1","1","",""
"","feedback","","html-keyboard-response","173","218305","0.0-1.0-231.0-0.0","0","0","49348","","null","","","null","25","","","","","","","","","","","","","","","",""
"","ITI","","html-keyboard-response","174","219307","0.0-1.0-234.0","0","0","49348","","null","","","null","25","","","","","","","","","","","","","","","NaN",""
"","S1","","html-keyboard-response","175","219559","0.0-1.0-236.0","0","0","49348","","null","","","null","26","","","","","","","","","","","","","","","",""
"","ISI","","html-keyboard-response","176","221561","0.0-1.0-237.0","0","0","49348","","null","","","null","26","NaN","","","","","","","","","","","","","","",""
"","S2","","html-keyboard-response","177","221814","0.0-1.0-238.0","0","0","49348","","null","","","null","26","","NaN","","","","","","","","","","","","","",""
"","response","","html-keyboard-response","178","222198","0.0-1.0-239.0-0.0","0","0","49348","","383","","","68","26","","","1","26","training","adjacent","BA","2","1","N.jpg","Q.jpg","1","0","0","",""
"","feedback","","html-keyboard-response","179","223201","0.0-1.0-240.0-0.0","0","0","49348","","null","","","null","26","","","","","","","","","","","","","","","",""
"","time_out","","html-keyboard-response","180","225203","0.0-1.0-242.0-0.0","0","0","49348","","null","","","null","26","","","","","","","","","","","","","","","",""
"","ITI","","html-keyboard-response","181","226206","0.0-1.0-243.0","0","0","49348","","null","","","null","26","","","","","","","","","","","","","","","NaN",""
"","S1","","html-keyboard-response","182","226458","0.0-1.0-245.0","0","0","49348","","null","","","null","27","","","","","","","","","","","","","","","",""
"","ISI","","html-keyboard-response","183","228461","0.0-1.0-246.0","0","0","49348","","null","","","null","27","NaN","","","","","","","","","","","","","","",""
"","S2","","html-keyboard-response","184","228713","0.0-1.0-247.0","0","0","49348","","null","","","null","27","","NaN","","","","","","","","","","","","","",""
"","response","","html-keyboard-response","185","229423","0.0-1.0-248.0-0.0","0","0","49348","","709","","","75","27","","","1","27","training","adjacent","DE","4","5","M.jpg","P.jpg","0","1","0","",""
"","feedback","","html-keyboard-response","186","230425","0.0-1.0-249.0-0.0","0","0","49348","","null","","","null","27","","","","","","","","","","","","","","","",""
"","time_out","","html-keyboard-response","187","232428","0.0-1.0-251.0-0.0","0","0","49348","","null","","","null","27","","","","","","","","","","","","","","","",""
"","ITI","","html-keyboard-response","188","233430","0.0-1.0-252.0","0","0","49348","","null","","","null","27","","","","","","","","","","","","","","","NaN",""
"","S1","","html-keyboard-response","189","233682","0.0-1.0-254.0","0","0","49348","","null","","","null","28","","","","","","","","","","","","","","","",""
"","ISI","","html-keyboard-response","190","235683","0.0-1.0-255.0","0","0","49348","","null","","","null","28","NaN","","","","","","","","","","","","","","",""
"","S2","","html-keyboard-response","191","235935","0.0-1.0-256.0","0","0","49348","","null","","","null","28","","NaN","","","","","","","","","","","","","",""
"","response","","html-keyboard-response","192","236719","0.0-1.0-257.0-0.0","0","0","49348","","782","","","75","28","","","1","28","training","adjacent","BA","2","1","N.jpg","Q.jpg","0","0","1","",""
"","feedback","","html-keyboard-response","193","237722","0.0-1.0-258.0-0.0","0","0","49348","","null","","","null","28","","","","","","","","","","","","","","","",""
"","ITI","","html-keyboard-response","194","238724","0.0-1.0-261.0","0","0","49348","","null","","","null","28","","","","","","","","","","","","","","","NaN",""
"","S1","","html-keyboard-response","195","238976","0.0-1.0-263.0","0","0","49348","","null","","","null","29","","","","","","","","","","","","","","","",""
"","ISI","","html-keyboard-response","196","240977","0.0-1.0-264.0","0","0","49348","","null","","","null","29","NaN","","","","","","","","","","","","","","",""
"","S2","","html-keyboard-response","197","241229","0.0-1.0-265.0","0","0","49348","","null","","","null","29","","NaN","","","","","","","","","","","","","",""
"","response","","html-keyboard-response","198","242056","0.0-1.0-266.0-0.0","0","0","49348","","825","","","75","29","","","1","29","training","adjacent","DE","4","5","M.jpg","P.jpg","0","1","0","",""
"","feedback","","html-keyboard-response","199","243058","0.0-1.0-267.0-0.0","0","0","49348","","null","","","null","29","","","","","","","","","","","","","","","",""
"","time_out","","html-keyboard-response","200","245061","0.0-1.0-269.0-0.0","0","0","49348","","null","","","null","29","","","","","","","","","","","","","","","",""
"","ITI","","html-keyboard-response","201","246063","0.0-1.0-270.0","0","0","49348","","null","","","null","29","","","","","","","","","","","","","","","NaN",""
"","S1","","html-keyboard-response","202","246315","0.0-1.0-272.0","0","0","49348","","null","","","null","30","","","","","","","","","","","","","","","",""
"","ISI","","html-keyboard-response","203","248316","0.0-1.0-273.0","0","0","49348","","null","","","null","30","NaN","","","","","","","","","","","","","","",""
"","S2","","html-keyboard-response","204","248568","0.0-1.0-274.0","0","0","49348","","null","","","null","30","","NaN","","","","","","","","","","","","","",""
"","response","","html-keyboard-response","205","248776","0.0-1.0-275.0-0.0","0","0","49348","","206","","","68","30","","","1","30","training","adjacent","FE","6","5","L.jpg","P.jpg","1","0","0","",""
"","feedback","","html-keyboard-response","206","249777","0.0-1.0-276.0-0.0","0","0","49348","","null","","","null","30","","","","","","","","","","","","","","","",""
"","time_out","","html-keyboard-response","207","251779","0.0-1.0-278.0-0.0","0","0","49348","","null","","","null","30","","","","","","","","","","","","","","","",""
"","ITI","","html-keyboard-response","208","252782","0.0-1.0-279.0","0","0","49348","","null","","","null","30","","","","","","","","","","","","","","","NaN",""
"","S1","","html-keyboard-response","209","253034","0.0-1.0-281.0","0","0","49348","","null","","","null","31","","","","","","","","","","","","","","","",""
"","ISI","","html-keyboard-response","210","255036","0.0-1.0-282.0","0","0","49348","","null","","","null","31","NaN","","","","","","","","","","","","","","",""
"","S2","","html-keyboard-response","211","255288","0.0-1.0-283.0","0","0","49348","","null","","","null","31","","NaN","","","","","","","","","","","","","",""
"","response","","html-keyboard-response","212","255680","0.0-1.0-284.0-0.0","0","0","49348","","390","","","68","31","","","1","31","training","adjacent","DC","4","3","M.jpg","R.jpg","1","0","0","",""
"","feedback","","html-keyboard-response","213","256683","0.0-1.0-285.0-0.0","0","0","49348","","null","","","null","31","","","","","","","","","","","","","","","",""
"","time_out","","html-keyboard-response","214","258685","0.0-1.0-287.0-0.0","0","0","49348","","null","","","null","31","","","","","","","","","","","","","","","",""
"","ITI","","html-keyboard-response","215","259687","0.0-1.0-288.0","0","0","49348","","null","","","null","31","","","","","","","","","","","","","","","NaN",""
"","S1","","html-keyboard-response","216","259939","0.0-1.0-290.0","0","0","49348","","null","","","null","32","","","","","","","","","","","","","","","",""
"","ISI","","html-keyboard-response","217","261941","0.0-1.0-291.0","0","0","49348","","null","","","null","32","NaN","","","","","","","","","","","","","","",""
"","S2","","html-keyboard-response","218","262193","0.0-1.0-292.0","0","0","49348","","null","","","null","32","","NaN","","","","","","","","","","","","","",""
"","response","","html-keyboard-response","219","262392","0.0-1.0-293.0-0.0","0","0","49348","","198","","","75","32","","","1","32","training","adjacent","FE","6","5","L.jpg","P.jpg","0","0","1","",""
"","feedback","","html-keyboard-response","220","263394","0.0-1.0-294.0-0.0","0","0","49348","","null","","","null","32","","","","","","","","","","","","","","","",""
"","ITI","","html-keyboard-response","221","264397","0.0-1.0-297.0","0","0","49348","","null","","","null","32","","","","","","","","","","","","","","","NaN",""
"","S1","","html-keyboard-response","222","264649","0.0-1.0-299.0","0","0","49348","","null","","","null","33","","","","","","","","","","","","","","","",""
"","ISI","","html-keyboard-response","223","266651","0.0-1.0-300.0","0","0","49348","","null","","","null","33","NaN","","","","","","","","","","","","","","",""
"","S2","","html-keyboard-response","224","266903","0.0-1.0-301.0","0","0","49348","","null","","","null","33","","NaN","","","","","","","","","","","","","",""
"","response","","html-keyboard-response","225","267352","0.0-1.0-302.0-0.0","0","0","49348","","447","","","68","33","","","1","33","training","adjacent","BC","2","3","N.jpg","R.jpg","1","1","1","",""
"","feedback","","html-keyboard-response","226","268354","0.0-1.0-303.0-0.0","0","0","49348","","null","","","null","33","","","","","","","","","","","","","","","",""
"","ITI","","html-keyboard-response","227","269356","0.0-1.0-306.0","0","0","49348","","null","","","null","33","","","","","","","","","","","","","","","NaN",""
"","S1","","html-keyboard-response","228","269609","0.0-1.0-308.0","0","0","49348","","null","","","null","34","","","","","","","","","","","","","","","",""
"","ISI","","html-keyboard-response","229","271611","0.0-1.0-309.0","0","0","49348","","null","","","null","34","NaN","","","","","","","","","","","","","","",""
"","S2","","html-keyboard-response","230","271863","0.0-1.0-310.0","0","0","49348","","null","","","null","34","","NaN","","","","","","","","","","","","","",""
"","response","","html-keyboard-response","231","272304","0.0-1.0-311.0-0.0","0","0","49348","","440","","","75","34","","","1","34","training","adjacent","FE","6","5","L.jpg","P.jpg","0","0","1","",""
"","feedback","","html-keyboard-response","232","273306","0.0-1.0-312.0-0.0","0","0","49348","","null","","","null","34","","","","","","","","","","","","","","","",""
"","ITI","","html-keyboard-response","233","274308","0.0-1.0-315.0","0","0","49348","","null","","","null","34","","","","","","","","","","","","","","","NaN",""
"","S1","","html-keyboard-response","234","274560","0.0-1.0-317.0","0","0","49348","","null","","","null","35","","","","","","","","","","","","","","","",""
"","ISI","","html-keyboard-response","235","276562","0.0-1.0-318.0","0","0","49348","","null","","","null","35","NaN","","","","","","","","","","","","","","",""
"","S2","","html-keyboard-response","236","276815","0.0-1.0-319.0","0","0","49348","","null","","","null","35","","NaN","","","","","","","","","","","","","",""
"","response","","html-keyboard-response","237","277168","0.0-1.0-320.0-0.0","0","0","49348","","352","","","68","35","","","1","35","training","adjacent","EF","5","6","P.jpg","L.jpg","1","1","1","",""
"","feedback","","html-keyboard-response","238","278170","0.0-1.0-321.0-0.0","0","0","49348","","null","","","null","35","","","","","","","","","","","","","","","",""
"","ITI","","html-keyboard-response","239","279173","0.0-1.0-324.0","0","0","49348","","null","","","null","35","","","","","","","","","","","","","","","NaN",""
"","S1","","html-keyboard-response","240","279425","0.0-1.0-326.0","0","0","49348","","null","","","null","36","","","","","","","","","","","","","","","",""
"","ISI","","html-keyboard-response","241","281427","0.0-1.0-327.0","0","0","49348","","null","","","null","36","NaN","","","","","","","","","","","","","","",""
"","S2","","html-keyboard-response","242","281679","0.0-1.0-328.0","0","0","49348","","null","","","null","36","","NaN","","","","","","","","","","","","","",""
"","response","","html-keyboard-response","243","282152","0.0-1.0-329.0-0.0","0","0","49348","","473","","","68","36","","","1","36","training","adjacent","GF","7","6","O.jpg","L.jpg","1","0","0","",""
"","feedback","","html-keyboard-response","244","283154","0.0-1.0-330.0-0.0","0","0","49348","","null","","","null","36","","","","","","","","","","","","","","","",""
"","time_out","","html-keyboard-response","245","285157","0.0-1.0-332.0-0.0","0","0","49348","","null","","","null","36","","","","","","","","","","","","","","","",""
"","ITI","","html-keyboard-response","246","286159","0.0-1.0-333.0","0","0","49348","","null","","","null","36","","","","","","","","","","","","","","","NaN",""
"","S1","","html-keyboard-response","247","286411","0.0-1.0-335.0","0","0","49348","","null","","","null","37","","","","","","","","","","","","","","","",""
"","ISI","","html-keyboard-response","248","288413","0.0-1.0-336.0","0","0","49348","","null","","","null","37","NaN","","","","","","","","","","","","","","",""
"","S2","","html-keyboard-response","249","288665","0.0-1.0-337.0","0","0","49348","","null","","","null","37","","NaN","","","","","","","","","","","","","",""
"","response","","html-keyboard-response","250","289129","0.0-1.0-338.0-0.0","0","0","49348","","463","","","75","37","","","1","37","training","adjacent","GF","7","6","O.jpg","L.jpg","0","0","1","",""
"","feedback","","html-keyboard-response","251","290131","0.0-1.0-339.0-0.0","0","0","49348","","null","","","null","37","","","","","","","","","","","","","","","",""
"","ITI","","html-keyboard-response","252","291133","0.0-1.0-342.0","0","0","49348","","null","","","null","37","","","","","","","","","","","","","","","NaN",""
"","S1","","html-keyboard-response","253","291385","0.0-1.0-344.0","0","0","49348","","null","","","null","38","","","","","","","","","","","","","","","",""
"","ISI","","html-keyboard-response","254","293387","0.0-1.0-345.0","0","0","49348","","null","","","null","38","NaN","","","","","","","","","","","","","","",""
"","S2","","html-keyboard-response","255","293639","0.0-1.0-346.0","0","0","49348","","null","","","null","38","","NaN","","","","","","","","","","","","","",""
"","response","","html-keyboard-response","256","294753","0.0-1.0-347.0-0.0","0","0","49348","","1113","","","68","38","","","1","38","training","adjacent","CB","3","2","R.jpg","N.jpg","1","0","0","",""
"","feedback","","html-keyboard-response","257","295755","0.0-1.0-348.0-0.0","0","0","49348","","null","","","null","38","","","","","","","","","","","","","","","",""
"","time_out","","html-keyboard-response","258","297758","0.0-1.0-350.0-0.0","0","0","49348","","null","","","null","38","","","","","","","","","","","","","","","",""
"","ITI","","html-keyboard-response","259","298760","0.0-1.0-351.0","0","0","49348","","null","","","null","38","","","","","","","","","","","","","","","NaN",""
"","S1","","html-keyboard-response","260","299012","0.0-1.0-353.0","0","0","49348","","null","","","null","39","","","","","","","","","","","","","","","",""
"","ISI","","html-keyboard-response","261","301014","0.0-1.0-354.0","0","0","49348","","null","","","null","39","NaN","","","","","","","","","","","","","","",""
"","S2","","html-keyboard-response","262","301266","0.0-1.0-355.0","0","0","49348","","null","","","null","39","","NaN","","","","","","","","","","","","","",""
"","response","","html-keyboard-response","263","301593","0.0-1.0-356.0-0.0","0","0","49348","","326","","","75","39","","","1","39","training","adjacent","CB","3","2","R.jpg","N.jpg","0","0","1","",""
"","feedback","","html-keyboard-response","264","302595","0.0-1.0-357.0-0.0","0","0","49348","","null","","","null","39","","","","","","","","","","","","","","","",""
"","ITI","","html-keyboard-response","265","303597","0.0-1.0-360.0","0","0","49348","","null","","","null","39","","","","","","","","","","","","","","","NaN",""
"","S1","","html-keyboard-response","266","303849","0.0-1.0-362.0","0","0","49348","","null","","","null","40","","","","","","","","","","","","","","","",""
"","ISI","","html-keyboard-response","267","305852","0.0-1.0-363.0","0","0","49348","","null","","","null","40","NaN","","","","","","","","","","","","","","",""
"","S2","","html-keyboard-response","268","306104","0.0-1.0-364.0","0","0","49348","","null","","","null","40","","NaN","","","","","","","","","","","","","",""
"","response","","html-keyboard-response","269","307033","0.0-1.0-365.0-0.0","0","0","49348","","928","","","75","40","","","1","40","training","adjacent","GF","7","6","O.jpg","L.jpg","0","0","1","",""
"","feedback","","html-keyboard-response","270","308035","0.0-1.0-366.0-0.0","0","0","49348","","null","","","null","40","","","","","","","","","","","","","","","",""
"","ITI","","html-keyboard-response","271","309037","0.0-1.0-369.0","0","0","49348","","null","","","null","40","","","","","","","","","","","","","","","NaN",""
"","S1","","html-keyboard-response","272","309289","0.0-1.0-371.0","0","0","49348","","null","","","null","41","","","","","","","","","","","","","","","",""
"","ISI","","html-keyboard-response","273","311291","0.0-1.0-372.0","0","0","49348","","null","","","null","41","NaN","","","","","","","","","","","","","","",""
"","S2","","html-keyboard-response","274","311543","0.0-1.0-373.0","0","0","49348","","null","","","null","41","","NaN","","","","","","","","","","","","","",""
"","response","","html-keyboard-response","275","311825","0.0-1.0-374.0-0.0","0","0","49348","","281","","","68","41","","","1","41","training","adjacent","DC","4","3","M.jpg","R.jpg","1","0","0","",""
"","feedback","","html-keyboard-response","276","312827","0.0-1.0-375.0-0.0","0","0","49348","","null","","","null","41","","","","","","","","","","","","","","","",""
"","time_out","","html-keyboard-response","277","314830","0.0-1.0-377.0-0.0","0","0","49348","","null","","","null","41","","","","","","","","","","","","","","","",""
"","ITI","","html-keyboard-response","278","315832","0.0-1.0-378.0","0","0","49348","","null","","","null","41","","","","","","","","","","","","","","","NaN",""
"","S1","","html-keyboard-response","279","316084","0.0-1.0-380.0","0","0","49348","","null","","","null","42","","","","","","","","","","","","","","","",""
"","ISI","","html-keyboard-response","280","318085","0.0-1.0-381.0","0","0","49348","","null","","","null","42","NaN","","","","","","","","","","","","","","",""
"","S2","","html-keyboard-response","281","318337","0.0-1.0-382.0","0","0","49348","","null","","","null","42","","NaN","","","","","","","","","","","","","",""
"","response","","html-keyboard-response","282","319186","0.0-1.0-383.0-0.0","0","0","49348","","847","","","68","42","","","1","42","training","adjacent","BC","2","3","N.jpg","R.jpg","1","1","1","",""
"","feedback","","html-keyboard-response","283","320188","0.0-1.0-384.0-0.0","0","0","49348","","null","","","null","42","","","","","","","","","","","","","","","",""
"","ITI","","html-keyboard-response","284","321190","0.0-1.0-387.0","0","0","49348","","null","","","null","42","","","","","","","","","","","","","","","NaN",""
"","S1","","html-keyboard-response","285","321442","0.0-1.0-389.0","0","0","49348","","null","","","null","43","","","","","","","","","","","","","","","",""
"","ISI","","html-keyboard-response","286","323444","0.0-1.0-390.0","0","0","49348","","null","","","null","43","NaN","","","","","","","","","","","","","","",""
"","S2","","html-keyboard-response","287","323696","0.0-1.0-391.0","0","0","49348","","null","","","null","43","","NaN","","","","","","","","","","","","","",""
"","response","","html-keyboard-response","288","324553","0.0-1.0-392.0-0.0","0","0","49348","","857","","","75","43","","","1","43","training","adjacent","AB","1","2","Q.jpg","N.jpg","0","1","0","",""
"","feedback","","html-keyboard-response","289","325556","0.0-1.0-393.0-0.0","0","0","49348","","null","","","null","43","","","","","","","","","","","","","","","",""
"","time_out","","html-keyboard-response","290","327558","0.0-1.0-395.0-0.0","0","0","49348","","null","","","null","43","","","","","","","","","","","","","","","",""
"","ITI","","html-keyboard-response","291","328560","0.0-1.0-396.0","0","0","49348","","null","","","null","43","","","","","","","","","","","","","","","NaN",""
"","S1","","html-keyboard-response","292","328812","0.0-1.0-398.0","0","0","49348","","null","","","null","44","","","","","","","","","","","","","","","",""
"","ISI","","html-keyboard-response","293","330814","0.0-1.0-399.0","0","0","49348","","null","","","null","44","NaN","","","","","","","","","","","","","","",""
"","S2","","html-keyboard-response","294","331066","0.0-1.0-400.0","0","0","49348","","null","","","null","44","","NaN","","","","","","","","","","","","","",""
"","response","","html-keyboard-response","295","331234","0.0-1.0-401.0-0.0","0","0","49348","","167","","","68","44","","","1","44","training","adjacent","AB","1","2","Q.jpg","N.jpg","1","1","1","",""
"","feedback","","html-keyboard-response","296","332236","0.0-1.0-402.0-0.0","0","0","49348","","null","","","null","44","","","","","","","","","","","","","","","",""
"","ITI","","html-keyboard-response","297","333238","0.0-1.0-405.0","0","0","49348","","null","","","null","44","","","","","","","","","","","","","","","NaN",""
"","S1","","html-keyboard-response","298","333490","0.0-1.0-407.0","0","0","49348","","null","","","null","45","","","","","","","","","","","","","","","",""
"","ISI","","html-keyboard-response","299","335493","0.0-1.0-408.0","0","0","49348","","null","","","null","45","NaN","","","","","","","","","","","","","","",""
"","S2","","html-keyboard-response","300","335745","0.0-1.0-409.0","0","0","49348","","null","","","null","45","","NaN","","","","","","","","","","","","","",""
"","response","","html-keyboard-response","301","336290","0.0-1.0-410.0-0.0","0","0","49348","","544","","","75","45","","","1","45","training","adjacent","FG","6","7","L.jpg","O.jpg","0","1","0","",""
"","feedback","","html-keyboard-response","302","337292","0.0-1.0-411.0-0.0","0","0","49348","","null","","","null","45","","","","","","","","","","","","","","","",""
"","time_out","","html-keyboard-response","303","339295","0.0-1.0-413.0-0.0","0","0","49348","","null","","","null","45","","","","","","","","","","","","","","","",""
"","ITI","","html-keyboard-response","304","340297","0.0-1.0-414.0","0","0","49348","","null","","","null","45","","","","","","","","","","","","","","","NaN",""
"","S1","","html-keyboard-response","305","340549","0.0-1.0-416.0","0","0","49348","","null","","","null","46","","","","","","","","","","","","","","","",""
"","ISI","","html-keyboard-response","306","342551","0.0-1.0-417.0","0","0","49348","","null","","","null","46","NaN","","","","","","","","","","","","","","",""
"","S2","","html-keyboard-response","307","342803","0.0-1.0-418.0","0","0","49348","","null","","","null","46","","NaN","","","","","","","","","","","","","",""
"","response","","html-keyboard-response","308","344026","0.0-1.0-419.0-0.0","0","0","49348","","1222","","","75","46","","","1","46","training","adjacent","GF","7","6","O.jpg","L.jpg","0","0","1","",""
"","feedback","","html-keyboard-response","309","345028","0.0-1.0-420.0-0.0","0","0","49348","","null","","","null","46","","","","","","","","","","","","","","","",""
"","ITI","","html-keyboard-response","310","346030","0.0-1.0-423.0","0","0","49348","","null","","","null","46","","","","","","","","","","","","","","","NaN",""
"","S1","","html-keyboard-response","311","346282","0.0-1.0-425.0","0","0","49348","","null","","","null","47","","","","","","","","","","","","","","","",""
"","ISI","","html-keyboard-response","312","348284","0.0-1.0-426.0","0","0","49348","","null","","","null","47","NaN","","","","","","","","","","","","","","",""
"","S2","","html-keyboard-response","313","348536","0.0-1.0-427.0","0","0","49348","","null","","","null","47","","NaN","","","","","","","","","","","","","",""
"","response","","html-keyboard-response","314","348914","0.0-1.0-428.0-0.0","0","0","49348","","377","","","68","47","","","1","47","training","adjacent","DC","4","3","M.jpg","R.jpg","1","0","0","",""
"","feedback","","html-keyboard-response","315","349916","0.0-1.0-429.0-0.0","0","0","49348","","null","","","null","47","","","","","","","","","","","","","","","",""
"","time_out","","html-keyboard-response","316","351919","0.0-1.0-431.0-0.0","0","0","49348","","null","","","null","47","","","","","","","","","","","","","","","",""
"","ITI","","html-keyboard-response","317","352921","0.0-1.0-432.0","0","0","49348","","null","","","null","47","","","","","","","","","","","","","","","NaN",""
"","block_over","","html-keyboard-response","318","357386","0.0-1.0-433.0-0.0","0","0","49348","","4463","","","32","47","","","","","","","","","","","","","","","",""
"","S1","","html-keyboard-response","319","357639","0.0-1.0-434.0","0","0","49348","","null","","","null","48","","","","","","","","","","","","","","","",""
"","ISI","","html-keyboard-response","320","359640","0.0-1.0-435.0","0","0","49348","","null","","","null","48","NaN","","","","","","","","","","","","","","",""
"","S2","","html-keyboard-response","321","359892","0.0-1.0-436.0","0","0","49348","","null","","","null","48","","NaN","","","","","","","","","","","","","",""
"","response","","html-keyboard-response","322","360522","0.0-1.0-437.0-0.0","0","0","49348","","628","","","75","48","","","2","48","training","adjacent","FE","6","5","L.jpg","P.jpg","0","0","1","",""
"","feedback","","html-keyboard-response","323","361525","0.0-1.0-438.0-0.0","0","0","49348","","null","","","null","48","","","","","","","","","","","","","","","",""
"","ITI","","html-keyboard-response","324","362527","0.0-1.0-441.0","0","0","49348","","null","","","null","48","","","","","","","","","","","","","","","NaN",""
"","S1","","html-keyboard-response","325","362779","0.0-1.0-443.0","0","0","49348","","null","","","null","49","","","","","","","","","","","","","","","",""
"","ISI","","html-keyboard-response","326","364781","0.0-1.0-444.0","0","0","49348","","null","","","null","49","NaN","","","","","","","","","","","","","","",""
"","S2","","html-keyboard-response","327","365033","0.0-1.0-445.0","0","0","49348","","null","","","null","49","","NaN","","","","","","","","","","","","","",""
"","response","","html-keyboard-response","328","365699","0.0-1.0-446.0-0.0","0","0","49348","","664","","","75","49","","","2","49","training","adjacent","GF","7","6","O.jpg","L.jpg","0","0","1","",""
"","feedback","","html-keyboard-response","329","366701","0.0-1.0-447.0-0.0","0","0","49348","","null","","","null","49","","","","","","","","","","","","","","","",""
"","ITI","","html-keyboard-response","330","367703","0.0-1.0-450.0","0","0","49348","","null","","","null","49","","","","","","","","","","","","","","","NaN",""
"","S1","","html-keyboard-response","331","367955","0.0-1.0-452.0","0","0","49348","","null","","","null","50","","","","","","","","","","","","","","","",""
"","ISI","","html-keyboard-response","332","369957","0.0-1.0-453.0","0","0","49348","","null","","","null","50","NaN","","","","","","","","","","","","","","",""
"","S2","","html-keyboard-response","333","370209","0.0-1.0-454.0","0","0","49348","","null","","","null","50","","NaN","","","","","","","","","","","","","",""
"","response","","html-keyboard-response","334","370979","0.0-1.0-455.0-0.0","0","0","49348","","769","","","68","50","","","2","50","training","adjacent","FG","6","7","L.jpg","O.jpg","1","1","1","",""
"","feedback","","html-keyboard-response","335","371981","0.0-1.0-456.0-0.0","0","0","49348","","null","","","null","50","","","","","","","","","","","","","","","",""
"","ITI","","html-keyboard-response","336","372983","0.0-1.0-459.0","0","0","49348","","null","","","null","50","","","","","","","","","","","","","","","NaN",""
"","S1","","html-keyboard-response","337","373235","0.0-1.0-461.0","0","0","49348","","null","","","null","51","","","","","","","","","","","","","","","",""
"","ISI","","html-keyboard-response","338","375237","0.0-1.0-462.0","0","0","49348","","null","","","null","51","NaN","","","","","","","","","","","","","","",""
"","S2","","html-keyboard-response","339","375489","0.0-1.0-463.0","0","0","49348","","null","","","null","51","","NaN","","","","","","","","","","","","","",""
"","response","","html-keyboard-response","340","375643","0.0-1.0-464.0-0.0","0","0","49348","","153","","","68","51","","","2","51","training","adjacent","AB","1","2","Q.jpg","N.jpg","1","1","1","",""
"","feedback","","html-keyboard-response","341","376646","0.0-1.0-465.0-0.0","0","0","49348","","null","","","null","51","","","","","","","","","","","","","","","",""
"","ITI","","html-keyboard-response","342","377648","0.0-1.0-468.0","0","0","49348","","null","","","null","51","","","","","","","","","","","","","","","NaN",""
"","S1","","html-keyboard-response","343","377900","0.0-1.0-470.0","0","0","49348","","null","","","null","52","","","","","","","","","","","","","","","",""
"","ISI","","html-keyboard-response","344","379903","0.0-1.0-471.0","0","0","49348","","null","","","null","52","NaN","","","","","","","","","","","","","","",""
"","S2","","html-keyboard-response","345","380155","0.0-1.0-472.0","0","0","49348","","null","","","null","52","","NaN","","","","","","","","","","","","","",""
"","response","","html-keyboard-response","346","381011","0.0-1.0-473.0-0.0","0","0","49348","","854","","","68","52","","","2","52","training","adjacent","FG","6","7","L.jpg","O.jpg","1","1","1","",""
"","feedback","","html-keyboard-response","347","382013","0.0-1.0-474.0-0.0","0","0","49348","","null","","","null","52","","","","","","","","","","","","","","","",""
"","ITI","","html-keyboard-response","348","383016","0.0-1.0-477.0","0","0","49348","","null","","","null","52","","","","","","","","","","","","","","","NaN",""
"","S1","","html-keyboard-response","349","383268","0.0-1.0-479.0","0","0","49348","","null","","","null","53","","","","","","","","","","","","","","","",""
"","ISI","","html-keyboard-response","350","385269","0.0-1.0-480.0","0","0","49348","","null","","","null","53","NaN","","","","","","","","","","","","","","",""
"","S2","","html-keyboard-response","351","385521","0.0-1.0-481.0","0","0","49348","","null","","","null","53","","NaN","","","","","","","","","","","","","",""
"","response","","html-keyboard-response","352","385843","0.0-1.0-482.0-0.0","0","0","49348","","320","","","68","53","","","2","53","training","adjacent","BC","2","3","N.jpg","R.jpg","1","1","1","",""
"","feedback","","html-keyboard-response","353","386846","0.0-1.0-483.0-0.0","0","0","49348","","null","","","null","53","","","","","","","","","","","","","","","",""
"","ITI","","html-keyboard-response","354","387848","0.0-1.0-486.0","0","0","49348","","null","","","null","53","","","","","","","","","","","","","","","NaN",""
"","S1","","html-keyboard-response","355","388100","0.0-1.0-488.0","0","0","49348","","null","","","null","54","","","","","","","","","","","","","","","",""
"","ISI","","html-keyboard-response","356","390101","0.0-1.0-489.0","0","0","49348","","null","","","null","54","NaN","","","","","","","","","","","","","","",""
"","S2","","html-keyboard-response","357","390353","0.0-1.0-490.0","0","0","49348","","null","","","null","54","","NaN","","","","","","","","","","","","","",""
"","response","","html-keyboard-response","358","391499","0.0-1.0-491.0-0.0","0","0","49348","","1144","","","75","54","","","2","54","training","adjacent","CD","3","4","R.jpg","M.jpg","0","1","0","",""
"","feedback","","html-keyboard-response","359","392502","0.0-1.0-492.0-0.0","0","0","49348","","null","","","null","54","","","","","","","","","","","","","","","",""
"","time_out","","html-keyboard-response","360","394504","0.0-1.0-494.0-0.0","0","0","49348","","null","","","null","54","","","","","","","","","","","","","","","",""
"","ITI","","html-keyboard-response","361","395507","0.0-1.0-495.0","0","0","49348","","null","","","null","54","","","","","","","","","","","","","","","NaN",""
"","S1","","html-keyboard-response","362","395759","0.0-1.0-497.0","0","0","49348","","null","","","null","55","","","","","","","","","","","","","","","",""
"","ISI","","html-keyboard-response","363","397761","0.0-1.0-498.0","0","0","49348","","null","","","null","55","NaN","","","","","","","","","","","","","","",""
"","S2","","html-keyboard-response","364","398013","0.0-1.0-499.0","0","0","49348","","null","","","null","55","","NaN","","","","","","","","","","","","","",""
"","response","","html-keyboard-response","365","398595","0.0-1.0-500.0-0.0","0","0","49348","","580","","","75","55","","","2","55","training","adjacent","FE","6","5","L.jpg","P.jpg","0","0","1","",""
"","feedback","","html-keyboard-response","366","399597","0.0-1.0-501.0-0.0","0","0","49348","","null","","","null","55","","","","","","","","","","","","","","","",""
"","ITI","","html-keyboard-response","367","400600","0.0-1.0-504.0","0","0","49348","","null","","","null","55","","","","","","","","","","","","","","","NaN",""
"","S1","","html-keyboard-response","368","400852","0.0-1.0-506.0","0","0","49348","","null","","","null","56","","","","","","","","","","","","","","","",""
"","ISI","","html-keyboard-response","369","402853","0.0-1.0-507.0","0","0","49348","","null","","","null","56","NaN","","","","","","","","","","","","","","",""
"","S2","","html-keyboard-response","370","403105","0.0-1.0-508.0","0","0","49348","","null","","","null","56","","NaN","","","","","","","","","","","","","",""
"","response","","html-keyboard-response","371","403395","0.0-1.0-509.0-0.0","0","0","49348","","289","","","68","56","","","2","56","training","adjacent","EF","5","6","P.jpg","L.jpg","1","1","1","",""
"","feedback","","html-keyboard-response","372","404398","0.0-1.0-510.0-0.0","0","0","49348","","null","","","null","56","","","","","","","","","","","","","","","",""
"","ITI","","html-keyboard-response","373","405400","0.0-1.0-513.0","0","0","49348","","null","","","null","56","","","","","","","","","","","","","","","NaN",""
"","S1","","html-keyboard-response","374","405652","0.0-1.0-515.0","0","0","49348","","null","","","null","57","","","","","","","","","","","","","","","",""
"","ISI","","html-keyboard-response","375","407654","0.0-1.0-516.0","0","0","49348","","null","","","null","57","NaN","","","","","","","","","","","","","","",""
"","S2","","html-keyboard-response","376","407906","0.0-1.0-517.0","0","0","49348","","null","","","null","57","","NaN","","","","","","","","","","","","","",""
"","response","","html-keyboard-response","377","408411","0.0-1.0-518.0-0.0","0","0","49348","","503","","","75","57","","","2","57","training","adjacent","ED","5","4","P.jpg","M.jpg","0","0","1","",""
"","feedback","","html-keyboard-response","378","409414","0.0-1.0-519.0-0.0","0","0","49348","","null","","","null","57","","","","","","","","","","","","","","","",""
"","ITI","","html-keyboard-response","379","410416","0.0-1.0-522.0","0","0","49348","","null","","","null","57","","","","","","","","","","","","","","","NaN",""
"","S1","","html-keyboard-response","380","410668","0.0-1.0-524.0","0","0","49348","","null","","","null","58","","","","","","","","","","","","","","","",""
"","ISI","","html-keyboard-response","381","412669","0.0-1.0-525.0","0","0","49348","","null","","","null","58","NaN","","","","","","","","","","","","","","",""
"","S2","","html-keyboard-response","382","412922","0.0-1.0-526.0","0","0","49348","","null","","","null","58","","NaN","","","","","","","","","","","","","",""
"","response","","html-keyboard-response","383","413524","0.0-1.0-527.0-0.0","0","0","49348","","601","","","75","58","","","2","58","training","adjacent","GF","7","6","O.jpg","L.jpg","0","0","1","",""
"","feedback","","html-keyboard-response","384","414526","0.0-1.0-528.0-0.0","0","0","49348","","null","","","null","58","","","","","","","","","","","","","","","",""
"","ITI","","html-keyboard-response","385","415528","0.0-1.0-531.0","0","0","49348","","null","","","null","58","","","","","","","","","","","","","","","NaN",""
"","S1","","html-keyboard-response","386","415780","0.0-1.0-533.0","0","0","49348","","null","","","null","59","","","","","","","","","","","","","","","",""
"","ISI","","html-keyboard-response","387","417782","0.0-1.0-534.0","0","0","49348","","null","","","null","59","NaN","","","","","","","","","","","","","","",""
"","S2","","html-keyboard-response","388","418034","0.0-1.0-535.0","0","0","49348","","null","","","null","59","","NaN","","","","","","","","","","","","","",""
"","response","","html-keyboard-response","389","419572","0.0-1.0-536.0-0.0","0","0","49348","","1537","","","68","59","","","2","59","training","adjacent","FG","6","7","L.jpg","O.jpg","1","1","1","",""
"","feedback","","html-keyboard-response","390","420574","0.0-1.0-537.0-0.0","0","0","49348","","null","","","null","59","","","","","","","","","","","","","","","",""
"","ITI","","html-keyboard-response","391","421576","0.0-1.0-540.0","0","0","49348","","null","","","null","59","","","","","","","","","","","","","","","NaN",""
"","S1","","html-keyboard-response","392","421829","0.0-1.0-542.0","0","0","49348","","null","","","null","60","","","","","","","","","","","","","","","",""
"","ISI","","html-keyboard-response","393","423830","0.0-1.0-543.0","0","0","49348","","null","","","null","60","NaN","","","","","","","","","","","","","","",""
"","S2","","html-keyboard-response","394","424082","0.0-1.0-544.0","0","0","49348","","null","","","null","60","","NaN","","","","","","","","","","","","","",""
"","response","","html-keyboard-response","395","425356","0.0-1.0-545.0-0.0","0","0","49348","","1272","","","75","60","","","2","60","training","adjacent","EF","5","6","P.jpg","L.jpg","0","1","0","",""
"","feedback","","html-keyboard-response","396","426359","0.0-1.0-546.0-0.0","0","0","49348","","null","","","null","60","","","","","","","","","","","","","","","",""
"","time_out","","html-keyboard-response","397","428361","0.0-1.0-548.0-0.0","0","0","49348","","null","","","null","60","","","","","","","","","","","","","","","",""
"","ITI","","html-keyboard-response","398","429363","0.0-1.0-549.0","0","0","49348","","null","","","null","60","","","","","","","","","","","","","","","NaN",""
"","S1","","html-keyboard-response","399","429615","0.0-1.0-551.0","0","0","49348","","null","","","null","61","","","","","","","","","","","","","","","",""
"","ISI","","html-keyboard-response","400","431618","0.0-1.0-552.0","0","0","49348","","null","","","null","61","NaN","","","","","","","","","","","","","","",""
"","S2","","html-keyboard-response","401","431870","0.0-1.0-553.0","0","0","49348","","null","","","null","61","","NaN","","","","","","","","","","","","","",""
"","response","","html-keyboard-response","402","433284","0.0-1.0-554.0-0.0","0","0","49348","","1413","","","68","61","","","2","61","training","adjacent","EF","5","6","P.jpg","L.jpg","1","1","1","",""
"","feedback","","html-keyboard-response","403","434287","0.0-1.0-555.0-0.0","0","0","49348","","null","","","null","61","","","","","","","","","","","","","","","",""
"","ITI","","html-keyboard-response","404","435289","0.0-1.0-558.0","0","0","49348","","null","","","null","61","","","","","","","","","","","","","","","NaN",""
"","S1","","html-keyboard-response","405","435541","0.0-1.0-560.0","0","0","49348","","null","","","null","62","","","","","","","","","","","","","","","",""
"","ISI","","html-keyboard-response","406","437544","0.0-1.0-561.0","0","0","49348","","null","","","null","62","NaN","","","","","","","","","","","","","","",""
"","S2","","html-keyboard-response","407","437796","0.0-1.0-562.0","0","0","49348","","null","","","null","62","","NaN","","","","","","","","","","","","","",""
"","response","","html-keyboard-response","408","437884","0.0-1.0-563.0-0.0","0","0","49348","","87","","","68","62","","","2","62","training","adjacent","CB","3","2","R.jpg","N.jpg","1","0","0","",""
"","feedback","","html-keyboard-response","409","438888","0.0-1.0-564.0-0.0","0","0","49348","","null","","","null","62","","","","","","","","","","","","","","","",""
"","time_out","","html-keyboard-response","410","440890","0.0-1.0-566.0-0.0","0","0","49348","","null","","","null","62","","","","","","","","","","","","","","","",""
"","ITI","","html-keyboard-response","411","441893","0.0-1.0-567.0","0","0","49348","","null","","","null","62","","","","","","","","","","","","","","","NaN",""
"","S1","","html-keyboard-response","412","442145","0.0-1.0-569.0","0","0","49348","","null","","","null","63","","","","","","","","","","","","","","","",""
"","ISI","","html-keyboard-response","413","444147","0.0-1.0-570.0","0","0","49348","","null","","","null","63","NaN","","","","","","","","","","","","","","",""
"","S2","","html-keyboard-response","414","444399","0.0-1.0-571.0","0","0","49348","","null","","","null","63","","NaN","","","","","","","","","","","","","",""
"","response","","html-keyboard-response","415","445172","0.0-1.0-572.0-0.0","0","0","49348","","771","","","75","63","","","2","63","training","adjacent","FE","6","5","L.jpg","P.jpg","0","0","1","",""
"","feedback","","html-keyboard-response","416","446175","0.0-1.0-573.0-0.0","0","0","49348","","null","","","null","63","","","","","","","","","","","","","","","",""
"","ITI","","html-keyboard-response","417","447177","0.0-1.0-576.0","0","0","49348","","null","","","null","63","","","","","","","","","","","","","","","NaN",""
"","S1","","html-keyboard-response","418","447429","0.0-1.0-578.0","0","0","49348","","null","","","null","64","","","","","","","","","","","","","","","",""
"","ISI","","html-keyboard-response","419","449430","0.0-1.0-579.0","0","0","49348","","null","","","null","64","NaN","","","","","","","","","","","","","","",""
"","S2","","html-keyboard-response","420","449682","0.0-1.0-580.0","0","0","49348","","null","","","null","64","","NaN","","","","","","","","","","","","","",""
"","response","","html-keyboard-response","421","450485","0.0-1.0-581.0-0.0","0","0","49348","","801","","","75","64","","","2","64","training","adjacent","ED","5","4","P.jpg","M.jpg","0","0","1","",""
"","feedback","","html-keyboard-response","422","451487","0.0-1.0-582.0-0.0","0","0","49348","","null","","","null","64","","","","","","","","","","","","","","","",""
"","ITI","","html-keyboard-response","423","452489","0.0-1.0-585.0","0","0","49348","","null","","","null","64","","","","","","","","","","","","","","","NaN",""
"","S1","","html-keyboard-response","424","452741","0.0-1.0-587.0","0","0","49348","","null","","","null","65","","","","","","","","","","","","","","","",""
"","ISI","","html-keyboard-response","425","454743","0.0-1.0-588.0","0","0","49348","","null","","","null","65","NaN","","","","","","","","","","","","","","",""
"","S2","","html-keyboard-response","426","454995","0.0-1.0-589.0","0","0","49348","","null","","","null","65","","NaN","","","","","","","","","","","","","",""
"","response","","html-keyboard-response","427","455341","0.0-1.0-590.0-0.0","0","0","49348","","344","","","68","65","","","2","65","training","adjacent","BC","2","3","N.jpg","R.jpg","1","1","1","",""
"","feedback","","html-keyboard-response","428","456343","0.0-1.0-591.0-0.0","0","0","49348","","null","","","null","65","","","","","","","","","","","","","","","",""
"","ITI","","html-keyboard-response","429","457346","0.0-1.0-594.0","0","0","49348","","null","","","null","65","","","","","","","","","","","","","","","NaN",""
"","S1","","html-keyboard-response","430","457598","0.0-1.0-596.0","0","0","49348","","null","","","null","66","","","","","","","","","","","","","","","",""
"","ISI","","html-keyboard-response","431","459600","0.0-1.0-597.0","0","0","49348","","null","","","null","66","NaN","","","","","","","","","","","","","","",""
"","S2","","html-keyboard-response","432","459852","0.0-1.0-598.0","0","0","49348","","null","","","null","66","","NaN","","","","","","","","","","","","","",""
"","response","","html-keyboard-response","433","460269","0.0-1.0-599.0-0.0","0","0","49348","","415","","","68","66","","","2","66","training","adjacent","DC","4","3","M.jpg","R.jpg","1","0","0","",""
"","feedback","","html-keyboard-response","434","461272","0.0-1.0-600.0-0.0","0","0","49348","","null","","","null","66","","","","","","","","","","","","","","","",""
"","time_out","","html-keyboard-response","435","463274","0.0-1.0-602.0-0.0","0","0","49348","","null","","","null","66","","","","","","","","","","","","","","","",""
"","ITI","","html-keyboard-response","436","464276","0.0-1.0-603.0","0","0","49348","","null","","","null","66","","","","","","","","","","","","","","","NaN",""
"","S1","","html-keyboard-response","437","464529","0.0-1.0-605.0","0","0","49348","","null","","","null","67","","","","","","","","","","","","","","","",""
"","ISI","","html-keyboard-response","438","466531","0.0-1.0-606.0","0","0","49348","","null","","","null","67","NaN","","","","","","","","","","","","","","",""
"","S2","","html-keyboard-response","439","466783","0.0-1.0-607.0","0","0","49348","","null","","","null","67","","NaN","","","","","","","","","","","","","",""
"","response","","html-keyboard-response","440","467397","0.0-1.0-608.0-0.0","0","0","49348","","613","","","68","67","","","2","67","training","adjacent","BC","2","3","N.jpg","R.jpg","1","1","1","",""
"","feedback","","html-keyboard-response","441","468399","0.0-1.0-609.0-0.0","0","0","49348","","null","","","null","67","","","","","","","","","","","","","","","",""
"","ITI","","html-keyboard-response","442","469401","0.0-1.0-612.0","0","0","49348","","null","","","null","67","","","","","","","","","","","","","","","NaN",""
"","S1","","html-keyboard-response","443","469653","0.0-1.0-614.0","0","0","49348","","null","","","null","68","","","","","","","","","","","","","","","",""
"","ISI","","html-keyboard-response","444","471656","0.0-1.0-615.0","0","0","49348","","null","","","null","68","NaN","","","","","","","","","","","","","","",""
"","S2","","html-keyboard-response","445","471908","0.0-1.0-616.0","0","0","49348","","null","","","null","68","","NaN","","","","","","","","","","","","","",""
"","response","","html-keyboard-response","446","472605","0.0-1.0-617.0-0.0","0","0","49348","","696","","","75","68","","","2","68","training","adjacent","BA","2","1","N.jpg","Q.jpg","0","0","1","",""
"","feedback","","html-keyboard-response","447","473607","0.0-1.0-618.0-0.0","0","0","49348","","null","","","null","68","","","","","","","","","","","","","","","",""
"","ITI","","html-keyboard-response","448","474609","0.0-1.0-621.0","0","0","49348","","null","","","null","68","","","","","","","","","","","","","","","NaN",""
"","S1","","html-keyboard-response","449","474861","0.0-1.0-623.0","0","0","49348","","null","","","null","69","","","","","","","","","","","","","","","",""
"","ISI","","html-keyboard-response","450","476864","0.0-1.0-624.0","0","0","49348","","null","","","null","69","NaN","","","","","","","","","","","","","","",""
"","S2","","html-keyboard-response","451","477116","0.0-1.0-625.0","0","0","49348","","null","","","null","69","","NaN","","","","","","","","","","","","","",""
"","response","","html-keyboard-response","452","478461","0.0-1.0-626.0-0.0","0","0","49348","","1344","","","68","69","","","2","69","training","adjacent","DC","4","3","M.jpg","R.jpg","1","0","0","",""
"","feedback","","html-keyboard-response","453","479463","0.0-1.0-627.0-0.0","0","0","49348","","null","","","null","69","","","","","","","","","","","","","","","",""
"","time_out","","html-keyboard-response","454","481466","0.0-1.0-629.0-0.0","0","0","49348","","null","","","null","69","","","","","","","","","","","","","","","",""
"","ITI","","html-keyboard-response","455","482468","0.0-1.0-630.0","0","0","49348","","null","","","null","69","","","","","","","","","","","","","","","NaN",""
"","S1","","html-keyboard-response","456","482720","0.0-1.0-632.0","0","0","49348","","null","","","null","70","","","","","","","","","","","","","","","",""
"","ISI","","html-keyboard-response","457","484722","0.0-1.0-633.0","0","0","49348","","null","","","null","70","NaN","","","","","","","","","","","","","","",""
"","S2","","html-keyboard-response","458","484974","0.0-1.0-634.0","0","0","49348","","null","","","null","70","","NaN","","","","","","","","","","","","","",""
"","response","","html-keyboard-response","459","485429","0.0-1.0-635.0-0.0","0","0","49348","","453","","","75","70","","","2","70","training","adjacent","DC","4","3","M.jpg","R.jpg","0","0","1","",""
"","feedback","","html-keyboard-response","460","486432","0.0-1.0-636.0-0.0","0","0","49348","","null","","","null","70","","","","","","","","","","","","","","","",""
"","ITI","","html-keyboard-response","461","487434","0.0-1.0-639.0","0","0","49348","","null","","","null","70","","","","","","","","","","","","","","","NaN",""
"","S1","","html-keyboard-response","462","487686","0.0-1.0-641.0","0","0","49348","","null","","","null","71","","","","","","","","","","","","","","","",""
"","ISI","","html-keyboard-response","463","489689","0.0-1.0-642.0","0","0","49348","","null","","","null","71","NaN","","","","","","","","","","","","","","",""
"","S2","","html-keyboard-response","464","489941","0.0-1.0-643.0","0","0","49348","","null","","","null","71","","NaN","","","","","","","","","","","","","",""
"","response","","html-keyboard-response","465","490606","0.0-1.0-644.0-0.0","0","0","49348","","664","","","68","71","","","2","71","training","adjacent","CB","3","2","R.jpg","N.jpg","1","0","0","",""
"","feedback","","html-keyboard-response","466","491608","0.0-1.0-645.0-0.0","0","0","49348","","null","","","null","71","","","","","","","","","","","","","","","",""
"","time_out","","html-keyboard-response","467","493610","0.0-1.0-647.0-0.0","0","0","49348","","null","","","null","71","","","","","","","","","","","","","","","",""
"","ITI","","html-keyboard-response","468","494613","0.0-1.0-648.0","0","0","49348","","null","","","null","71","","","","","","","","","","","","","","","NaN",""
"","S1","","html-keyboard-response","469","494865","0.0-1.0-650.0","0","0","49348","","null","","","null","72","","","","","","","","","","","","","","","",""
"","ISI","","html-keyboard-response","470","496866","0.0-1.0-651.0","0","0","49348","","null","","","null","72","NaN","","","","","","","","","","","","","","",""
"","S2","","html-keyboard-response","471","497118","0.0-1.0-652.0","0","0","49348","","null","","","null","72","","NaN","","","","","","","","","","","","","",""
"","response","","html-keyboard-response","472","497894","0.0-1.0-653.0-0.0","0","0","49348","","774","","","68","72","","","2","72","training","adjacent","CD","3","4","R.jpg","M.jpg","1","1","1","",""
"","feedback","","html-keyboard-response","473","498896","0.0-1.0-654.0-0.0","0","0","49348","","null","","","null","72","","","","","","","","","","","","","","","",""
"","ITI","","html-keyboard-response","474","499898","0.0-1.0-657.0","0","0","49348","","null","","","null","72","","","","","","","","","","","","","","","NaN",""
"","S1","","html-keyboard-response","475","500150","0.0-1.0-659.0","0","0","49348","","null","","","null","73","","","","","","","","","","","","","","","",""
"","ISI","","html-keyboard-response","476","502152","0.0-1.0-660.0","0","0","49348","","null","","","null","73","NaN","","","","","","","","","","","","","","",""
"","S2","","html-keyboard-response","477","502404","0.0-1.0-661.0","0","0","49348","","null","","","null","73","","NaN","","","","","","","","","","","","","",""
"","response","","html-keyboard-response","478","502622","0.0-1.0-662.0-0.0","0","0","49348","","216","","","75","73","","","2","73","training","adjacent","ED","5","4","P.jpg","M.jpg","0","0","1","",""
"","feedback","","html-keyboard-response","479","503625","0.0-1.0-663.0-0.0","0","0","49348","","null","","","null","73","","","","","","","","","","","","","","","",""
"","ITI","","html-keyboard-response","480","504627","0.0-1.0-666.0","0","0","49348","","null","","","null","73","","","","","","","","","","","","","","","NaN",""
"","S1","","html-keyboard-response","481","504879","0.0-1.0-668.0","0","0","49348","","null","","","null","74","","","","","","","","","","","","","","","",""
"","ISI","","html-keyboard-response","482","506881","0.0-1.0-669.0","0","0","49348","","null","","","null","74","NaN","","","","","","","","","","","","","","",""
"","S2","","html-keyboard-response","483","507134","0.0-1.0-670.0","0","0","49348","","null","","","null","74","","NaN","","","","","","","","","","","","","",""
"","response","","html-keyboard-response","484","507614","0.0-1.0-671.0-0.0","0","0","49348","","479","","","75","74","","","2","74","training","adjacent","BA","2","1","N.jpg","Q.jpg","0","0","1","",""
"","feedback","","html-keyboard-response","485","508617","0.0-1.0-672.0-0.0","0","0","49348","","null","","","null","74","","","","","","","","","","","","","","","",""
"","ITI","","html-keyboard-response","486","509619","0.0-1.0-675.0","0","0","49348","","null","","","null","74","","","","","","","","","","","","","","","NaN",""
"","S1","","html-keyboard-response","487","509871","0.0-1.0-677.0","0","0","49348","","null","","","null","75","","","","","","","","","","","","","","","",""
"","ISI","","html-keyboard-response","488","511874","0.0-1.0-678.0","0","0","49348","","null","","","null","75","NaN","","","","","","","","","","","","","","",""
"","S2","","html-keyboard-response","489","512126","0.0-1.0-679.0","0","0","49348","","null","","","null","75","","NaN","","","","","","","","","","","","","",""
"","response","","html-keyboard-response","490","512918","0.0-1.0-680.0-0.0","0","0","49348","","791","","","68","75","","","2","75","training","adjacent","FG","6","7","L.jpg","O.jpg","1","1","1","",""
"","feedback","","html-keyboard-response","491","513921","0.0-1.0-681.0-0.0","0","0","49348","","null","","","null","75","","","","","","","","","","","","","","","",""
"","ITI","","html-keyboard-response","492","514924","0.0-1.0-684.0","0","0","49348","","null","","","null","75","","","","","","","","","","","","","","","NaN",""
"","S1","","html-keyboard-response","493","515176","0.0-1.0-686.0","0","0","49348","","null","","","null","76","","","","","","","","","","","","","","","",""
"","ISI","","html-keyboard-response","494","517179","0.0-1.0-687.0","0","0","49348","","null","","","null","76","NaN","","","","","","","","","","","","","","",""
"","S2","","html-keyboard-response","495","517432","0.0-1.0-688.0","0","0","49348","","null","","","null","76","","NaN","","","","","","","","","","","","","",""
"","response","","html-keyboard-response","496","517742","0.0-1.0-689.0-0.0","0","0","49348","","309","","","68","76","","","2","76","training","adjacent","EF","5","6","P.jpg","L.jpg","1","1","1","",""
"","feedback","","html-keyboard-response","497","518745","0.0-1.0-690.0-0.0","0","0","49348","","null","","","null","76","","","","","","","","","","","","","","","",""
"","ITI","","html-keyboard-response","498","519747","0.0-1.0-693.0","0","0","49348","","null","","","null","76","","","","","","","","","","","","","","","NaN",""
"","S1","","html-keyboard-response","499","519999","0.0-1.0-695.0","0","0","49348","","null","","","null","77","","","","","","","","","","","","","","","",""
"","ISI","","html-keyboard-response","500","522002","0.0-1.0-696.0","0","0","49348","","null","","","null","77","NaN","","","","","","","","","","","","","","",""
"","S2","","html-keyboard-response","501","522254","0.0-1.0-697.0","0","0","49348","","null","","","null","77","","NaN","","","","","","","","","","","","","",""
"","response","","html-keyboard-response","502","523566","0.0-1.0-698.0-0.0","0","0","49348","","1311","","","68","77","","","2","77","training","adjacent","DE","4","5","M.jpg","P.jpg","1","1","1","",""
"","feedback","","html-keyboard-response","503","524569","0.0-1.0-699.0-0.0","0","0","49348","","null","","","null","77","","","","","","","","","","","","","","","",""
"","ITI","","html-keyboard-response","504","525571","0.0-1.0-702.0","0","0","49348","","null","","","null","77","","","","","","","","","","","","","","","NaN",""
"","S1","","html-keyboard-response","505","525823","0.0-1.0-704.0","0","0","49348","","null","","","null","78","","","","","","","","","","","","","","","",""
"","ISI","","html-keyboard-response","506","527826","0.0-1.0-705.0","0","0","49348","","null","","","null","78","NaN","","","","","","","","","","","","","","",""
"","S2","","html-keyboard-response","507","528078","0.0-1.0-706.0","0","0","49348","","null","","","null","78","","NaN","","","","","","","","","","","","","",""
"","response","","html-keyboard-response","508","528326","0.0-1.0-707.0-0.0","0","0","49348","","247","","","68","78","","","2","78","training","adjacent","AB","1","2","Q.jpg","N.jpg","1","1","1","",""
"","feedback","","html-keyboard-response","509","529329","0.0-1.0-708.0-0.0","0","0","49348","","null","","","null","78","","","","","","","","","","","","","","","",""
"","ITI","","html-keyboard-response","510","530332","0.0-1.0-711.0","0","0","49348","","null","","","null","78","","","","","","","","","","","","","","","NaN",""
"","S1","","html-keyboard-response","511","530584","0.0-1.0-713.0","0","0","49348","","null","","","null","79","","","","","","","","","","","","","","","",""
"","ISI","","html-keyboard-response","512","532586","0.0-1.0-714.0","0","0","49348","","null","","","null","79","NaN","","","","","","","","","","","","","","",""
"","S2","","html-keyboard-response","513","532838","0.0-1.0-715.0","0","0","49348","","null","","","null","79","","NaN","","","","","","","","","","","","","",""
"","response","","html-keyboard-response","514","533695","0.0-1.0-716.0-0.0","0","0","49348","","855","","","75","79","","","2","79","training","adjacent","CB","3","2","R.jpg","N.jpg","0","0","1","",""
"","feedback","","html-keyboard-response","515","534697","0.0-1.0-717.0-0.0","0","0","49348","","null","","","null","79","","","","","","","","","","","","","","","",""
"","ITI","","html-keyboard-response","516","535700","0.0-1.0-720.0","0","0","49348","","null","","","null","79","","","","","","","","","","","","","","","NaN",""
"","S1","","html-keyboard-response","517","535952","0.0-1.0-722.0","0","0","49348","","null","","","null","80","","","","","","","","","","","","","","","",""
"","ISI","","html-keyboard-response","518","537954","0.0-1.0-723.0","0","0","49348","","null","","","null","80","NaN","","","","","","","","","","","","","","",""
"","S2","","html-keyboard-response","519","538206","0.0-1.0-724.0","0","0","49348","","null","","","null","80","","NaN","","","","","","","","","","","","","",""
"","response","","html-keyboard-response","520","538462","0.0-1.0-725.0-0.0","0","0","49348","","254","","","75","80","","","2","80","training","adjacent","GF","7","6","O.jpg","L.jpg","0","0","1","",""
"","feedback","","html-keyboard-response","521","539465","0.0-1.0-726.0-0.0","0","0","49348","","null","","","null","80","","","","","","","","","","","","","","","",""
"","ITI","","html-keyboard-response","522","540467","0.0-1.0-729.0","0","0","49348","","null","","","null","80","","","","","","","","","","","","","","","NaN",""
"","S1","","html-keyboard-response","523","540719","0.0-1.0-731.0","0","0","49348","","null","","","null","81","","","","","","","","","","","","","","","",""
"","ISI","","html-keyboard-response","524","542721","0.0-1.0-732.0","0","0","49348","","null","","","null","81","NaN","","","","","","","","","","","","","","",""
"","S2","","html-keyboard-response","525","542973","0.0-1.0-733.0","0","0","49348","","null","","","null","81","","NaN","","","","","","","","","","","","","",""
"","response","","html-keyboard-response","526","544087","0.0-1.0-734.0-0.0","0","0","49348","","1112","","","75","81","","","2","81","training","adjacent","FE","6","5","L.jpg","P.jpg","0","0","1","",""
"","feedback","","html-keyboard-response","527","545089","0.0-1.0-735.0-0.0","0","0","49348","","null","","","null","81","","","","","","","","","","","","","","","",""
"","ITI","","html-keyboard-response","528","546092","0.0-1.0-738.0","0","0","49348","","null","","","null","81","","","","","","","","","","","","","","","NaN",""
"","S1","","html-keyboard-response","529","546344","0.0-1.0-740.0","0","0","49348","","null","","","null","82","","","","","","","","","","","","","","","",""
"","ISI","","html-keyboard-response","530","548347","0.0-1.0-741.0","0","0","49348","","null","","","null","82","NaN","","","","","","","","","","","","","","",""
"","S2","","html-keyboard-response","531","548599","0.0-1.0-742.0","0","0","49348","","null","","","null","82","","NaN","","","","","","","","","","","","","",""
"","response","","html-keyboard-response","532","548943","0.0-1.0-743.0-0.0","0","0","49348","","343","","","68","82","","","2","82","training","adjacent","DE","4","5","M.jpg","P.jpg","1","1","1","",""
"","feedback","","html-keyboard-response","533","549946","0.0-1.0-744.0-0.0","0","0","49348","","null","","","null","82","","","","","","","","","","","","","","","",""
"","ITI","","html-keyboard-response","534","550948","0.0-1.0-747.0","0","0","49348","","null","","","null","82","","","","","","","","","","","","","","","NaN",""
"","S1","","html-keyboard-response","535","551200","0.0-1.0-749.0","0","0","49348","","null","","","null","83","","","","","","","","","","","","","","","",""
"","ISI","","html-keyboard-response","536","553201","0.0-1.0-750.0","0","0","49348","","null","","","null","83","NaN","","","","","","","","","","","","","","",""
"","S2","","html-keyboard-response","537","553454","0.0-1.0-751.0","0","0","49348","","null","","","null","83","","NaN","","","","","","","","","","","","","",""
"","response","","html-keyboard-response","538","554447","0.0-1.0-752.0-0.0","0","0","49348","","992","","","68","83","","","2","83","training","adjacent","AB","1","2","Q.jpg","N.jpg","1","1","1","",""
"","feedback","","html-keyboard-response","539","555449","0.0-1.0-753.0-0.0","0","0","49348","","null","","","null","83","","","","","","","","","","","","","","","",""
"","ITI","","html-keyboard-response","540","556451","0.0-1.0-756.0","0","0","49348","","null","","","null","83","","","","","","","","","","","","","","","NaN",""
"","S1","","html-keyboard-response","541","556703","0.0-1.0-758.0","0","0","49348","","null","","","null","84","","","","","","","","","","","","","","","",""
"","ISI","","html-keyboard-response","542","558705","0.0-1.0-759.0","0","0","49348","","null","","","null","84","NaN","","","","","","","","","","","","","","",""
"","S2","","html-keyboard-response","543","558957","0.0-1.0-760.0","0","0","49348","","null","","","null","84","","NaN","","","","","","","","","","","","","",""
"","response","","html-keyboard-response","544","559687","0.0-1.0-761.0-0.0","0","0","49348","","729","","","68","84","","","2","84","training","adjacent","BA","2","1","N.jpg","Q.jpg","1","0","0","",""
"","feedback","","html-keyboard-response","545","560689","0.0-1.0-762.0-0.0","0","0","49348","","null","","","null","84","","","","","","","","","","","","","","","",""
"","time_out","","html-keyboard-response","546","562692","0.0-1.0-764.0-0.0","0","0","49348","","null","","","null","84","","","","","","","","","","","","","","","",""
"","ITI","","html-keyboard-response","547","563694","0.0-1.0-765.0","0","0","49348","","null","","","null","84","","","","","","","","","","","","","","","NaN",""
"","S1","","html-keyboard-response","548","563946","0.0-1.0-767.0","0","0","49348","","null","","","null","85","","","","","","","","","","","","","","","",""
"","ISI","","html-keyboard-response","549","565947","0.0-1.0-768.0","0","0","49348","","null","","","null","85","NaN","","","","","","","","","","","","","","",""
"","S2","","html-keyboard-response","550","566199","0.0-1.0-769.0","0","0","49348","","null","","","null","85","","NaN","","","","","","","","","","","","","",""
"","response","","html-keyboard-response","551","567519","0.0-1.0-770.0-0.0","0","0","49348","","1318","","","68","85","","","2","85","training","adjacent","DE","4","5","M.jpg","P.jpg","1","1","1","",""
"","feedback","","html-keyboard-response","552","568522","0.0-1.0-771.0-0.0","0","0","49348","","null","","","null","85","","","","","","","","","","","","","","","",""
"","ITI","","html-keyboard-response","553","569525","0.0-1.0-774.0","0","0","49348","","null","","","null","85","","","","","","","","","","","","","","","NaN",""
"","S1","","html-keyboard-response","554","569777","0.0-1.0-776.0","0","0","49348","","null","","","null","86","","","","","","","","","","","","","","","",""
"","ISI","","html-keyboard-response","555","571779","0.0-1.0-777.0","0","0","49348","","null","","","null","86","NaN","","","","","","","","","","","","","","",""
"","S2","","html-keyboard-response","556","572031","0.0-1.0-778.0","0","0","49348","","null","","","null","86","","NaN","","","","","","","","","","","","","",""
"","response","","html-keyboard-response","557","572319","0.0-1.0-779.0-0.0","0","0","49348","","287","","","68","86","","","2","86","training","adjacent","BC","2","3","N.jpg","R.jpg","1","1","1","",""
"","feedback","","html-keyboard-response","558","573322","0.0-1.0-780.0-0.0","0","0","49348","","null","","","null","86","","","","","","","","","","","","","","","",""
"","ITI","","html-keyboard-response","559","574324","0.0-1.0-783.0","0","0","49348","","null","","","null","86","","","","","","","","","","","","","","","NaN",""
"","S1","","html-keyboard-response","560","574576","0.0-1.0-785.0","0","0","49348","","null","","","null","87","","","","","","","","","","","","","","","",""
"","ISI","","html-keyboard-response","561","576578","0.0-1.0-786.0","0","0","49348","","null","","","null","87","NaN","","","","","","","","","","","","","","",""
"","S2","","html-keyboard-response","562","576830","0.0-1.0-787.0","0","0","49348","","null","","","null","87","","NaN","","","","","","","","","","","","","",""
"","response","","html-keyboard-response","563","577591","0.0-1.0-788.0-0.0","0","0","49348","","761","","","75","87","","","2","87","training","adjacent","BA","2","1","N.jpg","Q.jpg","0","0","1","",""
"","feedback","","html-keyboard-response","564","578594","0.0-1.0-789.0-0.0","0","0","49348","","null","","","null","87","","","","","","","","","","","","","","","",""
"","ITI","","html-keyboard-response","565","579596","0.0-1.0-792.0","0","0","49348","","null","","","null","87","","","","","","","","","","","","","","","NaN",""
"","S1","","html-keyboard-response","566","579849","0.0-1.0-794.0","0","0","49348","","null","","","null","88","","","","","","","","","","","","","","","",""
"","ISI","","html-keyboard-response","567","581851","0.0-1.0-795.0","0","0","49348","","null","","","null","88","NaN","","","","","","","","","","","","","","",""
"","S2","","html-keyboard-response","568","582103","0.0-1.0-796.0","0","0","49348","","null","","","null","88","","NaN","","","","","","","","","","","","","",""
"","response","","html-keyboard-response","569","583280","0.0-1.0-797.0-0.0","0","0","49348","","1175","","","75","88","","","2","88","training","adjacent","ED","5","4","P.jpg","M.jpg","0","0","1","",""
"","feedback","","html-keyboard-response","570","584283","0.0-1.0-798.0-0.0","0","0","49348","","null","","","null","88","","","","","","","","","","","","","","","",""
"","ITI","","html-keyboard-response","571","585285","0.0-1.0-801.0","0","0","49348","","null","","","null","88","","","","","","","","","","","","","","","NaN",""
"","S1","","html-keyboard-response","572","585537","0.0-1.0-803.0","0","0","49348","","null","","","null","89","","","","","","","","","","","","","","","",""
"","ISI","","html-keyboard-response","573","587539","0.0-1.0-804.0","0","0","49348","","null","","","null","89","NaN","","","","","","","","","","","","","","",""
"","S2","","html-keyboard-response","574","587791","0.0-1.0-805.0","0","0","49348","","null","","","null","89","","NaN","","","","","","","","","","","","","",""
"","response","","html-keyboard-response","575","588112","0.0-1.0-806.0-0.0","0","0","49348","","319","","","68","89","","","2","89","training","adjacent","CD","3","4","R.jpg","M.jpg","1","1","1","",""
"","feedback","","html-keyboard-response","576","589115","0.0-1.0-807.0-0.0","0","0","49348","","null","","","null","89","","","","","","","","","","","","","","","",""
"","ITI","","html-keyboard-response","577","590117","0.0-1.0-810.0","0","0","49348","","null","","","null","89","","","","","","","","","","","","","","","NaN",""
"","S1","","html-keyboard-response","578","590368","0.0-1.0-812.0","0","0","49348","","null","","","null","90","","","","","","","","","","","","","","","",""
"","ISI","","html-keyboard-response","579","592370","0.0-1.0-813.0","0","0","49348","","null","","","null","90","NaN","","","","","","","","","","","","","","",""
"","S2","","html-keyboard-response","580","592622","0.0-1.0-814.0","0","0","49348","","null","","","null","90","","NaN","","","","","","","","","","","","","",""
"","response","","html-keyboard-response","581","593735","0.0-1.0-815.0-0.0","0","0","49348","","1112","","","75","90","","","2","90","training","adjacent","CB","3","2","R.jpg","N.jpg","0","0","1","",""
"","feedback","","html-keyboard-response","582","594737","0.0-1.0-816.0-0.0","0","0","49348","","null","","","null","90","","","","","","","","","","","","","","","",""
