"success","ttype","start_time","trial_type","trial_index","time_elapsed","internal_node_id","warning","missed_checkup","PID","view_history","rt","responses","repeat_instructions","key_press","index","keypress_isi","keypress_S2","block","trial_num","phase","group_type","pair_type","S1_stim","S2_stim","S1_img","S2_img","S1_chosen","S1_higher","accuracy","keypress_iti","total_bonus_tally"
"true","full_screen","d08052022hr1228","fullscreen","0","16121","0.0-0.0","0","0","63865","","","","","","","","","","","","","","","","","","","","","",""
"","instructions","","instructions","1","92980","0.0-1.0-0.0-0.0","0","0","63865","[{""page_index"":0,""viewing_time"":16204},{""page_index"":1,""viewing_time"":32129},{""page_index"":2,""viewing_time"":23094},{""page_index"":3,""viewing_time"":5416}]","76848","","","","","","","","","","","","","","","","","","","",""
"","comprehension_check","","survey-multi-choice","2","139106","0.0-1.0-0.0-1.0","0","0","63865","","46105","{""Q0"":""True"",""Q1"":""K"",""Q2"":""Only when the screen 'MAKE A CHOICE' is shown"",""Q3"":""Green mark"",""Q4"":""either D or K""}","1","","","","","","","","","","","","","","","","","",""
"","missed_instruction_checkup","","html-keyboard-response","3","146840","0.0-1.0-0.0-2.0-0.0","0","1","63865","","7720","","","32","","","","","","","","","","","","","","","","",""
"","instructions","","instructions","4","157376","0.0-1.0-0.1-0.1","0","0","63865","[{""page_index"":0,""viewing_time"":2818},{""page_index"":1,""viewing_time"":4073},{""page_index"":2,""viewing_time"":2506},{""page_index"":3,""viewing_time"":1126}]","10525","","","","","","","","","","","","","","","","","","","",""
"","comprehension_check","","survey-multi-choice","5","195415","0.0-1.0-0.1-1.1","0","0","63865","","38012","{""Q0"":""True"",""Q1"":""K"",""Q2"":""Once the second image appears and while the screen 'MAKE A CHOICE' is shown"",""Q3"":""Green mark"",""Q4"":""either D or K""}","0","","","","","","","","","","","","","","","","","",""
"","start_exp","","html-keyboard-response","6","198158","0.0-1.0-1.0","0","0","63865","","2728","","","32","","","","","","","","","","","","","","","","",""
"","S1","","html-keyboard-response","7","198424","0.0-1.0-2.0","0","0","63865","","null","","","null","0","","","","","","","","","","","","","","","",""
"","ISI","","html-keyboard-response","8","200439","0.0-1.0-3.0","0","0","63865","","null","","","null","0","NaN","","","","","","","","","","","","","","",""
"","S2","","html-keyboard-response","9","200700","0.0-1.0-4.0","0","0","63865","","null","","","null","0","","NaN","","","","","","","","","","","","","",""
"","response","","html-keyboard-response","10","202207","0.0-1.0-5.0-0.0","0","0","63865","","1494","","","75","0","","","1","0","training","adjacent","EF","5","6","L.jpg","R.jpg","1","1","1","",""
"","feedback","","html-keyboard-response","11","203223","0.0-1.0-6.0-0.0","0","0","63865","","null","","","null","0","","","","","","","","","","","","","","","",""
"","ITI","","html-keyboard-response","12","204238","0.0-1.0-9.0","0","0","63865","","null","","","null","0","","","","","","","","","","","","","","","NaN",""
"","S1","","html-keyboard-response","13","204496","0.0-1.0-11.0","0","0","63865","","null","","","null","1","","","","","","","","","","","","","","","",""
"","ISI","","html-keyboard-response","14","206510","0.0-1.0-12.0","0","0","63865","","null","","","null","1","NaN","","","","","","","","","","","","","","",""
"","S2","","html-keyboard-response","15","206771","0.0-1.0-13.0","0","0","63865","","null","","","null","1","","NaN","","","","","","","","","","","","","",""
"","response","","html-keyboard-response","16","208130","0.0-1.0-14.0-0.0","0","0","63865","","1345","","","75","1","","","1","1","training","adjacent","BA","2","1","Q.jpg","M.jpg","1","0","0","",""
"","feedback","","html-keyboard-response","17","209145","0.0-1.0-15.0-0.0","0","0","63865","","null","","","null","1","","","","","","","","","","","","","","","",""
"","time_out","","html-keyboard-response","18","211158","0.0-1.0-17.0-0.0","0","0","63865","","null","","","null","1","","","","","","","","","","","","","","","",""
"","ITI","","html-keyboard-response","19","212173","0.0-1.0-18.0","0","0","63865","","null","","","null","1","","","","","","","","","","","","","","","NaN",""
"","S1","","html-keyboard-response","20","212430","0.0-1.0-20.0","0","0","63865","","null","","","null","2","","","","","","","","","","","","","","","",""
"","ISI","","html-keyboard-response","21","214444","0.0-1.0-21.0","0","0","63865","","null","","","null","2","NaN","","","","","","","","","","","","","","",""
"","S2","","html-keyboard-response","22","214701","0.0-1.0-22.0","0","0","63865","","null","","","null","2","","NaN","","","","","","","","","","","","","",""
"","response","","html-keyboard-response","23","215917","0.0-1.0-23.0-0.0","0","0","63865","","1205","","","68","2","","","1","2","training","adjacent","CD","3","4","P.jpg","O.jpg","0","1","0","",""
"","feedback","","html-keyboard-response","24","216931","0.0-1.0-24.0-0.0","0","0","63865","","null","","","null","2","","","","","","","","","","","","","","","",""
"","time_out","","html-keyboard-response","25","218943","0.0-1.0-26.0-0.0","0","0","63865","","null","","","null","2","","","","","","","","","","","","","","","",""
"","ITI","","html-keyboard-response","26","219960","0.0-1.0-27.0","0","0","63865","","null","","","null","2","","","","","","","","","","","","","","","NaN",""
"","S1","","html-keyboard-response","27","220222","0.0-1.0-29.0","0","0","63865","","null","","","null","3","","","","","","","","","","","","","","","",""
"","ISI","","html-keyboard-response","28","222237","0.0-1.0-30.0","0","0","63865","","null","","","null","3","NaN","","","","","","","","","","","","","","",""
"","S2","","html-keyboard-response","29","222499","0.0-1.0-31.0","0","0","63865","","null","","","null","3","","NaN","","","","","","","","","","","","","",""
"","response","","html-keyboard-response","30","223079","0.0-1.0-32.0-0.0","0","0","63865","","570","","","68","3","","","1","3","training","adjacent","EF","5","6","L.jpg","R.jpg","0","1","0","",""
"","feedback","","html-keyboard-response","31","224094","0.0-1.0-33.0-0.0","0","0","63865","","null","","","null","3","","","","","","","","","","","","","","","",""
"","time_out","","html-keyboard-response","32","226107","0.0-1.0-35.0-0.0","0","0","63865","","null","","","null","3","","","","","","","","","","","","","","","",""
"","ITI","","html-keyboard-response","33","227119","0.0-1.0-36.0","0","0","63865","","null","","","null","3","","","","","","","","","","","","","","","NaN",""
"","S1","","html-keyboard-response","34","227384","0.0-1.0-38.0","0","0","63865","","null","","","null","4","","","","","","","","","","","","","","","",""
"","ISI","","html-keyboard-response","35","229398","0.0-1.0-39.0","0","0","63865","","null","","","null","4","NaN","","","","","","","","","","","","","","",""
"","S2","","html-keyboard-response","36","229660","0.0-1.0-40.0","0","0","63865","","null","","","null","4","","NaN","","","","","","","","","","","","","",""
"","response","","html-keyboard-response","37","230268","0.0-1.0-41.0-0.0","0","0","63865","","597","","","75","4","","","1","4","training","adjacent","DE","4","5","O.jpg","L.jpg","1","1","1","",""
"","feedback","","html-keyboard-response","38","231280","0.0-1.0-42.0-0.0","0","0","63865","","null","","","null","4","","","","","","","","","","","","","","","",""
"","ITI","","html-keyboard-response","39","232292","0.0-1.0-45.0","0","0","63865","","null","","","null","4","","","","","","","","","","","","","","","NaN",""
"","S1","","html-keyboard-response","40","232555","0.0-1.0-47.0","0","0","63865","","null","","","null","5","","","","","","","","","","","","","","","",""
"","ISI","","html-keyboard-response","41","234566","0.0-1.0-48.0","0","0","63865","","null","","","null","5","NaN","","","","","","","","","","","","","","",""
"","S2","","html-keyboard-response","42","234830","0.0-1.0-49.0","0","0","63865","","null","","","null","5","","NaN","","","","","","","","","","","","","",""
"","response","","html-keyboard-response","43","235548","0.0-1.0-50.0-0.0","0","0","63865","","709","","","75","5","","","1","5","training","adjacent","CB","3","2","P.jpg","Q.jpg","1","0","0","",""
"","feedback","","html-keyboard-response","44","236559","0.0-1.0-51.0-0.0","0","0","63865","","null","","","null","5","","","","","","","","","","","","","","","",""
"","time_out","","html-keyboard-response","45","238572","0.0-1.0-53.0-0.0","0","0","63865","","null","","","null","5","","","","","","","","","","","","","","","",""
"","ITI","","html-keyboard-response","46","239583","0.0-1.0-54.0","0","0","63865","","null","","","null","5","","","","","","","","","","","","","","","NaN",""
"","S1","","html-keyboard-response","47","239846","0.0-1.0-56.0","0","0","63865","","null","","","null","6","","","","","","","","","","","","","","","",""
"","ISI","","html-keyboard-response","48","241859","0.0-1.0-57.0","0","0","63865","","null","","","null","6","NaN","","","","","","","","","","","","","","",""
"","S2","","html-keyboard-response","49","242121","0.0-1.0-58.0","0","0","63865","","null","","","null","6","","NaN","","","","","","","","","","","","","",""
"","response","","html-keyboard-response","50","242612","0.0-1.0-59.0-0.0","0","0","63865","","481","","","75","6","","","1","6","training","adjacent","DE","4","5","O.jpg","L.jpg","1","1","1","",""
"","feedback","","html-keyboard-response","51","243625","0.0-1.0-60.0-0.0","0","0","63865","","null","","","null","6","","","","","","","","","","","","","","","",""
"","ITI","","html-keyboard-response","52","244634","0.0-1.0-63.0","0","0","63865","","null","","","null","6","","","","","","","","","","","","","","","NaN",""
"","S1","","html-keyboard-response","53","244897","0.0-1.0-65.0","0","0","63865","","null","","","null","7","","","","","","","","","","","","","","","",""
"","ISI","","html-keyboard-response","54","246907","0.0-1.0-66.0","0","0","63865","","null","","","null","7","NaN","","","","","","","","","","","","","","",""
"","S2","","html-keyboard-response","55","247167","0.0-1.0-67.0","0","0","63865","","null","","","null","7","","NaN","","","","","","","","","","","","","",""
"","response","","html-keyboard-response","56","247747","0.0-1.0-68.0-0.0","0","0","63865","","569","","","68","7","","","1","7","training","adjacent","FG","6","7","R.jpg","N.jpg","0","1","0","",""
"","feedback","","html-keyboard-response","57","248760","0.0-1.0-69.0-0.0","0","0","63865","","null","","","null","7","","","","","","","","","","","","","","","",""
"","time_out","","html-keyboard-response","58","250774","0.0-1.0-71.0-0.0","0","0","63865","","null","","","null","7","","","","","","","","","","","","","","","",""
"","ITI","","html-keyboard-response","59","251789","0.0-1.0-72.0","0","0","63865","","null","","","null","7","","","","","","","","","","","","","","","NaN",""
"","S1","","html-keyboard-response","60","252050","0.0-1.0-74.0","0","0","63865","","null","","","null","8","","","","","","","","","","","","","","","",""
"","ISI","","html-keyboard-response","61","254063","0.0-1.0-75.0","0","0","63865","","null","","","null","8","NaN","","","","","","","","","","","","","","",""
"","S2","","html-keyboard-response","62","254328","0.0-1.0-76.0","0","0","63865","","null","","","null","8","","NaN","","","","","","","","","","","","","",""
"","response","","html-keyboard-response","63","255294","0.0-1.0-77.0-0.0","0","0","63865","","957","","","75","8","","","1","8","training","adjacent","FG","6","7","R.jpg","N.jpg","1","1","1","",""
"","feedback","","html-keyboard-response","64","256308","0.0-1.0-78.0-0.0","0","0","63865","","null","","","null","8","","","","","","","","","","","","","","","",""
"","ITI","","html-keyboard-response","65","257323","0.0-1.0-81.0","0","0","63865","","null","","","null","8","","","","","","","","","","","","","","","NaN",""
"","S1","","html-keyboard-response","66","257586","0.0-1.0-83.0","0","0","63865","","null","","","null","9","","","","","","","","","","","","","","","",""
"","ISI","","html-keyboard-response","67","259596","0.0-1.0-84.0","0","0","63865","","null","","","null","9","NaN","","","","","","","","","","","","","","",""
"","S2","","html-keyboard-response","68","259857","0.0-1.0-85.0","0","0","63865","","null","","","null","9","","NaN","","","","","","","","","","","","","",""
"","response","","html-keyboard-response","69","260872","0.0-1.0-86.0-0.0","0","0","63865","","1005","","","68","9","","","1","9","training","adjacent","BA","2","1","Q.jpg","M.jpg","0","0","1","",""
"","feedback","","html-keyboard-response","70","261881","0.0-1.0-87.0-0.0","0","0","63865","","null","","","null","9","","","","","","","","","","","","","","","",""
"","ITI","","html-keyboard-response","71","262894","0.0-1.0-90.0","0","0","63865","","null","","","null","9","","","","","","","","","","","","","","","NaN",""
"","S1","","html-keyboard-response","72","263158","0.0-1.0-92.0","0","0","63865","","null","","","null","10","","","","","","","","","","","","","","","",""
"","ISI","","html-keyboard-response","73","265169","0.0-1.0-93.0","0","0","63865","","null","","","null","10","NaN","","","","","","","","","","","","","","",""
"","S2","","html-keyboard-response","74","265429","0.0-1.0-94.0","0","0","63865","","null","","","null","10","","NaN","","","","","","","","","","","","","",""
"","response","","html-keyboard-response","75","266063","0.0-1.0-95.0-0.0","0","0","63865","","624","","","68","10","","","1","10","training","adjacent","BA","2","1","Q.jpg","M.jpg","0","0","1","",""
"","feedback","","html-keyboard-response","76","267075","0.0-1.0-96.0-0.0","0","0","63865","","null","","","null","10","","","","","","","","","","","","","","","",""
"","ITI","","html-keyboard-response","77","268089","0.0-1.0-99.0","0","0","63865","","null","","","null","10","","","","","","","","","","","","","","","NaN",""
"","S1","","html-keyboard-response","78","268355","0.0-1.0-101.0","0","0","63865","","null","","","null","11","","","","","","","","","","","","","","","",""
"","ISI","","html-keyboard-response","79","270366","0.0-1.0-102.0","0","0","63865","","null","","","null","11","NaN","","","","","","","","","","","","","","",""
"","S2","","html-keyboard-response","80","270629","0.0-1.0-103.0","0","0","63865","","null","","","null","11","","NaN","","","","","","","","","","","","","",""
"","response","","html-keyboard-response","81","271261","0.0-1.0-104.0-0.0","0","0","63865","","622","","","75","11","","","1","11","training","adjacent","ED","5","4","L.jpg","O.jpg","1","0","0","",""
"","feedback","","html-keyboard-response","82","272276","0.0-1.0-105.0-0.0","0","0","63865","","null","","","null","11","","","","","","","","","","","","","","","",""
"","time_out","","html-keyboard-response","83","274286","0.0-1.0-107.0-0.0","0","0","63865","","null","","","null","11","","","","","","","","","","","","","","","",""
"","ITI","","html-keyboard-response","84","275298","0.0-1.0-108.0","0","0","63865","","null","","","null","11","","","","","","","","","","","","","","","NaN",""
"","S1","","html-keyboard-response","85","275560","0.0-1.0-110.0","0","0","63865","","null","","","null","12","","","","","","","","","","","","","","","",""
"","ISI","","html-keyboard-response","86","277572","0.0-1.0-111.0","0","0","63865","","null","","","null","12","NaN","","","","","","","","","","","","","","",""
"","S2","","html-keyboard-response","87","277836","0.0-1.0-112.0","0","0","63865","","null","","","null","12","","NaN","","","","","","","","","","","","","",""
"","response","","html-keyboard-response","88","278609","0.0-1.0-113.0-0.0","0","0","63865","","762","","","75","12","","","1","12","training","adjacent","CD","3","4","P.jpg","O.jpg","1","1","1","",""
"","feedback","","html-keyboard-response","89","279625","0.0-1.0-114.0-0.0","0","0","63865","","null","","","null","12","","","","","","","","","","","","","","","",""
"","ITI","","html-keyboard-response","90","280639","0.0-1.0-117.0","0","0","63865","","null","","","null","12","","","","","","","","","","","","","","","NaN",""
"","S1","","html-keyboard-response","91","280904","0.0-1.0-119.0","0","0","63865","","null","","","null","13","","","","","","","","","","","","","","","",""
"","ISI","","html-keyboard-response","92","282914","0.0-1.0-120.0","0","0","63865","","null","","","null","13","NaN","","","","","","","","","","","","","","",""
"","S2","","html-keyboard-response","93","283180","0.0-1.0-121.0","0","0","63865","","null","","","null","13","","NaN","","","","","","","","","","","","","",""
"","response","","html-keyboard-response","94","283784","0.0-1.0-122.0-0.0","0","0","63865","","594","","","75","13","","","1","13","training","adjacent","GF","7","6","N.jpg","R.jpg","1","0","0","",""
"","feedback","","html-keyboard-response","95","284797","0.0-1.0-123.0-0.0","0","0","63865","","null","","","null","13","","","","","","","","","","","","","","","",""
"","time_out","","html-keyboard-response","96","286809","0.0-1.0-125.0-0.0","0","0","63865","","null","","","null","13","","","","","","","","","","","","","","","",""
"","ITI","","html-keyboard-response","97","287823","0.0-1.0-126.0","0","0","63865","","null","","","null","13","","","","","","","","","","","","","","","NaN",""
"","S1","","html-keyboard-response","98","288089","0.0-1.0-128.0","0","0","63865","","null","","","null","14","","","","","","","","","","","","","","","",""
"","ISI","","html-keyboard-response","99","290103","0.0-1.0-129.0","0","0","63865","","null","","","null","14","NaN","","","","","","","","","","","","","","",""
"","S2","","html-keyboard-response","100","290366","0.0-1.0-130.0","0","0","63865","","null","","","null","14","","NaN","","","","","","","","","","","","","",""
"","response","","html-keyboard-response","101","290902","0.0-1.0-131.0-0.0","0","0","63865","","522","","","68","14","","","1","14","training","adjacent","DC","4","3","O.jpg","P.jpg","0","0","1","",""
"","feedback","","html-keyboard-response","102","291916","0.0-1.0-132.0-0.0","0","0","63865","","null","","","null","14","","","","","","","","","","","","","","","",""
"","ITI","","html-keyboard-response","103","292926","0.0-1.0-135.0","0","0","63865","","null","","","null","14","","","","","","","","","","","","","","","NaN",""
"","S1","","html-keyboard-response","104","293188","0.0-1.0-137.0","0","0","63865","","null","","","null","15","","","","","","","","","","","","","","","",""
"","ISI","","html-keyboard-response","105","295201","0.0-1.0-138.0","0","0","63865","","null","","","null","15","NaN","","","","","","","","","","","","","","",""
"","S2","","html-keyboard-response","106","295462","0.0-1.0-139.0","0","0","63865","","null","","","null","15","","NaN","","","","","","","","","","","","","",""
"","response","","html-keyboard-response","107","296071","0.0-1.0-140.0-0.0","0","0","63865","","597","","","75","15","","","1","15","training","adjacent","CB","3","2","P.jpg","Q.jpg","1","0","0","",""
"","feedback","","html-keyboard-response","108","297084","0.0-1.0-141.0-0.0","0","0","63865","","null","","","null","15","","","","","","","","","","","","","","","",""
"","time_out","","html-keyboard-response","109","299096","0.0-1.0-143.0-0.0","0","0","63865","","null","","","null","15","","","","","","","","","","","","","","","",""
"","ITI","","html-keyboard-response","110","300109","0.0-1.0-144.0","0","0","63865","","null","","","null","15","","","","","","","","","","","","","","","NaN",""
"","S1","","html-keyboard-response","111","300370","0.0-1.0-146.0","0","0","63865","","null","","","null","16","","","","","","","","","","","","","","","",""
"","ISI","","html-keyboard-response","112","302382","0.0-1.0-147.0","0","0","63865","","null","","","null","16","NaN","","","","","","","","","","","","","","",""
"","S2","","html-keyboard-response","113","302646","0.0-1.0-148.0","0","0","63865","","null","","","null","16","","NaN","","","","","","","","","","","","","",""
"","response","","html-keyboard-response","114","303661","0.0-1.0-149.0-0.0","0","0","63865","","1006","","","68","16","","","1","16","training","adjacent","CD","3","4","P.jpg","O.jpg","0","1","0","",""
"","feedback","","html-keyboard-response","115","304674","0.0-1.0-150.0-0.0","0","0","63865","","null","","","null","16","","","","","","","","","","","","","","","",""
"","time_out","","html-keyboard-response","116","306690","0.0-1.0-152.0-0.0","0","0","63865","","null","","","null","16","","","","","","","","","","","","","","","",""
"","ITI","","html-keyboard-response","117","307705","0.0-1.0-153.0","0","0","63865","","null","","","null","16","","","","","","","","","","","","","","","NaN",""
"","S1","","html-keyboard-response","118","307969","0.0-1.0-155.0","0","0","63865","","null","","","null","17","","","","","","","","","","","","","","","",""
"","ISI","","html-keyboard-response","119","309980","0.0-1.0-156.0","0","0","63865","","null","","","null","17","NaN","","","","","","","","","","","","","","",""
"","S2","","html-keyboard-response","120","310243","0.0-1.0-157.0","0","0","63865","","null","","","null","17","","NaN","","","","","","","","","","","","","",""
"","response","","html-keyboard-response","121","310846","0.0-1.0-158.0-0.0","0","0","63865","","595","","","75","17","","","1","17","training","adjacent","AB","1","2","M.jpg","Q.jpg","1","1","1","",""
"","feedback","","html-keyboard-response","122","311857","0.0-1.0-159.0-0.0","0","0","63865","","null","","","null","17","","","","","","","","","","","","","","","",""
"","ITI","","html-keyboard-response","123","312872","0.0-1.0-162.0","0","0","63865","","null","","","null","17","","","","","","","","","","","","","","","NaN",""
"","S1","","html-keyboard-response","124","313136","0.0-1.0-164.0","0","0","63865","","null","","","null","18","","","","","","","","","","","","","","","",""
"","ISI","","html-keyboard-response","125","315148","0.0-1.0-165.0","0","0","63865","","null","","","null","18","NaN","","","","","","","","","","","","","","",""
"","S2","","html-keyboard-response","126","315411","0.0-1.0-166.0","0","0","63865","","null","","","null","18","","NaN","","","","","","","","","","","","","",""
"","response","","html-keyboard-response","127","316285","0.0-1.0-167.0-0.0","0","0","63865","","864","","","75","18","","","1","18","training","adjacent","CB","3","2","P.jpg","Q.jpg","1","0","0","",""
"","feedback","","html-keyboard-response","128","317296","0.0-1.0-168.0-0.0","0","0","63865","","null","","","null","18","","","","","","","","","","","","","","","",""
"","time_out","","html-keyboard-response","129","319309","0.0-1.0-170.0-0.0","0","0","63865","","null","","","null","18","","","","","","","","","","","","","","","",""
"","ITI","","html-keyboard-response","130","320323","0.0-1.0-171.0","0","0","63865","","null","","","null","18","","","","","","","","","","","","","","","NaN",""
"","S1","","html-keyboard-response","131","320585","0.0-1.0-173.0","0","0","63865","","null","","","null","19","","","","","","","","","","","","","","","",""
"","ISI","","html-keyboard-response","132","322596","0.0-1.0-174.0","0","0","63865","","null","","","null","19","NaN","","","","","","","","","","","","","","",""
"","S2","","html-keyboard-response","133","322861","0.0-1.0-175.0","0","0","63865","","null","","","null","19","","NaN","","","","","","","","","","","","","",""
"","response","","html-keyboard-response","134","323770","0.0-1.0-176.0-0.0","0","0","63865","","899","","","68","19","","","1","19","training","adjacent","GF","7","6","N.jpg","R.jpg","0","0","1","",""
"","feedback","","html-keyboard-response","135","324784","0.0-1.0-177.0-0.0","0","0","63865","","null","","","null","19","","","","","","","","","","","","","","","",""
"","ITI","","html-keyboard-response","136","325796","0.0-1.0-180.0","0","0","63865","","null","","","null","19","","","","","","","","","","","","","","","NaN",""
"","S1","","html-keyboard-response","137","326061","0.0-1.0-182.0","0","0","63865","","null","","","null","20","","","","","","","","","","","","","","","",""
"","ISI","","html-keyboard-response","138","328073","0.0-1.0-183.0","0","0","63865","","null","","","null","20","NaN","","","","","","","","","","","","","","",""
"","S2","","html-keyboard-response","139","328338","0.0-1.0-184.0","0","0","63865","","null","","","null","20","","NaN","","","","","","","","","","","","","",""
"","response","","html-keyboard-response","140","329067","0.0-1.0-185.0-0.0","0","0","63865","","717","","","75","20","","","1","20","training","adjacent","FG","6","7","R.jpg","N.jpg","1","1","1","",""
"","feedback","","html-keyboard-response","141","330081","0.0-1.0-186.0-0.0","0","0","63865","","null","","","null","20","","","","","","","","","","","","","","","",""
"","ITI","","html-keyboard-response","142","331094","0.0-1.0-189.0","0","0","63865","","null","","","null","20","","","","","","","","","","","","","","","NaN",""
"","S1","","html-keyboard-response","143","331355","0.0-1.0-191.0","0","0","63865","","null","","","null","21","","","","","","","","","","","","","","","",""
"","ISI","","html-keyboard-response","144","333369","0.0-1.0-192.0","0","0","63865","","null","","","null","21","NaN","","","","","","","","","","","","","","",""
"","S2","","html-keyboard-response","145","333635","0.0-1.0-193.0","0","0","63865","","null","","","null","21","","NaN","","","","","","","","","","","","","",""
"","response","","html-keyboard-response","146","334327","0.0-1.0-194.0-0.0","0","0","63865","","681","","","68","21","","","1","21","training","adjacent","CB","3","2","P.jpg","Q.jpg","0","0","1","",""
"","feedback","","html-keyboard-response","147","335341","0.0-1.0-195.0-0.0","0","0","63865","","null","","","null","21","","","","","","","","","","","","","","","",""
"","ITI","","html-keyboard-response","148","336355","0.0-1.0-198.0","0","0","63865","","null","","","null","21","","","","","","","","","","","","","","","NaN",""
"","S1","","html-keyboard-response","149","336619","0.0-1.0-200.0","0","0","63865","","null","","","null","22","","","","","","","","","","","","","","","",""
"","ISI","","html-keyboard-response","150","338632","0.0-1.0-201.0","0","0","63865","","null","","","null","22","NaN","","","","","","","","","","","","","","",""
"","S2","","html-keyboard-response","151","338894","0.0-1.0-202.0","0","0","63865","","null","","","null","22","","NaN","","","","","","","","","","","","","",""
"","response","","html-keyboard-response","152","339749","0.0-1.0-203.0-0.0","0","0","63865","","844","","","75","22","","","1","22","training","adjacent","DC","4","3","O.jpg","P.jpg","1","0","0","",""
"","feedback","","html-keyboard-response","153","340765","0.0-1.0-204.0-0.0","0","0","63865","","null","","","null","22","","","","","","","","","","","","","","","",""
"","time_out","","html-keyboard-response","154","342776","0.0-1.0-206.0-0.0","0","0","63865","","null","","","null","22","","","","","","","","","","","","","","","",""
"","ITI","","html-keyboard-response","155","343791","0.0-1.0-207.0","0","0","63865","","null","","","null","22","","","","","","","","","","","","","","","NaN",""
"","S1","","html-keyboard-response","156","344053","0.0-1.0-209.0","0","0","63865","","null","","","null","23","","","","","","","","","","","","","","","",""
"","ISI","","html-keyboard-response","157","346064","0.0-1.0-210.0","0","0","63865","","null","","","null","23","NaN","","","","","","","","","","","","","","",""
"","S2","","html-keyboard-response","158","346325","0.0-1.0-211.0","0","0","63865","","null","","","null","23","","NaN","","","","","","","","","","","","","",""
"","response","","html-keyboard-response","159","346847","0.0-1.0-212.0-0.0","0","0","63865","","510","","","68","23","","","1","23","training","adjacent","FE","6","5","R.jpg","L.jpg","0","0","1","",""
"","feedback","","html-keyboard-response","160","347858","0.0-1.0-213.0-0.0","0","0","63865","","null","","","null","23","","","","","","","","","","","","","","","",""
"","ITI","","html-keyboard-response","161","348869","0.0-1.0-216.0","0","0","63865","","null","","","null","23","","","","","","","","","","","","","","","NaN",""
"","S1","","html-keyboard-response","162","349134","0.0-1.0-218.0","0","0","63865","","null","","","null","24","","","","","","","","","","","","","","","",""
"","ISI","","html-keyboard-response","163","351146","0.0-1.0-219.0","0","0","63865","","null","","","null","24","NaN","","","","","","","","","","","","","","",""
"","S2","","html-keyboard-response","164","351408","0.0-1.0-220.0","0","0","63865","","null","","","null","24","","NaN","","","","","","","","","","","","","",""
"","response","","html-keyboard-response","165","351949","0.0-1.0-221.0-0.0","0","0","63865","","531","","","68","24","","","1","24","training","adjacent","BC","2","3","Q.jpg","P.jpg","0","1","0","",""
"","feedback","","html-keyboard-response","166","352967","0.0-1.0-222.0-0.0","0","0","63865","","null","","","null","24","","","","","","","","","","","","","","","",""
"","time_out","","html-keyboard-response","167","354976","0.0-1.0-224.0-0.0","0","0","63865","","null","","","null","24","","","","","","","","","","","","","","","",""
"","ITI","","html-keyboard-response","168","355985","0.0-1.0-225.0","0","0","63865","","null","","","null","24","","","","","","","","","","","","","","","NaN",""
"","S1","","html-keyboard-response","169","356247","0.0-1.0-227.0","0","0","63865","","null","","","null","25","","","","","","","","","","","","","","","",""
"","ISI","","html-keyboard-response","170","358259","0.0-1.0-228.0","0","0","63865","","null","","","null","25","NaN","","","","","","","","","","","","","","",""
"","S2","","html-keyboard-response","171","358521","0.0-1.0-229.0","0","0","63865","","null","","","null","25","","NaN","","","","","","","","","","","","","",""
"","response","","html-keyboard-response","172","359090","0.0-1.0-230.0-0.0","0","0","63865","","562","","","68","25","","","1","25","training","adjacent","FE","6","5","R.jpg","L.jpg","0","0","1","",""
"","feedback","","html-keyboard-response","173","360101","0.0-1.0-231.0-0.0","0","0","63865","","null","","","null","25","","","","","","","","","","","","","","","",""
"","ITI","","html-keyboard-response","174","361116","0.0-1.0-234.0","0","0","63865","","null","","","null","25","","","","","","","","","","","","","","","NaN",""
"","S1","","html-keyboard-response","175","361379","0.0-1.0-236.0","0","0","63865","","null","","","null","26","","","","","","","","","","","","","","","",""
"","ISI","","html-keyboard-response","176","363390","0.0-1.0-237.0","0","0","63865","","null","","","null","26","NaN","","","","","","","","","","","","","","",""
"","S2","","html-keyboard-response","177","363654","0.0-1.0-238.0","0","0","63865","","null","","","null","26","","NaN","","","","","","","","","","","","","",""
"","response","","html-keyboard-response","178","364321","0.0-1.0-239.0-0.0","0","0","63865","","654","","","75","26","","","1","26","training","adjacent","GF","7","6","N.jpg","R.jpg","1","0","0","",""
"","feedback","","html-keyboard-response","179","365334","0.0-1.0-240.0-0.0","0","0","63865","","null","","","null","26","","","","","","","","","","","","","","","",""
"","time_out","","html-keyboard-response","180","367344","0.0-1.0-242.0-0.0","0","0","63865","","null","","","null","26","","","","","","","","","","","","","","","",""
"","ITI","","html-keyboard-response","181","368355","0.0-1.0-243.0","0","0","63865","","null","","","null","26","","","","","","","","","","","","","","","NaN",""
"","S1","","html-keyboard-response","182","368619","0.0-1.0-245.0","0","0","63865","","null","","","null","27","","","","","","","","","","","","","","","",""
"","ISI","","html-keyboard-response","183","370628","0.0-1.0-246.0","0","0","63865","","null","","","null","27","NaN","","","","","","","","","","","","","","",""
"","S2","","html-keyboard-response","184","370890","0.0-1.0-247.0","0","0","63865","","null","","","null","27","","NaN","","","","","","","","","","","","","",""
"","response","","html-keyboard-response","185","371506","0.0-1.0-248.0-0.0","0","0","63865","","607","","","75","27","","","1","27","training","adjacent","EF","5","6","L.jpg","R.jpg","1","1","1","",""
"","feedback","","html-keyboard-response","186","372520","0.0-1.0-249.0-0.0","0","0","63865","","null","","","null","27","","","","","","","","","","","","","","","",""
"","ITI","","html-keyboard-response","187","373531","0.0-1.0-252.0","0","0","63865","","null","","","null","27","","","","","","","","","","","","","","","NaN",""
"","S1","","html-keyboard-response","188","373794","0.0-1.0-254.0","0","0","63865","","null","","","null","28","","","","","","","","","","","","","","","",""
"","ISI","","html-keyboard-response","189","375802","0.0-1.0-255.0","0","0","63865","","null","","","null","28","NaN","","","","","","","","","","","","","","",""
"","S2","","html-keyboard-response","190","376066","0.0-1.0-256.0","0","0","63865","","null","","","null","28","","NaN","","","","","","","","","","","","","",""
"","response","","html-keyboard-response","191","377826","0.0-1.0-257.0-0.0","0","0","63865","","null","","","null","28","","","1","28","training","adjacent","DE","4","5","O.jpg","L.jpg","NaN","1","0","",""
"","too_slow_prompt","","html-keyboard-response","192","378840","0.0-1.0-259.0-0.0","1","0","63865","","null","","","null","","","","","","","","","","","","","","","","",""
"","time_out","","html-keyboard-response","193","380853","0.0-1.0-260.0-0.0","0","0","63865","","null","","","null","28","","","","","","","","","","","","","","","",""
"","ITI","","html-keyboard-response","194","381868","0.0-1.0-261.0","0","0","63865","","null","","","null","28","","","","","","","","","","","","","","","NaN",""
"","S1","","html-keyboard-response","195","382128","0.0-1.0-263.0","0","0","63865","","null","","","null","29","","","","","","","","","","","","","","","",""
"","ISI","","html-keyboard-response","196","384140","0.0-1.0-264.0","0","0","63865","","null","","","null","29","NaN","","","","","","","","","","","","","","",""
"","S2","","html-keyboard-response","197","384401","0.0-1.0-265.0","0","0","63865","","null","","","null","29","","NaN","","","","","","","","","","","","","",""
"","response","","html-keyboard-response","198","384741","0.0-1.0-266.0-0.0","0","0","63865","","329","","","68","29","","","1","29","training","adjacent","FE","6","5","R.jpg","L.jpg","0","0","1","",""
"","feedback","","html-keyboard-response","199","385753","0.0-1.0-267.0-0.0","0","0","63865","","null","","","null","29","","","","","","","","","","","","","","","",""
"","ITI","","html-keyboard-response","200","386764","0.0-1.0-270.0","0","0","63865","","null","","","null","29","","","","","","","","","","","","","","","NaN",""
"","S1","","html-keyboard-response","201","387026","0.0-1.0-272.0","0","0","63865","","null","","","null","30","","","","","","","","","","","","","","","",""
"","ISI","","html-keyboard-response","202","389033","0.0-1.0-273.0","0","0","63865","","null","","","null","30","NaN","","","","","","","","","","","","","","",""
"","S2","","html-keyboard-response","203","389296","0.0-1.0-274.0","0","0","63865","","null","","","null","30","","NaN","","","","","","","","","","","","","",""
"","response","","html-keyboard-response","204","389688","0.0-1.0-275.0-0.0","0","0","63865","","381","","","68","30","","","1","30","training","adjacent","AB","1","2","M.jpg","Q.jpg","0","1","0","",""
"","feedback","","html-keyboard-response","205","390703","0.0-1.0-276.0-0.0","0","0","63865","","null","","","null","30","","","","","","","","","","","","","","","",""
"","time_out","","html-keyboard-response","206","392715","0.0-1.0-278.0-0.0","0","0","63865","","null","","","null","30","","","","","","","","","","","","","","","",""
"","ITI","","html-keyboard-response","207","393725","0.0-1.0-279.0","0","0","63865","","null","","","null","30","","","","","","","","","","","","","","","NaN",""
"","S1","","html-keyboard-response","208","393988","0.0-1.0-281.0","0","0","63865","","null","","","null","31","","","","","","","","","","","","","","","",""
"","ISI","","html-keyboard-response","209","396003","0.0-1.0-282.0","0","0","63865","","null","","","null","31","NaN","","","","","","","","","","","","","","",""
"","S2","","html-keyboard-response","210","396265","0.0-1.0-283.0","0","0","63865","","null","","","null","31","","NaN","","","","","","","","","","","","","",""
"","response","","html-keyboard-response","211","396665","0.0-1.0-284.0-0.0","0","0","63865","","389","","","75","31","","","1","31","training","adjacent","FG","6","7","R.jpg","N.jpg","1","1","1","",""
"","feedback","","html-keyboard-response","212","397677","0.0-1.0-285.0-0.0","0","0","63865","","null","","","null","31","","","","","","","","","","","","","","","",""
"","ITI","","html-keyboard-response","213","398690","0.0-1.0-288.0","0","0","63865","","null","","","null","31","","","","","","","","","","","","","","","NaN",""
"","S1","","html-keyboard-response","214","398953","0.0-1.0-290.0","0","0","63865","","null","","","null","32","","","","","","","","","","","","","","","",""
"","ISI","","html-keyboard-response","215","400965","0.0-1.0-291.0","0","0","63865","","null","","","null","32","NaN","","","","","","","","","","","","","","",""
"","S2","","html-keyboard-response","216","401226","0.0-1.0-292.0","0","0","63865","","null","","","null","32","","NaN","","","","","","","","","","","","","",""
"","response","","html-keyboard-response","217","401944","0.0-1.0-293.0-0.0","0","0","63865","","706","","","75","32","","","1","32","training","adjacent","DC","4","3","O.jpg","P.jpg","1","0","0","",""
"","feedback","","html-keyboard-response","218","402956","0.0-1.0-294.0-0.0","0","0","63865","","null","","","null","32","","","","","","","","","","","","","","","",""
"","time_out","","html-keyboard-response","219","404967","0.0-1.0-296.0-0.0","0","0","63865","","null","","","null","32","","","","","","","","","","","","","","","",""
"","ITI","","html-keyboard-response","220","405978","0.0-1.0-297.0","0","0","63865","","null","","","null","32","","","","","","","","","","","","","","","NaN",""
"","S1","","html-keyboard-response","221","406241","0.0-1.0-299.0","0","0","63865","","null","","","null","33","","","","","","","","","","","","","","","",""
"","ISI","","html-keyboard-response","222","408250","0.0-1.0-300.0","0","0","63865","","1107","","","16","33","shift","","","","","","","","","","","","","","",""
"","S2","","html-keyboard-response","223","408516","0.0-1.0-301.0","0","0","63865","","null","","","null","33","","NaN","","","","","","","","","","","","","",""
"","response","","html-keyboard-response","224","409030","0.0-1.0-302.0-0.0","0","0","63865","","504","","","68","33","","","1","33","training","adjacent","ED","5","4","L.jpg","O.jpg","0","0","1","",""
"","feedback","","html-keyboard-response","225","410041","0.0-1.0-303.0-0.0","0","0","63865","","null","","","null","33","","","","","","","","","","","","","","","",""
"","ITI","","html-keyboard-response","226","411053","0.0-1.0-306.0","0","0","63865","","null","","","null","33","","","","","","","","","","","","","","","NaN",""
"","S1","","html-keyboard-response","227","411314","0.0-1.0-308.0","0","0","63865","","null","","","null","34","","","","","","","","","","","","","","","",""
"","ISI","","html-keyboard-response","228","413325","0.0-1.0-309.0","0","0","63865","","null","","","null","34","NaN","","","","","","","","","","","","","","",""
"","S2","","html-keyboard-response","229","413588","0.0-1.0-310.0","0","0","63865","","null","","","null","34","","NaN","","","","","","","","","","","","","",""
"","response","","html-keyboard-response","230","414197","0.0-1.0-311.0-0.0","0","0","63865","","598","","","75","34","","","1","34","training","adjacent","BC","2","3","Q.jpg","P.jpg","1","1","1","",""
"","feedback","","html-keyboard-response","231","415208","0.0-1.0-312.0-0.0","0","0","63865","","null","","","null","34","","","","","","","","","","","","","","","",""
"","ITI","","html-keyboard-response","232","416224","0.0-1.0-315.0","0","0","63865","","null","","","null","34","","","","","","","","","","","","","","","NaN",""
"","S1","","html-keyboard-response","233","416485","0.0-1.0-317.0","0","0","63865","","null","","","null","35","","","","","","","","","","","","","","","",""
"","ISI","","html-keyboard-response","234","418497","0.0-1.0-318.0","0","0","63865","","null","","","null","35","NaN","","","","","","","","","","","","","","",""
"","S2","","html-keyboard-response","235","418757","0.0-1.0-319.0","0","0","63865","","null","","","null","35","","NaN","","","","","","","","","","","","","",""
"","response","","html-keyboard-response","236","419640","0.0-1.0-320.0-0.0","0","0","63865","","872","","","68","35","","","1","35","training","adjacent","GF","7","6","N.jpg","R.jpg","0","0","1","",""
"","feedback","","html-keyboard-response","237","420653","0.0-1.0-321.0-0.0","0","0","63865","","null","","","null","35","","","","","","","","","","","","","","","",""
"","ITI","","html-keyboard-response","238","421663","0.0-1.0-324.0","0","0","63865","","null","","","null","35","","","","","","","","","","","","","","","NaN",""
"","S1","","html-keyboard-response","239","421926","0.0-1.0-326.0","0","0","63865","","null","","","null","36","","","","","","","","","","","","","","","",""
"","ISI","","html-keyboard-response","240","423937","0.0-1.0-327.0","0","0","63865","","null","","","null","36","NaN","","","","","","","","","","","","","","",""
"","S2","","html-keyboard-response","241","424198","0.0-1.0-328.0","0","0","63865","","null","","","null","36","","NaN","","","","","","","","","","","","","",""
"","response","","html-keyboard-response","242","424707","0.0-1.0-329.0-0.0","0","0","63865","","500","","","68","36","","","1","36","training","adjacent","BA","2","1","Q.jpg","M.jpg","0","0","1","",""
"","feedback","","html-keyboard-response","243","425721","0.0-1.0-330.0-0.0","0","0","63865","","null","","","null","36","","","","","","","","","","","","","","","",""
"","ITI","","html-keyboard-response","244","426733","0.0-1.0-333.0","0","0","63865","","null","","","null","36","","","","","","","","","","","","","","","NaN",""
"","S1","","html-keyboard-response","245","426996","0.0-1.0-335.0","0","0","63865","","null","","","null","37","","","","","","","","","","","","","","","",""
"","ISI","","html-keyboard-response","246","429006","0.0-1.0-336.0","0","0","63865","","null","","","null","37","NaN","","","","","","","","","","","","","","",""
"","S2","","html-keyboard-response","247","429270","0.0-1.0-337.0","0","0","63865","","null","","","null","37","","NaN","","","","","","","","","","","","","",""
"","response","","html-keyboard-response","248","430164","0.0-1.0-338.0-0.0","0","0","63865","","886","","","75","37","","","1","37","training","adjacent","FE","6","5","R.jpg","L.jpg","1","0","0","",""
"","feedback","","html-keyboard-response","249","431179","0.0-1.0-339.0-0.0","0","0","63865","","null","","","null","37","","","","","","","","","","","","","","","",""
"","time_out","","html-keyboard-response","250","433188","0.0-1.0-341.0-0.0","0","0","63865","","null","","","null","37","","","","","","","","","","","","","","","",""
"","ITI","","html-keyboard-response","251","434200","0.0-1.0-342.0","0","0","63865","","null","","","null","37","","","","","","","","","","","","","","","NaN",""
"","S1","","html-keyboard-response","252","434463","0.0-1.0-344.0","0","0","63865","","null","","","null","38","","","","","","","","","","","","","","","",""
"","ISI","","html-keyboard-response","253","436474","0.0-1.0-345.0","0","0","63865","","null","","","null","38","NaN","","","","","","","","","","","","","","",""
"","S2","","html-keyboard-response","254","436738","0.0-1.0-346.0","0","0","63865","","null","","","null","38","","NaN","","","","","","","","","","","","","",""
"","response","","html-keyboard-response","255","437323","0.0-1.0-347.0-0.0","0","0","63865","","577","","","75","38","","","1","38","training","adjacent","AB","1","2","M.jpg","Q.jpg","1","1","1","",""
"","feedback","","html-keyboard-response","256","438334","0.0-1.0-348.0-0.0","0","0","63865","","null","","","null","38","","","","","","","","","","","","","","","",""
"","ITI","","html-keyboard-response","257","439349","0.0-1.0-351.0","0","0","63865","","null","","","null","38","","","","","","","","","","","","","","","NaN",""
"","S1","","html-keyboard-response","258","439614","0.0-1.0-353.0","0","0","63865","","null","","","null","39","","","","","","","","","","","","","","","",""
"","ISI","","html-keyboard-response","259","441621","0.0-1.0-354.0","0","0","63865","","null","","","null","39","NaN","","","","","","","","","","","","","","",""
"","S2","","html-keyboard-response","260","441880","0.0-1.0-355.0","0","0","63865","","null","","","null","39","","NaN","","","","","","","","","","","","","",""
"","response","","html-keyboard-response","261","442634","0.0-1.0-356.0-0.0","0","0","63865","","747","","","75","39","","","1","39","training","adjacent","BC","2","3","Q.jpg","P.jpg","1","1","1","",""
"","feedback","","html-keyboard-response","262","443646","0.0-1.0-357.0-0.0","0","0","63865","","null","","","null","39","","","","","","","","","","","","","","","",""
"","ITI","","html-keyboard-response","263","444658","0.0-1.0-360.0","0","0","63865","","null","","","null","39","","","","","","","","","","","","","","","NaN",""
"","S1","","html-keyboard-response","264","444921","0.0-1.0-362.0","0","0","63865","","null","","","null","40","","","","","","","","","","","","","","","",""
"","ISI","","html-keyboard-response","265","446931","0.0-1.0-363.0","0","0","63865","","null","","","null","40","NaN","","","","","","","","","","","","","","",""
"","S2","","html-keyboard-response","266","447195","0.0-1.0-364.0","0","0","63865","","null","","","null","40","","NaN","","","","","","","","","","","","","",""
"","response","","html-keyboard-response","267","447683","0.0-1.0-365.0-0.0","0","0","63865","","477","","","68","40","","","1","40","training","adjacent","CD","3","4","P.jpg","O.jpg","0","1","0","",""
"","feedback","","html-keyboard-response","268","448697","0.0-1.0-366.0-0.0","0","0","63865","","null","","","null","40","","","","","","","","","","","","","","","",""
"","time_out","","html-keyboard-response","269","450711","0.0-1.0-368.0-0.0","0","0","63865","","null","","","null","40","","","","","","","","","","","","","","","",""
"","ITI","","html-keyboard-response","270","451722","0.0-1.0-369.0","0","0","63865","","null","","","null","40","","","","","","","","","","","","","","","NaN",""
"","S1","","html-keyboard-response","271","451983","0.0-1.0-371.0","0","0","63865","","null","","","null","41","","","","","","","","","","","","","","","",""
"","ISI","","html-keyboard-response","272","453995","0.0-1.0-372.0","0","0","63865","","null","","","null","41","NaN","","","","","","","","","","","","","","",""
"","S2","","html-keyboard-response","273","454257","0.0-1.0-373.0","0","0","63865","","null","","","null","41","","NaN","","","","","","","","","","","","","",""
"","response","","html-keyboard-response","274","454823","0.0-1.0-374.0-0.0","0","0","63865","","553","","","75","41","","","1","41","training","adjacent","ED","5","4","L.jpg","O.jpg","1","0","0","",""
"","feedback","","html-keyboard-response","275","455833","0.0-1.0-375.0-0.0","0","0","63865","","null","","","null","41","","","","","","","","","","","","","","","",""
"","time_out","","html-keyboard-response","276","457846","0.0-1.0-377.0-0.0","0","0","63865","","null","","","null","41","","","","","","","","","","","","","","","",""
"","ITI","","html-keyboard-response","277","458859","0.0-1.0-378.0","0","0","63865","","null","","","null","41","","","","","","","","","","","","","","","NaN",""
"","S1","","html-keyboard-response","278","459119","0.0-1.0-380.0","0","0","63865","","null","","","null","42","","","","","","","","","","","","","","","",""
"","ISI","","html-keyboard-response","279","461131","0.0-1.0-381.0","0","0","63865","","null","","","null","42","NaN","","","","","","","","","","","","","","",""
"","S2","","html-keyboard-response","280","461392","0.0-1.0-382.0","0","0","63865","","null","","","null","42","","NaN","","","","","","","","","","","","","",""
"","response","","html-keyboard-response","281","461976","0.0-1.0-383.0-0.0","0","0","63865","","573","","","75","42","","","1","42","training","adjacent","DE","4","5","O.jpg","L.jpg","1","1","1","",""
"","feedback","","html-keyboard-response","282","462989","0.0-1.0-384.0-0.0","0","0","63865","","null","","","null","42","","","","","","","","","","","","","","","",""
"","ITI","","html-keyboard-response","283","464001","0.0-1.0-387.0","0","0","63865","","null","","","null","42","","","","","","","","","","","","","","","NaN",""
"","S1","","html-keyboard-response","284","464267","0.0-1.0-389.0","0","0","63865","","null","","","null","43","","","","","","","","","","","","","","","",""
"","ISI","","html-keyboard-response","285","466276","0.0-1.0-390.0","0","0","63865","","null","","","null","43","NaN","","","","","","","","","","","","","","",""
"","S2","","html-keyboard-response","286","466540","0.0-1.0-391.0","0","0","63865","","null","","","null","43","","NaN","","","","","","","","","","","","","",""
"","response","","html-keyboard-response","287","467078","0.0-1.0-392.0-0.0","0","0","63865","","527","","","68","43","","","1","43","training","adjacent","ED","5","4","L.jpg","O.jpg","0","0","1","",""
"","feedback","","html-keyboard-response","288","468089","0.0-1.0-393.0-0.0","0","0","63865","","null","","","null","43","","","","","","","","","","","","","","","",""
"","ITI","","html-keyboard-response","289","469102","0.0-1.0-396.0","0","0","63865","","null","","","null","43","","","","","","","","","","","","","","","NaN",""
"","S1","","html-keyboard-response","290","469364","0.0-1.0-398.0","0","0","63865","","null","","","null","44","","","","","","","","","","","","","","","",""
"","ISI","","html-keyboard-response","291","471376","0.0-1.0-399.0","0","0","63865","","null","","","null","44","NaN","","","","","","","","","","","","","","",""
"","S2","","html-keyboard-response","292","471639","0.0-1.0-400.0","0","0","63865","","null","","","null","44","","NaN","","","","","","","","","","","","","",""
"","response","","html-keyboard-response","293","472174","0.0-1.0-401.0-0.0","0","0","63865","","527","","","68","44","","","1","44","training","adjacent","BC","2","3","Q.jpg","P.jpg","0","1","0","",""
"","feedback","","html-keyboard-response","294","473183","0.0-1.0-402.0-0.0","0","0","63865","","null","","","null","44","","","","","","","","","","","","","","","",""
"","time_out","","html-keyboard-response","295","475193","0.0-1.0-404.0-0.0","0","0","63865","","null","","","null","44","","","","","","","","","","","","","","","",""
"","ITI","","html-keyboard-response","296","476203","0.0-1.0-405.0","0","0","63865","","null","","","null","44","","","","","","","","","","","","","","","NaN",""
"","S1","","html-keyboard-response","297","476465","0.0-1.0-407.0","0","0","63865","","null","","","null","45","","","","","","","","","","","","","","","",""
"","ISI","","html-keyboard-response","298","478476","0.0-1.0-408.0","0","0","63865","","null","","","null","45","NaN","","","","","","","","","","","","","","",""
"","S2","","html-keyboard-response","299","478737","0.0-1.0-409.0","0","0","63865","","null","","","null","45","","NaN","","","","","","","","","","","","","",""
"","response","","html-keyboard-response","300","479175","0.0-1.0-410.0-0.0","0","0","63865","","426","","","75","45","","","1","45","training","adjacent","DC","4","3","O.jpg","P.jpg","1","0","0","",""
"","feedback","","html-keyboard-response","301","480183","0.0-1.0-411.0-0.0","0","0","63865","","null","","","null","45","","","","","","","","","","","","","","","",""
"","time_out","","html-keyboard-response","302","482193","0.0-1.0-413.0-0.0","0","0","63865","","null","","","null","45","","","","","","","","","","","","","","","",""
"","ITI","","html-keyboard-response","303","483205","0.0-1.0-414.0","0","0","63865","","null","","","null","45","","","","","","","","","","","","","","","NaN",""
"","S1","","html-keyboard-response","304","483469","0.0-1.0-416.0","0","0","63865","","null","","","null","46","","","","","","","","","","","","","","","",""
"","ISI","","html-keyboard-response","305","485482","0.0-1.0-417.0","0","0","63865","","null","","","null","46","NaN","","","","","","","","","","","","","","",""
"","S2","","html-keyboard-response","306","485747","0.0-1.0-418.0","0","0","63865","","null","","","null","46","","NaN","","","","","","","","","","","","","",""
"","response","","html-keyboard-response","307","486163","0.0-1.0-419.0-0.0","0","0","63865","","404","","","68","46","","","1","46","training","adjacent","EF","5","6","L.jpg","R.jpg","0","1","0","",""
"","feedback","","html-keyboard-response","308","487177","0.0-1.0-420.0-0.0","0","0","63865","","null","","","null","46","","","","","","","","","","","","","","","",""
"","time_out","","html-keyboard-response","309","489193","0.0-1.0-422.0-0.0","0","0","63865","","null","","","null","46","","","","","","","","","","","","","","","",""
"","ITI","","html-keyboard-response","310","490202","0.0-1.0-423.0","0","0","63865","","null","","","null","46","","","","","","","","","","","","","","","NaN",""
"","S1","","html-keyboard-response","311","490464","0.0-1.0-425.0","0","0","63865","","null","","","null","47","","","","","","","","","","","","","","","",""
"","ISI","","html-keyboard-response","312","492476","0.0-1.0-426.0","0","0","63865","","null","","","null","47","NaN","","","","","","","","","","","","","","",""
"","S2","","html-keyboard-response","313","492737","0.0-1.0-427.0","0","0","63865","","null","","","null","47","","NaN","","","","","","","","","","","","","",""
"","response","","html-keyboard-response","314","493167","0.0-1.0-428.0-0.0","0","0","63865","","422","","","68","47","","","1","47","training","adjacent","AB","1","2","M.jpg","Q.jpg","0","1","0","",""
"","feedback","","html-keyboard-response","315","494180","0.0-1.0-429.0-0.0","0","0","63865","","null","","","null","47","","","","","","","","","","","","","","","",""
"","time_out","","html-keyboard-response","316","496195","0.0-1.0-431.0-0.0","0","0","63865","","null","","","null","47","","","","","","","","","","","","","","","",""
"","ITI","","html-keyboard-response","317","497209","0.0-1.0-432.0","0","0","63865","","null","","","null","47","","","","","","","","","","","","","","","NaN",""
"","block_over","","html-keyboard-response","318","509514","0.0-1.0-433.0-0.0","0","0","63865","","12294","","","32","47","","","","","","","","","","","","","","","",""
"","S1","","html-keyboard-response","319","509776","0.0-1.0-434.0","0","0","63865","","null","","","null","48","","","","","","","","","","","","","","","",""
"","ISI","","html-keyboard-response","320","511790","0.0-1.0-435.0","0","0","63865","","null","","","null","48","NaN","","","","","","","","","","","","","","",""
"","S2","","html-keyboard-response","321","512057","0.0-1.0-436.0","0","0","63865","","null","","","null","48","","NaN","","","","","","","","","","","","","",""
"","response","","html-keyboard-response","322","512551","0.0-1.0-437.0-0.0","0","0","63865","","484","","","75","48","","","2","48","training","adjacent","DC","4","3","O.jpg","P.jpg","1","0","0","",""
"","feedback","","html-keyboard-response","323","513564","0.0-1.0-438.0-0.0","0","0","63865","","null","","","null","48","","","","","","","","","","","","","","","",""
"","time_out","","html-keyboard-response","324","515577","0.0-1.0-440.0-0.0","0","0","63865","","null","","","null","48","","","","","","","","","","","","","","","",""
"","ITI","","html-keyboard-response","325","516589","0.0-1.0-441.0","0","0","63865","","null","","","null","48","","","","","","","","","","","","","","","NaN",""
"","S1","","html-keyboard-response","326","516848","0.0-1.0-443.0","0","0","63865","","null","","","null","49","","","","","","","","","","","","","","","",""
"","ISI","","html-keyboard-response","327","518861","0.0-1.0-444.0","0","0","63865","","null","","","null","49","NaN","","","","","","","","","","","","","","",""
"","S2","","html-keyboard-response","328","519123","0.0-1.0-445.0","0","0","63865","","null","","","null","49","","NaN","","","","","","","","","","","","","",""
"","response","","html-keyboard-response","329","519598","0.0-1.0-446.0-0.0","0","0","63865","","462","","","68","49","","","2","49","training","adjacent","FE","6","5","R.jpg","L.jpg","0","0","1","",""
"","feedback","","html-keyboard-response","330","520612","0.0-1.0-447.0-0.0","0","0","63865","","null","","","null","49","","","","","","","","","","","","","","","",""
"","ITI","","html-keyboard-response","331","521624","0.0-1.0-450.0","0","0","63865","","null","","","null","49","","","","","","","","","","","","","","","NaN",""
"","S1","","html-keyboard-response","332","521885","0.0-1.0-452.0","0","0","63865","","null","","","null","50","","","","","","","","","","","","","","","",""
"","ISI","","html-keyboard-response","333","523896","0.0-1.0-453.0","0","0","63865","","null","","","null","50","NaN","","","","","","","","","","","","","","",""
"","S2","","html-keyboard-response","334","524159","0.0-1.0-454.0","0","0","63865","","null","","","null","50","","NaN","","","","","","","","","","","","","",""
"","response","","html-keyboard-response","335","524650","0.0-1.0-455.0-0.0","0","0","63865","","481","","","68","50","","","2","50","training","adjacent","DC","4","3","O.jpg","P.jpg","0","0","1","",""
"","feedback","","html-keyboard-response","336","525662","0.0-1.0-456.0-0.0","0","0","63865","","null","","","null","50","","","","","","","","","","","","","","","",""
"","ITI","","html-keyboard-response","337","526676","0.0-1.0-459.0","0","0","63865","","null","","","null","50","","","","","","","","","","","","","","","NaN",""
"","S1","","html-keyboard-response","338","526942","0.0-1.0-461.0","0","0","63865","","null","","","null","51","","","","","","","","","","","","","","","",""
"","ISI","","html-keyboard-response","339","528962","0.0-1.0-462.0","0","0","63865","","null","","","null","51","NaN","","","","","","","","","","","","","","",""
"","S2","","html-keyboard-response","340","529228","0.0-1.0-463.0","0","0","63865","","null","","","null","51","","NaN","","","","","","","","","","","","","",""
"","response","","html-keyboard-response","341","529666","0.0-1.0-464.0-0.0","0","0","63865","","427","","","75","51","","","2","51","training","adjacent","GF","7","6","N.jpg","R.jpg","1","0","0","",""
"","feedback","","html-keyboard-response","342","530680","0.0-1.0-465.0-0.0","0","0","63865","","null","","","null","51","","","","","","","","","","","","","","","",""
"","time_out","","html-keyboard-response","343","532689","0.0-1.0-467.0-0.0","0","0","63865","","null","","","null","51","","","","","","","","","","","","","","","",""
"","ITI","","html-keyboard-response","344","533695","0.0-1.0-468.0","0","0","63865","","null","","","null","51","","","","","","","","","","","","","","","NaN",""
"","S1","","html-keyboard-response","345","533952","0.0-1.0-470.0","0","0","63865","","null","","","null","52","","","","","","","","","","","","","","","",""
"","ISI","","html-keyboard-response","346","535958","0.0-1.0-471.0","0","0","63865","","null","","","null","52","NaN","","","","","","","","","","","","","","",""
"","S2","","html-keyboard-response","347","536218","0.0-1.0-472.0","0","0","63865","","null","","","null","52","","NaN","","","","","","","","","","","","","",""
"","response","","html-keyboard-response","348","536671","0.0-1.0-473.0-0.0","0","0","63865","","443","","","75","52","","","2","52","training","adjacent","ED","5","4","L.jpg","O.jpg","1","0","0","",""
"","feedback","","html-keyboard-response","349","537679","0.0-1.0-474.0-0.0","0","0","63865","","null","","","null","52","","","","","","","","","","","","","","","",""
"","time_out","","html-keyboard-response","350","539704","0.0-1.0-476.0-0.0","0","0","63865","","null","","","null","52","","","","","","","","","","","","","","","",""
"","ITI","","html-keyboard-response","351","540717","0.0-1.0-477.0","0","0","63865","","null","","","null","52","","","","","","","","","","","","","","","NaN",""
"","S1","","html-keyboard-response","352","540977","0.0-1.0-479.0","0","0","63865","","null","","","null","53","","","","","","","","","","","","","","","",""
"","ISI","","html-keyboard-response","353","542985","0.0-1.0-480.0","0","0","63865","","null","","","null","53","NaN","","","","","","","","","","","","","","",""
"","S2","","html-keyboard-response","354","543246","0.0-1.0-481.0","0","0","63865","","null","","","null","53","","NaN","","","","","","","","","","","","","",""
"","response","","html-keyboard-response","355","543754","0.0-1.0-482.0-0.0","0","0","63865","","500","","","68","53","","","2","53","training","adjacent","FG","6","7","R.jpg","N.jpg","0","1","0","",""
"","feedback","","html-keyboard-response","356","544768","0.0-1.0-483.0-0.0","0","0","63865","","null","","","null","53","","","","","","","","","","","","","","","",""
"","time_out","","html-keyboard-response","357","546778","0.0-1.0-485.0-0.0","0","0","63865","","null","","","null","53","","","","","","","","","","","","","","","",""
"","ITI","","html-keyboard-response","358","547789","0.0-1.0-486.0","0","0","63865","","null","","","null","53","","","","","","","","","","","","","","","NaN",""
"","S1","","html-keyboard-response","359","548049","0.0-1.0-488.0","0","0","63865","","null","","","null","54","","","","","","","","","","","","","","","",""
"","ISI","","html-keyboard-response","360","550061","0.0-1.0-489.0","0","0","63865","","null","","","null","54","NaN","","","","","","","","","","","","","","",""
"","S2","","html-keyboard-response","361","550324","0.0-1.0-490.0","0","0","63865","","null","","","null","54","","NaN","","","","","","","","","","","","","",""
"","response","","html-keyboard-response","362","550708","0.0-1.0-491.0-0.0","0","0","63865","","373","","","68","54","","","2","54","training","adjacent","AB","1","2","M.jpg","Q.jpg","0","1","0","",""
"","feedback","","html-keyboard-response","363","551723","0.0-1.0-492.0-0.0","0","0","63865","","null","","","null","54","","","","","","","","","","","","","","","",""
"","time_out","","html-keyboard-response","364","553734","0.0-1.0-494.0-0.0","0","0","63865","","null","","","null","54","","","","","","","","","","","","","","","",""
"","ITI","","html-keyboard-response","365","554745","0.0-1.0-495.0","0","0","63865","","null","","","null","54","","","","","","","","","","","","","","","NaN",""
"","S1","","html-keyboard-response","366","555009","0.0-1.0-497.0","0","0","63865","","null","","","null","55","","","","","","","","","","","","","","","",""
"","ISI","","html-keyboard-response","367","557021","0.0-1.0-498.0","0","0","63865","","null","","","null","55","NaN","","","","","","","","","","","","","","",""
"","S2","","html-keyboard-response","368","557287","0.0-1.0-499.0","0","0","63865","","null","","","null","55","","NaN","","","","","","","","","","","","","",""
"","response","","html-keyboard-response","369","557701","0.0-1.0-500.0-0.0","0","0","63865","","404","","","68","55","","","2","55","training","adjacent","ED","5","4","L.jpg","O.jpg","0","0","1","",""
"","feedback","","html-keyboard-response","370","558713","0.0-1.0-501.0-0.0","0","0","63865","","null","","","null","55","","","","","","","","","","","","","","","",""
"","ITI","","html-keyboard-response","371","559724","0.0-1.0-504.0","0","0","63865","","null","","","null","55","","","","","","","","","","","","","","","NaN",""
"","S1","","html-keyboard-response","372","559984","0.0-1.0-506.0","0","0","63865","","null","","","null","56","","","","","","","","","","","","","","","",""
"","ISI","","html-keyboard-response","373","561996","0.0-1.0-507.0","0","0","63865","","null","","","null","56","NaN","","","","","","","","","","","","","","",""
"","S2","","html-keyboard-response","374","562258","0.0-1.0-508.0","0","0","63865","","null","","","null","56","","NaN","","","","","","","","","","","","","",""
"","response","","html-keyboard-response","375","563035","0.0-1.0-509.0-0.0","0","0","63865","","768","","","68","56","","","2","56","training","adjacent","EF","5","6","L.jpg","R.jpg","0","1","0","",""
"","feedback","","html-keyboard-response","376","564048","0.0-1.0-510.0-0.0","0","0","63865","","null","","","null","56","","","","","","","","","","","","","","","",""
"","time_out","","html-keyboard-response","377","566061","0.0-1.0-512.0-0.0","0","0","63865","","null","","","null","56","","","","","","","","","","","","","","","",""
"","ITI","","html-keyboard-response","378","567073","0.0-1.0-513.0","0","0","63865","","null","","","null","56","","","","","","","","","","","","","","","NaN",""
"","S1","","html-keyboard-response","379","567332","0.0-1.0-515.0","0","0","63865","","null","","","null","57","","","","","","","","","","","","","","","",""
"","ISI","","html-keyboard-response","380","569347","0.0-1.0-516.0","0","0","63865","","null","","","null","57","NaN","","","","","","","","","","","","","","",""
"","S2","","html-keyboard-response","381","569609","0.0-1.0-517.0","0","0","63865","","null","","","null","57","","NaN","","","","","","","","","","","","","",""
"","response","","html-keyboard-response","382","570288","0.0-1.0-518.0-0.0","0","0","63865","","669","","","75","57","","","2","57","training","adjacent","ED","5","4","L.jpg","O.jpg","1","0","0","",""
"","feedback","","html-keyboard-response","383","571299","0.0-1.0-519.0-0.0","0","0","63865","","null","","","null","57","","","","","","","","","","","","","","","",""
"","time_out","","html-keyboard-response","384","573314","0.0-1.0-521.0-0.0","0","0","63865","","null","","","null","57","","","","","","","","","","","","","","","",""
"","ITI","","html-keyboard-response","385","574323","0.0-1.0-522.0","0","0","63865","","null","","","null","57","","","","","","","","","","","","","","","NaN",""
"","S1","","html-keyboard-response","386","574584","0.0-1.0-524.0","0","0","63865","","null","","","null","58","","","","","","","","","","","","","","","",""
"","ISI","","html-keyboard-response","387","576595","0.0-1.0-525.0","0","0","63865","","null","","","null","58","NaN","","","","","","","","","","","","","","",""
"","S2","","html-keyboard-response","388","576858","0.0-1.0-526.0","0","0","63865","","null","","","null","58","","NaN","","","","","","","","","","","","","",""
"","response","","html-keyboard-response","389","577270","0.0-1.0-527.0-0.0","0","0","63865","","404","","","68","58","","","2","58","training","adjacent","FE","6","5","R.jpg","L.jpg","0","0","1","",""
"","feedback","","html-keyboard-response","390","578285","0.0-1.0-528.0-0.0","0","0","63865","","null","","","null","58","","","","","","","","","","","","","","","",""
"","ITI","","html-keyboard-response","391","579297","0.0-1.0-531.0","0","0","63865","","null","","","null","58","","","","","","","","","","","","","","","NaN",""
"","S1","","html-keyboard-response","392","579554","0.0-1.0-533.0","0","0","63865","","null","","","null","59","","","","","","","","","","","","","","","",""
"","ISI","","html-keyboard-response","393","581566","0.0-1.0-534.0","0","0","63865","","null","","","null","59","NaN","","","","","","","","","","","","","","",""
"","S2","","html-keyboard-response","394","581829","0.0-1.0-535.0","0","0","63865","","null","","","null","59","","NaN","","","","","","","","","","","","","",""
"","response","","html-keyboard-response","395","582344","0.0-1.0-536.0-0.0","0","0","63865","","505","","","68","59","","","2","59","training","adjacent","GF","7","6","N.jpg","R.jpg","0","0","1","",""
"","feedback","","html-keyboard-response","396","583356","0.0-1.0-537.0-0.0","0","0","63865","","null","","","null","59","","","","","","","","","","","","","","","",""
"","ITI","","html-keyboard-response","397","584371","0.0-1.0-540.0","0","0","63865","","null","","","null","59","","","","","","","","","","","","","","","NaN",""
"","S1","","html-keyboard-response","398","584632","0.0-1.0-542.0","0","0","63865","","null","","","null","60","","","","","","","","","","","","","","","",""
"","ISI","","html-keyboard-response","399","586644","0.0-1.0-543.0","0","0","63865","","null","","","null","60","NaN","","","","","","","","","","","","","","",""
"","S2","","html-keyboard-response","400","586910","0.0-1.0-544.0","0","0","63865","","null","","","null","60","","NaN","","","","","","","","","","","","","",""
"","response","","html-keyboard-response","401","587247","0.0-1.0-545.0-0.0","0","0","63865","","326","","","75","60","","","2","60","training","adjacent","BC","2","3","Q.jpg","P.jpg","1","1","1","",""
"","feedback","","html-keyboard-response","402","588261","0.0-1.0-546.0-0.0","0","0","63865","","null","","","null","60","","","","","","","","","","","","","","","",""
"","ITI","","html-keyboard-response","403","589273","0.0-1.0-549.0","0","0","63865","","null","","","null","60","","","","","","","","","","","","","","","NaN",""
"","S1","","html-keyboard-response","404","589533","0.0-1.0-551.0","0","0","63865","","null","","","null","61","","","","","","","","","","","","","","","",""
"","ISI","","html-keyboard-response","405","591545","0.0-1.0-552.0","0","0","63865","","null","","","null","61","NaN","","","","","","","","","","","","","","",""
"","S2","","html-keyboard-response","406","591802","0.0-1.0-553.0","0","0","63865","","null","","","null","61","","NaN","","","","","","","","","","","","","",""
"","response","","html-keyboard-response","407","592244","0.0-1.0-554.0-0.0","0","0","63865","","432","","","68","61","","","2","61","training","adjacent","GF","7","6","N.jpg","R.jpg","0","0","1","",""
"","feedback","","html-keyboard-response","408","593257","0.0-1.0-555.0-0.0","0","0","63865","","null","","","null","61","","","","","","","","","","","","","","","",""
"","ITI","","html-keyboard-response","409","594275","0.0-1.0-558.0","0","0","63865","","null","","","null","61","","","","","","","","","","","","","","","NaN",""
"","S1","","html-keyboard-response","410","594537","0.0-1.0-560.0","0","0","63865","","null","","","null","62","","","","","","","","","","","","","","","",""
"","ISI","","html-keyboard-response","411","596549","0.0-1.0-561.0","0","0","63865","","null","","","null","62","NaN","","","","","","","","","","","","","","",""
"","S2","","html-keyboard-response","412","596812","0.0-1.0-562.0","0","0","63865","","null","","","null","62","","NaN","","","","","","","","","","","","","",""
"","response","","html-keyboard-response","413","597196","0.0-1.0-563.0-0.0","0","0","63865","","374","","","68","62","","","2","62","training","adjacent","DC","4","3","O.jpg","P.jpg","0","0","1","",""
"","feedback","","html-keyboard-response","414","598209","0.0-1.0-564.0-0.0","0","0","63865","","null","","","null","62","","","","","","","","","","","","","","","",""
"","ITI","","html-keyboard-response","415","599223","0.0-1.0-567.0","0","0","63865","","null","","","null","62","","","","","","","","","","","","","","","NaN",""
"","S1","","html-keyboard-response","416","599484","0.0-1.0-569.0","0","0","63865","","null","","","null","63","","","","","","","","","","","","","","","",""
"","ISI","","html-keyboard-response","417","601497","0.0-1.0-570.0","0","0","63865","","null","","","null","63","NaN","","","","","","","","","","","","","","",""
"","S2","","html-keyboard-response","418","601760","0.0-1.0-571.0","0","0","63865","","null","","","null","63","","NaN","","","","","","","","","","","","","",""
"","response","","html-keyboard-response","419","602057","0.0-1.0-572.0-0.0","0","0","63865","","287","","","75","63","","","2","63","training","adjacent","BC","2","3","Q.jpg","P.jpg","1","1","1","",""
"","feedback","","html-keyboard-response","420","603075","0.0-1.0-573.0-0.0","0","0","63865","","null","","","null","63","","","","","","","","","","","","","","","",""
"","ITI","","html-keyboard-response","421","604088","0.0-1.0-576.0","0","0","63865","","null","","","null","63","","","","","","","","","","","","","","","NaN",""
"","S1","","html-keyboard-response","422","604355","0.0-1.0-578.0","0","0","63865","","null","","","null","64","","","","","","","","","","","","","","","",""
"","ISI","","html-keyboard-response","423","606364","0.0-1.0-579.0","0","0","63865","","null","","","null","64","NaN","","","","","","","","","","","","","","",""
"","S2","","html-keyboard-response","424","606627","0.0-1.0-580.0","0","0","63865","","null","","","null","64","","NaN","","","","","","","","","","","","","",""
"","response","","html-keyboard-response","425","607123","0.0-1.0-581.0-0.0","0","0","63865","","486","","","75","64","","","2","64","training","adjacent","CD","3","4","P.jpg","O.jpg","1","1","1","",""
"","feedback","","html-keyboard-response","426","608137","0.0-1.0-582.0-0.0","0","0","63865","","null","","","null","64","","","","","","","","","","","","","","","",""
"","ITI","","html-keyboard-response","427","609150","0.0-1.0-585.0","0","0","63865","","null","","","null","64","","","","","","","","","","","","","","","NaN",""
"","S1","","html-keyboard-response","428","609413","0.0-1.0-587.0","0","0","63865","","null","","","null","65","","","","","","","","","","","","","","","",""
"","ISI","","html-keyboard-response","429","611426","0.0-1.0-588.0","0","0","63865","","null","","","null","65","NaN","","","","","","","","","","","","","","",""
"","S2","","html-keyboard-response","430","611686","0.0-1.0-589.0","0","0","63865","","null","","","null","65","","NaN","","","","","","","","","","","","","",""
"","response","","html-keyboard-response","431","612067","0.0-1.0-590.0-0.0","0","0","63865","","370","","","68","65","","","2","65","training","adjacent","DE","4","5","O.jpg","L.jpg","0","1","0","",""
"","feedback","","html-keyboard-response","432","613080","0.0-1.0-591.0-0.0","0","0","63865","","null","","","null","65","","","","","","","","","","","","","","","",""
"","time_out","","html-keyboard-response","433","615090","0.0-1.0-593.0-0.0","0","0","63865","","null","","","null","65","","","","","","","","","","","","","","","",""
"","ITI","","html-keyboard-response","434","616101","0.0-1.0-594.0","0","0","63865","","null","","","null","65","","","","","","","","","","","","","","","NaN",""
"","S1","","html-keyboard-response","435","616364","0.0-1.0-596.0","0","0","63865","","null","","","null","66","","","","","","","","","","","","","","","",""
"","ISI","","html-keyboard-response","436","618379","0.0-1.0-597.0","0","0","63865","","null","","","null","66","NaN","","","","","","","","","","","","","","",""
"","S2","","html-keyboard-response","437","618640","0.0-1.0-598.0","0","0","63865","","null","","","null","66","","NaN","","","","","","","","","","","","","",""
"","response","","html-keyboard-response","438","618959","0.0-1.0-599.0-0.0","0","0","63865","","309","","","68","66","","","2","66","training","adjacent","BA","2","1","Q.jpg","M.jpg","0","0","1","",""
"","feedback","","html-keyboard-response","439","619972","0.0-1.0-600.0-0.0","0","0","63865","","null","","","null","66","","","","","","","","","","","","","","","",""
"","ITI","","html-keyboard-response","440","620982","0.0-1.0-603.0","0","0","63865","","null","","","null","66","","","","","","","","","","","","","","","NaN",""
"","S1","","html-keyboard-response","441","621241","0.0-1.0-605.0","0","0","63865","","null","","","null","67","","","","","","","","","","","","","","","",""
"","ISI","","html-keyboard-response","442","623254","0.0-1.0-606.0","0","0","63865","","null","","","null","67","NaN","","","","","","","","","","","","","","",""
"","S2","","html-keyboard-response","443","623515","0.0-1.0-607.0","0","0","63865","","null","","","null","67","","NaN","","","","","","","","","","","","","",""
"","response","","html-keyboard-response","444","623909","0.0-1.0-608.0-0.0","0","0","63865","","384","","","68","67","","","2","67","training","adjacent","CB","3","2","P.jpg","Q.jpg","0","0","1","",""
"","feedback","","html-keyboard-response","445","624922","0.0-1.0-609.0-0.0","0","0","63865","","null","","","null","67","","","","","","","","","","","","","","","",""
"","ITI","","html-keyboard-response","446","625932","0.0-1.0-612.0","0","0","63865","","null","","","null","67","","","","","","","","","","","","","","","NaN",""
"","S1","","html-keyboard-response","447","626194","0.0-1.0-614.0","0","0","63865","","null","","","null","68","","","","","","","","","","","","","","","",""
"","ISI","","html-keyboard-response","448","628202","0.0-1.0-615.0","0","0","63865","","null","","","null","68","NaN","","","","","","","","","","","","","","",""
"","S2","","html-keyboard-response","449","628460","0.0-1.0-616.0","0","0","63865","","null","","","null","68","","NaN","","","","","","","","","","","","","",""
"","response","","html-keyboard-response","450","628732","0.0-1.0-617.0-0.0","0","0","63865","","264","","","68","68","","","2","68","training","adjacent","AB","1","2","M.jpg","Q.jpg","0","1","0","",""
"","feedback","","html-keyboard-response","451","629743","0.0-1.0-618.0-0.0","0","0","63865","","null","","","null","68","","","","","","","","","","","","","","","",""
"","time_out","","html-keyboard-response","452","631758","0.0-1.0-620.0-0.0","0","0","63865","","null","","","null","68","","","","","","","","","","","","","","","",""
"","ITI","","html-keyboard-response","453","632765","0.0-1.0-621.0","0","0","63865","","null","","","null","68","","","","","","","","","","","","","","","NaN",""
"","S1","","html-keyboard-response","454","633026","0.0-1.0-623.0","0","0","63865","","null","","","null","69","","","","","","","","","","","","","","","",""
"","ISI","","html-keyboard-response","455","635036","0.0-1.0-624.0","0","0","63865","","null","","","null","69","NaN","","","","","","","","","","","","","","",""
"","S2","","html-keyboard-response","456","635299","0.0-1.0-625.0","0","0","63865","","null","","","null","69","","NaN","","","","","","","","","","","","","",""
"","response","","html-keyboard-response","457","635627","0.0-1.0-626.0-0.0","0","0","63865","","317","","","75","69","","","2","69","training","adjacent","BA","2","1","Q.jpg","M.jpg","1","0","0","",""
"","feedback","","html-keyboard-response","458","636642","0.0-1.0-627.0-0.0","0","0","63865","","null","","","null","69","","","","","","","","","","","","","","","",""
"","time_out","","html-keyboard-response","459","638650","0.0-1.0-629.0-0.0","0","0","63865","","null","","","null","69","","","","","","","","","","","","","","","",""
"","ITI","","html-keyboard-response","460","639657","0.0-1.0-630.0","0","0","63865","","null","","","null","69","","","","","","","","","","","","","","","NaN",""
"","S1","","html-keyboard-response","461","639918","0.0-1.0-632.0","0","0","63865","","null","","","null","70","","","","","","","","","","","","","","","",""
"","ISI","","html-keyboard-response","462","641929","0.0-1.0-633.0","0","0","63865","","null","","","null","70","NaN","","","","","","","","","","","","","","",""
"","S2","","html-keyboard-response","463","642195","0.0-1.0-634.0","0","0","63865","","null","","","null","70","","NaN","","","","","","","","","","","","","",""
"","response","","html-keyboard-response","464","642572","0.0-1.0-635.0-0.0","0","0","63865","","367","","","68","70","","","2","70","training","adjacent","EF","5","6","L.jpg","R.jpg","0","1","0","",""
"","feedback","","html-keyboard-response","465","643586","0.0-1.0-636.0-0.0","0","0","63865","","null","","","null","70","","","","","","","","","","","","","","","",""
"","time_out","","html-keyboard-response","466","645594","0.0-1.0-638.0-0.0","0","0","63865","","null","","","null","70","","","","","","","","","","","","","","","",""
"","ITI","","html-keyboard-response","467","646603","0.0-1.0-639.0","0","0","63865","","null","","","null","70","","","","","","","","","","","","","","","NaN",""
"","S1","","html-keyboard-response","468","646861","0.0-1.0-641.0","0","0","63865","","null","","","null","71","","","","","","","","","","","","","","","",""
"","ISI","","html-keyboard-response","469","648868","0.0-1.0-642.0","0","0","63865","","null","","","null","71","NaN","","","","","","","","","","","","","","",""
"","S2","","html-keyboard-response","470","649125","0.0-1.0-643.0","0","0","63865","","null","","","null","71","","NaN","","","","","","","","","","","","","",""
"","response","","html-keyboard-response","471","649419","0.0-1.0-644.0-0.0","0","0","63865","","284","","","68","71","","","2","71","training","adjacent","CB","3","2","P.jpg","Q.jpg","0","0","1","",""
"","feedback","","html-keyboard-response","472","650431","0.0-1.0-645.0-0.0","0","0","63865","","null","","","null","71","","","","","","","","","","","","","","","",""
"","ITI","","html-keyboard-response","473","651441","0.0-1.0-648.0","0","0","63865","","null","","","null","71","","","","","","","","","","","","","","","NaN",""
"","S1","","html-keyboard-response","474","651706","0.0-1.0-650.0","0","0","63865","","null","","","null","72","","","","","","","","","","","","","","","",""
"","ISI","","html-keyboard-response","475","653717","0.0-1.0-651.0","0","0","63865","","null","","","null","72","NaN","","","","","","","","","","","","","","",""
"","S2","","html-keyboard-response","476","653979","0.0-1.0-652.0","0","0","63865","","null","","","null","72","","NaN","","","","","","","","","","","","","",""
"","response","","html-keyboard-response","477","654222","0.0-1.0-653.0-0.0","0","0","63865","","232","","","68","72","","","2","72","training","adjacent","FG","6","7","R.jpg","N.jpg","0","1","0","",""
"","feedback","","html-keyboard-response","478","655234","0.0-1.0-654.0-0.0","0","0","63865","","null","","","null","72","","","","","","","","","","","","","","","",""
"","time_out","","html-keyboard-response","479","657241","0.0-1.0-656.0-0.0","0","0","63865","","null","","","null","72","","","","","","","","","","","","","","","",""
"","ITI","","html-keyboard-response","480","658251","0.0-1.0-657.0","0","0","63865","","null","","","null","72","","","","","","","","","","","","","","","NaN",""
"","S1","","html-keyboard-response","481","658512","0.0-1.0-659.0","0","0","63865","","null","","","null","73","","","","","","","","","","","","","","","",""
"","ISI","","html-keyboard-response","482","660524","0.0-1.0-660.0","0","0","63865","","null","","","null","73","NaN","","","","","","","","","","","","","","",""
"","S2","","html-keyboard-response","483","660786","0.0-1.0-661.0","0","0","63865","","null","","","null","73","","NaN","","","","","","","","","","","","","",""
"","response","","html-keyboard-response","484","661053","0.0-1.0-662.0-0.0","0","0","63865","","256","","","75","73","","","2","73","training","adjacent","DC","4","3","O.jpg","P.jpg","1","0","0","",""
"","feedback","","html-keyboard-response","485","662064","0.0-1.0-663.0-0.0","0","0","63865","","null","","","null","73","","","","","","","","","","","","","","","",""
"","time_out","","html-keyboard-response","486","664078","0.0-1.0-665.0-0.0","0","0","63865","","null","","","null","73","","","","","","","","","","","","","","","",""
"","ITI","","html-keyboard-response","487","665090","0.0-1.0-666.0","0","0","63865","","null","","","null","73","","","","","","","","","","","","","","","NaN",""
"","S1","","html-keyboard-response","488","665353","0.0-1.0-668.0","0","0","63865","","null","","","null","74","","","","","","","","","","","","","","","",""
"","ISI","","html-keyboard-response","489","667364","0.0-1.0-669.0","0","0","63865","","null","","","null","74","NaN","","","","","","","","","","","","","","",""
"","S2","","html-keyboard-response","490","667627","0.0-1.0-670.0","0","0","63865","","null","","","null","74","","NaN","","","","","","","","","","","","","",""
"","response","","html-keyboard-response","491","667938","0.0-1.0-671.0-0.0","0","0","63865","","302","","","75","74","","","2","74","training","adjacent","FG","6","7","R.jpg","N.jpg","1","1","1","",""
"","feedback","","html-keyboard-response","492","668952","0.0-1.0-672.0-0.0","0","0","63865","","null","","","null","74","","","","","","","","","","","","","","","",""
"","ITI","","html-keyboard-response","493","669966","0.0-1.0-675.0","0","0","63865","","null","","","null","74","","","","","","","","","","","","","","","NaN",""
"","S1","","html-keyboard-response","494","670231","0.0-1.0-677.0","0","0","63865","","null","","","null","75","","","","","","","","","","","","","","","",""
"","ISI","","html-keyboard-response","495","672244","0.0-1.0-678.0","0","0","63865","","null","","","null","75","NaN","","","","","","","","","","","","","","",""
"","S2","","html-keyboard-response","496","672506","0.0-1.0-679.0","0","0","63865","","null","","","null","75","","NaN","","","","","","","","","","","","","",""
"","response","","html-keyboard-response","497","672736","0.0-1.0-680.0-0.0","0","0","63865","","220","","","75","75","","","2","75","training","adjacent","GF","7","6","N.jpg","R.jpg","1","0","0","",""
"","feedback","","html-keyboard-response","498","673752","0.0-1.0-681.0-0.0","0","0","63865","","null","","","null","75","","","","","","","","","","","","","","","",""
"","time_out","","html-keyboard-response","499","675765","0.0-1.0-683.0-0.0","0","0","63865","","null","","","null","75","","","","","","","","","","","","","","","",""
"","ITI","","html-keyboard-response","500","676776","0.0-1.0-684.0","0","0","63865","","null","","","null","75","","","","","","","","","","","","","","","NaN",""
"","S1","","html-keyboard-response","501","677043","0.0-1.0-686.0","0","0","63865","","null","","","null","76","","","","","","","","","","","","","","","",""
"","ISI","","html-keyboard-response","502","679055","0.0-1.0-687.0","0","0","63865","","null","","","null","76","NaN","","","","","","","","","","","","","","",""
"","S2","","html-keyboard-response","503","679319","0.0-1.0-688.0","0","0","63865","","null","","","null","76","","NaN","","","","","","","","","","","","","",""
"","response","","html-keyboard-response","504","679888","0.0-1.0-689.0-0.0","0","0","63865","","560","","","68","76","","","2","76","training","adjacent","FG","6","7","R.jpg","N.jpg","0","1","0","",""
"","feedback","","html-keyboard-response","505","680903","0.0-1.0-690.0-0.0","0","0","63865","","null","","","null","76","","","","","","","","","","","","","","","",""
"","time_out","","html-keyboard-response","506","682918","0.0-1.0-692.0-0.0","0","0","63865","","null","","","null","76","","","","","","","","","","","","","","","",""
"","ITI","","html-keyboard-response","507","683932","0.0-1.0-693.0","0","0","63865","","null","","","null","76","","","","","","","","","","","","","","","NaN",""
"","S1","","html-keyboard-response","508","684195","0.0-1.0-695.0","0","0","63865","","null","","","null","77","","","","","","","","","","","","","","","",""
"","ISI","","html-keyboard-response","509","686203","0.0-1.0-696.0","0","0","63865","","null","","","null","77","NaN","","","","","","","","","","","","","","",""
"","S2","","html-keyboard-response","510","686468","0.0-1.0-697.0","0","0","63865","","null","","","null","77","","NaN","","","","","","","","","","","","","",""
"","response","","html-keyboard-response","511","686767","0.0-1.0-698.0-0.0","0","0","63865","","292","","","75","77","","","2","77","training","adjacent","DE","4","5","O.jpg","L.jpg","1","1","1","",""
"","feedback","","html-keyboard-response","512","687776","0.0-1.0-699.0-0.0","0","0","63865","","null","","","null","77","","","","","","","","","","","","","","","",""
"","ITI","","html-keyboard-response","513","688790","0.0-1.0-702.0","0","0","63865","","null","","","null","77","","","","","","","","","","","","","","","NaN",""
"","S1","","html-keyboard-response","514","689053","0.0-1.0-704.0","0","0","63865","","null","","","null","78","","","","","","","","","","","","","","","",""
"","ISI","","html-keyboard-response","515","691065","0.0-1.0-705.0","0","0","63865","","null","","","null","78","NaN","","","","","","","","","","","","","","",""
"","S2","","html-keyboard-response","516","691329","0.0-1.0-706.0","0","0","63865","","null","","","null","78","","NaN","","","","","","","","","","","","","",""
"","response","","html-keyboard-response","517","691616","0.0-1.0-707.0-0.0","0","0","63865","","275","","","75","78","","","2","78","training","adjacent","EF","5","6","L.jpg","R.jpg","1","1","1","",""
"","feedback","","html-keyboard-response","518","692632","0.0-1.0-708.0-0.0","0","0","63865","","null","","","null","78","","","","","","","","","","","","","","","",""
"","ITI","","html-keyboard-response","519","693643","0.0-1.0-711.0","0","0","63865","","null","","","null","78","","","","","","","","","","","","","","","NaN",""
"","S1","","html-keyboard-response","520","693906","0.0-1.0-713.0","0","0","63865","","null","","","null","79","","","","","","","","","","","","","","","",""
"","ISI","","html-keyboard-response","521","695920","0.0-1.0-714.0","0","0","63865","","null","","","null","79","NaN","","","","","","","","","","","","","","",""
"","S2","","html-keyboard-response","522","696185","0.0-1.0-715.0","0","0","63865","","null","","","null","79","","NaN","","","","","","","","","","","","","",""
"","response","","html-keyboard-response","523","696593","0.0-1.0-716.0-0.0","0","0","63865","","399","","","68","79","","","2","79","training","adjacent","BA","2","1","Q.jpg","M.jpg","0","0","1","",""
"","feedback","","html-keyboard-response","524","697613","0.0-1.0-717.0-0.0","0","0","63865","","null","","","null","79","","","","","","","","","","","","","","","",""
"","ITI","","html-keyboard-response","525","698626","0.0-1.0-720.0","0","0","63865","","null","","","null","79","","","","","","","","","","","","","","","NaN",""
"","S1","","html-keyboard-response","526","698887","0.0-1.0-722.0","0","0","63865","","null","","","null","80","","","","","","","","","","","","","","","",""
"","ISI","","html-keyboard-response","527","700898","0.0-1.0-723.0","0","0","63865","","null","","","null","80","NaN","","","","","","","","","","","","","","",""
"","S2","","html-keyboard-response","528","701162","0.0-1.0-724.0","0","0","63865","","null","","","null","80","","NaN","","","","","","","","","","","","","",""
"","response","","html-keyboard-response","529","701714","0.0-1.0-725.0-0.0","0","0","63865","","542","","","68","80","","","2","80","training","adjacent","DE","4","5","O.jpg","L.jpg","0","1","0","",""
"","feedback","","html-keyboard-response","530","702726","0.0-1.0-726.0-0.0","0","0","63865","","null","","","null","80","","","","","","","","","","","","","","","",""
"","time_out","","html-keyboard-response","531","704740","0.0-1.0-728.0-0.0","0","0","63865","","null","","","null","80","","","","","","","","","","","","","","","",""
"","ITI","","html-keyboard-response","532","705752","0.0-1.0-729.0","0","0","63865","","null","","","null","80","","","","","","","","","","","","","","","NaN",""
"","S1","","html-keyboard-response","533","706014","0.0-1.0-731.0","0","0","63865","","null","","","null","81","","","","","","","","","","","","","","","",""
"","ISI","","html-keyboard-response","534","708025","0.0-1.0-732.0","0","0","63865","","null","","","null","81","NaN","","","","","","","","","","","","","","",""
"","S2","","html-keyboard-response","535","708289","0.0-1.0-733.0","0","0","63865","","null","","","null","81","","NaN","","","","","","","","","","","","","",""
"","response","","html-keyboard-response","536","708780","0.0-1.0-734.0-0.0","0","0","63865","","483","","","75","81","","","2","81","training","adjacent","DE","4","5","O.jpg","L.jpg","1","1","1","",""
"","feedback","","html-keyboard-response","537","709790","0.0-1.0-735.0-0.0","0","0","63865","","null","","","null","81","","","","","","","","","","","","","","","",""
"","ITI","","html-keyboard-response","538","710804","0.0-1.0-738.0","0","0","63865","","null","","","null","81","","","","","","","","","","","","","","","NaN",""
"","S1","","html-keyboard-response","539","711069","0.0-1.0-740.0","0","0","63865","","null","","","null","82","","","","","","","","","","","","","","","",""
"","ISI","","html-keyboard-response","540","713078","0.0-1.0-741.0","0","0","63865","","null","","","null","82","NaN","","","","","","","","","","","","","","",""
"","S2","","html-keyboard-response","541","713340","0.0-1.0-742.0","0","0","63865","","null","","","null","82","","NaN","","","","","","","","","","","","","",""
"","response","","html-keyboard-response","542","713820","0.0-1.0-743.0-0.0","0","0","63865","","470","","","75","82","","","2","82","training","adjacent","CB","3","2","P.jpg","Q.jpg","1","0","0","",""
"","feedback","","html-keyboard-response","543","714833","0.0-1.0-744.0-0.0","0","0","63865","","null","","","null","82","","","","","","","","","","","","","","","",""
"","time_out","","html-keyboard-response","544","716846","0.0-1.0-746.0-0.0","0","0","63865","","null","","","null","82","","","","","","","","","","","","","","","",""
"","ITI","","html-keyboard-response","545","717858","0.0-1.0-747.0","0","0","63865","","null","","","null","82","","","","","","","","","","","","","","","NaN",""
"","S1","","html-keyboard-response","546","718119","0.0-1.0-749.0","0","0","63865","","null","","","null","83","","","","","","","","","","","","","","","",""
"","ISI","","html-keyboard-response","547","720131","0.0-1.0-750.0","0","0","63865","","null","","","null","83","NaN","","","","","","","","","","","","","","",""
"","S2","","html-keyboard-response","548","720393","0.0-1.0-751.0","0","0","63865","","null","","","null","83","","NaN","","","","","","","","","","","","","",""
"","response","","html-keyboard-response","549","720944","0.0-1.0-752.0-0.0","0","0","63865","","541","","","68","83","","","2","83","training","adjacent","CD","3","4","P.jpg","O.jpg","0","1","0","",""
"","feedback","","html-keyboard-response","550","721956","0.0-1.0-753.0-0.0","0","0","63865","","null","","","null","83","","","","","","","","","","","","","","","",""
"","time_out","","html-keyboard-response","551","723970","0.0-1.0-755.0-0.0","0","0","63865","","null","","","null","83","","","","","","","","","","","","","","","",""
"","ITI","","html-keyboard-response","552","724984","0.0-1.0-756.0","0","0","63865","","null","","","null","83","","","","","","","","","","","","","","","NaN",""
"","S1","","html-keyboard-response","553","725249","0.0-1.0-758.0","0","0","63865","","null","","","null","84","","","","","","","","","","","","","","","",""
"","ISI","","html-keyboard-response","554","727259","0.0-1.0-759.0","0","0","63865","","null","","","null","84","NaN","","","","","","","","","","","","","","",""
"","S2","","html-keyboard-response","555","727523","0.0-1.0-760.0","0","0","63865","","null","","","null","84","","NaN","","","","","","","","","","","","","",""
"","response","","html-keyboard-response","556","727866","0.0-1.0-761.0-0.0","0","0","63865","","336","","","75","84","","","2","84","training","adjacent","EF","5","6","L.jpg","R.jpg","1","1","1","",""
"","feedback","","html-keyboard-response","557","728881","0.0-1.0-762.0-0.0","0","0","63865","","null","","","null","84","","","","","","","","","","","","","","","",""
"","ITI","","html-keyboard-response","558","729892","0.0-1.0-765.0","0","0","63865","","null","","","null","84","","","","","","","","","","","","","","","NaN",""
"","S1","","html-keyboard-response","559","730149","0.0-1.0-767.0","0","0","63865","","null","","","null","85","","","","","","","","","","","","","","","",""
"","ISI","","html-keyboard-response","560","732158","0.0-1.0-768.0","0","0","63865","","null","","","null","85","NaN","","","","","","","","","","","","","","",""
"","S2","","html-keyboard-response","561","732426","0.0-1.0-769.0","0","0","63865","","null","","","null","85","","NaN","","","","","","","","","","","","","",""
"","response","","html-keyboard-response","562","733246","0.0-1.0-770.0-0.0","0","0","63865","","811","","","75","85","","","2","85","training","adjacent","AB","1","2","M.jpg","Q.jpg","1","1","1","",""
"","feedback","","html-keyboard-response","563","734259","0.0-1.0-771.0-0.0","0","0","63865","","null","","","null","85","","","","","","","","","","","","","","","",""
"","ITI","","html-keyboard-response","564","735274","0.0-1.0-774.0","0","0","63865","","null","","","null","85","","","","","","","","","","","","","","","NaN",""
"","S1","","html-keyboard-response","565","735535","0.0-1.0-776.0","0","0","63865","","null","","","null","86","","","","","","","","","","","","","","","",""
"","ISI","","html-keyboard-response","566","737542","0.0-1.0-777.0","0","0","63865","","null","","","null","86","NaN","","","","","","","","","","","","","","",""
"","S2","","html-keyboard-response","567","737801","0.0-1.0-778.0","0","0","63865","","null","","","null","86","","NaN","","","","","","","","","","","","","",""
"","response","","html-keyboard-response","568","738336","0.0-1.0-779.0-0.0","0","0","63865","","525","","","75","86","","","2","86","training","adjacent","FE","6","5","R.jpg","L.jpg","1","0","0","",""
"","feedback","","html-keyboard-response","569","739344","0.0-1.0-780.0-0.0","0","0","63865","","null","","","null","86","","","","","","","","","","","","","","","",""
"","time_out","","html-keyboard-response","570","741356","0.0-1.0-782.0-0.0","0","0","63865","","null","","","null","86","","","","","","","","","","","","","","","",""
"","ITI","","html-keyboard-response","571","742369","0.0-1.0-783.0","0","0","63865","","null","","","null","86","","","","","","","","","","","","","","","NaN",""
"","S1","","html-keyboard-response","572","742631","0.0-1.0-785.0","0","0","63865","","null","","","null","87","","","","","","","","","","","","","","","",""
"","ISI","","html-keyboard-response","573","744638","0.0-1.0-786.0","0","0","63865","","null","","","null","87","NaN","","","","","","","","","","","","","","",""
"","S2","","html-keyboard-response","574","744901","0.0-1.0-787.0","0","0","63865","","null","","","null","87","","NaN","","","","","","","","","","","","","",""
"","response","","html-keyboard-response","575","745413","0.0-1.0-788.0-0.0","0","0","63865","","502","","","68","87","","","2","87","training","adjacent","AB","1","2","M.jpg","Q.jpg","0","1","0","",""
"","feedback","","html-keyboard-response","576","746424","0.0-1.0-789.0-0.0","0","0","63865","","null","","","null","87","","","","","","","","","","","","","","","",""
"","time_out","","html-keyboard-response","577","748438","0.0-1.0-791.0-0.0","0","0","63865","","null","","","null","87","","","","","","","","","","","","","","","",""
"","ITI","","html-keyboard-response","578","749451","0.0-1.0-792.0","0","0","63865","","null","","","null","87","","","","","","","","","","","","","","","NaN",""
"","S1","","html-keyboard-response","579","749712","0.0-1.0-794.0","0","0","63865","","null","","","null","88","","","","","","","","","","","","","","","",""
"","ISI","","html-keyboard-response","580","751724","0.0-1.0-795.0","0","0","63865","","null","","","null","88","NaN","","","","","","","","","","","","","","",""
