"success","ttype","start_time","trial_type","trial_index","time_elapsed","internal_node_id","warning","missed_checkup","PID","view_history","rt","responses","repeat_instructions","key_press","index","keypress_isi","keypress_S2","block","trial_num","phase","group_type","pair_type","S1_stim","S2_stim","S1_img","S2_img","S1_chosen","S1_higher","accuracy","keypress_iti","total_bonus_tally"
"true","full_screen","d04062023hr1915","fullscreen","0","15207","0.0-0.0","0","0","36962","","","","","","","","","","","","","","","","","","","","","",""
"","instructions","","instructions","1","52911","0.0-1.0-0.0-0.0","0","0","36962","[{""page_index"":0,""viewing_time"":9230},{""page_index"":1,""viewing_time"":15561},{""page_index"":2,""viewing_time"":10824},{""page_index"":3,""viewing_time"":2088}]","37703","","","","","","","","","","","","","","","","","","","",""
"","comprehension_check","","survey-multi-choice","2","75887","0.0-1.0-0.0-1.0","0","0","36962","","22972","{""Q0"":""True"",""Q1"":""D"",""Q2"":""Only when the screen 'MAKE A CHOICE' is shown"",""Q3"":""Green mark"",""Q4"":""either D or K""}","1","","","","","","","","","","","","","","","","","",""
"","missed_instruction_checkup","","html-keyboard-response","3","78312","0.0-1.0-0.0-2.0-0.0","0","1","36962","","2421","","","32","","","","","","","","","","","","","","","","",""
"","instructions","","instructions","4","118898","0.0-1.0-0.1-0.1","0","0","36962","[{""page_index"":0,""viewing_time"":3742},{""page_index"":1,""viewing_time"":26082},{""page_index"":2,""viewing_time"":8864},{""page_index"":3,""viewing_time"":1897}]","40585","","","","","","","","","","","","","","","","","","","",""
"","comprehension_check","","survey-multi-choice","5","145434","0.0-1.0-0.1-1.1","0","0","36962","","26532","{""Q0"":""True"",""Q1"":""D"",""Q2"":""Once the second image appears and while the screen 'MAKE A CHOICE' is shown"",""Q3"":""Green mark"",""Q4"":""either D or K""}","0","","","","","","","","","","","","","","","","","",""
"","start_exp","","html-keyboard-response","6","454812","0.0-1.0-1.0","0","0","36962","","309377","","","32","","","","","","","","","","","","","","","","",""
"","S1","","html-keyboard-response","7","454965","0.0-1.0-2.0","0","0","36962","","null","","","null","0","","","","","","","","","","","","","","","",""
"","ISI","","html-keyboard-response","8","456967","0.0-1.0-3.0","0","0","36962","","null","","","null","0","NaN","","","","","","","","","","","","","","",""
"","S2","","html-keyboard-response","9","457120","0.0-1.0-4.0","0","0","36962","","null","","","null","0","","NaN","","","","","","","","","","","","","",""
"","response","","html-keyboard-response","10","458035","0.0-1.0-5.0-0.0","0","0","36962","","914","","","68","0","","","1","0","training","adjacent","CD","3","4","L.jpg","M.jpg","1","1","1","",""
"","feedback","","html-keyboard-response","11","459038","0.0-1.0-6.0-0.0","0","0","36962","","null","","","null","0","","","","","","","","","","","","","","","",""
"","ITI","","html-keyboard-response","12","460041","0.0-1.0-9.0","0","0","36962","","null","","","null","0","","","","","","","","","","","","","","","NaN",""
"","S1","","html-keyboard-response","13","460193","0.0-1.0-11.0","0","0","36962","","null","","","null","1","","","","","","","","","","","","","","","",""
"","ISI","","html-keyboard-response","14","462195","0.0-1.0-12.0","0","0","36962","","null","","","null","1","NaN","","","","","","","","","","","","","","",""
"","S2","","html-keyboard-response","15","462348","0.0-1.0-13.0","0","0","36962","","null","","","null","1","","NaN","","","","","","","","","","","","","",""
"","response","","html-keyboard-response","16","463107","0.0-1.0-14.0-0.0","0","0","36962","","758","","","75","1","","","1","1","training","adjacent","DE","4","5","M.jpg","O.jpg","0","1","0","",""
"","feedback","","html-keyboard-response","17","464109","0.0-1.0-15.0-0.0","0","0","36962","","null","","","null","1","","","","","","","","","","","","","","","",""
"","time_out","","html-keyboard-response","18","466110","0.0-1.0-17.0-0.0","0","0","36962","","null","","","null","1","","","","","","","","","","","","","","","",""
"","ITI","","html-keyboard-response","19","467112","0.0-1.0-18.0","0","0","36962","","null","","","null","1","","","","","","","","","","","","","","","NaN",""
"","S1","","html-keyboard-response","20","467264","0.0-1.0-20.0","0","0","36962","","null","","","null","2","","","","","","","","","","","","","","","",""
"","ISI","","html-keyboard-response","21","469267","0.0-1.0-21.0","0","0","36962","","null","","","null","2","NaN","","","","","","","","","","","","","","",""
"","S2","","html-keyboard-response","22","469418","0.0-1.0-22.0","0","0","36962","","null","","","null","2","","NaN","","","","","","","","","","","","","",""
"","response","","html-keyboard-response","23","469731","0.0-1.0-23.0-0.0","0","0","36962","","311","","","75","2","","","1","2","training","adjacent","FG","6","7","P.jpg","N.jpg","0","1","0","",""
"","feedback","","html-keyboard-response","24","470733","0.0-1.0-24.0-0.0","0","0","36962","","null","","","null","2","","","","","","","","","","","","","","","",""
"","time_out","","html-keyboard-response","25","472735","0.0-1.0-26.0-0.0","0","0","36962","","null","","","null","2","","","","","","","","","","","","","","","",""
"","ITI","","html-keyboard-response","26","473744","0.0-1.0-27.0","0","0","36962","","null","","","null","2","","","","","","","","","","","","","","","NaN",""
"","S1","","html-keyboard-response","27","473897","0.0-1.0-29.0","0","0","36962","","null","","","null","3","","","","","","","","","","","","","","","",""
"","ISI","","html-keyboard-response","28","475899","0.0-1.0-30.0","0","0","36962","","null","","","null","3","NaN","","","","","","","","","","","","","","",""
"","S2","","html-keyboard-response","29","476051","0.0-1.0-31.0","0","0","36962","","null","","","null","3","","NaN","","","","","","","","","","","","","",""
"","response","","html-keyboard-response","30","476307","0.0-1.0-32.0-0.0","0","0","36962","","255","","","68","3","","","1","3","training","adjacent","EF","5","6","O.jpg","P.jpg","1","1","1","",""
"","feedback","","html-keyboard-response","31","477309","0.0-1.0-33.0-0.0","0","0","36962","","null","","","null","3","","","","","","","","","","","","","","","",""
"","ITI","","html-keyboard-response","32","478310","0.0-1.0-36.0","0","0","36962","","null","","","null","3","","","","","","","","","","","","","","","NaN",""
"","S1","","html-keyboard-response","33","478463","0.0-1.0-38.0","0","0","36962","","null","","","null","4","","","","","","","","","","","","","","","",""
"","ISI","","html-keyboard-response","34","480465","0.0-1.0-39.0","0","0","36962","","null","","","null","4","NaN","","","","","","","","","","","","","","",""
"","S2","","html-keyboard-response","35","480618","0.0-1.0-40.0","0","0","36962","","null","","","null","4","","NaN","","","","","","","","","","","","","",""
"","response","","html-keyboard-response","36","481179","0.0-1.0-41.0-0.0","0","0","36962","","560","","","75","4","","","1","4","training","adjacent","BA","2","1","R.jpg","Q.jpg","0","0","1","",""
"","feedback","","html-keyboard-response","37","482181","0.0-1.0-42.0-0.0","0","0","36962","","null","","","null","4","","","","","","","","","","","","","","","",""
"","ITI","","html-keyboard-response","38","483183","0.0-1.0-45.0","0","0","36962","","null","","","null","4","","","","","","","","","","","","","","","NaN",""
"","S1","","html-keyboard-response","39","483336","0.0-1.0-47.0","0","0","36962","","null","","","null","5","","","","","","","","","","","","","","","",""
"","ISI","","html-keyboard-response","40","485338","0.0-1.0-48.0","0","0","36962","","null","","","null","5","NaN","","","","","","","","","","","","","","",""
"","S2","","html-keyboard-response","41","485490","0.0-1.0-49.0","0","0","36962","","null","","","null","5","","NaN","","","","","","","","","","","","","",""
"","response","","html-keyboard-response","42","485651","0.0-1.0-50.0-0.0","0","0","36962","","160","","","68","5","","","1","5","training","adjacent","EF","5","6","O.jpg","P.jpg","1","1","1","",""
"","feedback","","html-keyboard-response","43","486653","0.0-1.0-51.0-0.0","0","0","36962","","null","","","null","5","","","","","","","","","","","","","","","",""
"","ITI","","html-keyboard-response","44","487656","0.0-1.0-54.0","0","0","36962","","null","","","null","5","","","","","","","","","","","","","","","NaN",""
"","S1","","html-keyboard-response","45","487807","0.0-1.0-56.0","0","0","36962","","null","","","null","6","","","","","","","","","","","","","","","",""
"","ISI","","html-keyboard-response","46","489808","0.0-1.0-57.0","0","0","36962","","null","","","null","6","NaN","","","","","","","","","","","","","","",""
"","S2","","html-keyboard-response","47","489960","0.0-1.0-58.0","0","0","36962","","null","","","null","6","","NaN","","","","","","","","","","","","","",""
"","response","","html-keyboard-response","48","490299","0.0-1.0-59.0-0.0","0","0","36962","","337","","","68","6","","","1","6","training","adjacent","DE","4","5","M.jpg","O.jpg","1","1","1","",""
"","feedback","","html-keyboard-response","49","491301","0.0-1.0-60.0-0.0","0","0","36962","","null","","","null","6","","","","","","","","","","","","","","","",""
"","ITI","","html-keyboard-response","50","492303","0.0-1.0-63.0","0","0","36962","","null","","","null","6","","","","","","","","","","","","","","","NaN",""
"","S1","","html-keyboard-response","51","492455","0.0-1.0-65.0","0","0","36962","","null","","","null","7","","","","","","","","","","","","","","","",""
"","ISI","","html-keyboard-response","52","494457","0.0-1.0-66.0","0","0","36962","","null","","","null","7","NaN","","","","","","","","","","","","","","",""
"","S2","","html-keyboard-response","53","494609","0.0-1.0-67.0","0","0","36962","","null","","","null","7","","NaN","","","","","","","","","","","","","",""
"","response","","html-keyboard-response","54","495091","0.0-1.0-68.0-0.0","0","0","36962","","481","","","75","7","","","1","7","training","adjacent","GF","7","6","N.jpg","P.jpg","0","0","1","",""
"","feedback","","html-keyboard-response","55","496093","0.0-1.0-69.0-0.0","0","0","36962","","null","","","null","7","","","","","","","","","","","","","","","",""
"","ITI","","html-keyboard-response","56","497096","0.0-1.0-72.0","0","0","36962","","null","","","null","7","","","","","","","","","","","","","","","NaN",""
"","S1","","html-keyboard-response","57","497249","0.0-1.0-74.0","0","0","36962","","null","","","null","8","","","","","","","","","","","","","","","",""
"","ISI","","html-keyboard-response","58","499251","0.0-1.0-75.0","0","0","36962","","null","","","null","8","NaN","","","","","","","","","","","","","","",""
"","S2","","html-keyboard-response","59","499402","0.0-1.0-76.0","0","0","36962","","null","","","null","8","","NaN","","","","","","","","","","","","","",""
"","response","","html-keyboard-response","60","499667","0.0-1.0-77.0-0.0","0","0","36962","","263","","","68","8","","","1","8","training","adjacent","DE","4","5","M.jpg","O.jpg","1","1","1","",""
"","feedback","","html-keyboard-response","61","500669","0.0-1.0-78.0-0.0","0","0","36962","","null","","","null","8","","","","","","","","","","","","","","","",""
"","ITI","","html-keyboard-response","62","501671","0.0-1.0-81.0","0","0","36962","","null","","","null","8","","","","","","","","","","","","","","","NaN",""
"","S1","","html-keyboard-response","63","501823","0.0-1.0-83.0","0","0","36962","","null","","","null","9","","","","","","","","","","","","","","","",""
"","ISI","","html-keyboard-response","64","503825","0.0-1.0-84.0","0","0","36962","","null","","","null","9","NaN","","","","","","","","","","","","","","",""
"","S2","","html-keyboard-response","65","503976","0.0-1.0-85.0","0","0","36962","","null","","","null","9","","NaN","","","","","","","","","","","","","",""
"","response","","html-keyboard-response","66","504475","0.0-1.0-86.0-0.0","0","0","36962","","497","","","68","9","","","1","9","training","adjacent","BA","2","1","R.jpg","Q.jpg","1","0","0","",""
"","feedback","","html-keyboard-response","67","505488","0.0-1.0-87.0-0.0","0","0","36962","","null","","","null","9","","","","","","","","","","","","","","","",""
"","time_out","","html-keyboard-response","68","507490","0.0-1.0-89.0-0.0","0","0","36962","","null","","","null","9","","","","","","","","","","","","","","","",""
"","ITI","","html-keyboard-response","69","508492","0.0-1.0-90.0","0","0","36962","","null","","","null","9","","","","","","","","","","","","","","","NaN",""
"","S1","","html-keyboard-response","70","508644","0.0-1.0-92.0","0","0","36962","","null","","","null","10","","","","","","","","","","","","","","","",""
"","ISI","","html-keyboard-response","71","510647","0.0-1.0-93.0","0","0","36962","","null","","","null","10","NaN","","","","","","","","","","","","","","",""
"","S2","","html-keyboard-response","72","510799","0.0-1.0-94.0","0","0","36962","","null","","","null","10","","NaN","","","","","","","","","","","","","",""
"","response","","html-keyboard-response","73","511196","0.0-1.0-95.0-0.0","0","0","36962","","396","","","68","10","","","1","10","training","adjacent","DC","4","3","M.jpg","L.jpg","1","0","0","",""
"","feedback","","html-keyboard-response","74","512199","0.0-1.0-96.0-0.0","0","0","36962","","null","","","null","10","","","","","","","","","","","","","","","",""
"","time_out","","html-keyboard-response","75","514201","0.0-1.0-98.0-0.0","0","0","36962","","null","","","null","10","","","","","","","","","","","","","","","",""
"","ITI","","html-keyboard-response","76","515203","0.0-1.0-99.0","0","0","36962","","null","","","null","10","","","","","","","","","","","","","","","NaN",""
"","S1","","html-keyboard-response","77","515356","0.0-1.0-101.0","0","0","36962","","null","","","null","11","","","","","","","","","","","","","","","",""
"","ISI","","html-keyboard-response","78","517358","0.0-1.0-102.0","0","0","36962","","null","","","null","11","NaN","","","","","","","","","","","","","","",""
"","S2","","html-keyboard-response","79","517510","0.0-1.0-103.0","0","0","36962","","null","","","null","11","","NaN","","","","","","","","","","","","","",""
"","response","","html-keyboard-response","80","517852","0.0-1.0-104.0-0.0","0","0","36962","","340","","","75","11","","","1","11","training","adjacent","DC","4","3","M.jpg","L.jpg","0","0","1","",""
"","feedback","","html-keyboard-response","81","518855","0.0-1.0-105.0-0.0","0","0","36962","","null","","","null","11","","","","","","","","","","","","","","","",""
"","ITI","","html-keyboard-response","82","519859","0.0-1.0-108.0","0","0","36962","","null","","","null","11","","","","","","","","","","","","","","","NaN",""
"","S1","","html-keyboard-response","83","520011","0.0-1.0-110.0","0","0","36962","","null","","","null","12","","","","","","","","","","","","","","","",""
"","ISI","","html-keyboard-response","84","522012","0.0-1.0-111.0","0","0","36962","","null","","","null","12","NaN","","","","","","","","","","","","","","",""
"","S2","","html-keyboard-response","85","522165","0.0-1.0-112.0","0","0","36962","","null","","","null","12","","NaN","","","","","","","","","","","","","",""
"","response","","html-keyboard-response","86","522892","0.0-1.0-113.0-0.0","0","0","36962","","726","","","68","12","","","1","12","training","adjacent","CB","3","2","L.jpg","R.jpg","1","0","0","",""
"","feedback","","html-keyboard-response","87","523894","0.0-1.0-114.0-0.0","0","0","36962","","null","","","null","12","","","","","","","","","","","","","","","",""
"","time_out","","html-keyboard-response","88","525896","0.0-1.0-116.0-0.0","0","0","36962","","null","","","null","12","","","","","","","","","","","","","","","",""
"","ITI","","html-keyboard-response","89","526898","0.0-1.0-117.0","0","0","36962","","null","","","null","12","","","","","","","","","","","","","","","NaN",""
"","S1","","html-keyboard-response","90","527050","0.0-1.0-119.0","0","0","36962","","null","","","null","13","","","","","","","","","","","","","","","",""
"","ISI","","html-keyboard-response","91","529052","0.0-1.0-120.0","0","0","36962","","null","","","null","13","NaN","","","","","","","","","","","","","","",""
"","S2","","html-keyboard-response","92","529204","0.0-1.0-121.0","0","0","36962","","null","","","null","13","","NaN","","","","","","","","","","","","","",""
"","response","","html-keyboard-response","93","529734","0.0-1.0-122.0-0.0","0","0","36962","","528","","","75","13","","","1","13","training","adjacent","FG","6","7","P.jpg","N.jpg","0","1","0","",""
"","feedback","","html-keyboard-response","94","530737","0.0-1.0-123.0-0.0","0","0","36962","","null","","","null","13","","","","","","","","","","","","","","","",""
"","time_out","","html-keyboard-response","95","532739","0.0-1.0-125.0-0.0","0","0","36962","","null","","","null","13","","","","","","","","","","","","","","","",""
"","ITI","","html-keyboard-response","96","533741","0.0-1.0-126.0","0","0","36962","","null","","","null","13","","","","","","","","","","","","","","","NaN",""
"","S1","","html-keyboard-response","97","533893","0.0-1.0-128.0","0","0","36962","","null","","","null","14","","","","","","","","","","","","","","","",""
"","ISI","","html-keyboard-response","98","535896","0.0-1.0-129.0","0","0","36962","","null","","","null","14","NaN","","","","","","","","","","","","","","",""
"","S2","","html-keyboard-response","99","536049","0.0-1.0-130.0","0","0","36962","","null","","","null","14","","NaN","","","","","","","","","","","","","",""
"","response","","html-keyboard-response","100","536220","0.0-1.0-131.0-0.0","0","0","36962","","170","","","68","14","","","1","14","training","adjacent","CB","3","2","L.jpg","R.jpg","1","0","0","",""
"","feedback","","html-keyboard-response","101","537222","0.0-1.0-132.0-0.0","0","0","36962","","null","","","null","14","","","","","","","","","","","","","","","",""
"","time_out","","html-keyboard-response","102","539224","0.0-1.0-134.0-0.0","0","0","36962","","null","","","null","14","","","","","","","","","","","","","","","",""
"","ITI","","html-keyboard-response","103","540226","0.0-1.0-135.0","0","0","36962","","null","","","null","14","","","","","","","","","","","","","","","NaN",""
"","S1","","html-keyboard-response","104","540378","0.0-1.0-137.0","0","0","36962","","null","","","null","15","","","","","","","","","","","","","","","",""
"","ISI","","html-keyboard-response","105","542380","0.0-1.0-138.0","0","0","36962","","145","","","75","15","k","","","","","","","","","","","","","","",""
"","S2","","html-keyboard-response","106","542533","0.0-1.0-139.0","0","0","36962","","null","","","null","15","","NaN","","","","","","","","","","","","","",""
"","response","","html-keyboard-response","107","542796","0.0-1.0-140.0-0.0","0","0","36962","","262","","","75","15","","","1","15","training","adjacent","BC","2","3","R.jpg","L.jpg","0","1","0","",""
"","feedback","","html-keyboard-response","108","543799","0.0-1.0-141.0-0.0","0","0","36962","","null","","","null","15","","","","","","","","","","","","","","","",""
"","time_out","","html-keyboard-response","109","545800","0.0-1.0-143.0-0.0","0","0","36962","","null","","","null","15","","","","","","","","","","","","","","","",""
"","ITI","","html-keyboard-response","110","546803","0.0-1.0-144.0","0","0","36962","","null","","","null","15","","","","","","","","","","","","","","","NaN",""
"","S1","","html-keyboard-response","111","546955","0.0-1.0-146.0","0","0","36962","","null","","","null","16","","","","","","","","","","","","","","","",""
"","ISI","","html-keyboard-response","112","548956","0.0-1.0-147.0","0","0","36962","","null","","","null","16","NaN","","","","","","","","","","","","","","",""
"","S2","","html-keyboard-response","113","549109","0.0-1.0-148.0","0","0","36962","","null","","","null","16","","NaN","","","","","","","","","","","","","",""
"","response","","html-keyboard-response","114","549468","0.0-1.0-149.0-0.0","0","0","36962","","358","","","68","16","","","1","16","training","adjacent","AB","1","2","Q.jpg","R.jpg","1","1","1","",""
"","feedback","","html-keyboard-response","115","550470","0.0-1.0-150.0-0.0","0","0","36962","","null","","","null","16","","","","","","","","","","","","","","","",""
"","ITI","","html-keyboard-response","116","551473","0.0-1.0-153.0","0","0","36962","","null","","","null","16","","","","","","","","","","","","","","","NaN",""
"","S1","","html-keyboard-response","117","551625","0.0-1.0-155.0","0","0","36962","","null","","","null","17","","","","","","","","","","","","","","","",""
"","ISI","","html-keyboard-response","118","553627","0.0-1.0-156.0","0","0","36962","","null","","","null","17","NaN","","","","","","","","","","","","","","",""
"","S2","","html-keyboard-response","119","553780","0.0-1.0-157.0","0","0","36962","","null","","","null","17","","NaN","","","","","","","","","","","","","",""
"","response","","html-keyboard-response","120","554020","0.0-1.0-158.0-0.0","0","0","36962","","239","","","75","17","","","1","17","training","adjacent","DC","4","3","M.jpg","L.jpg","0","0","1","",""
"","feedback","","html-keyboard-response","121","555022","0.0-1.0-159.0-0.0","0","0","36962","","null","","","null","17","","","","","","","","","","","","","","","",""
"","ITI","","html-keyboard-response","122","556025","0.0-1.0-162.0","0","0","36962","","null","","","null","17","","","","","","","","","","","","","","","NaN",""
"","S1","","html-keyboard-response","123","556178","0.0-1.0-164.0","0","0","36962","","null","","","null","18","","","","","","","","","","","","","","","",""
"","ISI","","html-keyboard-response","124","558180","0.0-1.0-165.0","0","0","36962","","null","","","null","18","NaN","","","","","","","","","","","","","","",""
"","S2","","html-keyboard-response","125","558332","0.0-1.0-166.0","0","0","36962","","null","","","null","18","","NaN","","","","","","","","","","","","","",""
"","response","","html-keyboard-response","126","558788","0.0-1.0-167.0-0.0","0","0","36962","","455","","","68","18","","","1","18","training","adjacent","GF","7","6","N.jpg","P.jpg","1","0","0","",""
"","feedback","","html-keyboard-response","127","559791","0.0-1.0-168.0-0.0","0","0","36962","","null","","","null","18","","","","","","","","","","","","","","","",""
"","time_out","","html-keyboard-response","128","561793","0.0-1.0-170.0-0.0","0","0","36962","","null","","","null","18","","","","","","","","","","","","","","","",""
"","ITI","","html-keyboard-response","129","562796","0.0-1.0-171.0","0","0","36962","","null","","","null","18","","","","","","","","","","","","","","","NaN",""
"","S1","","html-keyboard-response","130","562948","0.0-1.0-173.0","0","0","36962","","null","","","null","19","","","","","","","","","","","","","","","",""
"","ISI","","html-keyboard-response","131","564950","0.0-1.0-174.0","0","0","36962","","null","","","null","19","NaN","","","","","","","","","","","","","","",""
"","S2","","html-keyboard-response","132","565102","0.0-1.0-175.0","0","0","36962","","null","","","null","19","","NaN","","","","","","","","","","","","","",""
"","response","","html-keyboard-response","133","565332","0.0-1.0-176.0-0.0","0","0","36962","","229","","","75","19","","","1","19","training","adjacent","AB","1","2","Q.jpg","R.jpg","0","1","0","",""
"","feedback","","html-keyboard-response","134","566334","0.0-1.0-177.0-0.0","0","0","36962","","null","","","null","19","","","","","","","","","","","","","","","",""
"","time_out","","html-keyboard-response","135","568336","0.0-1.0-179.0-0.0","0","0","36962","","null","","","null","19","","","","","","","","","","","","","","","",""
"","ITI","","html-keyboard-response","136","569338","0.0-1.0-180.0","0","0","36962","","null","","","null","19","","","","","","","","","","","","","","","NaN",""
"","S1","","html-keyboard-response","137","569490","0.0-1.0-182.0","0","0","36962","","null","","","null","20","","","","","","","","","","","","","","","",""
"","ISI","","html-keyboard-response","138","571494","0.0-1.0-183.0","0","0","36962","","null","","","null","20","NaN","","","","","","","","","","","","","","",""
"","S2","","html-keyboard-response","139","571647","0.0-1.0-184.0","0","0","36962","","null","","","null","20","","NaN","","","","","","","","","","","","","",""
"","response","","html-keyboard-response","140","572894","0.0-1.0-185.0-0.0","0","0","36962","","1246","","","68","20","","","1","20","training","adjacent","BC","2","3","R.jpg","L.jpg","1","1","1","",""
"","feedback","","html-keyboard-response","141","573896","0.0-1.0-186.0-0.0","0","0","36962","","null","","","null","20","","","","","","","","","","","","","","","",""
"","ITI","","html-keyboard-response","142","574899","0.0-1.0-189.0","0","0","36962","","null","","","null","20","","","","","","","","","","","","","","","NaN",""
"","S1","","html-keyboard-response","143","575052","0.0-1.0-191.0","0","0","36962","","null","","","null","21","","","","","","","","","","","","","","","",""
"","ISI","","html-keyboard-response","144","577054","0.0-1.0-192.0","0","0","36962","","null","","","null","21","NaN","","","","","","","","","","","","","","",""
"","S2","","html-keyboard-response","145","577205","0.0-1.0-193.0","0","0","36962","","null","","","null","21","","NaN","","","","","","","","","","","","","",""
"","response","","html-keyboard-response","146","577750","0.0-1.0-194.0-0.0","0","0","36962","","543","","","68","21","","","1","21","training","adjacent","FG","6","7","P.jpg","N.jpg","1","1","1","",""
"","feedback","","html-keyboard-response","147","578752","0.0-1.0-195.0-0.0","0","0","36962","","null","","","null","21","","","","","","","","","","","","","","","",""
"","ITI","","html-keyboard-response","148","579754","0.0-1.0-198.0","0","0","36962","","null","","","null","21","","","","","","","","","","","","","","","NaN",""
"","S1","","html-keyboard-response","149","579907","0.0-1.0-200.0","0","0","36962","","null","","","null","22","","","","","","","","","","","","","","","",""
"","ISI","","html-keyboard-response","150","581908","0.0-1.0-201.0","0","0","36962","","null","","","null","22","NaN","","","","","","","","","","","","","","",""
"","S2","","html-keyboard-response","151","582061","0.0-1.0-202.0","0","0","36962","","null","","","null","22","","NaN","","","","","","","","","","","","","",""
"","response","","html-keyboard-response","152","582375","0.0-1.0-203.0-0.0","0","0","36962","","313","","","75","22","","","1","22","training","adjacent","CB","3","2","L.jpg","R.jpg","0","0","1","",""
"","feedback","","html-keyboard-response","153","583378","0.0-1.0-204.0-0.0","0","0","36962","","null","","","null","22","","","","","","","","","","","","","","","",""
"","ITI","","html-keyboard-response","154","584380","0.0-1.0-207.0","0","0","36962","","null","","","null","22","","","","","","","","","","","","","","","NaN",""
"","S1","","html-keyboard-response","155","584533","0.0-1.0-209.0","0","0","36962","","null","","","null","23","","","","","","","","","","","","","","","",""
"","ISI","","html-keyboard-response","156","586534","0.0-1.0-210.0","0","0","36962","","null","","","null","23","NaN","","","","","","","","","","","","","","",""
"","S2","","html-keyboard-response","157","586687","0.0-1.0-211.0","0","0","36962","","null","","","null","23","","NaN","","","","","","","","","","","","","",""
"","response","","html-keyboard-response","158","587206","0.0-1.0-212.0-0.0","0","0","36962","","518","","","75","23","","","1","23","training","adjacent","ED","5","4","O.jpg","M.jpg","0","0","1","",""
"","feedback","","html-keyboard-response","159","588208","0.0-1.0-213.0-0.0","0","0","36962","","null","","","null","23","","","","","","","","","","","","","","","",""
"","ITI","","html-keyboard-response","160","589210","0.0-1.0-216.0","0","0","36962","","null","","","null","23","","","","","","","","","","","","","","","NaN",""
"","S1","","html-keyboard-response","161","589363","0.0-1.0-218.0","0","0","36962","","null","","","null","24","","","","","","","","","","","","","","","",""
"","ISI","","html-keyboard-response","162","591365","0.0-1.0-219.0","0","0","36962","","null","","","null","24","NaN","","","","","","","","","","","","","","",""
"","S2","","html-keyboard-response","163","591517","0.0-1.0-220.0","0","0","36962","","null","","","null","24","","NaN","","","","","","","","","","","","","",""
"","response","","html-keyboard-response","164","592070","0.0-1.0-221.0-0.0","0","0","36962","","552","","","68","24","","","1","24","training","adjacent","AB","1","2","Q.jpg","R.jpg","1","1","1","",""
"","feedback","","html-keyboard-response","165","593072","0.0-1.0-222.0-0.0","0","0","36962","","null","","","null","24","","","","","","","","","","","","","","","",""
"","ITI","","html-keyboard-response","166","594089","0.0-1.0-225.0","0","0","36962","","null","","","null","24","","","","","","","","","","","","","","","NaN",""
"","S1","","html-keyboard-response","167","594241","0.0-1.0-227.0","0","0","36962","","null","","","null","25","","","","","","","","","","","","","","","",""
"","ISI","","html-keyboard-response","168","596243","0.0-1.0-228.0","0","0","36962","","null","","","null","25","NaN","","","","","","","","","","","","","","",""
"","S2","","html-keyboard-response","169","596396","0.0-1.0-229.0","0","0","36962","","null","","","null","25","","NaN","","","","","","","","","","","","","",""
"","response","","html-keyboard-response","170","596902","0.0-1.0-230.0-0.0","0","0","36962","","505","","","75","25","","","1","25","training","adjacent","FE","6","5","P.jpg","O.jpg","0","0","1","",""
"","feedback","","html-keyboard-response","171","597904","0.0-1.0-231.0-0.0","0","0","36962","","null","","","null","25","","","","","","","","","","","","","","","",""
"","ITI","","html-keyboard-response","172","598906","0.0-1.0-234.0","0","0","36962","","null","","","null","25","","","","","","","","","","","","","","","NaN",""
"","S1","","html-keyboard-response","173","599066","0.0-1.0-236.0","0","0","36962","","null","","","null","26","","","","","","","","","","","","","","","",""
"","ISI","","html-keyboard-response","174","601068","0.0-1.0-237.0","0","0","36962","","null","","","null","26","NaN","","","","","","","","","","","","","","",""
"","S2","","html-keyboard-response","175","601220","0.0-1.0-238.0","0","0","36962","","null","","","null","26","","NaN","","","","","","","","","","","","","",""
"","response","","html-keyboard-response","176","601701","0.0-1.0-239.0-0.0","0","0","36962","","479","","","75","26","","","1","26","training","adjacent","ED","5","4","O.jpg","M.jpg","0","0","1","",""
"","feedback","","html-keyboard-response","177","602704","0.0-1.0-240.0-0.0","0","0","36962","","null","","","null","26","","","","","","","","","","","","","","","",""
"","ITI","","html-keyboard-response","178","603705","0.0-1.0-243.0","0","0","36962","","null","","","null","26","","","","","","","","","","","","","","","NaN",""
"","S1","","html-keyboard-response","179","603857","0.0-1.0-245.0","0","0","36962","","null","","","null","27","","","","","","","","","","","","","","","",""
"","ISI","","html-keyboard-response","180","605860","0.0-1.0-246.0","0","0","36962","","null","","","null","27","NaN","","","","","","","","","","","","","","",""
"","S2","","html-keyboard-response","181","606012","0.0-1.0-247.0","0","0","36962","","null","","","null","27","","NaN","","","","","","","","","","","","","",""
"","response","","html-keyboard-response","182","606262","0.0-1.0-248.0-0.0","0","0","36962","","249","","","75","27","","","1","27","training","adjacent","ED","5","4","O.jpg","M.jpg","0","0","1","",""
"","feedback","","html-keyboard-response","183","607265","0.0-1.0-249.0-0.0","0","0","36962","","null","","","null","27","","","","","","","","","","","","","","","",""
"","ITI","","html-keyboard-response","184","608267","0.0-1.0-252.0","0","0","36962","","null","","","null","27","","","","","","","","","","","","","","","NaN",""
"","S1","","html-keyboard-response","185","608419","0.0-1.0-254.0","0","0","36962","","null","","","null","28","","","","","","","","","","","","","","","",""
"","ISI","","html-keyboard-response","186","610420","0.0-1.0-255.0","0","0","36962","","null","","","null","28","NaN","","","","","","","","","","","","","","",""
"","S2","","html-keyboard-response","187","610573","0.0-1.0-256.0","0","0","36962","","null","","","null","28","","NaN","","","","","","","","","","","","","",""
"","response","","html-keyboard-response","188","610959","0.0-1.0-257.0-0.0","0","0","36962","","385","","","68","28","","","1","28","training","adjacent","GF","7","6","N.jpg","P.jpg","1","0","0","",""
"","feedback","","html-keyboard-response","189","611962","0.0-1.0-258.0-0.0","0","0","36962","","null","","","null","28","","","","","","","","","","","","","","","",""
"","time_out","","html-keyboard-response","190","613964","0.0-1.0-260.0-0.0","0","0","36962","","null","","","null","28","","","","","","","","","","","","","","","",""
"","ITI","","html-keyboard-response","191","614966","0.0-1.0-261.0","0","0","36962","","null","","","null","28","","","","","","","","","","","","","","","NaN",""
"","S1","","html-keyboard-response","192","615119","0.0-1.0-263.0","0","0","36962","","null","","","null","29","","","","","","","","","","","","","","","",""
"","ISI","","html-keyboard-response","193","617121","0.0-1.0-264.0","0","0","36962","","null","","","null","29","NaN","","","","","","","","","","","","","","",""
"","S2","","html-keyboard-response","194","617273","0.0-1.0-265.0","0","0","36962","","null","","","null","29","","NaN","","","","","","","","","","","","","",""
"","response","","html-keyboard-response","195","617694","0.0-1.0-266.0-0.0","0","0","36962","","420","","","75","29","","","1","29","training","adjacent","FE","6","5","P.jpg","O.jpg","0","0","1","",""
"","feedback","","html-keyboard-response","196","618696","0.0-1.0-267.0-0.0","0","0","36962","","null","","","null","29","","","","","","","","","","","","","","","",""
"","ITI","","html-keyboard-response","197","619700","0.0-1.0-270.0","0","0","36962","","null","","","null","29","","","","","","","","","","","","","","","NaN",""
"","S1","","html-keyboard-response","198","619852","0.0-1.0-272.0","0","0","36962","","null","","","null","30","","","","","","","","","","","","","","","",""
"","ISI","","html-keyboard-response","199","621854","0.0-1.0-273.0","0","0","36962","","null","","","null","30","NaN","","","","","","","","","","","","","","",""
"","S2","","html-keyboard-response","200","622006","0.0-1.0-274.0","0","0","36962","","null","","","null","30","","NaN","","","","","","","","","","","","","",""
"","response","","html-keyboard-response","201","622510","0.0-1.0-275.0-0.0","0","0","36962","","503","","","75","30","","","1","30","training","adjacent","EF","5","6","O.jpg","P.jpg","0","1","0","",""
"","feedback","","html-keyboard-response","202","623511","0.0-1.0-276.0-0.0","0","0","36962","","null","","","null","30","","","","","","","","","","","","","","","",""
"","time_out","","html-keyboard-response","203","625514","0.0-1.0-278.0-0.0","0","0","36962","","null","","","null","30","","","","","","","","","","","","","","","",""
"","ITI","","html-keyboard-response","204","626516","0.0-1.0-279.0","0","0","36962","","null","","","null","30","","","","","","","","","","","","","","","NaN",""
"","S1","","html-keyboard-response","205","626668","0.0-1.0-281.0","0","0","36962","","null","","","null","31","","","","","","","","","","","","","","","",""
"","ISI","","html-keyboard-response","206","628670","0.0-1.0-282.0","0","0","36962","","null","","","null","31","NaN","","","","","","","","","","","","","","",""
"","S2","","html-keyboard-response","207","628822","0.0-1.0-283.0","0","0","36962","","null","","","null","31","","NaN","","","","","","","","","","","","","",""
"","response","","html-keyboard-response","208","629406","0.0-1.0-284.0-0.0","0","0","36962","","583","","","68","31","","","1","31","training","adjacent","BA","2","1","R.jpg","Q.jpg","1","0","0","",""
"","feedback","","html-keyboard-response","209","630408","0.0-1.0-285.0-0.0","0","0","36962","","null","","","null","31","","","","","","","","","","","","","","","",""
"","time_out","","html-keyboard-response","210","632410","0.0-1.0-287.0-0.0","0","0","36962","","null","","","null","31","","","","","","","","","","","","","","","",""
"","ITI","","html-keyboard-response","211","633412","0.0-1.0-288.0","0","0","36962","","null","","","null","31","","","","","","","","","","","","","","","NaN",""
"","S1","","html-keyboard-response","212","633565","0.0-1.0-290.0","0","0","36962","","null","","","null","32","","","","","","","","","","","","","","","",""
"","ISI","","html-keyboard-response","213","635567","0.0-1.0-291.0","0","0","36962","","null","","","null","32","NaN","","","","","","","","","","","","","","",""
"","S2","","html-keyboard-response","214","635732","0.0-1.0-292.0","0","0","36962","","null","","","null","32","","NaN","","","","","","","","","","","","","",""
"","response","","html-keyboard-response","215","635935","0.0-1.0-293.0-0.0","0","0","36962","","201","","","75","32","","","1","32","training","adjacent","CD","3","4","L.jpg","M.jpg","0","1","0","",""
"","feedback","","html-keyboard-response","216","636937","0.0-1.0-294.0-0.0","0","0","36962","","null","","","null","32","","","","","","","","","","","","","","","",""
"","time_out","","html-keyboard-response","217","638940","0.0-1.0-296.0-0.0","0","0","36962","","null","","","null","32","","","","","","","","","","","","","","","",""
"","ITI","","html-keyboard-response","218","639942","0.0-1.0-297.0","0","0","36962","","null","","","null","32","","","","","","","","","","","","","","","NaN",""
"","S1","","html-keyboard-response","219","640094","0.0-1.0-299.0","0","0","36962","","null","","","null","33","","","","","","","","","","","","","","","",""
"","ISI","","html-keyboard-response","220","642096","0.0-1.0-300.0","0","0","36962","","232","","","75","33","k","","","","","","","","","","","","","","",""
"","S2","","html-keyboard-response","221","642247","0.0-1.0-301.0","0","0","36962","","null","","","null","33","","NaN","","","","","","","","","","","","","",""
"","response","","html-keyboard-response","222","642342","0.0-1.0-302.0-0.0","0","0","36962","","93","","","75","33","","","1","33","training","adjacent","CD","3","4","L.jpg","M.jpg","0","1","0","",""
"","feedback","","html-keyboard-response","223","643344","0.0-1.0-303.0-0.0","0","0","36962","","null","","","null","33","","","","","","","","","","","","","","","",""
"","time_out","","html-keyboard-response","224","645346","0.0-1.0-305.0-0.0","0","0","36962","","null","","","null","33","","","","","","","","","","","","","","","",""
"","ITI","","html-keyboard-response","225","646349","0.0-1.0-306.0","0","0","36962","","980","","","68","33","","","","","","","","","","","","","","","d",""
"","S1","","html-keyboard-response","226","646502","0.0-1.0-308.0","0","0","36962","","null","","","null","34","","","","","","","","","","","","","","","",""
"","ISI","","html-keyboard-response","227","648504","0.0-1.0-309.0","0","0","36962","","null","","","null","34","NaN","","","","","","","","","","","","","","",""
"","S2","","html-keyboard-response","228","648656","0.0-1.0-310.0","0","0","36962","","null","","","null","34","","NaN","","","","","","","","","","","","","",""
"","response","","html-keyboard-response","229","649766","0.0-1.0-311.0-0.0","0","0","36962","","1110","","","68","34","","","1","34","training","adjacent","FE","6","5","P.jpg","O.jpg","1","0","0","",""
"","feedback","","html-keyboard-response","230","650769","0.0-1.0-312.0-0.0","0","0","36962","","null","","","null","34","","","","","","","","","","","","","","","",""
"","time_out","","html-keyboard-response","231","652770","0.0-1.0-314.0-0.0","0","0","36962","","null","","","null","34","","","","","","","","","","","","","","","",""
"","ITI","","html-keyboard-response","232","653773","0.0-1.0-315.0","0","0","36962","","null","","","null","34","","","","","","","","","","","","","","","NaN",""
"","S1","","html-keyboard-response","233","653925","0.0-1.0-317.0","0","0","36962","","null","","","null","35","","","","","","","","","","","","","","","",""
"","ISI","","html-keyboard-response","234","655927","0.0-1.0-318.0","0","0","36962","","null","","","null","35","NaN","","","","","","","","","","","","","","",""
"","S2","","html-keyboard-response","235","656079","0.0-1.0-319.0","0","0","36962","","null","","","null","35","","NaN","","","","","","","","","","","","","",""
"","response","","html-keyboard-response","236","656630","0.0-1.0-320.0-0.0","0","0","36962","","550","","","75","35","","","1","35","training","adjacent","FE","6","5","P.jpg","O.jpg","0","0","1","",""
"","feedback","","html-keyboard-response","237","657633","0.0-1.0-321.0-0.0","0","0","36962","","null","","","null","35","","","","","","","","","","","","","","","",""
"","ITI","","html-keyboard-response","238","658635","0.0-1.0-324.0","0","0","36962","","null","","","null","35","","","","","","","","","","","","","","","NaN",""
"","S1","","html-keyboard-response","239","658787","0.0-1.0-326.0","0","0","36962","","null","","","null","36","","","","","","","","","","","","","","","",""
"","ISI","","html-keyboard-response","240","660790","0.0-1.0-327.0","0","0","36962","","null","","","null","36","NaN","","","","","","","","","","","","","","",""
"","S2","","html-keyboard-response","241","660943","0.0-1.0-328.0","0","0","36962","","null","","","null","36","","NaN","","","","","","","","","","","","","",""
"","response","","html-keyboard-response","242","661110","0.0-1.0-329.0-0.0","0","0","36962","","167","","","68","36","","","1","36","training","adjacent","BA","2","1","R.jpg","Q.jpg","1","0","0","",""
"","feedback","","html-keyboard-response","243","662113","0.0-1.0-330.0-0.0","0","0","36962","","null","","","null","36","","","","","","","","","","","","","","","",""
"","time_out","","html-keyboard-response","244","664115","0.0-1.0-332.0-0.0","0","0","36962","","null","","","null","36","","","","","","","","","","","","","","","",""
"","ITI","","html-keyboard-response","245","665118","0.0-1.0-333.0","0","0","36962","","null","","","null","36","","","","","","","","","","","","","","","NaN",""
"","S1","","html-keyboard-response","246","665271","0.0-1.0-335.0","0","0","36962","","null","","","null","37","","","","","","","","","","","","","","","",""
"","ISI","","html-keyboard-response","247","667274","0.0-1.0-336.0","0","0","36962","","null","","","null","37","NaN","","","","","","","","","","","","","","",""
"","S2","","html-keyboard-response","248","667426","0.0-1.0-337.0","0","0","36962","","null","","","null","37","","NaN","","","","","","","","","","","","","",""
"","response","","html-keyboard-response","249","667902","0.0-1.0-338.0-0.0","0","0","36962","","476","","","68","37","","","1","37","training","adjacent","EF","5","6","O.jpg","P.jpg","1","1","1","",""
"","feedback","","html-keyboard-response","250","668905","0.0-1.0-339.0-0.0","0","0","36962","","null","","","null","37","","","","","","","","","","","","","","","",""
"","ITI","","html-keyboard-response","251","669907","0.0-1.0-342.0","0","0","36962","","null","","","null","37","","","","","","","","","","","","","","","NaN",""
"","S1","","html-keyboard-response","252","670072","0.0-1.0-344.0","0","0","36962","","null","","","null","38","","","","","","","","","","","","","","","",""
"","ISI","","html-keyboard-response","253","672074","0.0-1.0-345.0","0","0","36962","","null","","","null","38","NaN","","","","","","","","","","","","","","",""
"","S2","","html-keyboard-response","254","672227","0.0-1.0-346.0","0","0","36962","","null","","","null","38","","NaN","","","","","","","","","","","","","",""
"","response","","html-keyboard-response","255","672430","0.0-1.0-347.0-0.0","0","0","36962","","202","","","68","38","","","1","38","training","adjacent","CB","3","2","L.jpg","R.jpg","1","0","0","",""
"","feedback","","html-keyboard-response","256","673432","0.0-1.0-348.0-0.0","0","0","36962","","null","","","null","38","","","","","","","","","","","","","","","",""
"","time_out","","html-keyboard-response","257","675434","0.0-1.0-350.0-0.0","0","0","36962","","null","","","null","38","","","","","","","","","","","","","","","",""
"","ITI","","html-keyboard-response","258","676435","0.0-1.0-351.0","0","0","36962","","null","","","null","38","","","","","","","","","","","","","","","NaN",""
"","S1","","html-keyboard-response","259","676588","0.0-1.0-353.0","0","0","36962","","null","","","null","39","","","","","","","","","","","","","","","",""
"","ISI","","html-keyboard-response","260","678590","0.0-1.0-354.0","0","0","36962","","null","","","null","39","NaN","","","","","","","","","","","","","","",""
"","S2","","html-keyboard-response","261","678743","0.0-1.0-355.0","0","0","36962","","null","","","null","39","","NaN","","","","","","","","","","","","","",""
"","response","","html-keyboard-response","262","678982","0.0-1.0-356.0-0.0","0","0","36962","","238","","","75","39","","","1","39","training","adjacent","AB","1","2","Q.jpg","R.jpg","0","1","0","",""
"","feedback","","html-keyboard-response","263","679986","0.0-1.0-357.0-0.0","0","0","36962","","null","","","null","39","","","","","","","","","","","","","","","",""
"","time_out","","html-keyboard-response","264","681989","0.0-1.0-359.0-0.0","0","0","36962","","null","","","null","39","","","","","","","","","","","","","","","",""
"","ITI","","html-keyboard-response","265","682991","0.0-1.0-360.0","0","0","36962","","null","","","null","39","","","","","","","","","","","","","","","NaN",""
"","S1","","html-keyboard-response","266","683143","0.0-1.0-362.0","0","0","36962","","null","","","null","40","","","","","","","","","","","","","","","",""
"","ISI","","html-keyboard-response","267","685145","0.0-1.0-363.0","0","0","36962","","214","","","68","40","d","","","","","","","","","","","","","","",""
"","S2","","html-keyboard-response","268","685297","0.0-1.0-364.0","0","0","36962","","null","","","null","40","","NaN","","","","","","","","","","","","","",""
"","response","","html-keyboard-response","269","685446","0.0-1.0-365.0-0.0","0","0","36962","","148","","","75","40","","","1","40","training","adjacent","DC","4","3","M.jpg","L.jpg","0","0","1","",""
"","feedback","","html-keyboard-response","270","686449","0.0-1.0-366.0-0.0","0","0","36962","","null","","","null","40","","","","","","","","","","","","","","","",""
"","ITI","","html-keyboard-response","271","687451","0.0-1.0-369.0","0","0","36962","","null","","","null","40","","","","","","","","","","","","","","","NaN",""
"","S1","","html-keyboard-response","272","687603","0.0-1.0-371.0","0","0","36962","","null","","","null","41","","","","","","","","","","","","","","","",""
"","ISI","","html-keyboard-response","273","689605","0.0-1.0-372.0","0","0","36962","","null","","","null","41","NaN","","","","","","","","","","","","","","",""
"","S2","","html-keyboard-response","274","689758","0.0-1.0-373.0","0","0","36962","","null","","","null","41","","NaN","","","","","","","","","","","","","",""
"","response","","html-keyboard-response","275","690215","0.0-1.0-374.0-0.0","0","0","36962","","456","","","75","41","","","1","41","training","adjacent","DE","4","5","M.jpg","O.jpg","0","1","0","",""
"","feedback","","html-keyboard-response","276","691216","0.0-1.0-375.0-0.0","0","0","36962","","null","","","null","41","","","","","","","","","","","","","","","",""
"","time_out","","html-keyboard-response","277","693223","0.0-1.0-377.0-0.0","0","0","36962","","null","","","null","41","","","","","","","","","","","","","","","",""
"","ITI","","html-keyboard-response","278","694226","0.0-1.0-378.0","0","0","36962","","null","","","null","41","","","","","","","","","","","","","","","NaN",""
"","S1","","html-keyboard-response","279","694377","0.0-1.0-380.0","0","0","36962","","null","","","null","42","","","","","","","","","","","","","","","",""
"","ISI","","html-keyboard-response","280","696379","0.0-1.0-381.0","0","0","36962","","221","","","68","42","d","","","","","","","","","","","","","","",""
"","S2","","html-keyboard-response","281","696538","0.0-1.0-382.0","0","0","36962","","null","","","null","42","","NaN","","","","","","","","","","","","","",""
"","response","","html-keyboard-response","282","696712","0.0-1.0-383.0-0.0","0","0","36962","","172","","","75","42","","","1","42","training","adjacent","BC","2","3","R.jpg","L.jpg","0","1","0","",""
"","feedback","","html-keyboard-response","283","697714","0.0-1.0-384.0-0.0","0","0","36962","","null","","","null","42","","","","","","","","","","","","","","","",""
"","time_out","","html-keyboard-response","284","699717","0.0-1.0-386.0-0.0","0","0","36962","","null","","","null","42","","","","","","","","","","","","","","","",""
"","ITI","","html-keyboard-response","285","700719","0.0-1.0-387.0","0","0","36962","","null","","","null","42","","","","","","","","","","","","","","","NaN",""
"","S1","","html-keyboard-response","286","700871","0.0-1.0-389.0","0","0","36962","","null","","","null","43","","","","","","","","","","","","","","","",""
"","ISI","","html-keyboard-response","287","702873","0.0-1.0-390.0","0","0","36962","","null","","","null","43","NaN","","","","","","","","","","","","","","",""
"","S2","","html-keyboard-response","288","703025","0.0-1.0-391.0","0","0","36962","","null","","","null","43","","NaN","","","","","","","","","","","","","",""
"","response","","html-keyboard-response","289","703224","0.0-1.0-392.0-0.0","0","0","36962","","199","","","68","43","","","1","43","training","adjacent","BC","2","3","R.jpg","L.jpg","1","1","1","",""
"","feedback","","html-keyboard-response","290","704226","0.0-1.0-393.0-0.0","0","0","36962","","null","","","null","43","","","","","","","","","","","","","","","",""
"","ITI","","html-keyboard-response","291","705229","0.0-1.0-396.0","0","0","36962","","null","","","null","43","","","","","","","","","","","","","","","NaN",""
"","S1","","html-keyboard-response","292","705383","0.0-1.0-398.0","0","0","36962","","null","","","null","44","","","","","","","","","","","","","","","",""
"","ISI","","html-keyboard-response","293","707385","0.0-1.0-399.0","0","0","36962","","null","","","null","44","NaN","","","","","","","","","","","","","","",""
"","S2","","html-keyboard-response","294","707537","0.0-1.0-400.0","0","0","36962","","null","","","null","44","","NaN","","","","","","","","","","","","","",""
"","response","","html-keyboard-response","295","707728","0.0-1.0-401.0-0.0","0","0","36962","","189","","","75","44","","","1","44","training","adjacent","ED","5","4","O.jpg","M.jpg","0","0","1","",""
"","feedback","","html-keyboard-response","296","708730","0.0-1.0-402.0-0.0","0","0","36962","","null","","","null","44","","","","","","","","","","","","","","","",""
"","ITI","","html-keyboard-response","297","709733","0.0-1.0-405.0","0","0","36962","","null","","","null","44","","","","","","","","","","","","","","","NaN",""
"","S1","","html-keyboard-response","298","709885","0.0-1.0-407.0","0","0","36962","","null","","","null","45","","","","","","","","","","","","","","","",""
"","ISI","","html-keyboard-response","299","711886","0.0-1.0-408.0","0","0","36962","","null","","","null","45","NaN","","","","","","","","","","","","","","",""
"","S2","","html-keyboard-response","300","712039","0.0-1.0-409.0","0","0","36962","","null","","","null","45","","NaN","","","","","","","","","","","","","",""
"","response","","html-keyboard-response","301","712256","0.0-1.0-410.0-0.0","0","0","36962","","217","","","68","45","","","1","45","training","adjacent","GF","7","6","N.jpg","P.jpg","1","0","0","",""
"","feedback","","html-keyboard-response","302","713259","0.0-1.0-411.0-0.0","0","0","36962","","null","","","null","45","","","","","","","","","","","","","","","",""
"","time_out","","html-keyboard-response","303","715274","0.0-1.0-413.0-0.0","0","0","36962","","null","","","null","45","","","","","","","","","","","","","","","",""
"","ITI","","html-keyboard-response","304","716276","0.0-1.0-414.0","0","0","36962","","null","","","null","45","","","","","","","","","","","","","","","NaN",""
"","S1","","html-keyboard-response","305","716428","0.0-1.0-416.0","0","0","36962","","null","","","null","46","","","","","","","","","","","","","","","",""
"","ISI","","html-keyboard-response","306","718431","0.0-1.0-417.0","0","0","36962","","null","","","null","46","NaN","","","","","","","","","","","","","","",""
"","S2","","html-keyboard-response","307","718583","0.0-1.0-418.0","0","0","36962","","null","","","null","46","","NaN","","","","","","","","","","","","","",""
"","response","","html-keyboard-response","308","718939","0.0-1.0-419.0-0.0","0","0","36962","","355","","","75","46","","","1","46","training","adjacent","FG","6","7","P.jpg","N.jpg","0","1","0","",""
"","feedback","","html-keyboard-response","309","719941","0.0-1.0-420.0-0.0","0","0","36962","","null","","","null","46","","","","","","","","","","","","","","","",""
"","time_out","","html-keyboard-response","310","721942","0.0-1.0-422.0-0.0","0","0","36962","","null","","","null","46","","","","","","","","","","","","","","","",""
"","ITI","","html-keyboard-response","311","722944","0.0-1.0-423.0","0","0","36962","","null","","","null","46","","","","","","","","","","","","","","","NaN",""
"","S1","","html-keyboard-response","312","723097","0.0-1.0-425.0","0","0","36962","","null","","","null","47","","","","","","","","","","","","","","","",""
"","ISI","","html-keyboard-response","313","725099","0.0-1.0-426.0","0","0","36962","","null","","","null","47","NaN","","","","","","","","","","","","","","",""
"","S2","","html-keyboard-response","314","725260","0.0-1.0-427.0","0","0","36962","","null","","","null","47","","NaN","","","","","","","","","","","","","",""
"","response","","html-keyboard-response","315","725688","0.0-1.0-428.0-0.0","0","0","36962","","426","","","68","47","","","1","47","training","adjacent","CD","3","4","L.jpg","M.jpg","1","1","1","",""
"","feedback","","html-keyboard-response","316","726690","0.0-1.0-429.0-0.0","0","0","36962","","null","","","null","47","","","","","","","","","","","","","","","",""
"","ITI","","html-keyboard-response","317","727692","0.0-1.0-432.0","0","0","36962","","null","","","null","47","","","","","","","","","","","","","","","NaN",""
"","block_over","","html-keyboard-response","318","733584","0.0-1.0-433.0-0.0","0","0","36962","","5891","","","32","47","","","","","","","","","","","","","","","",""
"","S1","","html-keyboard-response","319","733737","0.0-1.0-434.0","0","0","36962","","null","","","null","48","","","","","","","","","","","","","","","",""
"","ISI","","html-keyboard-response","320","735738","0.0-1.0-435.0","0","0","36962","","null","","","null","48","NaN","","","","","","","","","","","","","","",""
"","S2","","html-keyboard-response","321","735892","0.0-1.0-436.0","0","0","36962","","null","","","null","48","","NaN","","","","","","","","","","","","","",""
"","response","","html-keyboard-response","322","736320","0.0-1.0-437.0-0.0","0","0","36962","","426","","","75","48","","","2","48","training","adjacent","BC","2","3","R.jpg","L.jpg","0","1","0","",""
"","feedback","","html-keyboard-response","323","737323","0.0-1.0-438.0-0.0","0","0","36962","","null","","","null","48","","","","","","","","","","","","","","","",""
"","time_out","","html-keyboard-response","324","739324","0.0-1.0-440.0-0.0","0","0","36962","","null","","","null","48","","","","","","","","","","","","","","","",""
"","ITI","","html-keyboard-response","325","740326","0.0-1.0-441.0","0","0","36962","","null","","","null","48","","","","","","","","","","","","","","","NaN",""
"","S1","","html-keyboard-response","326","740478","0.0-1.0-443.0","0","0","36962","","null","","","null","49","","","","","","","","","","","","","","","",""
"","ISI","","html-keyboard-response","327","742480","0.0-1.0-444.0","0","0","36962","","null","","","null","49","NaN","","","","","","","","","","","","","","",""
"","S2","","html-keyboard-response","328","742633","0.0-1.0-445.0","0","0","36962","","null","","","null","49","","NaN","","","","","","","","","","","","","",""
"","response","","html-keyboard-response","329","742984","0.0-1.0-446.0-0.0","0","0","36962","","350","","","68","49","","","2","49","training","adjacent","FE","6","5","P.jpg","O.jpg","1","0","0","",""
"","feedback","","html-keyboard-response","330","743987","0.0-1.0-447.0-0.0","0","0","36962","","null","","","null","49","","","","","","","","","","","","","","","",""
"","time_out","","html-keyboard-response","331","745988","0.0-1.0-449.0-0.0","0","0","36962","","null","","","null","49","","","","","","","","","","","","","","","",""
"","ITI","","html-keyboard-response","332","746990","0.0-1.0-450.0","0","0","36962","","null","","","null","49","","","","","","","","","","","","","","","NaN",""
"","S1","","html-keyboard-response","333","747141","0.0-1.0-452.0","0","0","36962","","null","","","null","50","","","","","","","","","","","","","","","",""
"","ISI","","html-keyboard-response","334","749153","0.0-1.0-453.0","0","0","36962","","null","","","null","50","NaN","","","","","","","","","","","","","","",""
"","S2","","html-keyboard-response","335","749306","0.0-1.0-454.0","0","0","36962","","null","","","null","50","","NaN","","","","","","","","","","","","","",""
"","response","","html-keyboard-response","336","749896","0.0-1.0-455.0-0.0","0","0","36962","","589","","","75","50","","","2","50","training","adjacent","DE","4","5","M.jpg","O.jpg","0","1","0","",""
"","feedback","","html-keyboard-response","337","750899","0.0-1.0-456.0-0.0","0","0","36962","","null","","","null","50","","","","","","","","","","","","","","","",""
"","time_out","","html-keyboard-response","338","752901","0.0-1.0-458.0-0.0","0","0","36962","","null","","","null","50","","","","","","","","","","","","","","","",""
"","ITI","","html-keyboard-response","339","753903","0.0-1.0-459.0","0","0","36962","","null","","","null","50","","","","","","","","","","","","","","","NaN",""
"","S1","","html-keyboard-response","340","754056","0.0-1.0-461.0","0","0","36962","","null","","","null","51","","","","","","","","","","","","","","","",""
"","ISI","","html-keyboard-response","341","756058","0.0-1.0-462.0","0","0","36962","","null","","","null","51","NaN","","","","","","","","","","","","","","",""
"","S2","","html-keyboard-response","342","756210","0.0-1.0-463.0","0","0","36962","","null","","","null","51","","NaN","","","","","","","","","","","","","",""
"","response","","html-keyboard-response","343","756665","0.0-1.0-464.0-0.0","0","0","36962","","454","","","68","51","","","2","51","training","adjacent","EF","5","6","O.jpg","P.jpg","1","1","1","",""
"","feedback","","html-keyboard-response","344","757668","0.0-1.0-465.0-0.0","0","0","36962","","null","","","null","51","","","","","","","","","","","","","","","",""
"","ITI","","html-keyboard-response","345","758670","0.0-1.0-468.0","0","0","36962","","null","","","null","51","","","","","","","","","","","","","","","NaN",""
"","S1","","html-keyboard-response","346","758834","0.0-1.0-470.0","0","0","36962","","null","","","null","52","","","","","","","","","","","","","","","",""
"","ISI","","html-keyboard-response","347","760837","0.0-1.0-471.0","0","0","36962","","null","","","null","52","NaN","","","","","","","","","","","","","","",""
"","S2","","html-keyboard-response","348","760989","0.0-1.0-472.0","0","0","36962","","null","","","null","52","","NaN","","","","","","","","","","","","","",""
"","response","","html-keyboard-response","349","761315","0.0-1.0-473.0-0.0","0","0","36962","","325","","","68","52","","","2","52","training","adjacent","EF","5","6","O.jpg","P.jpg","1","1","1","",""
"","feedback","","html-keyboard-response","350","762318","0.0-1.0-474.0-0.0","0","0","36962","","null","","","null","52","","","","","","","","","","","","","","","",""
"","ITI","","html-keyboard-response","351","763320","0.0-1.0-477.0","0","0","36962","","null","","","null","52","","","","","","","","","","","","","","","NaN",""
"","S1","","html-keyboard-response","352","763472","0.0-1.0-479.0","0","0","36962","","null","","","null","53","","","","","","","","","","","","","","","",""
"","ISI","","html-keyboard-response","353","765475","0.0-1.0-480.0","0","0","36962","","null","","","null","53","NaN","","","","","","","","","","","","","","",""
"","S2","","html-keyboard-response","354","765627","0.0-1.0-481.0","0","0","36962","","null","","","null","53","","NaN","","","","","","","","","","","","","",""
"","response","","html-keyboard-response","355","766041","0.0-1.0-482.0-0.0","0","0","36962","","412","","","75","53","","","2","53","training","adjacent","BA","2","1","R.jpg","Q.jpg","0","0","1","",""
"","feedback","","html-keyboard-response","356","767044","0.0-1.0-483.0-0.0","0","0","36962","","null","","","null","53","","","","","","","","","","","","","","","",""
"","ITI","","html-keyboard-response","357","768046","0.0-1.0-486.0","0","0","36962","","null","","","null","53","","","","","","","","","","","","","","","NaN",""
"","S1","","html-keyboard-response","358","768199","0.0-1.0-488.0","0","0","36962","","null","","","null","54","","","","","","","","","","","","","","","",""
"","ISI","","html-keyboard-response","359","770201","0.0-1.0-489.0","0","0","36962","","null","","","null","54","NaN","","","","","","","","","","","","","","",""
"","S2","","html-keyboard-response","360","770354","0.0-1.0-490.0","0","0","36962","","null","","","null","54","","NaN","","","","","","","","","","","","","",""
"","response","","html-keyboard-response","361","770650","0.0-1.0-491.0-0.0","0","0","36962","","294","","","75","54","","","2","54","training","adjacent","BA","2","1","R.jpg","Q.jpg","0","0","1","",""
"","feedback","","html-keyboard-response","362","771652","0.0-1.0-492.0-0.0","0","0","36962","","null","","","null","54","","","","","","","","","","","","","","","",""
"","ITI","","html-keyboard-response","363","772655","0.0-1.0-495.0","0","0","36962","","null","","","null","54","","","","","","","","","","","","","","","NaN",""
"","S1","","html-keyboard-response","364","772807","0.0-1.0-497.0","0","0","36962","","null","","","null","55","","","","","","","","","","","","","","","",""
"","ISI","","html-keyboard-response","365","774809","0.0-1.0-498.0","0","0","36962","","null","","","null","55","NaN","","","","","","","","","","","","","","",""
"","S2","","html-keyboard-response","366","774962","0.0-1.0-499.0","0","0","36962","","null","","","null","55","","NaN","","","","","","","","","","","","","",""
"","response","","html-keyboard-response","367","775498","0.0-1.0-500.0-0.0","0","0","36962","","535","","","68","55","","","2","55","training","adjacent","AB","1","2","Q.jpg","R.jpg","1","1","1","",""
"","feedback","","html-keyboard-response","368","776500","0.0-1.0-501.0-0.0","0","0","36962","","null","","","null","55","","","","","","","","","","","","","","","",""
"","ITI","","html-keyboard-response","369","777502","0.0-1.0-504.0","0","0","36962","","null","","","null","55","","","","","","","","","","","","","","","NaN",""
"","S1","","html-keyboard-response","370","777655","0.0-1.0-506.0","0","0","36962","","null","","","null","56","","","","","","","","","","","","","","","",""
"","ISI","","html-keyboard-response","371","779657","0.0-1.0-507.0","0","0","36962","","null","","","null","56","NaN","","","","","","","","","","","","","","",""
"","S2","","html-keyboard-response","372","779809","0.0-1.0-508.0","0","0","36962","","null","","","null","56","","NaN","","","","","","","","","","","","","",""
"","response","","html-keyboard-response","373","780202","0.0-1.0-509.0-0.0","0","0","36962","","392","","","75","56","","","2","56","training","adjacent","BA","2","1","R.jpg","Q.jpg","0","0","1","",""
"","feedback","","html-keyboard-response","374","781206","0.0-1.0-510.0-0.0","0","0","36962","","null","","","null","56","","","","","","","","","","","","","","","",""
"","ITI","","html-keyboard-response","375","782209","0.0-1.0-513.0","0","0","36962","","null","","","null","56","","","","","","","","","","","","","","","NaN",""
"","S1","","html-keyboard-response","376","782361","0.0-1.0-515.0","0","0","36962","","null","","","null","57","","","","","","","","","","","","","","","",""
"","ISI","","html-keyboard-response","377","784365","0.0-1.0-516.0","0","0","36962","","null","","","null","57","NaN","","","","","","","","","","","","","","",""
"","S2","","html-keyboard-response","378","784517","0.0-1.0-517.0","0","0","36962","","null","","","null","57","","NaN","","","","","","","","","","","","","",""
"","response","","html-keyboard-response","379","785002","0.0-1.0-518.0-0.0","0","0","36962","","484","","","68","57","","","2","57","training","adjacent","DC","4","3","M.jpg","L.jpg","1","0","0","",""
"","feedback","","html-keyboard-response","380","786004","0.0-1.0-519.0-0.0","0","0","36962","","null","","","null","57","","","","","","","","","","","","","","","",""
"","time_out","","html-keyboard-response","381","788007","0.0-1.0-521.0-0.0","0","0","36962","","null","","","null","57","","","","","","","","","","","","","","","",""
"","ITI","","html-keyboard-response","382","789009","0.0-1.0-522.0","0","0","36962","","null","","","null","57","","","","","","","","","","","","","","","NaN",""
"","S1","","html-keyboard-response","383","789161","0.0-1.0-524.0","0","0","36962","","null","","","null","58","","","","","","","","","","","","","","","",""
"","ISI","","html-keyboard-response","384","791164","0.0-1.0-525.0","0","0","36962","","null","","","null","58","NaN","","","","","","","","","","","","","","",""
"","S2","","html-keyboard-response","385","791316","0.0-1.0-526.0","0","0","36962","","null","","","null","58","","NaN","","","","","","","","","","","","","",""
"","response","","html-keyboard-response","386","791882","0.0-1.0-527.0-0.0","0","0","36962","","565","","","75","58","","","2","58","training","adjacent","ED","5","4","O.jpg","M.jpg","0","0","1","",""
"","feedback","","html-keyboard-response","387","792885","0.0-1.0-528.0-0.0","0","0","36962","","null","","","null","58","","","","","","","","","","","","","","","",""
"","ITI","","html-keyboard-response","388","793887","0.0-1.0-531.0","0","0","36962","","null","","","null","58","","","","","","","","","","","","","","","NaN",""
"","S1","","html-keyboard-response","389","794040","0.0-1.0-533.0","0","0","36962","","null","","","null","59","","","","","","","","","","","","","","","",""
"","ISI","","html-keyboard-response","390","796041","0.0-1.0-534.0","0","0","36962","","null","","","null","59","NaN","","","","","","","","","","","","","","",""
"","S2","","html-keyboard-response","391","796194","0.0-1.0-535.0","0","0","36962","","null","","","null","59","","NaN","","","","","","","","","","","","","",""
"","response","","html-keyboard-response","392","796609","0.0-1.0-536.0-0.0","0","0","36962","","415","","","68","59","","","2","59","training","adjacent","DE","4","5","M.jpg","O.jpg","1","1","1","",""
"","feedback","","html-keyboard-response","393","797612","0.0-1.0-537.0-0.0","0","0","36962","","null","","","null","59","","","","","","","","","","","","","","","",""
"","ITI","","html-keyboard-response","394","798614","0.0-1.0-540.0","0","0","36962","","null","","","null","59","","","","","","","","","","","","","","","NaN",""
"","S1","","html-keyboard-response","395","798767","0.0-1.0-542.0","0","0","36962","","null","","","null","60","","","","","","","","","","","","","","","",""
"","ISI","","html-keyboard-response","396","800769","0.0-1.0-543.0","0","0","36962","","null","","","null","60","NaN","","","","","","","","","","","","","","",""
"","S2","","html-keyboard-response","397","800921","0.0-1.0-544.0","0","0","36962","","null","","","null","60","","NaN","","","","","","","","","","","","","",""
"","response","","html-keyboard-response","398","801354","0.0-1.0-545.0-0.0","0","0","36962","","431","","","75","60","","","2","60","training","adjacent","GF","7","6","N.jpg","P.jpg","0","0","1","",""
"","feedback","","html-keyboard-response","399","802357","0.0-1.0-546.0-0.0","0","0","36962","","null","","","null","60","","","","","","","","","","","","","","","",""
"","ITI","","html-keyboard-response","400","803359","0.0-1.0-549.0","0","0","36962","","null","","","null","60","","","","","","","","","","","","","","","NaN",""
"","S1","","html-keyboard-response","401","803511","0.0-1.0-551.0","0","0","36962","","null","","","null","61","","","","","","","","","","","","","","","",""
"","ISI","","html-keyboard-response","402","805527","0.0-1.0-552.0","0","0","36962","","null","","","null","61","NaN","","","","","","","","","","","","","","",""
"","S2","","html-keyboard-response","403","805679","0.0-1.0-553.0","0","0","36962","","null","","","null","61","","NaN","","","","","","","","","","","","","",""
"","response","","html-keyboard-response","404","806186","0.0-1.0-554.0-0.0","0","0","36962","","505","","","68","61","","","2","61","training","adjacent","FG","6","7","P.jpg","N.jpg","1","1","1","",""
"","feedback","","html-keyboard-response","405","807190","0.0-1.0-555.0-0.0","0","0","36962","","null","","","null","61","","","","","","","","","","","","","","","",""
"","ITI","","html-keyboard-response","406","808192","0.0-1.0-558.0","0","0","36962","","null","","","null","61","","","","","","","","","","","","","","","NaN",""
"","S1","","html-keyboard-response","407","808344","0.0-1.0-560.0","0","0","36962","","null","","","null","62","","","","","","","","","","","","","","","",""
"","ISI","","html-keyboard-response","408","810348","0.0-1.0-561.0","0","0","36962","","null","","","null","62","NaN","","","","","","","","","","","","","","",""
"","S2","","html-keyboard-response","409","810501","0.0-1.0-562.0","0","0","36962","","null","","","null","62","","NaN","","","","","","","","","","","","","",""
"","response","","html-keyboard-response","410","810977","0.0-1.0-563.0-0.0","0","0","36962","","475","","","68","62","","","2","62","training","adjacent","AB","1","2","Q.jpg","R.jpg","1","1","1","",""
"","feedback","","html-keyboard-response","411","811979","0.0-1.0-564.0-0.0","0","0","36962","","null","","","null","62","","","","","","","","","","","","","","","",""
"","ITI","","html-keyboard-response","412","812981","0.0-1.0-567.0","0","0","36962","","null","","","null","62","","","","","","","","","","","","","","","NaN",""
"","S1","","html-keyboard-response","413","813134","0.0-1.0-569.0","0","0","36962","","null","","","null","63","","","","","","","","","","","","","","","",""
"","ISI","","html-keyboard-response","414","815138","0.0-1.0-570.0","0","0","36962","","null","","","null","63","NaN","","","","","","","","","","","","","","",""
"","S2","","html-keyboard-response","415","815290","0.0-1.0-571.0","0","0","36962","","null","","","null","63","","NaN","","","","","","","","","","","","","",""
"","response","","html-keyboard-response","416","815564","0.0-1.0-572.0-0.0","0","0","36962","","273","","","68","63","","","2","63","training","adjacent","FG","6","7","P.jpg","N.jpg","1","1","1","",""
"","feedback","","html-keyboard-response","417","816567","0.0-1.0-573.0-0.0","0","0","36962","","null","","","null","63","","","","","","","","","","","","","","","",""
"","ITI","","html-keyboard-response","418","817572","0.0-1.0-576.0","0","0","36962","","null","","","null","63","","","","","","","","","","","","","","","NaN",""
"","S1","","html-keyboard-response","419","817726","0.0-1.0-578.0","0","0","36962","","null","","","null","64","","","","","","","","","","","","","","","",""
"","ISI","","html-keyboard-response","420","819728","0.0-1.0-579.0","0","0","36962","","null","","","null","64","NaN","","","","","","","","","","","","","","",""
"","S2","","html-keyboard-response","421","819880","0.0-1.0-580.0","0","0","36962","","null","","","null","64","","NaN","","","","","","","","","","","","","",""
"","response","","html-keyboard-response","422","820204","0.0-1.0-581.0-0.0","0","0","36962","","322","","","75","64","","","2","64","training","adjacent","ED","5","4","O.jpg","M.jpg","0","0","1","",""
"","feedback","","html-keyboard-response","423","821207","0.0-1.0-582.0-0.0","0","0","36962","","null","","","null","64","","","","","","","","","","","","","","","",""
"","ITI","","html-keyboard-response","424","822209","0.0-1.0-585.0","0","0","36962","","null","","","null","64","","","","","","","","","","","","","","","NaN",""
"","S1","","html-keyboard-response","425","822361","0.0-1.0-587.0","0","0","36962","","null","","","null","65","","","","","","","","","","","","","","","",""
"","ISI","","html-keyboard-response","426","824363","0.0-1.0-588.0","0","0","36962","","null","","","null","65","NaN","","","","","","","","","","","","","","",""
"","S2","","html-keyboard-response","427","824516","0.0-1.0-589.0","0","0","36962","","null","","","null","65","","NaN","","","","","","","","","","","","","",""
"","response","","html-keyboard-response","428","824996","0.0-1.0-590.0-0.0","0","0","36962","","479","","","68","65","","","2","65","training","adjacent","FG","6","7","P.jpg","N.jpg","1","1","1","",""
"","feedback","","html-keyboard-response","429","825999","0.0-1.0-591.0-0.0","0","0","36962","","null","","","null","65","","","","","","","","","","","","","","","",""
"","ITI","","html-keyboard-response","430","827002","0.0-1.0-594.0","0","0","36962","","null","","","null","65","","","","","","","","","","","","","","","NaN",""
"","S1","","html-keyboard-response","431","827163","0.0-1.0-596.0","0","0","36962","","null","","","null","66","","","","","","","","","","","","","","","",""
"","ISI","","html-keyboard-response","432","829165","0.0-1.0-597.0","0","0","36962","","null","","","null","66","NaN","","","","","","","","","","","","","","",""
"","S2","","html-keyboard-response","433","829317","0.0-1.0-598.0","0","0","36962","","null","","","null","66","","NaN","","","","","","","","","","","","","",""
"","response","","html-keyboard-response","434","829525","0.0-1.0-599.0-0.0","0","0","36962","","206","","","75","66","","","2","66","training","adjacent","BC","2","3","R.jpg","L.jpg","0","1","0","",""
"","feedback","","html-keyboard-response","435","830526","0.0-1.0-600.0-0.0","0","0","36962","","null","","","null","66","","","","","","","","","","","","","","","",""
"","time_out","","html-keyboard-response","436","832528","0.0-1.0-602.0-0.0","0","0","36962","","null","","","null","66","","","","","","","","","","","","","","","",""
"","ITI","","html-keyboard-response","437","833530","0.0-1.0-603.0","0","0","36962","","null","","","null","66","","","","","","","","","","","","","","","NaN",""
"","S1","","html-keyboard-response","438","833682","0.0-1.0-605.0","0","0","36962","","null","","","null","67","","","","","","","","","","","","","","","",""
"","ISI","","html-keyboard-response","439","835684","0.0-1.0-606.0","0","0","36962","","null","","","null","67","NaN","","","","","","","","","","","","","","",""
"","S2","","html-keyboard-response","440","835836","0.0-1.0-607.0","0","0","36962","","null","","","null","67","","NaN","","","","","","","","","","","","","",""
"","response","","html-keyboard-response","441","836077","0.0-1.0-608.0-0.0","0","0","36962","","238","","","68","67","","","2","67","training","adjacent","FE","6","5","P.jpg","O.jpg","1","0","0","",""
"","feedback","","html-keyboard-response","442","837085","0.0-1.0-609.0-0.0","0","0","36962","","null","","","null","67","","","","","","","","","","","","","","","",""
"","time_out","","html-keyboard-response","443","839086","0.0-1.0-611.0-0.0","0","0","36962","","null","","","null","67","","","","","","","","","","","","","","","",""
"","ITI","","html-keyboard-response","444","840089","0.0-1.0-612.0","0","0","36962","","null","","","null","67","","","","","","","","","","","","","","","NaN",""
"","S1","","html-keyboard-response","445","840241","0.0-1.0-614.0","0","0","36962","","null","","","null","68","","","","","","","","","","","","","","","",""
"","ISI","","html-keyboard-response","446","842243","0.0-1.0-615.0","0","0","36962","","null","","","null","68","NaN","","","","","","","","","","","","","","",""
"","S2","","html-keyboard-response","447","842408","0.0-1.0-616.0","0","0","36962","","null","","","null","68","","NaN","","","","","","","","","","","","","",""
"","response","","html-keyboard-response","448","842868","0.0-1.0-617.0-0.0","0","0","36962","","459","","","68","68","","","2","68","training","adjacent","FE","6","5","P.jpg","O.jpg","1","0","0","",""
"","feedback","","html-keyboard-response","449","843871","0.0-1.0-618.0-0.0","0","0","36962","","null","","","null","68","","","","","","","","","","","","","","","",""
"","time_out","","html-keyboard-response","450","845873","0.0-1.0-620.0-0.0","0","0","36962","","null","","","null","68","","","","","","","","","","","","","","","",""
"","ITI","","html-keyboard-response","451","846876","0.0-1.0-621.0","0","0","36962","","null","","","null","68","","","","","","","","","","","","","","","NaN",""
"","S1","","html-keyboard-response","452","847028","0.0-1.0-623.0","0","0","36962","","null","","","null","69","","","","","","","","","","","","","","","",""
"","ISI","","html-keyboard-response","453","849029","0.0-1.0-624.0","0","0","36962","","null","","","null","69","NaN","","","","","","","","","","","","","","",""
"","S2","","html-keyboard-response","454","849182","0.0-1.0-625.0","0","0","36962","","null","","","null","69","","NaN","","","","","","","","","","","","","",""
"","response","","html-keyboard-response","455","849638","0.0-1.0-626.0-0.0","0","0","36962","","455","","","75","69","","","2","69","training","adjacent","GF","7","6","N.jpg","P.jpg","0","0","1","",""
"","feedback","","html-keyboard-response","456","850641","0.0-1.0-627.0-0.0","0","0","36962","","null","","","null","69","","","","","","","","","","","","","","","",""
"","ITI","","html-keyboard-response","457","851644","0.0-1.0-630.0","0","0","36962","","null","","","null","69","","","","","","","","","","","","","","","NaN",""
"","S1","","html-keyboard-response","458","851796","0.0-1.0-632.0","0","0","36962","","null","","","null","70","","","","","","","","","","","","","","","",""
"","ISI","","html-keyboard-response","459","853798","0.0-1.0-633.0","0","0","36962","","null","","","null","70","NaN","","","","","","","","","","","","","","",""
"","S2","","html-keyboard-response","460","853950","0.0-1.0-634.0","0","0","36962","","null","","","null","70","","NaN","","","","","","","","","","","","","",""
"","response","","html-keyboard-response","461","854341","0.0-1.0-635.0-0.0","0","0","36962","","390","","","75","70","","","2","70","training","adjacent","BC","2","3","R.jpg","L.jpg","0","1","0","",""
"","feedback","","html-keyboard-response","462","855343","0.0-1.0-636.0-0.0","0","0","36962","","null","","","null","70","","","","","","","","","","","","","","","",""
"","time_out","","html-keyboard-response","463","857346","0.0-1.0-638.0-0.0","0","0","36962","","null","","","null","70","","","","","","","","","","","","","","","",""
"","ITI","","html-keyboard-response","464","858349","0.0-1.0-639.0","0","0","36962","","null","","","null","70","","","","","","","","","","","","","","","NaN",""
"","S1","","html-keyboard-response","465","858501","0.0-1.0-641.0","0","0","36962","","null","","","null","71","","","","","","","","","","","","","","","",""
"","ISI","","html-keyboard-response","466","860503","0.0-1.0-642.0","0","0","36962","","null","","","null","71","NaN","","","","","","","","","","","","","","",""
"","S2","","html-keyboard-response","467","860656","0.0-1.0-643.0","0","0","36962","","null","","","null","71","","NaN","","","","","","","","","","","","","",""
"","response","","html-keyboard-response","468","861388","0.0-1.0-644.0-0.0","0","0","36962","","731","","","68","71","","","2","71","training","adjacent","DC","4","3","M.jpg","L.jpg","1","0","0","",""
"","feedback","","html-keyboard-response","469","862391","0.0-1.0-645.0-0.0","0","0","36962","","null","","","null","71","","","","","","","","","","","","","","","",""
"","time_out","","html-keyboard-response","470","864393","0.0-1.0-647.0-0.0","0","0","36962","","null","","","null","71","","","","","","","","","","","","","","","",""
"","ITI","","html-keyboard-response","471","865395","0.0-1.0-648.0","0","0","36962","","null","","","null","71","","","","","","","","","","","","","","","NaN",""
"","S1","","html-keyboard-response","472","865547","0.0-1.0-650.0","0","0","36962","","null","","","null","72","","","","","","","","","","","","","","","",""
"","ISI","","html-keyboard-response","473","867549","0.0-1.0-651.0","0","0","36962","","null","","","null","72","NaN","","","","","","","","","","","","","","",""
"","S2","","html-keyboard-response","474","867702","0.0-1.0-652.0","0","0","36962","","null","","","null","72","","NaN","","","","","","","","","","","","","",""
"","response","","html-keyboard-response","475","867964","0.0-1.0-653.0-0.0","0","0","36962","","261","","","68","72","","","2","72","training","adjacent","BC","2","3","R.jpg","L.jpg","1","1","1","",""
"","feedback","","html-keyboard-response","476","868967","0.0-1.0-654.0-0.0","0","0","36962","","null","","","null","72","","","","","","","","","","","","","","","",""
"","ITI","","html-keyboard-response","477","869969","0.0-1.0-657.0","0","0","36962","","null","","","null","72","","","","","","","","","","","","","","","NaN",""
"","S1","","html-keyboard-response","478","870121","0.0-1.0-659.0","0","0","36962","","null","","","null","73","","","","","","","","","","","","","","","",""
"","ISI","","html-keyboard-response","479","872123","0.0-1.0-660.0","0","0","36962","","null","","","null","73","NaN","","","","","","","","","","","","","","",""
"","S2","","html-keyboard-response","480","872275","0.0-1.0-661.0","0","0","36962","","null","","","null","73","","NaN","","","","","","","","","","","","","",""
"","response","","html-keyboard-response","481","872517","0.0-1.0-662.0-0.0","0","0","36962","","240","","","75","73","","","2","73","training","adjacent","CD","3","4","L.jpg","M.jpg","0","1","0","",""
"","feedback","","html-keyboard-response","482","873519","0.0-1.0-663.0-0.0","0","0","36962","","null","","","null","73","","","","","","","","","","","","","","","",""
"","time_out","","html-keyboard-response","483","875522","0.0-1.0-665.0-0.0","0","0","36962","","null","","","null","73","","","","","","","","","","","","","","","",""
"","ITI","","html-keyboard-response","484","876524","0.0-1.0-666.0","0","0","36962","","null","","","null","73","","","","","","","","","","","","","","","NaN",""
"","S1","","html-keyboard-response","485","876675","0.0-1.0-668.0","0","0","36962","","null","","","null","74","","","","","","","","","","","","","","","",""
"","ISI","","html-keyboard-response","486","878678","0.0-1.0-669.0","0","0","36962","","null","","","null","74","NaN","","","","","","","","","","","","","","",""
"","S2","","html-keyboard-response","487","878830","0.0-1.0-670.0","0","0","36962","","null","","","null","74","","NaN","","","","","","","","","","","","","",""
"","response","","html-keyboard-response","488","879446","0.0-1.0-671.0-0.0","0","0","36962","","615","","","75","74","","","2","74","training","adjacent","FG","6","7","P.jpg","N.jpg","0","1","0","",""
"","feedback","","html-keyboard-response","489","880449","0.0-1.0-672.0-0.0","0","0","36962","","null","","","null","74","","","","","","","","","","","","","","","",""
"","time_out","","html-keyboard-response","490","882451","0.0-1.0-674.0-0.0","0","0","36962","","null","","","null","74","","","","","","","","","","","","","","","",""
"","ITI","","html-keyboard-response","491","883465","0.0-1.0-675.0","0","0","36962","","null","","","null","74","","","","","","","","","","","","","","","NaN",""
"","S1","","html-keyboard-response","492","883618","0.0-1.0-677.0","0","0","36962","","null","","","null","75","","","","","","","","","","","","","","","",""
"","ISI","","html-keyboard-response","493","885620","0.0-1.0-678.0","0","0","36962","","379","","","68","75","d","","","","","","","","","","","","","","",""
"","S2","","html-keyboard-response","494","885772","0.0-1.0-679.0","0","0","36962","","null","","","null","75","","NaN","","","","","","","","","","","","","",""
"","response","","html-keyboard-response","495","885974","0.0-1.0-680.0-0.0","0","0","36962","","200","","","68","75","","","2","75","training","adjacent","AB","1","2","Q.jpg","R.jpg","1","1","1","",""
"","feedback","","html-keyboard-response","496","886976","0.0-1.0-681.0-0.0","0","0","36962","","null","","","null","75","","","","","","","","","","","","","","","",""
"","ITI","","html-keyboard-response","497","887978","0.0-1.0-684.0","0","0","36962","","null","","","null","75","","","","","","","","","","","","","","","NaN",""
"","S1","","html-keyboard-response","498","888130","0.0-1.0-686.0","0","0","36962","","null","","","null","76","","","","","","","","","","","","","","","",""
"","ISI","","html-keyboard-response","499","890132","0.0-1.0-687.0","0","0","36962","","null","","","null","76","NaN","","","","","","","","","","","","","","",""
"","S2","","html-keyboard-response","500","890283","0.0-1.0-688.0","0","0","36962","","null","","","null","76","","NaN","","","","","","","","","","","","","",""
"","response","","html-keyboard-response","501","890837","0.0-1.0-689.0-0.0","0","0","36962","","553","","","68","76","","","2","76","training","adjacent","ED","5","4","O.jpg","M.jpg","1","0","0","",""
"","feedback","","html-keyboard-response","502","891839","0.0-1.0-690.0-0.0","0","0","36962","","null","","","null","76","","","","","","","","","","","","","","","",""
"","time_out","","html-keyboard-response","503","893841","0.0-1.0-692.0-0.0","0","0","36962","","null","","","null","76","","","","","","","","","","","","","","","",""
"","ITI","","html-keyboard-response","504","894843","0.0-1.0-693.0","0","0","36962","","null","","","null","76","","","","","","","","","","","","","","","NaN",""
"","S1","","html-keyboard-response","505","894995","0.0-1.0-695.0","0","0","36962","","null","","","null","77","","","","","","","","","","","","","","","",""
"","ISI","","html-keyboard-response","506","896996","0.0-1.0-696.0","0","0","36962","","null","","","null","77","NaN","","","","","","","","","","","","","","",""
"","S2","","html-keyboard-response","507","897149","0.0-1.0-697.0","0","0","36962","","null","","","null","77","","NaN","","","","","","","","","","","","","",""
"","response","","html-keyboard-response","508","897502","0.0-1.0-698.0-0.0","0","0","36962","","351","","","75","77","","","2","77","training","adjacent","DE","4","5","M.jpg","O.jpg","0","1","0","",""
"","feedback","","html-keyboard-response","509","898503","0.0-1.0-699.0-0.0","0","0","36962","","null","","","null","77","","","","","","","","","","","","","","","",""
"","time_out","","html-keyboard-response","510","900505","0.0-1.0-701.0-0.0","0","0","36962","","null","","","null","77","","","","","","","","","","","","","","","",""
"","ITI","","html-keyboard-response","511","901508","0.0-1.0-702.0","0","0","36962","","null","","","null","77","","","","","","","","","","","","","","","NaN",""
"","S1","","html-keyboard-response","512","901661","0.0-1.0-704.0","0","0","36962","","null","","","null","78","","","","","","","","","","","","","","","",""
"","ISI","","html-keyboard-response","513","903663","0.0-1.0-705.0","0","0","36962","","null","","","null","78","NaN","","","","","","","","","","","","","","",""
"","S2","","html-keyboard-response","514","903815","0.0-1.0-706.0","0","0","36962","","null","","","null","78","","NaN","","","","","","","","","","","","","",""
"","response","","html-keyboard-response","515","904070","0.0-1.0-707.0-0.0","0","0","36962","","254","","","75","78","","","2","78","training","adjacent","CB","3","2","L.jpg","R.jpg","0","0","1","",""
"","feedback","","html-keyboard-response","516","905072","0.0-1.0-708.0-0.0","0","0","36962","","null","","","null","78","","","","","","","","","","","","","","","",""
"","ITI","","html-keyboard-response","517","906082","0.0-1.0-711.0","0","0","36962","","null","","","null","78","","","","","","","","","","","","","","","NaN",""
"","S1","","html-keyboard-response","518","906234","0.0-1.0-713.0","0","0","36962","","null","","","null","79","","","","","","","","","","","","","","","",""
"","ISI","","html-keyboard-response","519","908236","0.0-1.0-714.0","0","0","36962","","null","","","null","79","NaN","","","","","","","","","","","","","","",""
"","S2","","html-keyboard-response","520","908389","0.0-1.0-715.0","0","0","36962","","null","","","null","79","","NaN","","","","","","","","","","","","","",""
"","response","","html-keyboard-response","521","908615","0.0-1.0-716.0-0.0","0","0","36962","","225","","","75","79","","","2","79","training","adjacent","AB","1","2","Q.jpg","R.jpg","0","1","0","",""
"","feedback","","html-keyboard-response","522","909618","0.0-1.0-717.0-0.0","0","0","36962","","null","","","null","79","","","","","","","","","","","","","","","",""
"","time_out","","html-keyboard-response","523","911620","0.0-1.0-719.0-0.0","0","0","36962","","null","","","null","79","","","","","","","","","","","","","","","",""
"","ITI","","html-keyboard-response","524","912622","0.0-1.0-720.0","0","0","36962","","null","","","null","79","","","","","","","","","","","","","","","NaN",""
"","S1","","html-keyboard-response","525","912775","0.0-1.0-722.0","0","0","36962","","null","","","null","80","","","","","","","","","","","","","","","",""
"","ISI","","html-keyboard-response","526","914776","0.0-1.0-723.0","0","0","36962","","null","","","null","80","NaN","","","","","","","","","","","","","","",""
"","S2","","html-keyboard-response","527","914928","0.0-1.0-724.0","0","0","36962","","null","","","null","80","","NaN","","","","","","","","","","","","","",""
"","response","","html-keyboard-response","528","915302","0.0-1.0-725.0-0.0","0","0","36962","","373","","","75","80","","","2","80","training","adjacent","FE","6","5","P.jpg","O.jpg","0","0","1","",""
"","feedback","","html-keyboard-response","529","916304","0.0-1.0-726.0-0.0","0","0","36962","","null","","","null","80","","","","","","","","","","","","","","","",""
"","ITI","","html-keyboard-response","530","917306","0.0-1.0-729.0","0","0","36962","","null","","","null","80","","","","","","","","","","","","","","","NaN",""
"","S1","","html-keyboard-response","531","917458","0.0-1.0-731.0","0","0","36962","","null","","","null","81","","","","","","","","","","","","","","","",""
"","ISI","","html-keyboard-response","532","919461","0.0-1.0-732.0","0","0","36962","","null","","","null","81","NaN","","","","","","","","","","","","","","",""
"","S2","","html-keyboard-response","533","919613","0.0-1.0-733.0","0","0","36962","","null","","","null","81","","NaN","","","","","","","","","","","","","",""
"","response","","html-keyboard-response","534","920006","0.0-1.0-734.0-0.0","0","0","36962","","392","","","68","81","","","2","81","training","adjacent","EF","5","6","O.jpg","P.jpg","1","1","1","",""
"","feedback","","html-keyboard-response","535","921008","0.0-1.0-735.0-0.0","0","0","36962","","null","","","null","81","","","","","","","","","","","","","","","",""
"","ITI","","html-keyboard-response","536","922011","0.0-1.0-738.0","0","0","36962","","null","","","null","81","","","","","","","","","","","","","","","NaN",""
"","S1","","html-keyboard-response","537","922163","0.0-1.0-740.0","0","0","36962","","null","","","null","82","","","","","","","","","","","","","","","",""
"","ISI","","html-keyboard-response","538","924166","0.0-1.0-741.0","0","0","36962","","null","","","null","82","NaN","","","","","","","","","","","","","","",""
"","S2","","html-keyboard-response","539","924319","0.0-1.0-742.0","0","0","36962","","null","","","null","82","","NaN","","","","","","","","","","","","","",""
"","response","","html-keyboard-response","540","925222","0.0-1.0-743.0-0.0","0","0","36962","","901","","","68","82","","","2","82","training","adjacent","CD","3","4","L.jpg","M.jpg","1","1","1","",""
"","feedback","","html-keyboard-response","541","926224","0.0-1.0-744.0-0.0","0","0","36962","","null","","","null","82","","","","","","","","","","","","","","","",""
"","ITI","","html-keyboard-response","542","927227","0.0-1.0-747.0","0","0","36962","","null","","","null","82","","","","","","","","","","","","","","","NaN",""
"","S1","","html-keyboard-response","543","927379","0.0-1.0-749.0","0","0","36962","","null","","","null","83","","","","","","","","","","","","","","","",""
"","ISI","","html-keyboard-response","544","929381","0.0-1.0-750.0","0","0","36962","","null","","","null","83","NaN","","","","","","","","","","","","","","",""
"","S2","","html-keyboard-response","545","929533","0.0-1.0-751.0","0","0","36962","","null","","","null","83","","NaN","","","","","","","","","","","","","",""
"","response","","html-keyboard-response","546","929934","0.0-1.0-752.0-0.0","0","0","36962","","400","","","75","83","","","2","83","training","adjacent","GF","7","6","N.jpg","P.jpg","0","0","1","",""
"","feedback","","html-keyboard-response","547","930937","0.0-1.0-753.0-0.0","0","0","36962","","null","","","null","83","","","","","","","","","","","","","","","",""
"","ITI","","html-keyboard-response","548","931939","0.0-1.0-756.0","0","0","36962","","null","","","null","83","","","","","","","","","","","","","","","NaN",""
"","S1","","html-keyboard-response","549","932091","0.0-1.0-758.0","0","0","36962","","null","","","null","84","","","","","","","","","","","","","","","",""
"","ISI","","html-keyboard-response","550","934093","0.0-1.0-759.0","0","0","36962","","null","","","null","84","NaN","","","","","","","","","","","","","","",""
"","S2","","html-keyboard-response","551","934246","0.0-1.0-760.0","0","0","36962","","null","","","null","84","","NaN","","","","","","","","","","","","","",""
"","response","","html-keyboard-response","552","934630","0.0-1.0-761.0-0.0","0","0","36962","","383","","","68","84","","","2","84","training","adjacent","CD","3","4","L.jpg","M.jpg","1","1","1","",""
"","feedback","","html-keyboard-response","553","935634","0.0-1.0-762.0-0.0","0","0","36962","","null","","","null","84","","","","","","","","","","","","","","","",""
"","ITI","","html-keyboard-response","554","936636","0.0-1.0-765.0","0","0","36962","","null","","","null","84","","","","","","","","","","","","","","","NaN",""
"","S1","","html-keyboard-response","555","936789","0.0-1.0-767.0","0","0","36962","","null","","","null","85","","","","","","","","","","","","","","","",""
"","ISI","","html-keyboard-response","556","938791","0.0-1.0-768.0","0","0","36962","","null","","","null","85","NaN","","","","","","","","","","","","","","",""
"","S2","","html-keyboard-response","557","938943","0.0-1.0-769.0","0","0","36962","","null","","","null","85","","NaN","","","","","","","","","","","","","",""
"","response","","html-keyboard-response","558","939199","0.0-1.0-770.0-0.0","0","0","36962","","254","","","68","85","","","2","85","training","adjacent","BA","2","1","R.jpg","Q.jpg","1","0","0","",""
"","feedback","","html-keyboard-response","559","940202","0.0-1.0-771.0-0.0","0","0","36962","","null","","","null","85","","","","","","","","","","","","","","","",""
"","time_out","","html-keyboard-response","560","942204","0.0-1.0-773.0-0.0","0","0","36962","","null","","","null","85","","","","","","","","","","","","","","","",""
"","ITI","","html-keyboard-response","561","943207","0.0-1.0-774.0","0","0","36962","","null","","","null","85","","","","","","","","","","","","","","","NaN",""
"","S1","","html-keyboard-response","562","943359","0.0-1.0-776.0","0","0","36962","","null","","","null","86","","","","","","","","","","","","","","","",""
"","ISI","","html-keyboard-response","563","945361","0.0-1.0-777.0","0","0","36962","","null","","","null","86","NaN","","","","","","","","","","","","","","",""
"","S2","","html-keyboard-response","564","945512","0.0-1.0-778.0","0","0","36962","","null","","","null","86","","NaN","","","","","","","","","","","","","",""
"","response","","html-keyboard-response","565","946056","0.0-1.0-779.0-0.0","0","0","36962","","542","","","75","86","","","2","86","training","adjacent","GF","7","6","N.jpg","P.jpg","0","0","1","",""
"","feedback","","html-keyboard-response","566","947059","0.0-1.0-780.0-0.0","0","0","36962","","null","","","null","86","","","","","","","","","","","","","","","",""
"","ITI","","html-keyboard-response","567","948062","0.0-1.0-783.0","0","0","36962","","null","","","null","86","","","","","","","","","","","","","","","NaN",""
"","S1","","html-keyboard-response","568","948213","0.0-1.0-785.0","0","0","36962","","null","","","null","87","","","","","","","","","","","","","","","",""
"","ISI","","html-keyboard-response","569","950216","0.0-1.0-786.0","0","0","36962","","null","","","null","87","NaN","","","","","","","","","","","","","","",""
"","S2","","html-keyboard-response","570","950368","0.0-1.0-787.0","0","0","36962","","null","","","null","87","","NaN","","","","","","","","","","","","","",""
"","response","","html-keyboard-response","571","950551","0.0-1.0-788.0-0.0","0","0","36962","","182","","","75","87","","","2","87","training","adjacent","DC","4","3","M.jpg","L.jpg","0","0","1","",""
"","feedback","","html-keyboard-response","572","951554","0.0-1.0-789.0-0.0","0","0","36962","","null","","","null","87","","","","","","","","","","","","","","","",""
"","ITI","","html-keyboard-response","573","952557","0.0-1.0-792.0","0","0","36962","","null","","","null","87","","","","","","","","","","","","","","","NaN",""
"","S1","","html-keyboard-response","574","952710","0.0-1.0-794.0","0","0","36962","","null","","","null","88","","","","","","","","","","","","","","","",""
"","ISI","","html-keyboard-response","575","954712","0.0-1.0-795.0","0","0","36962","","null","","","null","88","NaN","","","","","","","","","","","","","","",""
"","S2","","html-keyboard-response","576","954863","0.0-1.0-796.0","0","0","36962","","null","","","null","88","","NaN","","","","","","","","","","","","","",""
"","response","","html-keyboard-response","577","955095","0.0-1.0-797.0-0.0","0","0","36962","","230","","","68","88","","","2","88","training","adjacent","CB","3","2","L.jpg","R.jpg","1","0","0","",""
"","feedback","","html-keyboard-response","578","956098","0.0-1.0-798.0-0.0","0","0","36962","","null","","","null","88","","","","","","","","","","","","","","","",""
"","time_out","","html-keyboard-response","579","958101","0.0-1.0-800.0-0.0","0","0","36962","","null","","","null","88","","","","","","","","","","","","","","","",""
"","ITI","","html-keyboard-response","580","959103","0.0-1.0-801.0","0","0","36962","","null","","","null","88","","","","","","","","","","","","","","","NaN",""
"","S1","","html-keyboard-response","581","959255","0.0-1.0-803.0","0","0","36962","","null","","","null","89","","","","","","","","","","","","","","","",""
