"success","ttype","start_time","trial_type","trial_index","time_elapsed","internal_node_id","warning","missed_checkup","PID","view_history","rt","responses","repeat_instructions","key_press","index","keypress_isi","keypress_S2","block","trial_num","phase","group_type","pair_type","S1_stim","S2_stim","S1_img","S2_img","S1_chosen","S1_higher","accuracy","keypress_iti","total_bonus_tally"
"true","full_screen","d08052022hr1256","fullscreen","0","14873","0.0-0.0","0","0","59898","","","","","","","","","","","","","","","","","","","","","",""
"","instructions","","instructions","1","34296","0.0-1.0-0.0-0.0","0","0","59898","[{""page_index"":0,""viewing_time"":4245},{""page_index"":1,""viewing_time"":3808},{""page_index"":2,""viewing_time"":9944},{""page_index"":3,""viewing_time"":1423}]","19421","","","","","","","","","","","","","","","","","","","",""
"","comprehension_check","","survey-multi-choice","2","66058","0.0-1.0-0.0-1.0","0","0","59898","","31759","{""Q0"":""True"",""Q1"":""D"",""Q2"":""Once the second image appears and while the screen 'MAKE A CHOICE' is shown"",""Q3"":""Green mark"",""Q4"":""either D or K""}","0","","","","","","","","","","","","","","","","","",""
"","start_exp","","html-keyboard-response","3","68500","0.0-1.0-1.0","0","0","59898","","2440","","","32","","","","","","","","","","","","","","","","",""
"","S1","","html-keyboard-response","4","68753","0.0-1.0-2.0","0","0","59898","","null","","","null","0","","","","","","","","","","","","","","","",""
"","ISI","","html-keyboard-response","5","70756","0.0-1.0-3.0","0","0","59898","","null","","","null","0","NaN","","","","","","","","","","","","","","",""
"","S2","","html-keyboard-response","6","71009","0.0-1.0-4.0","0","0","59898","","null","","","null","0","","NaN","","","","","","","","","","","","","",""
"","response","","html-keyboard-response","7","72563","0.0-1.0-5.0-0.0","0","0","59898","","1551","","","68","0","","","1","0","training","adjacent","DC","4","3","R.jpg","L.jpg","1","0","0","",""
"","feedback","","html-keyboard-response","8","73565","0.0-1.0-6.0-0.0","0","0","59898","","null","","","null","0","","","","","","","","","","","","","","","",""
"","time_out","","html-keyboard-response","9","75568","0.0-1.0-8.0-0.0","0","0","59898","","null","","","null","0","","","","","","","","","","","","","","","",""
"","ITI","","html-keyboard-response","10","76570","0.0-1.0-9.0","0","0","59898","","null","","","null","0","","","","","","","","","","","","","","","NaN",""
"","S1","","html-keyboard-response","11","76823","0.0-1.0-11.0","0","0","59898","","null","","","null","1","","","","","","","","","","","","","","","",""
"","ISI","","html-keyboard-response","12","78824","0.0-1.0-12.0","0","0","59898","","794","","","68","1","d","","","","","","","","","","","","","","",""
"","S2","","html-keyboard-response","13","78980","0.0-1.0-13.0","0","0","59898","","154","","","75","1","","k","1","1","training","adjacent","CD","3","4","L.jpg","R.jpg","0","1","0","",""
"","feedback","","html-keyboard-response","14","79983","0.0-1.0-15.0-0.0","0","0","59898","","null","","","null","1","","","","","","","","","","","","","","","",""
"","time_out","","html-keyboard-response","15","81985","0.0-1.0-17.0-0.0","0","0","59898","","null","","","null","1","","","","","","","","","","","","","","","",""
"","ITI","","html-keyboard-response","16","82991","0.0-1.0-18.0","0","0","59898","","null","","","null","1","","","","","","","","","","","","","","","NaN",""
"","S1","","html-keyboard-response","17","83244","0.0-1.0-20.0","0","0","59898","","null","","","null","2","","","","","","","","","","","","","","","",""
"","ISI","","html-keyboard-response","18","85247","0.0-1.0-21.0","0","0","59898","","1045","","","68","2","d","","","","","","","","","","","","","","",""
"","S2","","html-keyboard-response","19","85499","0.0-1.0-22.0","0","0","59898","","null","","","null","2","","NaN","","","","","","","","","","","","","",""
"","response","","html-keyboard-response","20","87251","0.0-1.0-23.0-0.0","0","0","59898","","null","","","null","2","","","1","2","training","adjacent","GF","7","6","N.jpg","O.jpg","NaN","0","0","",""
"","too_slow_prompt","","html-keyboard-response","21","88253","0.0-1.0-25.0-0.0","1","0","59898","","null","","","null","","","","","","","","","","","","","","","","",""
"","time_out","","html-keyboard-response","22","90255","0.0-1.0-26.0-0.0","0","0","59898","","null","","","null","2","","","","","","","","","","","","","","","",""
"","ITI","","html-keyboard-response","23","91260","0.0-1.0-27.0","0","0","59898","","null","","","null","2","","","","","","","","","","","","","","","NaN",""
"","S1","","html-keyboard-response","24","91513","0.0-1.0-29.0","0","0","59898","","null","","","null","3","","","","","","","","","","","","","","","",""
"","ISI","","html-keyboard-response","25","93515","0.0-1.0-30.0","0","0","59898","","null","","","null","3","NaN","","","","","","","","","","","","","","",""
"","S2","","html-keyboard-response","26","93768","0.0-1.0-31.0","0","0","59898","","null","","","null","3","","NaN","","","","","","","","","","","","","",""
"","response","","html-keyboard-response","27","94452","0.0-1.0-32.0-0.0","0","0","59898","","683","","","68","3","","","1","3","training","adjacent","AB","1","2","Q.jpg","P.jpg","1","1","1","",""
"","feedback","","html-keyboard-response","28","95455","0.0-1.0-33.0-0.0","0","0","59898","","null","","","null","3","","","","","","","","","","","","","","","",""
"","ITI","","html-keyboard-response","29","96457","0.0-1.0-36.0","0","0","59898","","null","","","null","3","","","","","","","","","","","","","","","NaN",""
"","S1","","html-keyboard-response","30","96710","0.0-1.0-38.0","0","0","59898","","null","","","null","4","","","","","","","","","","","","","","","",""
"","ISI","","html-keyboard-response","31","98712","0.0-1.0-39.0","0","0","59898","","null","","","null","4","NaN","","","","","","","","","","","","","","",""
"","S2","","html-keyboard-response","32","98964","0.0-1.0-40.0","0","0","59898","","null","","","null","4","","NaN","","","","","","","","","","","","","",""
"","response","","html-keyboard-response","33","99522","0.0-1.0-41.0-0.0","0","0","59898","","557","","","68","4","","","1","4","training","adjacent","BA","2","1","P.jpg","Q.jpg","1","0","0","",""
"","feedback","","html-keyboard-response","34","100524","0.0-1.0-42.0-0.0","0","0","59898","","null","","","null","4","","","","","","","","","","","","","","","",""
"","time_out","","html-keyboard-response","35","102526","0.0-1.0-44.0-0.0","0","0","59898","","null","","","null","4","","","","","","","","","","","","","","","",""
"","ITI","","html-keyboard-response","36","103528","0.0-1.0-45.0","0","0","59898","","null","","","null","4","","","","","","","","","","","","","","","NaN",""
"","S1","","html-keyboard-response","37","103781","0.0-1.0-47.0","0","0","59898","","null","","","null","5","","","","","","","","","","","","","","","",""
"","ISI","","html-keyboard-response","38","105782","0.0-1.0-48.0","0","0","59898","","null","","","null","5","NaN","","","","","","","","","","","","","","",""
"","S2","","html-keyboard-response","39","106035","0.0-1.0-49.0","0","0","59898","","null","","","null","5","","NaN","","","","","","","","","","","","","",""
"","response","","html-keyboard-response","40","106516","0.0-1.0-50.0-0.0","0","0","59898","","480","","","75","5","","","1","5","training","adjacent","FG","6","7","O.jpg","N.jpg","0","1","0","",""
"","feedback","","html-keyboard-response","41","107523","0.0-1.0-51.0-0.0","0","0","59898","","null","","","null","5","","","","","","","","","","","","","","","",""
"","time_out","","html-keyboard-response","42","109525","0.0-1.0-53.0-0.0","0","0","59898","","null","","","null","5","","","","","","","","","","","","","","","",""
"","ITI","","html-keyboard-response","43","110528","0.0-1.0-54.0","0","0","59898","","null","","","null","5","","","","","","","","","","","","","","","NaN",""
"","S1","","html-keyboard-response","44","110780","0.0-1.0-56.0","0","0","59898","","null","","","null","6","","","","","","","","","","","","","","","",""
"","ISI","","html-keyboard-response","45","112782","0.0-1.0-57.0","0","0","59898","","null","","","null","6","NaN","","","","","","","","","","","","","","",""
"","S2","","html-keyboard-response","46","113034","0.0-1.0-58.0","0","0","59898","","null","","","null","6","","NaN","","","","","","","","","","","","","",""
"","response","","html-keyboard-response","47","113170","0.0-1.0-59.0-0.0","0","0","59898","","134","","","68","6","","","1","6","training","adjacent","FE","6","5","O.jpg","M.jpg","1","0","0","",""
"","feedback","","html-keyboard-response","48","114173","0.0-1.0-60.0-0.0","0","0","59898","","null","","","null","6","","","","","","","","","","","","","","","",""
"","time_out","","html-keyboard-response","49","116175","0.0-1.0-62.0-0.0","0","0","59898","","null","","","null","6","","","","","","","","","","","","","","","",""
"","ITI","","html-keyboard-response","50","117177","0.0-1.0-63.0","0","0","59898","","null","","","null","6","","","","","","","","","","","","","","","NaN",""
"","S1","","html-keyboard-response","51","117429","0.0-1.0-65.0","0","0","59898","","null","","","null","7","","","","","","","","","","","","","","","",""
"","ISI","","html-keyboard-response","52","119433","0.0-1.0-66.0","0","0","59898","","null","","","null","7","NaN","","","","","","","","","","","","","","",""
"","S2","","html-keyboard-response","53","119685","0.0-1.0-67.0","0","0","59898","","null","","","null","7","","NaN","","","","","","","","","","","","","",""
"","response","","html-keyboard-response","54","120341","0.0-1.0-68.0-0.0","0","0","59898","","654","","","68","7","","","1","7","training","adjacent","DE","4","5","R.jpg","M.jpg","1","1","1","",""
"","feedback","","html-keyboard-response","55","121343","0.0-1.0-69.0-0.0","0","0","59898","","null","","","null","7","","","","","","","","","","","","","","","",""
"","ITI","","html-keyboard-response","56","122345","0.0-1.0-72.0","0","0","59898","","null","","","null","7","","","","","","","","","","","","","","","NaN",""
"","S1","","html-keyboard-response","57","122608","0.0-1.0-74.0","0","0","59898","","null","","","null","8","","","","","","","","","","","","","","","",""
"","ISI","","html-keyboard-response","58","124610","0.0-1.0-75.0","0","0","59898","","null","","","null","8","NaN","","","","","","","","","","","","","","",""
"","S2","","html-keyboard-response","59","124862","0.0-1.0-76.0","0","0","59898","","null","","","null","8","","NaN","","","","","","","","","","","","","",""
"","response","","html-keyboard-response","60","125011","0.0-1.0-77.0-0.0","0","0","59898","","148","","","75","8","","","1","8","training","adjacent","ED","5","4","M.jpg","R.jpg","0","0","1","",""
"","feedback","","html-keyboard-response","61","126013","0.0-1.0-78.0-0.0","0","0","59898","","null","","","null","8","","","","","","","","","","","","","","","",""
"","ITI","","html-keyboard-response","62","127015","0.0-1.0-81.0","0","0","59898","","null","","","null","8","","","","","","","","","","","","","","","NaN",""
"","S1","","html-keyboard-response","63","127277","0.0-1.0-83.0","0","0","59898","","null","","","null","9","","","","","","","","","","","","","","","",""
"","ISI","","html-keyboard-response","64","129279","0.0-1.0-84.0","0","0","59898","","null","","","null","9","NaN","","","","","","","","","","","","","","",""
"","S2","","html-keyboard-response","65","129531","0.0-1.0-85.0","0","0","59898","","null","","","null","9","","NaN","","","","","","","","","","","","","",""
"","response","","html-keyboard-response","66","130067","0.0-1.0-86.0-0.0","0","0","59898","","534","","","75","9","","","1","9","training","adjacent","DC","4","3","R.jpg","L.jpg","0","0","1","",""
"","feedback","","html-keyboard-response","67","131069","0.0-1.0-87.0-0.0","0","0","59898","","null","","","null","9","","","","","","","","","","","","","","","",""
"","ITI","","html-keyboard-response","68","132072","0.0-1.0-90.0","0","0","59898","","null","","","null","9","","","","","","","","","","","","","","","NaN",""
"","S1","","html-keyboard-response","69","132324","0.0-1.0-92.0","0","0","59898","","null","","","null","10","","","","","","","","","","","","","","","",""
"","ISI","","html-keyboard-response","70","134327","0.0-1.0-93.0","0","0","59898","","null","","","null","10","NaN","","","","","","","","","","","","","","",""
"","S2","","html-keyboard-response","71","134579","0.0-1.0-94.0","0","0","59898","","null","","","null","10","","NaN","","","","","","","","","","","","","",""
"","response","","html-keyboard-response","72","134756","0.0-1.0-95.0-0.0","0","0","59898","","175","","","75","10","","","1","10","training","adjacent","EF","5","6","M.jpg","O.jpg","0","1","0","",""
"","feedback","","html-keyboard-response","73","135759","0.0-1.0-96.0-0.0","0","0","59898","","null","","","null","10","","","","","","","","","","","","","","","",""
"","time_out","","html-keyboard-response","74","137762","0.0-1.0-98.0-0.0","0","0","59898","","null","","","null","10","","","","","","","","","","","","","","","",""
"","ITI","","html-keyboard-response","75","138764","0.0-1.0-99.0","0","0","59898","","null","","","null","10","","","","","","","","","","","","","","","NaN",""
"","S1","","html-keyboard-response","76","139017","0.0-1.0-101.0","0","0","59898","","null","","","null","11","","","","","","","","","","","","","","","",""
"","ISI","","html-keyboard-response","77","141019","0.0-1.0-102.0","0","0","59898","","null","","","null","11","NaN","","","","","","","","","","","","","","",""
"","S2","","html-keyboard-response","78","141271","0.0-1.0-103.0","0","0","59898","","null","","","null","11","","NaN","","","","","","","","","","","","","",""
"","response","","html-keyboard-response","79","141859","0.0-1.0-104.0-0.0","0","0","59898","","587","","","75","11","","","1","11","training","adjacent","GF","7","6","N.jpg","O.jpg","0","0","1","",""
"","feedback","","html-keyboard-response","80","142862","0.0-1.0-105.0-0.0","0","0","59898","","null","","","null","11","","","","","","","","","","","","","","","",""
"","ITI","","html-keyboard-response","81","143864","0.0-1.0-108.0","0","0","59898","","null","","","null","11","","","","","","","","","","","","","","","NaN",""
"","S1","","html-keyboard-response","82","144117","0.0-1.0-110.0","0","0","59898","","null","","","null","12","","","","","","","","","","","","","","","",""
"","ISI","","html-keyboard-response","83","146119","0.0-1.0-111.0","0","0","59898","","null","","","null","12","NaN","","","","","","","","","","","","","","",""
"","S2","","html-keyboard-response","84","146371","0.0-1.0-112.0","0","0","59898","","null","","","null","12","","NaN","","","","","","","","","","","","","",""
"","response","","html-keyboard-response","85","147156","0.0-1.0-113.0-0.0","0","0","59898","","784","","","68","12","","","1","12","training","adjacent","FE","6","5","O.jpg","M.jpg","1","0","0","",""
"","feedback","","html-keyboard-response","86","148159","0.0-1.0-114.0-0.0","0","0","59898","","null","","","null","12","","","","","","","","","","","","","","","",""
"","time_out","","html-keyboard-response","87","150162","0.0-1.0-116.0-0.0","0","0","59898","","null","","","null","12","","","","","","","","","","","","","","","",""
"","ITI","","html-keyboard-response","88","151164","0.0-1.0-117.0","0","0","59898","","null","","","null","12","","","","","","","","","","","","","","","NaN",""
"","S1","","html-keyboard-response","89","151417","0.0-1.0-119.0","0","0","59898","","null","","","null","13","","","","","","","","","","","","","","","",""
"","ISI","","html-keyboard-response","90","153419","0.0-1.0-120.0","0","0","59898","","null","","","null","13","NaN","","","","","","","","","","","","","","",""
"","S2","","html-keyboard-response","91","153672","0.0-1.0-121.0","0","0","59898","","null","","","null","13","","NaN","","","","","","","","","","","","","",""
"","response","","html-keyboard-response","92","154275","0.0-1.0-122.0-0.0","0","0","59898","","602","","","68","13","","","1","13","training","adjacent","CB","3","2","L.jpg","P.jpg","1","0","0","",""
"","feedback","","html-keyboard-response","93","155277","0.0-1.0-123.0-0.0","0","0","59898","","null","","","null","13","","","","","","","","","","","","","","","",""
"","time_out","","html-keyboard-response","94","157279","0.0-1.0-125.0-0.0","0","0","59898","","null","","","null","13","","","","","","","","","","","","","","","",""
"","ITI","","html-keyboard-response","95","158281","0.0-1.0-126.0","0","0","59898","","null","","","null","13","","","","","","","","","","","","","","","NaN",""
"","S1","","html-keyboard-response","96","158533","0.0-1.0-128.0","0","0","59898","","null","","","null","14","","","","","","","","","","","","","","","",""
"","ISI","","html-keyboard-response","97","160535","0.0-1.0-129.0","0","0","59898","","null","","","null","14","NaN","","","","","","","","","","","","","","",""
"","S2","","html-keyboard-response","98","160789","0.0-1.0-130.0","0","0","59898","","null","","","null","14","","NaN","","","","","","","","","","","","","",""
"","response","","html-keyboard-response","99","161284","0.0-1.0-131.0-0.0","0","0","59898","","495","","","75","14","","","1","14","training","adjacent","EF","5","6","M.jpg","O.jpg","0","1","0","",""
"","feedback","","html-keyboard-response","100","162287","0.0-1.0-132.0-0.0","0","0","59898","","null","","","null","14","","","","","","","","","","","","","","","",""
"","time_out","","html-keyboard-response","101","164289","0.0-1.0-134.0-0.0","0","0","59898","","null","","","null","14","","","","","","","","","","","","","","","",""
"","ITI","","html-keyboard-response","102","165291","0.0-1.0-135.0","0","0","59898","","null","","","null","14","","","","","","","","","","","","","","","NaN",""
"","S1","","html-keyboard-response","103","165543","0.0-1.0-137.0","0","0","59898","","null","","","null","15","","","","","","","","","","","","","","","",""
"","ISI","","html-keyboard-response","104","167546","0.0-1.0-138.0","0","0","59898","","null","","","null","15","NaN","","","","","","","","","","","","","","",""
"","S2","","html-keyboard-response","105","167800","0.0-1.0-139.0","0","0","59898","","null","","","null","15","","NaN","","","","","","","","","","","","","",""
"","response","","html-keyboard-response","106","168371","0.0-1.0-140.0-0.0","0","0","59898","","570","","","75","15","","","1","15","training","adjacent","AB","1","2","Q.jpg","P.jpg","0","1","0","",""
"","feedback","","html-keyboard-response","107","169373","0.0-1.0-141.0-0.0","0","0","59898","","null","","","null","15","","","","","","","","","","","","","","","",""
"","time_out","","html-keyboard-response","108","171377","0.0-1.0-143.0-0.0","0","0","59898","","null","","","null","15","","","","","","","","","","","","","","","",""
"","ITI","","html-keyboard-response","109","172379","0.0-1.0-144.0","0","0","59898","","null","","","null","15","","","","","","","","","","","","","","","NaN",""
"","S1","","html-keyboard-response","110","172631","0.0-1.0-146.0","0","0","59898","","null","","","null","16","","","","","","","","","","","","","","","",""
"","ISI","","html-keyboard-response","111","174633","0.0-1.0-147.0","0","0","59898","","null","","","null","16","NaN","","","","","","","","","","","","","","",""
"","S2","","html-keyboard-response","112","174886","0.0-1.0-148.0","0","0","59898","","null","","","null","16","","NaN","","","","","","","","","","","","","",""
"","response","","html-keyboard-response","113","175428","0.0-1.0-149.0-0.0","0","0","59898","","541","","","68","16","","","1","16","training","adjacent","FG","6","7","O.jpg","N.jpg","1","1","1","",""
"","feedback","","html-keyboard-response","114","176431","0.0-1.0-150.0-0.0","0","0","59898","","null","","","null","16","","","","","","","","","","","","","","","",""
"","ITI","","html-keyboard-response","115","177433","0.0-1.0-153.0","0","0","59898","","null","","","null","16","","","","","","","","","","","","","","","NaN",""
"","S1","","html-keyboard-response","116","177685","0.0-1.0-155.0","0","0","59898","","null","","","null","17","","","","","","","","","","","","","","","",""
"","ISI","","html-keyboard-response","117","179688","0.0-1.0-156.0","0","0","59898","","null","","","null","17","NaN","","","","","","","","","","","","","","",""
"","S2","","html-keyboard-response","118","179940","0.0-1.0-157.0","0","0","59898","","null","","","null","17","","NaN","","","","","","","","","","","","","",""
"","response","","html-keyboard-response","119","181694","0.0-1.0-158.0-0.0","0","0","59898","","null","","","null","17","","","1","17","training","adjacent","BA","2","1","P.jpg","Q.jpg","NaN","0","0","",""
"","too_slow_prompt","","html-keyboard-response","120","182696","0.0-1.0-160.0-0.0","1","0","59898","","null","","","null","","","","","","","","","","","","","","","","",""
"","time_out","","html-keyboard-response","121","184699","0.0-1.0-161.0-0.0","0","0","59898","","null","","","null","17","","","","","","","","","","","","","","","",""
"","ITI","","html-keyboard-response","122","185701","0.0-1.0-162.0","0","0","59898","","null","","","null","17","","","","","","","","","","","","","","","NaN",""
"","S1","","html-keyboard-response","123","185954","0.0-1.0-164.0","0","0","59898","","null","","","null","18","","","","","","","","","","","","","","","",""
"","ISI","","html-keyboard-response","124","187956","0.0-1.0-165.0","0","0","59898","","null","","","null","18","NaN","","","","","","","","","","","","","","",""
"","S2","","html-keyboard-response","125","188209","0.0-1.0-166.0","0","0","59898","","null","","","null","18","","NaN","","","","","","","","","","","","","",""
"","response","","html-keyboard-response","126","188868","0.0-1.0-167.0-0.0","0","0","59898","","658","","","68","18","","","1","18","training","adjacent","DC","4","3","R.jpg","L.jpg","1","0","0","",""
"","feedback","","html-keyboard-response","127","189871","0.0-1.0-168.0-0.0","0","0","59898","","null","","","null","18","","","","","","","","","","","","","","","",""
"","time_out","","html-keyboard-response","128","191873","0.0-1.0-170.0-0.0","0","0","59898","","null","","","null","18","","","","","","","","","","","","","","","",""
"","ITI","","html-keyboard-response","129","192875","0.0-1.0-171.0","0","0","59898","","null","","","null","18","","","","","","","","","","","","","","","NaN",""
"","S1","","html-keyboard-response","130","193129","0.0-1.0-173.0","0","0","59898","","null","","","null","19","","","","","","","","","","","","","","","",""
"","ISI","","html-keyboard-response","131","195131","0.0-1.0-174.0","0","0","59898","","null","","","null","19","NaN","","","","","","","","","","","","","","",""
"","S2","","html-keyboard-response","132","195384","0.0-1.0-175.0","0","0","59898","","null","","","null","19","","NaN","","","","","","","","","","","","","",""
"","response","","html-keyboard-response","133","195795","0.0-1.0-176.0-0.0","0","0","59898","","410","","","68","19","","","1","19","training","adjacent","ED","5","4","M.jpg","R.jpg","1","0","0","",""
"","feedback","","html-keyboard-response","134","196797","0.0-1.0-177.0-0.0","0","0","59898","","null","","","null","19","","","","","","","","","","","","","","","",""
"","time_out","","html-keyboard-response","135","198799","0.0-1.0-179.0-0.0","0","0","59898","","null","","","null","19","","","","","","","","","","","","","","","",""
"","ITI","","html-keyboard-response","136","199801","0.0-1.0-180.0","0","0","59898","","null","","","null","19","","","","","","","","","","","","","","","NaN",""
"","S1","","html-keyboard-response","137","200053","0.0-1.0-182.0","0","0","59898","","null","","","null","20","","","","","","","","","","","","","","","",""
"","ISI","","html-keyboard-response","138","202056","0.0-1.0-183.0","0","0","59898","","542","","","75","20","k","","","","","","","","","","","","","","",""
"","S2","","html-keyboard-response","139","202310","0.0-1.0-184.0","0","0","59898","","null","","","null","20","","NaN","","","","","","","","","","","","","",""
"","response","","html-keyboard-response","140","202403","0.0-1.0-185.0-0.0","0","0","59898","","92","","","75","20","","","1","20","training","adjacent","BA","2","1","P.jpg","Q.jpg","0","0","1","",""
"","feedback","","html-keyboard-response","141","203406","0.0-1.0-186.0-0.0","0","0","59898","","null","","","null","20","","","","","","","","","","","","","","","",""
"","ITI","","html-keyboard-response","142","204408","0.0-1.0-189.0","0","0","59898","","null","","","null","20","","","","","","","","","","","","","","","NaN",""
"","S1","","html-keyboard-response","143","204661","0.0-1.0-191.0","0","0","59898","","null","","","null","21","","","","","","","","","","","","","","","",""
"","ISI","","html-keyboard-response","144","206663","0.0-1.0-192.0","0","0","59898","","null","","","null","21","NaN","","","","","","","","","","","","","","",""
"","S2","","html-keyboard-response","145","206915","0.0-1.0-193.0","0","0","59898","","null","","","null","21","","NaN","","","","","","","","","","","","","",""
"","response","","html-keyboard-response","146","207410","0.0-1.0-194.0-0.0","0","0","59898","","494","","","75","21","","","1","21","training","adjacent","DE","4","5","R.jpg","M.jpg","0","1","0","",""
"","feedback","","html-keyboard-response","147","208412","0.0-1.0-195.0-0.0","0","0","59898","","null","","","null","21","","","","","","","","","","","","","","","",""
"","time_out","","html-keyboard-response","148","210414","0.0-1.0-197.0-0.0","0","0","59898","","null","","","null","21","","","","","","","","","","","","","","","",""
"","ITI","","html-keyboard-response","149","211417","0.0-1.0-198.0","0","0","59898","","null","","","null","21","","","","","","","","","","","","","","","NaN",""
"","S1","","html-keyboard-response","150","211669","0.0-1.0-200.0","0","0","59898","","null","","","null","22","","","","","","","","","","","","","","","",""
"","ISI","","html-keyboard-response","151","213671","0.0-1.0-201.0","0","0","59898","","null","","","null","22","NaN","","","","","","","","","","","","","","",""
"","S2","","html-keyboard-response","152","213924","0.0-1.0-202.0","0","0","59898","","null","","","null","22","","NaN","","","","","","","","","","","","","",""
"","response","","html-keyboard-response","153","214245","0.0-1.0-203.0-0.0","0","0","59898","","319","","","75","22","","","1","22","training","adjacent","DE","4","5","R.jpg","M.jpg","0","1","0","",""
"","feedback","","html-keyboard-response","154","215247","0.0-1.0-204.0-0.0","0","0","59898","","null","","","null","22","","","","","","","","","","","","","","","",""
"","time_out","","html-keyboard-response","155","217249","0.0-1.0-206.0-0.0","0","0","59898","","null","","","null","22","","","","","","","","","","","","","","","",""
"","ITI","","html-keyboard-response","156","218251","0.0-1.0-207.0","0","0","59898","","null","","","null","22","","","","","","","","","","","","","","","NaN",""
"","S1","","html-keyboard-response","157","218504","0.0-1.0-209.0","0","0","59898","","null","","","null","23","","","","","","","","","","","","","","","",""
"","ISI","","html-keyboard-response","158","220506","0.0-1.0-210.0","0","0","59898","","null","","","null","23","NaN","","","","","","","","","","","","","","",""
"","S2","","html-keyboard-response","159","220765","0.0-1.0-211.0","0","0","59898","","null","","","null","23","","NaN","","","","","","","","","","","","","",""
"","response","","html-keyboard-response","160","221298","0.0-1.0-212.0-0.0","0","0","59898","","532","","","68","23","","","1","23","training","adjacent","AB","1","2","Q.jpg","P.jpg","1","1","1","",""
"","feedback","","html-keyboard-response","161","222301","0.0-1.0-213.0-0.0","0","0","59898","","null","","","null","23","","","","","","","","","","","","","","","",""
"","ITI","","html-keyboard-response","162","223304","0.0-1.0-216.0","0","0","59898","","null","","","null","23","","","","","","","","","","","","","","","NaN",""
"","S1","","html-keyboard-response","163","223557","0.0-1.0-218.0","0","0","59898","","null","","","null","24","","","","","","","","","","","","","","","",""
"","ISI","","html-keyboard-response","164","225558","0.0-1.0-219.0","0","0","59898","","null","","","null","24","NaN","","","","","","","","","","","","","","",""
"","S2","","html-keyboard-response","165","225811","0.0-1.0-220.0","0","0","59898","","null","","","null","24","","NaN","","","","","","","","","","","","","",""
"","response","","html-keyboard-response","166","226214","0.0-1.0-221.0-0.0","0","0","59898","","402","","","75","24","","","1","24","training","adjacent","FE","6","5","O.jpg","M.jpg","0","0","1","",""
"","feedback","","html-keyboard-response","167","227216","0.0-1.0-222.0-0.0","0","0","59898","","null","","","null","24","","","","","","","","","","","","","","","",""
"","ITI","","html-keyboard-response","168","228219","0.0-1.0-225.0","0","0","59898","","null","","","null","24","","","","","","","","","","","","","","","NaN",""
"","S1","","html-keyboard-response","169","228471","0.0-1.0-227.0","0","0","59898","","null","","","null","25","","","","","","","","","","","","","","","",""
"","ISI","","html-keyboard-response","170","230473","0.0-1.0-228.0","0","0","59898","","null","","","null","25","NaN","","","","","","","","","","","","","","",""
"","S2","","html-keyboard-response","171","230725","0.0-1.0-229.0","0","0","59898","","null","","","null","25","","NaN","","","","","","","","","","","","","",""
"","response","","html-keyboard-response","172","231202","0.0-1.0-230.0-0.0","0","0","59898","","476","","","68","25","","","1","25","training","adjacent","CB","3","2","L.jpg","P.jpg","1","0","0","",""
"","feedback","","html-keyboard-response","173","232205","0.0-1.0-231.0-0.0","0","0","59898","","null","","","null","25","","","","","","","","","","","","","","","",""
"","time_out","","html-keyboard-response","174","234207","0.0-1.0-233.0-0.0","0","0","59898","","null","","","null","25","","","","","","","","","","","","","","","",""
"","ITI","","html-keyboard-response","175","235210","0.0-1.0-234.0","0","0","59898","","null","","","null","25","","","","","","","","","","","","","","","NaN",""
"","S1","","html-keyboard-response","176","235463","0.0-1.0-236.0","0","0","59898","","null","","","null","26","","","","","","","","","","","","","","","",""
"","ISI","","html-keyboard-response","177","237466","0.0-1.0-237.0","0","0","59898","","null","","","null","26","NaN","","","","","","","","","","","","","","",""
"","S2","","html-keyboard-response","178","237718","0.0-1.0-238.0","0","0","59898","","null","","","null","26","","NaN","","","","","","","","","","","","","",""
"","response","","html-keyboard-response","179","238164","0.0-1.0-239.0-0.0","0","0","59898","","445","","","68","26","","","1","26","training","adjacent","CB","3","2","L.jpg","P.jpg","1","0","0","",""
"","feedback","","html-keyboard-response","180","239166","0.0-1.0-240.0-0.0","0","0","59898","","null","","","null","26","","","","","","","","","","","","","","","",""
"","time_out","","html-keyboard-response","181","241169","0.0-1.0-242.0-0.0","0","0","59898","","null","","","null","26","","","","","","","","","","","","","","","",""
"","ITI","","html-keyboard-response","182","242171","0.0-1.0-243.0","0","0","59898","","null","","","null","26","","","","","","","","","","","","","","","NaN",""
"","S1","","html-keyboard-response","183","242424","0.0-1.0-245.0","0","0","59898","","null","","","null","27","","","","","","","","","","","","","","","",""
"","ISI","","html-keyboard-response","184","244425","0.0-1.0-246.0","0","0","59898","","null","","","null","27","NaN","","","","","","","","","","","","","","",""
"","S2","","html-keyboard-response","185","244681","0.0-1.0-247.0","0","0","59898","","null","","","null","27","","NaN","","","","","","","","","","","","","",""
"","response","","html-keyboard-response","186","245347","0.0-1.0-248.0-0.0","0","0","59898","","665","","","75","27","","","1","27","training","adjacent","BC","2","3","P.jpg","L.jpg","0","1","0","",""
"","feedback","","html-keyboard-response","187","246349","0.0-1.0-249.0-0.0","0","0","59898","","null","","","null","27","","","","","","","","","","","","","","","",""
"","time_out","","html-keyboard-response","188","248352","0.0-1.0-251.0-0.0","0","0","59898","","null","","","null","27","","","","","","","","","","","","","","","",""
"","ITI","","html-keyboard-response","189","249354","0.0-1.0-252.0","0","0","59898","","null","","","null","27","","","","","","","","","","","","","","","NaN",""
"","S1","","html-keyboard-response","190","249606","0.0-1.0-254.0","0","0","59898","","null","","","null","28","","","","","","","","","","","","","","","",""
"","ISI","","html-keyboard-response","191","251611","0.0-1.0-255.0","0","0","59898","","null","","","null","28","NaN","","","","","","","","","","","","","","",""
"","S2","","html-keyboard-response","192","251863","0.0-1.0-256.0","0","0","59898","","null","","","null","28","","NaN","","","","","","","","","","","","","",""
"","response","","html-keyboard-response","193","252340","0.0-1.0-257.0-0.0","0","0","59898","","475","","","68","28","","","1","28","training","adjacent","FG","6","7","O.jpg","N.jpg","1","1","1","",""
"","feedback","","html-keyboard-response","194","253343","0.0-1.0-258.0-0.0","0","0","59898","","null","","","null","28","","","","","","","","","","","","","","","",""
"","ITI","","html-keyboard-response","195","254346","0.0-1.0-261.0","0","0","59898","","null","","","null","28","","","","","","","","","","","","","","","NaN",""
"","S1","","html-keyboard-response","196","254610","0.0-1.0-263.0","0","0","59898","","null","","","null","29","","","","","","","","","","","","","","","",""
"","ISI","","html-keyboard-response","197","256612","0.0-1.0-264.0","0","0","59898","","null","","","null","29","NaN","","","","","","","","","","","","","","",""
"","S2","","html-keyboard-response","198","256864","0.0-1.0-265.0","0","0","59898","","null","","","null","29","","NaN","","","","","","","","","","","","","",""
"","response","","html-keyboard-response","199","257315","0.0-1.0-266.0-0.0","0","0","59898","","449","","","75","29","","","1","29","training","adjacent","GF","7","6","N.jpg","O.jpg","0","0","1","",""
"","feedback","","html-keyboard-response","200","258318","0.0-1.0-267.0-0.0","0","0","59898","","null","","","null","29","","","","","","","","","","","","","","","",""
"","ITI","","html-keyboard-response","201","259320","0.0-1.0-270.0","0","0","59898","","null","","","null","29","","","","","","","","","","","","","","","NaN",""
"","S1","","html-keyboard-response","202","259573","0.0-1.0-272.0","0","0","59898","","null","","","null","30","","","","","","","","","","","","","","","",""
"","ISI","","html-keyboard-response","203","261575","0.0-1.0-273.0","0","0","59898","","null","","","null","30","NaN","","","","","","","","","","","","","","",""
"","S2","","html-keyboard-response","204","261833","0.0-1.0-274.0","0","0","59898","","null","","","null","30","","NaN","","","","","","","","","","","","","",""
"","response","","html-keyboard-response","205","263076","0.0-1.0-275.0-0.0","0","0","59898","","1241","","","68","30","","","1","30","training","adjacent","DC","4","3","R.jpg","L.jpg","1","0","0","",""
"","feedback","","html-keyboard-response","206","264080","0.0-1.0-276.0-0.0","0","0","59898","","null","","","null","30","","","","","","","","","","","","","","","",""
"","time_out","","html-keyboard-response","207","266081","0.0-1.0-278.0-0.0","0","0","59898","","null","","","null","30","","","","","","","","","","","","","","","",""
"","ITI","","html-keyboard-response","208","267083","0.0-1.0-279.0","0","0","59898","","null","","","null","30","","","","","","","","","","","","","","","NaN",""
"","S1","","html-keyboard-response","209","267335","0.0-1.0-281.0","0","0","59898","","null","","","null","31","","","","","","","","","","","","","","","",""
"","ISI","","html-keyboard-response","210","269337","0.0-1.0-282.0","0","0","59898","","null","","","null","31","NaN","","","","","","","","","","","","","","",""
"","S2","","html-keyboard-response","211","269590","0.0-1.0-283.0","0","0","59898","","null","","","null","31","","NaN","","","","","","","","","","","","","",""
"","response","","html-keyboard-response","212","269890","0.0-1.0-284.0-0.0","0","0","59898","","299","","","75","31","","","1","31","training","adjacent","CD","3","4","L.jpg","R.jpg","0","1","0","",""
"","feedback","","html-keyboard-response","213","270893","0.0-1.0-285.0-0.0","0","0","59898","","null","","","null","31","","","","","","","","","","","","","","","",""
"","time_out","","html-keyboard-response","214","272895","0.0-1.0-287.0-0.0","0","0","59898","","null","","","null","31","","","","","","","","","","","","","","","",""
"","ITI","","html-keyboard-response","215","273897","0.0-1.0-288.0","0","0","59898","","null","","","null","31","","","","","","","","","","","","","","","NaN",""
"","S1","","html-keyboard-response","216","274150","0.0-1.0-290.0","0","0","59898","","null","","","null","32","","","","","","","","","","","","","","","",""
"","ISI","","html-keyboard-response","217","276151","0.0-1.0-291.0","0","0","59898","","1774","","","68","32","d","","","","","","","","","","","","","","",""
"","S2","","html-keyboard-response","218","276404","0.0-1.0-292.0","0","0","59898","","null","","","null","32","","NaN","","","","","","","","","","","","","",""
"","response","","html-keyboard-response","219","276643","0.0-1.0-293.0-0.0","0","0","59898","","238","","","68","32","","","1","32","training","adjacent","BC","2","3","P.jpg","L.jpg","1","1","1","",""
"","feedback","","html-keyboard-response","220","277645","0.0-1.0-294.0-0.0","0","0","59898","","null","","","null","32","","","","","","","","","","","","","","","",""
"","ITI","","html-keyboard-response","221","278647","0.0-1.0-297.0","0","0","59898","","null","","","null","32","","","","","","","","","","","","","","","NaN",""
"","S1","","html-keyboard-response","222","278899","0.0-1.0-299.0","0","0","59898","","null","","","null","33","","","","","","","","","","","","","","","",""
"","ISI","","html-keyboard-response","223","280901","0.0-1.0-300.0","0","0","59898","","null","","","null","33","NaN","","","","","","","","","","","","","","",""
"","S2","","html-keyboard-response","224","281153","0.0-1.0-301.0","0","0","59898","","null","","","null","33","","NaN","","","","","","","","","","","","","",""
"","response","","html-keyboard-response","225","282179","0.0-1.0-302.0-0.0","0","0","59898","","1025","","","68","33","","","1","33","training","adjacent","FE","6","5","O.jpg","M.jpg","1","0","0","",""
"","feedback","","html-keyboard-response","226","283181","0.0-1.0-303.0-0.0","0","0","59898","","null","","","null","33","","","","","","","","","","","","","","","",""
"","time_out","","html-keyboard-response","227","285183","0.0-1.0-305.0-0.0","0","0","59898","","null","","","null","33","","","","","","","","","","","","","","","",""
"","ITI","","html-keyboard-response","228","286185","0.0-1.0-306.0","0","0","59898","","null","","","null","33","","","","","","","","","","","","","","","NaN",""
"","S1","","html-keyboard-response","229","286437","0.0-1.0-308.0","0","0","59898","","null","","","null","34","","","","","","","","","","","","","","","",""
"","ISI","","html-keyboard-response","230","288439","0.0-1.0-309.0","0","0","59898","","null","","","null","34","NaN","","","","","","","","","","","","","","",""
"","S2","","html-keyboard-response","231","288692","0.0-1.0-310.0","0","0","59898","","null","","","null","34","","NaN","","","","","","","","","","","","","",""
"","response","","html-keyboard-response","232","289093","0.0-1.0-311.0-0.0","0","0","59898","","400","","","68","34","","","1","34","training","adjacent","ED","5","4","M.jpg","R.jpg","1","0","0","",""
"","feedback","","html-keyboard-response","233","290096","0.0-1.0-312.0-0.0","0","0","59898","","null","","","null","34","","","","","","","","","","","","","","","",""
"","time_out","","html-keyboard-response","234","292098","0.0-1.0-314.0-0.0","0","0","59898","","null","","","null","34","","","","","","","","","","","","","","","",""
"","ITI","","html-keyboard-response","235","293100","0.0-1.0-315.0","0","0","59898","","null","","","null","34","","","","","","","","","","","","","","","NaN",""
"","S1","","html-keyboard-response","236","293352","0.0-1.0-317.0","0","0","59898","","null","","","null","35","","","","","","","","","","","","","","","",""
"","ISI","","html-keyboard-response","237","295355","0.0-1.0-318.0","0","0","59898","","null","","","null","35","NaN","","","","","","","","","","","","","","",""
"","S2","","html-keyboard-response","238","295616","0.0-1.0-319.0","0","0","59898","","null","","","null","35","","NaN","","","","","","","","","","","","","",""
"","response","","html-keyboard-response","239","295811","0.0-1.0-320.0-0.0","0","0","59898","","193","","","75","35","","","1","35","training","adjacent","CB","3","2","L.jpg","P.jpg","0","0","1","",""
"","feedback","","html-keyboard-response","240","296813","0.0-1.0-321.0-0.0","0","0","59898","","null","","","null","35","","","","","","","","","","","","","","","",""
"","ITI","","html-keyboard-response","241","297816","0.0-1.0-324.0","0","0","59898","","null","","","null","35","","","","","","","","","","","","","","","NaN",""
"","S1","","html-keyboard-response","242","298068","0.0-1.0-326.0","0","0","59898","","null","","","null","36","","","","","","","","","","","","","","","",""
"","ISI","","html-keyboard-response","243","300070","0.0-1.0-327.0","0","0","59898","","null","","","null","36","NaN","","","","","","","","","","","","","","",""
"","S2","","html-keyboard-response","244","300322","0.0-1.0-328.0","0","0","59898","","null","","","null","36","","NaN","","","","","","","","","","","","","",""
"","response","","html-keyboard-response","245","300612","0.0-1.0-329.0-0.0","0","0","59898","","289","","","68","36","","","1","36","training","adjacent","ED","5","4","M.jpg","R.jpg","1","0","0","",""
"","feedback","","html-keyboard-response","246","301614","0.0-1.0-330.0-0.0","0","0","59898","","null","","","null","36","","","","","","","","","","","","","","","",""
"","time_out","","html-keyboard-response","247","303618","0.0-1.0-332.0-0.0","0","0","59898","","null","","","null","36","","","","","","","","","","","","","","","",""
"","ITI","","html-keyboard-response","248","304620","0.0-1.0-333.0","0","0","59898","","null","","","null","36","","","","","","","","","","","","","","","NaN",""
"","S1","","html-keyboard-response","249","304873","0.0-1.0-335.0","0","0","59898","","null","","","null","37","","","","","","","","","","","","","","","",""
"","ISI","","html-keyboard-response","250","306876","0.0-1.0-336.0","0","0","59898","","null","","","null","37","NaN","","","","","","","","","","","","","","",""
"","S2","","html-keyboard-response","251","307129","0.0-1.0-337.0","0","0","59898","","null","","","null","37","","NaN","","","","","","","","","","","","","",""
"","response","","html-keyboard-response","252","307267","0.0-1.0-338.0-0.0","0","0","59898","","136","","","75","37","","","1","37","training","adjacent","CD","3","4","L.jpg","R.jpg","0","1","0","",""
"","feedback","","html-keyboard-response","253","308269","0.0-1.0-339.0-0.0","0","0","59898","","null","","","null","37","","","","","","","","","","","","","","","",""
"","time_out","","html-keyboard-response","254","310271","0.0-1.0-341.0-0.0","0","0","59898","","null","","","null","37","","","","","","","","","","","","","","","",""
"","ITI","","html-keyboard-response","255","311273","0.0-1.0-342.0","0","0","59898","","null","","","null","37","","","","","","","","","","","","","","","NaN",""
"","S1","","html-keyboard-response","256","311525","0.0-1.0-344.0","0","0","59898","","null","","","null","38","","","","","","","","","","","","","","","",""
"","ISI","","html-keyboard-response","257","313528","0.0-1.0-345.0","0","0","59898","","null","","","null","38","NaN","","","","","","","","","","","","","","",""
"","S2","","html-keyboard-response","258","313781","0.0-1.0-346.0","0","0","59898","","null","","","null","38","","NaN","","","","","","","","","","","","","",""
"","response","","html-keyboard-response","259","314212","0.0-1.0-347.0-0.0","0","0","59898","","430","","","75","38","","","1","38","training","adjacent","EF","5","6","M.jpg","O.jpg","0","1","0","",""
"","feedback","","html-keyboard-response","260","315214","0.0-1.0-348.0-0.0","0","0","59898","","null","","","null","38","","","","","","","","","","","","","","","",""
"","time_out","","html-keyboard-response","261","317216","0.0-1.0-350.0-0.0","0","0","59898","","null","","","null","38","","","","","","","","","","","","","","","",""
"","ITI","","html-keyboard-response","262","318219","0.0-1.0-351.0","0","0","59898","","null","","","null","38","","","","","","","","","","","","","","","NaN",""
"","S1","","html-keyboard-response","263","318471","0.0-1.0-353.0","0","0","59898","","null","","","null","39","","","","","","","","","","","","","","","",""
"","ISI","","html-keyboard-response","264","320474","0.0-1.0-354.0","0","0","59898","","603","","","68","39","d","","","","","","","","","","","","","","",""
"","S2","","html-keyboard-response","265","320726","0.0-1.0-355.0","0","0","59898","","null","","","null","39","","NaN","","","","","","","","","","","","","",""
"","response","","html-keyboard-response","266","321075","0.0-1.0-356.0-0.0","0","0","59898","","347","","","68","39","","","1","39","training","adjacent","FG","6","7","O.jpg","N.jpg","1","1","1","",""
"","feedback","","html-keyboard-response","267","322078","0.0-1.0-357.0-0.0","0","0","59898","","null","","","null","39","","","","","","","","","","","","","","","",""
"","ITI","","html-keyboard-response","268","323080","0.0-1.0-360.0","0","0","59898","","null","","","null","39","","","","","","","","","","","","","","","NaN",""
"","S1","","html-keyboard-response","269","323332","0.0-1.0-362.0","0","0","59898","","null","","","null","40","","","","","","","","","","","","","","","",""
"","ISI","","html-keyboard-response","270","325335","0.0-1.0-363.0","0","0","59898","","null","","","null","40","NaN","","","","","","","","","","","","","","",""
"","S2","","html-keyboard-response","271","325587","0.0-1.0-364.0","0","0","59898","","null","","","null","40","","NaN","","","","","","","","","","","","","",""
"","response","","html-keyboard-response","272","325893","0.0-1.0-365.0-0.0","0","0","59898","","304","","","68","40","","","1","40","training","adjacent","BA","2","1","P.jpg","Q.jpg","1","0","0","",""
"","feedback","","html-keyboard-response","273","326897","0.0-1.0-366.0-0.0","0","0","59898","","null","","","null","40","","","","","","","","","","","","","","","",""
"","time_out","","html-keyboard-response","274","328900","0.0-1.0-368.0-0.0","0","0","59898","","null","","","null","40","","","","","","","","","","","","","","","",""
"","ITI","","html-keyboard-response","275","329902","0.0-1.0-369.0","0","0","59898","","null","","","null","40","","","","","","","","","","","","","","","NaN",""
"","S1","","html-keyboard-response","276","330154","0.0-1.0-371.0","0","0","59898","","null","","","null","41","","","","","","","","","","","","","","","",""
"","ISI","","html-keyboard-response","277","332156","0.0-1.0-372.0","0","0","59898","","null","","","null","41","NaN","","","","","","","","","","","","","","",""
"","S2","","html-keyboard-response","278","332408","0.0-1.0-373.0","0","0","59898","","null","","","null","41","","NaN","","","","","","","","","","","","","",""
"","response","","html-keyboard-response","279","333026","0.0-1.0-374.0-0.0","0","0","59898","","617","","","75","41","","","1","41","training","adjacent","BC","2","3","P.jpg","L.jpg","0","1","0","",""
"","feedback","","html-keyboard-response","280","334036","0.0-1.0-375.0-0.0","0","0","59898","","null","","","null","41","","","","","","","","","","","","","","","",""
"","time_out","","html-keyboard-response","281","336040","0.0-1.0-377.0-0.0","0","0","59898","","null","","","null","41","","","","","","","","","","","","","","","",""
"","ITI","","html-keyboard-response","282","337042","0.0-1.0-378.0","0","0","59898","","null","","","null","41","","","","","","","","","","","","","","","NaN",""
"","S1","","html-keyboard-response","283","337293","0.0-1.0-380.0","0","0","59898","","null","","","null","42","","","","","","","","","","","","","","","",""
"","ISI","","html-keyboard-response","284","339295","0.0-1.0-381.0","0","0","59898","","null","","","null","42","NaN","","","","","","","","","","","","","","",""
"","S2","","html-keyboard-response","285","339549","0.0-1.0-382.0","0","0","59898","","null","","","null","42","","NaN","","","","","","","","","","","","","",""
"","response","","html-keyboard-response","286","339909","0.0-1.0-383.0-0.0","0","0","59898","","359","","","75","42","","","1","42","training","adjacent","EF","5","6","M.jpg","O.jpg","0","1","0","",""
"","feedback","","html-keyboard-response","287","340912","0.0-1.0-384.0-0.0","0","0","59898","","null","","","null","42","","","","","","","","","","","","","","","",""
"","time_out","","html-keyboard-response","288","342914","0.0-1.0-386.0-0.0","0","0","59898","","null","","","null","42","","","","","","","","","","","","","","","",""
"","ITI","","html-keyboard-response","289","343916","0.0-1.0-387.0","0","0","59898","","null","","","null","42","","","","","","","","","","","","","","","NaN",""
"","S1","","html-keyboard-response","290","344168","0.0-1.0-389.0","0","0","59898","","null","","","null","43","","","","","","","","","","","","","","","",""
"","ISI","","html-keyboard-response","291","346170","0.0-1.0-390.0","0","0","59898","","null","","","null","43","NaN","","","","","","","","","","","","","","",""
"","S2","","html-keyboard-response","292","346423","0.0-1.0-391.0","0","0","59898","","null","","","null","43","","NaN","","","","","","","","","","","","","",""
"","response","","html-keyboard-response","293","346578","0.0-1.0-392.0-0.0","0","0","59898","","154","","","75","43","","","1","43","training","adjacent","CD","3","4","L.jpg","R.jpg","0","1","0","",""
"","feedback","","html-keyboard-response","294","347580","0.0-1.0-393.0-0.0","0","0","59898","","null","","","null","43","","","","","","","","","","","","","","","",""
"","time_out","","html-keyboard-response","295","349582","0.0-1.0-395.0-0.0","0","0","59898","","null","","","null","43","","","","","","","","","","","","","","","",""
"","ITI","","html-keyboard-response","296","350584","0.0-1.0-396.0","0","0","59898","","null","","","null","43","","","","","","","","","","","","","","","NaN",""
"","S1","","html-keyboard-response","297","350836","0.0-1.0-398.0","0","0","59898","","null","","","null","44","","","","","","","","","","","","","","","",""
"","ISI","","html-keyboard-response","298","352838","0.0-1.0-399.0","0","0","59898","","null","","","null","44","NaN","","","","","","","","","","","","","","",""
"","S2","","html-keyboard-response","299","353090","0.0-1.0-400.0","0","0","59898","","null","","","null","44","","NaN","","","","","","","","","","","","","",""
"","response","","html-keyboard-response","300","353508","0.0-1.0-401.0-0.0","0","0","59898","","416","","","68","44","","","1","44","training","adjacent","DE","4","5","R.jpg","M.jpg","1","1","1","",""
"","feedback","","html-keyboard-response","301","354511","0.0-1.0-402.0-0.0","0","0","59898","","null","","","null","44","","","","","","","","","","","","","","","",""
"","ITI","","html-keyboard-response","302","355513","0.0-1.0-405.0","0","0","59898","","null","","","null","44","","","","","","","","","","","","","","","NaN",""
"","S1","","html-keyboard-response","303","355766","0.0-1.0-407.0","0","0","59898","","null","","","null","45","","","","","","","","","","","","","","","",""
"","ISI","","html-keyboard-response","304","357769","0.0-1.0-408.0","0","0","59898","","null","","","null","45","NaN","","","","","","","","","","","","","","",""
"","S2","","html-keyboard-response","305","358021","0.0-1.0-409.0","0","0","59898","","null","","","null","45","","NaN","","","","","","","","","","","","","",""
"","response","","html-keyboard-response","306","358403","0.0-1.0-410.0-0.0","0","0","59898","","381","","","68","45","","","1","45","training","adjacent","BC","2","3","P.jpg","L.jpg","1","1","1","",""
"","feedback","","html-keyboard-response","307","359405","0.0-1.0-411.0-0.0","0","0","59898","","null","","","null","45","","","","","","","","","","","","","","","",""
"","ITI","","html-keyboard-response","308","360407","0.0-1.0-414.0","0","0","59898","","null","","","null","45","","","","","","","","","","","","","","","NaN",""
"","S1","","html-keyboard-response","309","360660","0.0-1.0-416.0","0","0","59898","","null","","","null","46","","","","","","","","","","","","","","","",""
"","ISI","","html-keyboard-response","310","362662","0.0-1.0-417.0","0","0","59898","","null","","","null","46","NaN","","","","","","","","","","","","","","",""
"","S2","","html-keyboard-response","311","362914","0.0-1.0-418.0","0","0","59898","","null","","","null","46","","NaN","","","","","","","","","","","","","",""
"","response","","html-keyboard-response","312","363203","0.0-1.0-419.0-0.0","0","0","59898","","287","","","75","46","","","1","46","training","adjacent","AB","1","2","Q.jpg","P.jpg","0","1","0","",""
"","feedback","","html-keyboard-response","313","364206","0.0-1.0-420.0-0.0","0","0","59898","","null","","","null","46","","","","","","","","","","","","","","","",""
"","time_out","","html-keyboard-response","314","366209","0.0-1.0-422.0-0.0","0","0","59898","","null","","","null","46","","","","","","","","","","","","","","","",""
"","ITI","","html-keyboard-response","315","367211","0.0-1.0-423.0","0","0","59898","","null","","","null","46","","","","","","","","","","","","","","","NaN",""
"","S1","","html-keyboard-response","316","367463","0.0-1.0-425.0","0","0","59898","","null","","","null","47","","","","","","","","","","","","","","","",""
"","ISI","","html-keyboard-response","317","369465","0.0-1.0-426.0","0","0","59898","","null","","","null","47","NaN","","","","","","","","","","","","","","",""
"","S2","","html-keyboard-response","318","369718","0.0-1.0-427.0","0","0","59898","","null","","","null","47","","NaN","","","","","","","","","","","","","",""
"","response","","html-keyboard-response","319","370084","0.0-1.0-428.0-0.0","0","0","59898","","364","","","75","47","","","1","47","training","adjacent","GF","7","6","N.jpg","O.jpg","0","0","1","",""
"","feedback","","html-keyboard-response","320","371087","0.0-1.0-429.0-0.0","0","0","59898","","null","","","null","47","","","","","","","","","","","","","","","",""
"","ITI","","html-keyboard-response","321","372089","0.0-1.0-432.0","0","0","59898","","null","","","null","47","","","","","","","","","","","","","","","NaN",""
"","block_over","","html-keyboard-response","322","388261","0.0-1.0-433.0-0.0","0","0","59898","","16170","","","32","47","","","","","","","","","","","","","","","",""
"","S1","","html-keyboard-response","323","388513","0.0-1.0-434.0","0","0","59898","","null","","","null","48","","","","","","","","","","","","","","","",""
"","ISI","","html-keyboard-response","324","390515","0.0-1.0-435.0","0","0","59898","","null","","","null","48","NaN","","","","","","","","","","","","","","",""
"","S2","","html-keyboard-response","325","390767","0.0-1.0-436.0","0","0","59898","","null","","","null","48","","NaN","","","","","","","","","","","","","",""
"","response","","html-keyboard-response","326","391282","0.0-1.0-437.0-0.0","0","0","59898","","513","","","75","48","","","2","48","training","adjacent","GF","7","6","N.jpg","O.jpg","0","0","1","",""
"","feedback","","html-keyboard-response","327","392285","0.0-1.0-438.0-0.0","0","0","59898","","null","","","null","48","","","","","","","","","","","","","","","",""
"","ITI","","html-keyboard-response","328","393287","0.0-1.0-441.0","0","0","59898","","null","","","null","48","","","","","","","","","","","","","","","NaN",""
"","S1","","html-keyboard-response","329","393539","0.0-1.0-443.0","0","0","59898","","null","","","null","49","","","","","","","","","","","","","","","",""
"","ISI","","html-keyboard-response","330","395542","0.0-1.0-444.0","0","0","59898","","null","","","null","49","NaN","","","","","","","","","","","","","","",""
"","S2","","html-keyboard-response","331","395794","0.0-1.0-445.0","0","0","59898","","null","","","null","49","","NaN","","","","","","","","","","","","","",""
"","response","","html-keyboard-response","332","395923","0.0-1.0-446.0-0.0","0","0","59898","","127","","","75","49","","","2","49","training","adjacent","AB","1","2","Q.jpg","P.jpg","0","1","0","",""
"","feedback","","html-keyboard-response","333","396925","0.0-1.0-447.0-0.0","0","0","59898","","null","","","null","49","","","","","","","","","","","","","","","",""
"","time_out","","html-keyboard-response","334","398927","0.0-1.0-449.0-0.0","0","0","59898","","null","","","null","49","","","","","","","","","","","","","","","",""
"","ITI","","html-keyboard-response","335","399929","0.0-1.0-450.0","0","0","59898","","null","","","null","49","","","","","","","","","","","","","","","NaN",""
"","S1","","html-keyboard-response","336","400182","0.0-1.0-452.0","0","0","59898","","null","","","null","50","","","","","","","","","","","","","","","",""
"","ISI","","html-keyboard-response","337","402184","0.0-1.0-453.0","0","0","59898","","null","","","null","50","NaN","","","","","","","","","","","","","","",""
"","S2","","html-keyboard-response","338","402436","0.0-1.0-454.0","0","0","59898","","null","","","null","50","","NaN","","","","","","","","","","","","","",""
"","response","","html-keyboard-response","339","402820","0.0-1.0-455.0-0.0","0","0","59898","","383","","","68","50","","","2","50","training","adjacent","BC","2","3","P.jpg","L.jpg","1","1","1","",""
"","feedback","","html-keyboard-response","340","403823","0.0-1.0-456.0-0.0","0","0","59898","","null","","","null","50","","","","","","","","","","","","","","","",""
"","ITI","","html-keyboard-response","341","404826","0.0-1.0-459.0","0","0","59898","","null","","","null","50","","","","","","","","","","","","","","","NaN",""
"","S1","","html-keyboard-response","342","405078","0.0-1.0-461.0","0","0","59898","","null","","","null","51","","","","","","","","","","","","","","","",""
"","ISI","","html-keyboard-response","343","407084","0.0-1.0-462.0","0","0","59898","","null","","","null","51","NaN","","","","","","","","","","","","","","",""
"","S2","","html-keyboard-response","344","407336","0.0-1.0-463.0","0","0","59898","","null","","","null","51","","NaN","","","","","","","","","","","","","",""
"","response","","html-keyboard-response","345","407778","0.0-1.0-464.0-0.0","0","0","59898","","440","","","68","51","","","2","51","training","adjacent","DE","4","5","R.jpg","M.jpg","1","1","1","",""
"","feedback","","html-keyboard-response","346","408781","0.0-1.0-465.0-0.0","0","0","59898","","null","","","null","51","","","","","","","","","","","","","","","",""
"","ITI","","html-keyboard-response","347","409783","0.0-1.0-468.0","0","0","59898","","null","","","null","51","","","","","","","","","","","","","","","NaN",""
"","S1","","html-keyboard-response","348","410036","0.0-1.0-470.0","0","0","59898","","null","","","null","52","","","","","","","","","","","","","","","",""
"","ISI","","html-keyboard-response","349","412039","0.0-1.0-471.0","0","0","59898","","null","","","null","52","NaN","","","","","","","","","","","","","","",""
"","S2","","html-keyboard-response","350","412292","0.0-1.0-472.0","0","0","59898","","null","","","null","52","","NaN","","","","","","","","","","","","","",""
"","response","","html-keyboard-response","351","412737","0.0-1.0-473.0-0.0","0","0","59898","","444","","","75","52","","","2","52","training","adjacent","AB","1","2","Q.jpg","P.jpg","0","1","0","",""
"","feedback","","html-keyboard-response","352","413740","0.0-1.0-474.0-0.0","0","0","59898","","null","","","null","52","","","","","","","","","","","","","","","",""
"","time_out","","html-keyboard-response","353","415742","0.0-1.0-476.0-0.0","0","0","59898","","null","","","null","52","","","","","","","","","","","","","","","",""
"","ITI","","html-keyboard-response","354","416744","0.0-1.0-477.0","0","0","59898","","null","","","null","52","","","","","","","","","","","","","","","NaN",""
"","S1","","html-keyboard-response","355","416997","0.0-1.0-479.0","0","0","59898","","null","","","null","53","","","","","","","","","","","","","","","",""
"","ISI","","html-keyboard-response","356","418999","0.0-1.0-480.0","0","0","59898","","null","","","null","53","NaN","","","","","","","","","","","","","","",""
"","S2","","html-keyboard-response","357","419251","0.0-1.0-481.0","0","0","59898","","null","","","null","53","","NaN","","","","","","","","","","","","","",""
"","response","","html-keyboard-response","358","419684","0.0-1.0-482.0-0.0","0","0","59898","","431","","","68","53","","","2","53","training","adjacent","FG","6","7","O.jpg","N.jpg","1","1","1","",""
"","feedback","","html-keyboard-response","359","420687","0.0-1.0-483.0-0.0","0","0","59898","","null","","","null","53","","","","","","","","","","","","","","","",""
"","ITI","","html-keyboard-response","360","421689","0.0-1.0-486.0","0","0","59898","","null","","","null","53","","","","","","","","","","","","","","","NaN",""
"","S1","","html-keyboard-response","361","421942","0.0-1.0-488.0","0","0","59898","","null","","","null","54","","","","","","","","","","","","","","","",""
"","ISI","","html-keyboard-response","362","423944","0.0-1.0-489.0","0","0","59898","","null","","","null","54","NaN","","","","","","","","","","","","","","",""
"","S2","","html-keyboard-response","363","424211","0.0-1.0-490.0","0","0","59898","","null","","","null","54","","NaN","","","","","","","","","","","","","",""
"","response","","html-keyboard-response","364","424578","0.0-1.0-491.0-0.0","0","0","59898","","366","","","75","54","","","2","54","training","adjacent","CB","3","2","L.jpg","P.jpg","0","0","1","",""
"","feedback","","html-keyboard-response","365","425581","0.0-1.0-492.0-0.0","0","0","59898","","null","","","null","54","","","","","","","","","","","","","","","",""
"","ITI","","html-keyboard-response","366","426584","0.0-1.0-495.0","0","0","59898","","null","","","null","54","","","","","","","","","","","","","","","NaN",""
"","S1","","html-keyboard-response","367","426836","0.0-1.0-497.0","0","0","59898","","null","","","null","55","","","","","","","","","","","","","","","",""
"","ISI","","html-keyboard-response","368","428839","0.0-1.0-498.0","0","0","59898","","null","","","null","55","NaN","","","","","","","","","","","","","","",""
"","S2","","html-keyboard-response","369","429091","0.0-1.0-499.0","0","0","59898","","null","","","null","55","","NaN","","","","","","","","","","","","","",""
"","response","","html-keyboard-response","370","429426","0.0-1.0-500.0-0.0","0","0","59898","","334","","","68","55","","","2","55","training","adjacent","BC","2","3","P.jpg","L.jpg","1","1","1","",""
"","feedback","","html-keyboard-response","371","430428","0.0-1.0-501.0-0.0","0","0","59898","","null","","","null","55","","","","","","","","","","","","","","","",""
"","ITI","","html-keyboard-response","372","431430","0.0-1.0-504.0","0","0","59898","","null","","","null","55","","","","","","","","","","","","","","","NaN",""
"","S1","","html-keyboard-response","373","431682","0.0-1.0-506.0","0","0","59898","","null","","","null","56","","","","","","","","","","","","","","","",""
"","ISI","","html-keyboard-response","374","433685","0.0-1.0-507.0","0","0","59898","","null","","","null","56","NaN","","","","","","","","","","","","","","",""
"","S2","","html-keyboard-response","375","433937","0.0-1.0-508.0","0","0","59898","","null","","","null","56","","NaN","","","","","","","","","","","","","",""
"","response","","html-keyboard-response","376","434212","0.0-1.0-509.0-0.0","0","0","59898","","274","","","68","56","","","2","56","training","adjacent","FE","6","5","O.jpg","M.jpg","1","0","0","",""
"","feedback","","html-keyboard-response","377","435214","0.0-1.0-510.0-0.0","0","0","59898","","null","","","null","56","","","","","","","","","","","","","","","",""
"","time_out","","html-keyboard-response","378","437217","0.0-1.0-512.0-0.0","0","0","59898","","null","","","null","56","","","","","","","","","","","","","","","",""
"","ITI","","html-keyboard-response","379","438219","0.0-1.0-513.0","0","0","59898","","null","","","null","56","","","","","","","","","","","","","","","NaN",""
"","S1","","html-keyboard-response","380","438472","0.0-1.0-515.0","0","0","59898","","null","","","null","57","","","","","","","","","","","","","","","",""
"","ISI","","html-keyboard-response","381","440474","0.0-1.0-516.0","0","0","59898","","null","","","null","57","NaN","","","","","","","","","","","","","","",""
"","S2","","html-keyboard-response","382","440739","0.0-1.0-517.0","0","0","59898","","null","","","null","57","","NaN","","","","","","","","","","","","","",""
"","response","","html-keyboard-response","383","441026","0.0-1.0-518.0-0.0","0","0","59898","","286","","","75","57","","","2","57","training","adjacent","EF","5","6","M.jpg","O.jpg","0","1","0","",""
"","feedback","","html-keyboard-response","384","442029","0.0-1.0-519.0-0.0","0","0","59898","","null","","","null","57","","","","","","","","","","","","","","","",""
"","time_out","","html-keyboard-response","385","444032","0.0-1.0-521.0-0.0","0","0","59898","","null","","","null","57","","","","","","","","","","","","","","","",""
"","ITI","","html-keyboard-response","386","445035","0.0-1.0-522.0","0","0","59898","","null","","","null","57","","","","","","","","","","","","","","","NaN",""
"","S1","","html-keyboard-response","387","445288","0.0-1.0-524.0","0","0","59898","","null","","","null","58","","","","","","","","","","","","","","","",""
"","ISI","","html-keyboard-response","388","447290","0.0-1.0-525.0","0","0","59898","","null","","","null","58","NaN","","","","","","","","","","","","","","",""
"","S2","","html-keyboard-response","389","447543","0.0-1.0-526.0","0","0","59898","","null","","","null","58","","NaN","","","","","","","","","","","","","",""
"","response","","html-keyboard-response","390","447844","0.0-1.0-527.0-0.0","0","0","59898","","300","","","75","58","","","2","58","training","adjacent","CB","3","2","L.jpg","P.jpg","0","0","1","",""
"","feedback","","html-keyboard-response","391","448847","0.0-1.0-528.0-0.0","0","0","59898","","null","","","null","58","","","","","","","","","","","","","","","",""
"","ITI","","html-keyboard-response","392","449849","0.0-1.0-531.0","0","0","59898","","null","","","null","58","","","","","","","","","","","","","","","NaN",""
"","S1","","html-keyboard-response","393","450102","0.0-1.0-533.0","0","0","59898","","null","","","null","59","","","","","","","","","","","","","","","",""
"","ISI","","html-keyboard-response","394","452103","0.0-1.0-534.0","0","0","59898","","null","","","null","59","NaN","","","","","","","","","","","","","","",""
"","S2","","html-keyboard-response","395","452356","0.0-1.0-535.0","0","0","59898","","null","","","null","59","","NaN","","","","","","","","","","","","","",""
"","response","","html-keyboard-response","396","452658","0.0-1.0-536.0-0.0","0","0","59898","","301","","","75","59","","","2","59","training","adjacent","CD","3","4","L.jpg","R.jpg","0","1","0","",""
"","feedback","","html-keyboard-response","397","453661","0.0-1.0-537.0-0.0","0","0","59898","","null","","","null","59","","","","","","","","","","","","","","","",""
"","time_out","","html-keyboard-response","398","455664","0.0-1.0-539.0-0.0","0","0","59898","","null","","","null","59","","","","","","","","","","","","","","","",""
"","ITI","","html-keyboard-response","399","456666","0.0-1.0-540.0","0","0","59898","","null","","","null","59","","","","","","","","","","","","","","","NaN",""
"","S1","","html-keyboard-response","400","456919","0.0-1.0-542.0","0","0","59898","","null","","","null","60","","","","","","","","","","","","","","","",""
"","ISI","","html-keyboard-response","401","458922","0.0-1.0-543.0","0","0","59898","","null","","","null","60","NaN","","","","","","","","","","","","","","",""
"","S2","","html-keyboard-response","402","459174","0.0-1.0-544.0","0","0","59898","","null","","","null","60","","NaN","","","","","","","","","","","","","",""
"","response","","html-keyboard-response","403","459381","0.0-1.0-545.0-0.0","0","0","59898","","205","","","75","60","","","2","60","training","adjacent","EF","5","6","M.jpg","O.jpg","0","1","0","",""
"","feedback","","html-keyboard-response","404","460383","0.0-1.0-546.0-0.0","0","0","59898","","null","","","null","60","","","","","","","","","","","","","","","",""
"","time_out","","html-keyboard-response","405","462385","0.0-1.0-548.0-0.0","0","0","59898","","null","","","null","60","","","","","","","","","","","","","","","",""
"","ITI","","html-keyboard-response","406","463392","0.0-1.0-549.0","0","0","59898","","null","","","null","60","","","","","","","","","","","","","","","NaN",""
"","S1","","html-keyboard-response","407","463645","0.0-1.0-551.0","0","0","59898","","null","","","null","61","","","","","","","","","","","","","","","",""
"","ISI","","html-keyboard-response","408","465649","0.0-1.0-552.0","0","0","59898","","null","","","null","61","NaN","","","","","","","","","","","","","","",""
"","S2","","html-keyboard-response","409","465901","0.0-1.0-553.0","0","0","59898","","null","","","null","61","","NaN","","","","","","","","","","","","","",""
"","response","","html-keyboard-response","410","466307","0.0-1.0-554.0-0.0","0","0","59898","","404","","","75","61","","","2","61","training","adjacent","BA","2","1","P.jpg","Q.jpg","0","0","1","",""
"","feedback","","html-keyboard-response","411","467311","0.0-1.0-555.0-0.0","0","0","59898","","null","","","null","61","","","","","","","","","","","","","","","",""
"","ITI","","html-keyboard-response","412","468313","0.0-1.0-558.0","0","0","59898","","null","","","null","61","","","","","","","","","","","","","","","NaN",""
"","S1","","html-keyboard-response","413","468566","0.0-1.0-560.0","0","0","59898","","null","","","null","62","","","","","","","","","","","","","","","",""
"","ISI","","html-keyboard-response","414","470568","0.0-1.0-561.0","0","0","59898","","null","","","null","62","NaN","","","","","","","","","","","","","","",""
"","S2","","html-keyboard-response","415","470820","0.0-1.0-562.0","0","0","59898","","null","","","null","62","","NaN","","","","","","","","","","","","","",""
"","response","","html-keyboard-response","416","471284","0.0-1.0-563.0-0.0","0","0","59898","","462","","","68","62","","","2","62","training","adjacent","FE","6","5","O.jpg","M.jpg","1","0","0","",""
"","feedback","","html-keyboard-response","417","472287","0.0-1.0-564.0-0.0","0","0","59898","","null","","","null","62","","","","","","","","","","","","","","","",""
"","time_out","","html-keyboard-response","418","474290","0.0-1.0-566.0-0.0","0","0","59898","","null","","","null","62","","","","","","","","","","","","","","","",""
"","ITI","","html-keyboard-response","419","475293","0.0-1.0-567.0","0","0","59898","","null","","","null","62","","","","","","","","","","","","","","","NaN",""
"","S1","","html-keyboard-response","420","475546","0.0-1.0-569.0","0","0","59898","","null","","","null","63","","","","","","","","","","","","","","","",""
"","ISI","","html-keyboard-response","421","477549","0.0-1.0-570.0","0","0","59898","","null","","","null","63","NaN","","","","","","","","","","","","","","",""
"","S2","","html-keyboard-response","422","477801","0.0-1.0-571.0","0","0","59898","","null","","","null","63","","NaN","","","","","","","","","","","","","",""
"","response","","html-keyboard-response","423","478226","0.0-1.0-572.0-0.0","0","0","59898","","423","","","68","63","","","2","63","training","adjacent","BC","2","3","P.jpg","L.jpg","1","1","1","",""
"","feedback","","html-keyboard-response","424","479229","0.0-1.0-573.0-0.0","0","0","59898","","null","","","null","63","","","","","","","","","","","","","","","",""
"","ITI","","html-keyboard-response","425","480231","0.0-1.0-576.0","0","0","59898","","null","","","null","63","","","","","","","","","","","","","","","NaN",""
"","S1","","html-keyboard-response","426","480483","0.0-1.0-578.0","0","0","59898","","null","","","null","64","","","","","","","","","","","","","","","",""
"","ISI","","html-keyboard-response","427","482485","0.0-1.0-579.0","0","0","59898","","null","","","null","64","NaN","","","","","","","","","","","","","","",""
"","S2","","html-keyboard-response","428","482738","0.0-1.0-580.0","0","0","59898","","null","","","null","64","","NaN","","","","","","","","","","","","","",""
"","response","","html-keyboard-response","429","483092","0.0-1.0-581.0-0.0","0","0","59898","","353","","","75","64","","","2","64","training","adjacent","AB","1","2","Q.jpg","P.jpg","0","1","0","",""
"","feedback","","html-keyboard-response","430","484095","0.0-1.0-582.0-0.0","0","0","59898","","null","","","null","64","","","","","","","","","","","","","","","",""
"","time_out","","html-keyboard-response","431","486097","0.0-1.0-584.0-0.0","0","0","59898","","null","","","null","64","","","","","","","","","","","","","","","",""
"","ITI","","html-keyboard-response","432","487100","0.0-1.0-585.0","0","0","59898","","null","","","null","64","","","","","","","","","","","","","","","NaN",""
"","S1","","html-keyboard-response","433","487353","0.0-1.0-587.0","0","0","59898","","null","","","null","65","","","","","","","","","","","","","","","",""
"","ISI","","html-keyboard-response","434","489355","0.0-1.0-588.0","0","0","59898","","null","","","null","65","NaN","","","","","","","","","","","","","","",""
"","S2","","html-keyboard-response","435","489612","0.0-1.0-589.0","0","0","59898","","null","","","null","65","","NaN","","","","","","","","","","","","","",""
"","response","","html-keyboard-response","436","490147","0.0-1.0-590.0-0.0","0","0","59898","","533","","","75","65","","","2","65","training","adjacent","GF","7","6","N.jpg","O.jpg","0","0","1","",""
"","feedback","","html-keyboard-response","437","491150","0.0-1.0-591.0-0.0","0","0","59898","","null","","","null","65","","","","","","","","","","","","","","","",""
"","ITI","","html-keyboard-response","438","492152","0.0-1.0-594.0","0","0","59898","","null","","","null","65","","","","","","","","","","","","","","","NaN",""
"","S1","","html-keyboard-response","439","492405","0.0-1.0-596.0","0","0","59898","","null","","","null","66","","","","","","","","","","","","","","","",""
"","ISI","","html-keyboard-response","440","494407","0.0-1.0-597.0","0","0","59898","","null","","","null","66","NaN","","","","","","","","","","","","","","",""
"","S2","","html-keyboard-response","441","494660","0.0-1.0-598.0","0","0","59898","","null","","","null","66","","NaN","","","","","","","","","","","","","",""
"","response","","html-keyboard-response","442","494948","0.0-1.0-599.0-0.0","0","0","59898","","287","","","75","66","","","2","66","training","adjacent","CD","3","4","L.jpg","R.jpg","0","1","0","",""
"","feedback","","html-keyboard-response","443","495951","0.0-1.0-600.0-0.0","0","0","59898","","null","","","null","66","","","","","","","","","","","","","","","",""
"","time_out","","html-keyboard-response","444","497953","0.0-1.0-602.0-0.0","0","0","59898","","null","","","null","66","","","","","","","","","","","","","","","",""
"","ITI","","html-keyboard-response","445","498955","0.0-1.0-603.0","0","0","59898","","null","","","null","66","","","","","","","","","","","","","","","NaN",""
"","S1","","html-keyboard-response","446","499221","0.0-1.0-605.0","0","0","59898","","null","","","null","67","","","","","","","","","","","","","","","",""
"","ISI","","html-keyboard-response","447","501224","0.0-1.0-606.0","0","0","59898","","null","","","null","67","NaN","","","","","","","","","","","","","","",""
"","S2","","html-keyboard-response","448","501477","0.0-1.0-607.0","0","0","59898","","null","","","null","67","","NaN","","","","","","","","","","","","","",""
"","response","","html-keyboard-response","449","501938","0.0-1.0-608.0-0.0","0","0","59898","","459","","","68","67","","","2","67","training","adjacent","FG","6","7","O.jpg","N.jpg","1","1","1","",""
"","feedback","","html-keyboard-response","450","502941","0.0-1.0-609.0-0.0","0","0","59898","","null","","","null","67","","","","","","","","","","","","","","","",""
"","ITI","","html-keyboard-response","451","503943","0.0-1.0-612.0","0","0","59898","","null","","","null","67","","","","","","","","","","","","","","","NaN",""
"","S1","","html-keyboard-response","452","504195","0.0-1.0-614.0","0","0","59898","","null","","","null","68","","","","","","","","","","","","","","","",""
"","ISI","","html-keyboard-response","453","506198","0.0-1.0-615.0","0","0","59898","","null","","","null","68","NaN","","","","","","","","","","","","","","",""
"","S2","","html-keyboard-response","454","506450","0.0-1.0-616.0","0","0","59898","","null","","","null","68","","NaN","","","","","","","","","","","","","",""
"","response","","html-keyboard-response","455","506868","0.0-1.0-617.0-0.0","0","0","59898","","417","","","75","68","","","2","68","training","adjacent","GF","7","6","N.jpg","O.jpg","0","0","1","",""
"","feedback","","html-keyboard-response","456","507871","0.0-1.0-618.0-0.0","0","0","59898","","null","","","null","68","","","","","","","","","","","","","","","",""
"","ITI","","html-keyboard-response","457","508873","0.0-1.0-621.0","0","0","59898","","null","","","null","68","","","","","","","","","","","","","","","NaN",""
"","S1","","html-keyboard-response","458","509125","0.0-1.0-623.0","0","0","59898","","null","","","null","69","","","","","","","","","","","","","","","",""
"","ISI","","html-keyboard-response","459","511128","0.0-1.0-624.0","0","0","59898","","null","","","null","69","NaN","","","","","","","","","","","","","","",""
"","S2","","html-keyboard-response","460","511380","0.0-1.0-625.0","0","0","59898","","null","","","null","69","","NaN","","","","","","","","","","","","","",""
"","response","","html-keyboard-response","461","511778","0.0-1.0-626.0-0.0","0","0","59898","","397","","","75","69","","","2","69","training","adjacent","GF","7","6","N.jpg","O.jpg","0","0","1","",""
"","feedback","","html-keyboard-response","462","512781","0.0-1.0-627.0-0.0","0","0","59898","","null","","","null","69","","","","","","","","","","","","","","","",""
"","ITI","","html-keyboard-response","463","513784","0.0-1.0-630.0","0","0","59898","","null","","","null","69","","","","","","","","","","","","","","","NaN",""
"","S1","","html-keyboard-response","464","514036","0.0-1.0-632.0","0","0","59898","","null","","","null","70","","","","","","","","","","","","","","","",""
"","ISI","","html-keyboard-response","465","516037","0.0-1.0-633.0","0","0","59898","","null","","","null","70","NaN","","","","","","","","","","","","","","",""
"","S2","","html-keyboard-response","466","516290","0.0-1.0-634.0","0","0","59898","","null","","","null","70","","NaN","","","","","","","","","","","","","",""
"","response","","html-keyboard-response","467","516675","0.0-1.0-635.0-0.0","0","0","59898","","384","","","68","70","","","2","70","training","adjacent","DC","4","3","R.jpg","L.jpg","1","0","0","",""
"","feedback","","html-keyboard-response","468","517678","0.0-1.0-636.0-0.0","0","0","59898","","null","","","null","70","","","","","","","","","","","","","","","",""
"","time_out","","html-keyboard-response","469","519681","0.0-1.0-638.0-0.0","0","0","59898","","null","","","null","70","","","","","","","","","","","","","","","",""
"","ITI","","html-keyboard-response","470","520684","0.0-1.0-639.0","0","0","59898","","null","","","null","70","","","","","","","","","","","","","","","NaN",""
"","S1","","html-keyboard-response","471","520936","0.0-1.0-641.0","0","0","59898","","null","","","null","71","","","","","","","","","","","","","","","",""
"","ISI","","html-keyboard-response","472","522939","0.0-1.0-642.0","0","0","59898","","null","","","null","71","NaN","","","","","","","","","","","","","","",""
"","S2","","html-keyboard-response","473","523192","0.0-1.0-643.0","0","0","59898","","null","","","null","71","","NaN","","","","","","","","","","","","","",""
"","response","","html-keyboard-response","474","523572","0.0-1.0-644.0-0.0","0","0","59898","","379","","","75","71","","","2","71","training","adjacent","CB","3","2","L.jpg","P.jpg","0","0","1","",""
"","feedback","","html-keyboard-response","475","524574","0.0-1.0-645.0-0.0","0","0","59898","","null","","","null","71","","","","","","","","","","","","","","","",""
"","ITI","","html-keyboard-response","476","525576","0.0-1.0-648.0","0","0","59898","","null","","","null","71","","","","","","","","","","","","","","","NaN",""
"","S1","","html-keyboard-response","477","525829","0.0-1.0-650.0","0","0","59898","","null","","","null","72","","","","","","","","","","","","","","","",""
"","ISI","","html-keyboard-response","478","527831","0.0-1.0-651.0","0","0","59898","","null","","","null","72","NaN","","","","","","","","","","","","","","",""
"","S2","","html-keyboard-response","479","528084","0.0-1.0-652.0","0","0","59898","","null","","","null","72","","NaN","","","","","","","","","","","","","",""
"","response","","html-keyboard-response","480","528417","0.0-1.0-653.0-0.0","0","0","59898","","332","","","75","72","","","2","72","training","adjacent","EF","5","6","M.jpg","O.jpg","0","1","0","",""
"","feedback","","html-keyboard-response","481","529420","0.0-1.0-654.0-0.0","0","0","59898","","null","","","null","72","","","","","","","","","","","","","","","",""
"","time_out","","html-keyboard-response","482","531423","0.0-1.0-656.0-0.0","0","0","59898","","null","","","null","72","","","","","","","","","","","","","","","",""
"","ITI","","html-keyboard-response","483","532425","0.0-1.0-657.0","0","0","59898","","null","","","null","72","","","","","","","","","","","","","","","NaN",""
"","S1","","html-keyboard-response","484","532678","0.0-1.0-659.0","0","0","59898","","null","","","null","73","","","","","","","","","","","","","","","",""
"","ISI","","html-keyboard-response","485","534680","0.0-1.0-660.0","0","0","59898","","null","","","null","73","NaN","","","","","","","","","","","","","","",""
"","S2","","html-keyboard-response","486","534932","0.0-1.0-661.0","0","0","59898","","null","","","null","73","","NaN","","","","","","","","","","","","","",""
"","response","","html-keyboard-response","487","535364","0.0-1.0-662.0-0.0","0","0","59898","","430","","","68","73","","","2","73","training","adjacent","FG","6","7","O.jpg","N.jpg","1","1","1","",""
"","feedback","","html-keyboard-response","488","536367","0.0-1.0-663.0-0.0","0","0","59898","","null","","","null","73","","","","","","","","","","","","","","","",""
"","ITI","","html-keyboard-response","489","537369","0.0-1.0-666.0","0","0","59898","","null","","","null","73","","","","","","","","","","","","","","","NaN",""
"","S1","","html-keyboard-response","490","537621","0.0-1.0-668.0","0","0","59898","","null","","","null","74","","","","","","","","","","","","","","","",""
"","ISI","","html-keyboard-response","491","539623","0.0-1.0-669.0","0","0","59898","","null","","","null","74","NaN","","","","","","","","","","","","","","",""
"","S2","","html-keyboard-response","492","539876","0.0-1.0-670.0","0","0","59898","","null","","","null","74","","NaN","","","","","","","","","","","","","",""
"","response","","html-keyboard-response","493","540178","0.0-1.0-671.0-0.0","0","0","59898","","300","","","75","74","","","2","74","training","adjacent","ED","5","4","M.jpg","R.jpg","0","0","1","",""
"","feedback","","html-keyboard-response","494","541181","0.0-1.0-672.0-0.0","0","0","59898","","null","","","null","74","","","","","","","","","","","","","","","",""
"","ITI","","html-keyboard-response","495","542183","0.0-1.0-675.0","0","0","59898","","null","","","null","74","","","","","","","","","","","","","","","NaN",""
"","S1","","html-keyboard-response","496","542435","0.0-1.0-677.0","0","0","59898","","null","","","null","75","","","","","","","","","","","","","","","",""
"","ISI","","html-keyboard-response","497","544437","0.0-1.0-678.0","0","0","59898","","null","","","null","75","NaN","","","","","","","","","","","","","","",""
"","S2","","html-keyboard-response","498","544690","0.0-1.0-679.0","0","0","59898","","null","","","null","75","","NaN","","","","","","","","","","","","","",""
"","response","","html-keyboard-response","499","545058","0.0-1.0-680.0-0.0","0","0","59898","","367","","","68","75","","","2","75","training","adjacent","BA","2","1","P.jpg","Q.jpg","1","0","0","",""
"","feedback","","html-keyboard-response","500","546062","0.0-1.0-681.0-0.0","0","0","59898","","null","","","null","75","","","","","","","","","","","","","","","",""
"","time_out","","html-keyboard-response","501","548065","0.0-1.0-683.0-0.0","0","0","59898","","null","","","null","75","","","","","","","","","","","","","","","",""
"","ITI","","html-keyboard-response","502","549067","0.0-1.0-684.0","0","0","59898","","null","","","null","75","","","","","","","","","","","","","","","NaN",""
"","S1","","html-keyboard-response","503","549319","0.0-1.0-686.0","0","0","59898","","null","","","null","76","","","","","","","","","","","","","","","",""
"","ISI","","html-keyboard-response","504","551322","0.0-1.0-687.0","0","0","59898","","null","","","null","76","NaN","","","","","","","","","","","","","","",""
"","S2","","html-keyboard-response","505","551574","0.0-1.0-688.0","0","0","59898","","null","","","null","76","","NaN","","","","","","","","","","","","","",""
"","response","","html-keyboard-response","506","552036","0.0-1.0-689.0-0.0","0","0","59898","","461","","","68","76","","","2","76","training","adjacent","DE","4","5","R.jpg","M.jpg","1","1","1","",""
"","feedback","","html-keyboard-response","507","553040","0.0-1.0-690.0-0.0","0","0","59898","","null","","","null","76","","","","","","","","","","","","","","","",""
"","ITI","","html-keyboard-response","508","554043","0.0-1.0-693.0","0","0","59898","","null","","","null","76","","","","","","","","","","","","","","","NaN",""
"","S1","","html-keyboard-response","509","554295","0.0-1.0-695.0","0","0","59898","","null","","","null","77","","","","","","","","","","","","","","","",""
"","ISI","","html-keyboard-response","510","556297","0.0-1.0-696.0","0","0","59898","","null","","","null","77","NaN","","","","","","","","","","","","","","",""
"","S2","","html-keyboard-response","511","556549","0.0-1.0-697.0","0","0","59898","","null","","","null","77","","NaN","","","","","","","","","","","","","",""
"","response","","html-keyboard-response","512","556850","0.0-1.0-698.0-0.0","0","0","59898","","300","","","68","77","","","2","77","training","adjacent","BA","2","1","P.jpg","Q.jpg","1","0","0","",""
"","feedback","","html-keyboard-response","513","557852","0.0-1.0-699.0-0.0","0","0","59898","","null","","","null","77","","","","","","","","","","","","","","","",""
"","time_out","","html-keyboard-response","514","559855","0.0-1.0-701.0-0.0","0","0","59898","","null","","","null","77","","","","","","","","","","","","","","","",""
"","ITI","","html-keyboard-response","515","560857","0.0-1.0-702.0","0","0","59898","","null","","","null","77","","","","","","","","","","","","","","","NaN",""
"","S1","","html-keyboard-response","516","561109","0.0-1.0-704.0","0","0","59898","","null","","","null","78","","","","","","","","","","","","","","","",""
"","ISI","","html-keyboard-response","517","563112","0.0-1.0-705.0","0","0","59898","","null","","","null","78","NaN","","","","","","","","","","","","","","",""
"","S2","","html-keyboard-response","518","563364","0.0-1.0-706.0","0","0","59898","","null","","","null","78","","NaN","","","","","","","","","","","","","",""
"","response","","html-keyboard-response","519","563620","0.0-1.0-707.0-0.0","0","0","59898","","255","","","75","78","","","2","78","training","adjacent","ED","5","4","M.jpg","R.jpg","0","0","1","",""
"","feedback","","html-keyboard-response","520","564634","0.0-1.0-708.0-0.0","0","0","59898","","null","","","null","78","","","","","","","","","","","","","","","",""
"","ITI","","html-keyboard-response","521","565638","0.0-1.0-711.0","0","0","59898","","null","","","null","78","","","","","","","","","","","","","","","NaN",""
"","S1","","html-keyboard-response","522","565890","0.0-1.0-713.0","0","0","59898","","null","","","null","79","","","","","","","","","","","","","","","",""
"","ISI","","html-keyboard-response","523","567892","0.0-1.0-714.0","0","0","59898","","null","","","null","79","NaN","","","","","","","","","","","","","","",""
"","S2","","html-keyboard-response","524","568144","0.0-1.0-715.0","0","0","59898","","null","","","null","79","","NaN","","","","","","","","","","","","","",""
"","response","","html-keyboard-response","525","568434","0.0-1.0-716.0-0.0","0","0","59898","","290","","","75","79","","","2","79","training","adjacent","EF","5","6","M.jpg","O.jpg","0","1","0","",""
"","feedback","","html-keyboard-response","526","569437","0.0-1.0-717.0-0.0","0","0","59898","","null","","","null","79","","","","","","","","","","","","","","","",""
"","time_out","","html-keyboard-response","527","571439","0.0-1.0-719.0-0.0","0","0","59898","","null","","","null","79","","","","","","","","","","","","","","","",""
"","ITI","","html-keyboard-response","528","572442","0.0-1.0-720.0","0","0","59898","","null","","","null","79","","","","","","","","","","","","","","","NaN",""
"","S1","","html-keyboard-response","529","572694","0.0-1.0-722.0","0","0","59898","","null","","","null","80","","","","","","","","","","","","","","","",""
"","ISI","","html-keyboard-response","530","574695","0.0-1.0-723.0","0","0","59898","","null","","","null","80","NaN","","","","","","","","","","","","","","",""
"","S2","","html-keyboard-response","531","574949","0.0-1.0-724.0","0","0","59898","","null","","","null","80","","NaN","","","","","","","","","","","","","",""
"","response","","html-keyboard-response","532","575412","0.0-1.0-725.0-0.0","0","0","59898","","462","","","68","80","","","2","80","training","adjacent","BC","2","3","P.jpg","L.jpg","1","1","1","",""
"","feedback","","html-keyboard-response","533","576414","0.0-1.0-726.0-0.0","0","0","59898","","null","","","null","80","","","","","","","","","","","","","","","",""
"","ITI","","html-keyboard-response","534","577416","0.0-1.0-729.0","0","0","59898","","null","","","null","80","","","","","","","","","","","","","","","NaN",""
"","S1","","html-keyboard-response","535","577669","0.0-1.0-731.0","0","0","59898","","null","","","null","81","","","","","","","","","","","","","","","",""
"","ISI","","html-keyboard-response","536","579671","0.0-1.0-732.0","0","0","59898","","null","","","null","81","NaN","","","","","","","","","","","","","","",""
"","S2","","html-keyboard-response","537","579923","0.0-1.0-733.0","0","0","59898","","null","","","null","81","","NaN","","","","","","","","","","","","","",""
"","response","","html-keyboard-response","538","580674","0.0-1.0-734.0-0.0","0","0","59898","","750","","","75","81","","","2","81","training","adjacent","DC","4","3","R.jpg","L.jpg","0","0","1","",""
"","feedback","","html-keyboard-response","539","581677","0.0-1.0-735.0-0.0","0","0","59898","","null","","","null","81","","","","","","","","","","","","","","","",""
"","ITI","","html-keyboard-response","540","582680","0.0-1.0-738.0","0","0","59898","","null","","","null","81","","","","","","","","","","","","","","","NaN",""
"","S1","","html-keyboard-response","541","582932","0.0-1.0-740.0","0","0","59898","","null","","","null","82","","","","","","","","","","","","","","","",""
"","ISI","","html-keyboard-response","542","584935","0.0-1.0-741.0","0","0","59898","","null","","","null","82","NaN","","","","","","","","","","","","","","",""
"","S2","","html-keyboard-response","543","585190","0.0-1.0-742.0","0","0","59898","","null","","","null","82","","NaN","","","","","","","","","","","","","",""
"","response","","html-keyboard-response","544","585812","0.0-1.0-743.0-0.0","0","0","59898","","621","","","68","82","","","2","82","training","adjacent","DE","4","5","R.jpg","M.jpg","1","1","1","",""
"","feedback","","html-keyboard-response","545","586814","0.0-1.0-744.0-0.0","0","0","59898","","null","","","null","82","","","","","","","","","","","","","","","",""
"","ITI","","html-keyboard-response","546","587818","0.0-1.0-747.0","0","0","59898","","null","","","null","82","","","","","","","","","","","","","","","NaN",""
"","S1","","html-keyboard-response","547","588070","0.0-1.0-749.0","0","0","59898","","null","","","null","83","","","","","","","","","","","","","","","",""
"","ISI","","html-keyboard-response","548","590073","0.0-1.0-750.0","0","0","59898","","null","","","null","83","NaN","","","","","","","","","","","","","","",""
"","S2","","html-keyboard-response","549","590326","0.0-1.0-751.0","0","0","59898","","null","","","null","83","","NaN","","","","","","","","","","","","","",""
"","response","","html-keyboard-response","550","590642","0.0-1.0-752.0-0.0","0","0","59898","","315","","","75","83","","","2","83","training","adjacent","CD","3","4","L.jpg","R.jpg","0","1","0","",""
"","feedback","","html-keyboard-response","551","591645","0.0-1.0-753.0-0.0","0","0","59898","","null","","","null","83","","","","","","","","","","","","","","","",""
"","time_out","","html-keyboard-response","552","593649","0.0-1.0-755.0-0.0","0","0","59898","","null","","","null","83","","","","","","","","","","","","","","","",""
"","ITI","","html-keyboard-response","553","594651","0.0-1.0-756.0","0","0","59898","","null","","","null","83","","","","","","","","","","","","","","","NaN",""
"","S1","","html-keyboard-response","554","594904","0.0-1.0-758.0","0","0","59898","","null","","","null","84","","","","","","","","","","","","","","","",""
"","ISI","","html-keyboard-response","555","596906","0.0-1.0-759.0","0","0","59898","","null","","","null","84","NaN","","","","","","","","","","","","","","",""
"","S2","","html-keyboard-response","556","597159","0.0-1.0-760.0","0","0","59898","","null","","","null","84","","NaN","","","","","","","","","","","","","",""
"","response","","html-keyboard-response","557","597572","0.0-1.0-761.0-0.0","0","0","59898","","411","","","75","84","","","2","84","training","adjacent","FG","6","7","O.jpg","N.jpg","0","1","0","",""
"","feedback","","html-keyboard-response","558","598575","0.0-1.0-762.0-0.0","0","0","59898","","null","","","null","84","","","","","","","","","","","","","","","",""
"","time_out","","html-keyboard-response","559","600578","0.0-1.0-764.0-0.0","0","0","59898","","null","","","null","84","","","","","","","","","","","","","","","",""
"","ITI","","html-keyboard-response","560","601580","0.0-1.0-765.0","0","0","59898","","null","","","null","84","","","","","","","","","","","","","","","NaN",""
"","S1","","html-keyboard-response","561","601833","0.0-1.0-767.0","0","0","59898","","null","","","null","85","","","","","","","","","","","","","","","",""
"","ISI","","html-keyboard-response","562","603835","0.0-1.0-768.0","0","0","59898","","null","","","null","85","NaN","","","","","","","","","","","","","","",""
"","S2","","html-keyboard-response","563","604087","0.0-1.0-769.0","0","0","59898","","null","","","null","85","","NaN","","","","","","","","","","","","","",""
"","response","","html-keyboard-response","564","604403","0.0-1.0-770.0-0.0","0","0","59898","","315","","","75","85","","","2","85","training","adjacent","ED","5","4","M.jpg","R.jpg","0","0","1","",""
"","feedback","","html-keyboard-response","565","605405","0.0-1.0-771.0-0.0","0","0","59898","","null","","","null","85","","","","","","","","","","","","","","","",""
"","ITI","","html-keyboard-response","566","606408","0.0-1.0-774.0","0","0","59898","","null","","","null","85","","","","","","","","","","","","","","","NaN",""
"","S1","","html-keyboard-response","567","606661","0.0-1.0-776.0","0","0","59898","","null","","","null","86","","","","","","","","","","","","","","","",""
"","ISI","","html-keyboard-response","568","608663","0.0-1.0-777.0","0","0","59898","","null","","","null","86","NaN","","","","","","","","","","","","","","",""
"","S2","","html-keyboard-response","569","608915","0.0-1.0-778.0","0","0","59898","","null","","","null","86","","NaN","","","","","","","","","","","","","",""
"","response","","html-keyboard-response","570","609395","0.0-1.0-779.0-0.0","0","0","59898","","478","","","68","86","","","2","86","training","adjacent","DC","4","3","R.jpg","L.jpg","1","0","0","",""
"","feedback","","html-keyboard-response","571","610396","0.0-1.0-780.0-0.0","0","0","59898","","null","","","null","86","","","","","","","","","","","","","","","",""
"","time_out","","html-keyboard-response","572","612398","0.0-1.0-782.0-0.0","0","0","59898","","null","","","null","86","","","","","","","","","","","","","","","",""
"","ITI","","html-keyboard-response","573","613400","0.0-1.0-783.0","0","0","59898","","null","","","null","86","","","","","","","","","","","","","","","NaN",""
"","S1","","html-keyboard-response","574","613652","0.0-1.0-785.0","0","0","59898","","null","","","null","87","","","","","","","","","","","","","","","",""
"","ISI","","html-keyboard-response","575","615654","0.0-1.0-786.0","0","0","59898","","null","","","null","87","NaN","","","","","","","","","","","","","","",""
"","S2","","html-keyboard-response","576","615906","0.0-1.0-787.0","0","0","59898","","null","","","null","87","","NaN","","","","","","","","","","","","","",""
"","response","","html-keyboard-response","577","616369","0.0-1.0-788.0-0.0","0","0","59898","","462","","","68","87","","","2","87","training","adjacent","DE","4","5","R.jpg","M.jpg","1","1","1","",""
"","feedback","","html-keyboard-response","578","617371","0.0-1.0-789.0-0.0","0","0","59898","","null","","","null","87","","","","","","","","","","","","","","","",""
"","ITI","","html-keyboard-response","579","618373","0.0-1.0-792.0","0","0","59898","","null","","","null","87","","","","","","","","","","","","","","","NaN",""
"","S1","","html-keyboard-response","580","618626","0.0-1.0-794.0","0","0","59898","","null","","","null","88","","","","","","","","","","","","","","","",""
"","ISI","","html-keyboard-response","581","620628","0.0-1.0-795.0","0","0","59898","","null","","","null","88","NaN","","","","","","","","","","","","","","",""
"","S2","","html-keyboard-response","582","620880","0.0-1.0-796.0","0","0","59898","","null","","","null","88","","NaN","","","","","","","","","","","","","",""
