"success","ttype","start_time","trial_type","trial_index","time_elapsed","internal_node_id","warning","missed_checkup","PID","view_history","rt","responses","repeat_instructions","key_press","index","keypress_isi","keypress_S2","block","trial_num","phase","group_type","pair_type","S1_stim","S2_stim","S1_img","S2_img","S1_chosen","S1_higher","accuracy","keypress_iti","total_bonus_tally"
"true","full_screen","d04142023hr1247","fullscreen","0","18411","0.0-0.0","0","0","39939","","","","","","","","","","","","","","","","","","","","","",""
"","instructions","","instructions","1","59032","0.0-1.0-0.0-0.0","0","0","39939","[{""page_index"":0,""viewing_time"":7613},{""page_index"":1,""viewing_time"":20127},{""page_index"":2,""viewing_time"":10808},{""page_index"":3,""viewing_time"":2071}]","40619","","","","","","","","","","","","","","","","","","","",""
"","comprehension_check","","survey-multi-choice","2","105351","0.0-1.0-0.0-1.0","0","0","39939","","46313","{""Q0"":""True"",""Q1"":""K"",""Q2"":""Only when the screen 'MAKE A CHOICE' is shown"",""Q3"":""Green mark"",""Q4"":""either D or K""}","1","","","","","","","","","","","","","","","","","",""
"","missed_instruction_checkup","","html-keyboard-response","3","108134","0.0-1.0-0.0-2.0-0.0","0","1","39939","","2780","","","32","","","","","","","","","","","","","","","","",""
"","instructions","","instructions","4","131119","0.0-1.0-0.1-0.1","0","0","39939","[{""page_index"":0,""viewing_time"":7358},{""page_index"":1,""viewing_time"":11607},{""page_index"":2,""viewing_time"":2858},{""page_index"":3,""viewing_time"":1161}]","22984","","","","","","","","","","","","","","","","","","","",""
"","comprehension_check","","survey-multi-choice","5","154861","0.0-1.0-0.1-1.1","0","0","39939","","23736","{""Q0"":""True"",""Q1"":""K"",""Q2"":""Once the second image appears and while the screen 'MAKE A CHOICE' is shown"",""Q3"":""Green mark"",""Q4"":""either D or K""}","0","","","","","","","","","","","","","","","","","",""
"","start_exp","","html-keyboard-response","6","157563","0.0-1.0-1.0","0","0","39939","","2699","","","32","","","","","","","","","","","","","","","","",""
"","S1","","html-keyboard-response","7","157831","0.0-1.0-2.0","0","0","39939","","null","","","null","0","","","","","","","","","","","","","","","",""
"","ISI","","html-keyboard-response","8","158839","0.0-1.0-3.0","0","0","39939","","468","","","75","0","k","","","","","","","","","","","","","","",""
"","S2","","html-keyboard-response","9","159102","0.0-1.0-4.0","0","0","39939","","null","","","null","0","","NaN","","","","","","","","","","","","","",""
"","response","","html-keyboard-response","10","159947","0.0-1.0-5.0-0.0","0","0","39939","","842","","","68","0","","","1","0","training","adjacent","CB","3","2","Q.jpg","L.jpg","0","0","1","",""
"","feedback","","html-keyboard-response","11","160963","0.0-1.0-6.0-0.0","0","0","39939","","null","","","null","0","","","","","","","","","","","","","","","",""
"","ITI","","html-keyboard-response","12","161972","0.0-1.0-9.0","0","0","39939","","null","","","null","0","","","","","","","","","","","","","","","NaN",""
"","S1","","html-keyboard-response","13","162236","0.0-1.0-11.0","0","0","39939","","null","","","null","1","","","","","","","","","","","","","","","",""
"","ISI","","html-keyboard-response","14","163244","0.0-1.0-12.0","0","0","39939","","null","","","null","1","NaN","","","","","","","","","","","","","","",""
"","S2","","html-keyboard-response","15","163508","0.0-1.0-13.0","0","0","39939","","null","","","null","1","","NaN","","","","","","","","","","","","","",""
"","response","","html-keyboard-response","16","164235","0.0-1.0-14.0-0.0","0","0","39939","","726","","","68","1","","","1","1","training","adjacent","BC","2","3","L.jpg","Q.jpg","0","1","0","",""
"","feedback","","html-keyboard-response","17","165245","0.0-1.0-15.0-0.0","0","0","39939","","null","","","null","1","","","","","","","","","","","","","","","",""
"","time_out","","html-keyboard-response","18","167261","0.0-1.0-17.0-0.0","0","0","39939","","null","","","null","1","","","","","","","","","","","","","","","",""
"","ITI","","html-keyboard-response","19","168269","0.0-1.0-18.0","0","0","39939","","null","","","null","1","","","","","","","","","","","","","","","NaN",""
"","S1","","html-keyboard-response","20","168532","0.0-1.0-20.0","0","0","39939","","null","","","null","2","","","","","","","","","","","","","","","",""
"","ISI","","html-keyboard-response","21","169541","0.0-1.0-21.0","0","0","39939","","null","","","null","2","NaN","","","","","","","","","","","","","","",""
"","S2","","html-keyboard-response","22","169805","0.0-1.0-22.0","0","0","39939","","null","","","null","2","","NaN","","","","","","","","","","","","","",""
"","response","","html-keyboard-response","23","170580","0.0-1.0-23.0-0.0","0","0","39939","","773","","","75","2","","","1","2","training","adjacent","DC","4","3","R.jpg","Q.jpg","1","0","0","",""
"","feedback","","html-keyboard-response","24","171590","0.0-1.0-24.0-0.0","0","0","39939","","null","","","null","2","","","","","","","","","","","","","","","",""
"","time_out","","html-keyboard-response","25","173605","0.0-1.0-26.0-0.0","0","0","39939","","null","","","null","2","","","","","","","","","","","","","","","",""
"","ITI","","html-keyboard-response","26","174614","0.0-1.0-27.0","0","0","39939","","null","","","null","2","","","","","","","","","","","","","","","NaN",""
"","S1","","html-keyboard-response","27","174878","0.0-1.0-29.0","0","0","39939","","null","","","null","3","","","","","","","","","","","","","","","",""
"","ISI","","html-keyboard-response","28","175886","0.0-1.0-30.0","0","0","39939","","null","","","null","3","NaN","","","","","","","","","","","","","","",""
"","S2","","html-keyboard-response","29","176150","0.0-1.0-31.0","0","0","39939","","null","","","null","3","","NaN","","","","","","","","","","","","","",""
"","response","","html-keyboard-response","30","176765","0.0-1.0-32.0-0.0","0","0","39939","","614","","","68","3","","","1","3","training","adjacent","DC","4","3","R.jpg","Q.jpg","0","0","1","",""
"","feedback","","html-keyboard-response","31","177779","0.0-1.0-33.0-0.0","0","0","39939","","null","","","null","3","","","","","","","","","","","","","","","",""
"","ITI","","html-keyboard-response","32","178789","0.0-1.0-36.0","0","0","39939","","null","","","null","3","","","","","","","","","","","","","","","NaN",""
"","S1","","html-keyboard-response","33","179051","0.0-1.0-38.0","0","0","39939","","null","","","null","4","","","","","","","","","","","","","","","",""
"","ISI","","html-keyboard-response","34","180059","0.0-1.0-39.0","0","0","39939","","null","","","null","4","NaN","","","","","","","","","","","","","","",""
"","S2","","html-keyboard-response","35","180324","0.0-1.0-40.0","0","0","39939","","null","","","null","4","","NaN","","","","","","","","","","","","","",""
"","response","","html-keyboard-response","36","180909","0.0-1.0-41.0-0.0","0","0","39939","","584","","","68","4","","","1","4","training","adjacent","DE","4","5","R.jpg","N.jpg","0","1","0","",""
"","feedback","","html-keyboard-response","37","181921","0.0-1.0-42.0-0.0","0","0","39939","","null","","","null","4","","","","","","","","","","","","","","","",""
"","time_out","","html-keyboard-response","38","183938","0.0-1.0-44.0-0.0","0","0","39939","","null","","","null","4","","","","","","","","","","","","","","","",""
"","ITI","","html-keyboard-response","39","184945","0.0-1.0-45.0","0","0","39939","","null","","","null","4","","","","","","","","","","","","","","","NaN",""
"","S1","","html-keyboard-response","40","185209","0.0-1.0-47.0","0","0","39939","","null","","","null","5","","","","","","","","","","","","","","","",""
"","ISI","","html-keyboard-response","41","186217","0.0-1.0-48.0","0","0","39939","","null","","","null","5","NaN","","","","","","","","","","","","","","",""
"","S2","","html-keyboard-response","42","186480","0.0-1.0-49.0","0","0","39939","","null","","","null","5","","NaN","","","","","","","","","","","","","",""
"","response","","html-keyboard-response","43","187310","0.0-1.0-50.0-0.0","0","0","39939","","829","","","75","5","","","1","5","training","adjacent","BC","2","3","L.jpg","Q.jpg","1","1","1","",""
"","feedback","","html-keyboard-response","44","188327","0.0-1.0-51.0-0.0","0","0","39939","","null","","","null","5","","","","","","","","","","","","","","","",""
"","ITI","","html-keyboard-response","45","189335","0.0-1.0-54.0","0","0","39939","","null","","","null","5","","","","","","","","","","","","","","","NaN",""
"","S1","","html-keyboard-response","46","189598","0.0-1.0-56.0","0","0","39939","","null","","","null","6","","","","","","","","","","","","","","","",""
"","ISI","","html-keyboard-response","47","190608","0.0-1.0-57.0","0","0","39939","","null","","","null","6","NaN","","","","","","","","","","","","","","",""
"","S2","","html-keyboard-response","48","190872","0.0-1.0-58.0","0","0","39939","","null","","","null","6","","NaN","","","","","","","","","","","","","",""
"","response","","html-keyboard-response","49","191503","0.0-1.0-59.0-0.0","0","0","39939","","629","","","75","6","","","1","6","training","adjacent","BC","2","3","L.jpg","Q.jpg","1","1","1","",""
"","feedback","","html-keyboard-response","50","192516","0.0-1.0-60.0-0.0","0","0","39939","","null","","","null","6","","","","","","","","","","","","","","","",""
"","ITI","","html-keyboard-response","51","193523","0.0-1.0-63.0","0","0","39939","","null","","","null","6","","","","","","","","","","","","","","","NaN",""
"","S1","","html-keyboard-response","52","193788","0.0-1.0-65.0","0","0","39939","","null","","","null","7","","","","","","","","","","","","","","","",""
"","ISI","","html-keyboard-response","53","194796","0.0-1.0-66.0","0","0","39939","","null","","","null","7","NaN","","","","","","","","","","","","","","",""
"","S2","","html-keyboard-response","54","195060","0.0-1.0-67.0","0","0","39939","","null","","","null","7","","NaN","","","","","","","","","","","","","",""
"","response","","html-keyboard-response","55","196672","0.0-1.0-68.0-0.0","0","0","39939","","1610","","","75","7","","","1","7","training","adjacent","ED","5","4","N.jpg","R.jpg","1","0","0","",""
"","feedback","","html-keyboard-response","56","197681","0.0-1.0-69.0-0.0","0","0","39939","","null","","","null","7","","","","","","","","","","","","","","","",""
"","time_out","","html-keyboard-response","57","199698","0.0-1.0-71.0-0.0","0","0","39939","","null","","","null","7","","","","","","","","","","","","","","","",""
"","ITI","","html-keyboard-response","58","200707","0.0-1.0-72.0","0","0","39939","","null","","","null","7","","","","","","","","","","","","","","","NaN",""
"","S1","","html-keyboard-response","59","200972","0.0-1.0-74.0","0","0","39939","","null","","","null","8","","","","","","","","","","","","","","","",""
"","ISI","","html-keyboard-response","60","201978","0.0-1.0-75.0","0","0","39939","","null","","","null","8","NaN","","","","","","","","","","","","","","",""
"","S2","","html-keyboard-response","61","202242","0.0-1.0-76.0","0","0","39939","","null","","","null","8","","NaN","","","","","","","","","","","","","",""
"","response","","html-keyboard-response","62","203296","0.0-1.0-77.0-0.0","0","0","39939","","1053","","","75","8","","","1","8","training","adjacent","AB","1","2","P.jpg","L.jpg","1","1","1","",""
"","feedback","","html-keyboard-response","63","204306","0.0-1.0-78.0-0.0","0","0","39939","","null","","","null","8","","","","","","","","","","","","","","","",""
"","ITI","","html-keyboard-response","64","205313","0.0-1.0-81.0","0","0","39939","","null","","","null","8","","","","","","","","","","","","","","","NaN",""
"","S1","","html-keyboard-response","65","205577","0.0-1.0-83.0","0","0","39939","","null","","","null","9","","","","","","","","","","","","","","","",""
"","ISI","","html-keyboard-response","66","206586","0.0-1.0-84.0","0","0","39939","","null","","","null","9","NaN","","","","","","","","","","","","","","",""
"","S2","","html-keyboard-response","67","206849","0.0-1.0-85.0","0","0","39939","","null","","","null","9","","NaN","","","","","","","","","","","","","",""
"","response","","html-keyboard-response","68","207632","0.0-1.0-86.0-0.0","0","0","39939","","782","","","68","9","","","1","9","training","adjacent","FG","6","7","M.jpg","O.jpg","0","1","0","",""
"","feedback","","html-keyboard-response","69","208649","0.0-1.0-87.0-0.0","0","0","39939","","null","","","null","9","","","","","","","","","","","","","","","",""
"","time_out","","html-keyboard-response","70","210665","0.0-1.0-89.0-0.0","0","0","39939","","null","","","null","9","","","","","","","","","","","","","","","",""
"","ITI","","html-keyboard-response","71","211673","0.0-1.0-90.0","0","0","39939","","null","","","null","9","","","","","","","","","","","","","","","NaN",""
"","S1","","html-keyboard-response","72","211938","0.0-1.0-92.0","0","0","39939","","null","","","null","10","","","","","","","","","","","","","","","",""
"","ISI","","html-keyboard-response","73","212946","0.0-1.0-93.0","0","0","39939","","null","","","null","10","NaN","","","","","","","","","","","","","","",""
"","S2","","html-keyboard-response","74","213211","0.0-1.0-94.0","0","0","39939","","null","","","null","10","","NaN","","","","","","","","","","","","","",""
"","response","","html-keyboard-response","75","214057","0.0-1.0-95.0-0.0","0","0","39939","","845","","","75","10","","","1","10","training","adjacent","AB","1","2","P.jpg","L.jpg","1","1","1","",""
"","feedback","","html-keyboard-response","76","215072","0.0-1.0-96.0-0.0","0","0","39939","","null","","","null","10","","","","","","","","","","","","","","","",""
"","ITI","","html-keyboard-response","77","216080","0.0-1.0-99.0","0","0","39939","","null","","","null","10","","","","","","","","","","","","","","","NaN",""
"","S1","","html-keyboard-response","78","216343","0.0-1.0-101.0","0","0","39939","","null","","","null","11","","","","","","","","","","","","","","","",""
"","ISI","","html-keyboard-response","79","217352","0.0-1.0-102.0","0","0","39939","","null","","","null","11","NaN","","","","","","","","","","","","","","",""
"","S2","","html-keyboard-response","80","217615","0.0-1.0-103.0","0","0","39939","","null","","","null","11","","NaN","","","","","","","","","","","","","",""
"","response","","html-keyboard-response","81","219368","0.0-1.0-104.0-0.0","0","0","39939","","null","","","null","11","","","1","11","training","adjacent","ED","5","4","N.jpg","R.jpg","NaN","0","0","",""
"","too_slow_prompt","","html-keyboard-response","82","220376","0.0-1.0-106.0-0.0","1","0","39939","","null","","","null","","","","","","","","","","","","","","","","",""
"","time_out","","html-keyboard-response","83","222377","0.0-1.0-107.0-0.0","0","0","39939","","null","","","null","11","","","","","","","","","","","","","","","",""
"","ITI","","html-keyboard-response","84","223386","0.0-1.0-108.0","0","0","39939","","null","","","null","11","","","","","","","","","","","","","","","NaN",""
"","S1","","html-keyboard-response","85","223650","0.0-1.0-110.0","0","0","39939","","null","","","null","12","","","","","","","","","","","","","","","",""
"","ISI","","html-keyboard-response","86","224659","0.0-1.0-111.0","0","0","39939","","null","","","null","12","NaN","","","","","","","","","","","","","","",""
"","S2","","html-keyboard-response","87","224923","0.0-1.0-112.0","0","0","39939","","null","","","null","12","","NaN","","","","","","","","","","","","","",""
"","response","","html-keyboard-response","88","225418","0.0-1.0-113.0-0.0","0","0","39939","","494","","","75","12","","","1","12","training","adjacent","CD","3","4","Q.jpg","R.jpg","1","1","1","",""
"","feedback","","html-keyboard-response","89","226426","0.0-1.0-114.0-0.0","0","0","39939","","null","","","null","12","","","","","","","","","","","","","","","",""
"","ITI","","html-keyboard-response","90","227436","0.0-1.0-117.0","0","0","39939","","null","","","null","12","","","","","","","","","","","","","","","NaN",""
"","S1","","html-keyboard-response","91","227700","0.0-1.0-119.0","0","0","39939","","null","","","null","13","","","","","","","","","","","","","","","",""
"","ISI","","html-keyboard-response","92","228707","0.0-1.0-120.0","0","0","39939","","null","","","null","13","NaN","","","","","","","","","","","","","","",""
"","S2","","html-keyboard-response","93","228970","0.0-1.0-121.0","0","0","39939","","null","","","null","13","","NaN","","","","","","","","","","","","","",""
"","response","","html-keyboard-response","94","229075","0.0-1.0-122.0-0.0","0","0","39939","","103","","","75","13","","","1","13","training","adjacent","DC","4","3","R.jpg","Q.jpg","1","0","0","",""
"","feedback","","html-keyboard-response","95","230088","0.0-1.0-123.0-0.0","0","0","39939","","null","","","null","13","","","","","","","","","","","","","","","",""
"","time_out","","html-keyboard-response","96","232105","0.0-1.0-125.0-0.0","0","0","39939","","null","","","null","13","","","","","","","","","","","","","","","",""
"","ITI","","html-keyboard-response","97","233114","0.0-1.0-126.0","0","0","39939","","null","","","null","13","","","","","","","","","","","","","","","NaN",""
"","S1","","html-keyboard-response","98","233377","0.0-1.0-128.0","0","0","39939","","null","","","null","14","","","","","","","","","","","","","","","",""
"","ISI","","html-keyboard-response","99","234386","0.0-1.0-129.0","0","0","39939","","null","","","null","14","NaN","","","","","","","","","","","","","","",""
"","S2","","html-keyboard-response","100","234650","0.0-1.0-130.0","0","0","39939","","null","","","null","14","","NaN","","","","","","","","","","","","","",""
"","response","","html-keyboard-response","101","235116","0.0-1.0-131.0-0.0","0","0","39939","","464","","","75","14","","","1","14","training","adjacent","CD","3","4","Q.jpg","R.jpg","1","1","1","",""
"","feedback","","html-keyboard-response","102","236122","0.0-1.0-132.0-0.0","0","0","39939","","null","","","null","14","","","","","","","","","","","","","","","",""
"","ITI","","html-keyboard-response","103","237131","0.0-1.0-135.0","0","0","39939","","null","","","null","14","","","","","","","","","","","","","","","NaN",""
"","S1","","html-keyboard-response","104","237395","0.0-1.0-137.0","0","0","39939","","null","","","null","15","","","","","","","","","","","","","","","",""
"","ISI","","html-keyboard-response","105","238403","0.0-1.0-138.0","0","0","39939","","null","","","null","15","NaN","","","","","","","","","","","","","","",""
"","S2","","html-keyboard-response","106","238668","0.0-1.0-139.0","0","0","39939","","null","","","null","15","","NaN","","","","","","","","","","","","","",""
"","response","","html-keyboard-response","107","239083","0.0-1.0-140.0-0.0","0","0","39939","","415","","","75","15","","","1","15","training","adjacent","EF","5","6","N.jpg","M.jpg","1","1","1","",""
"","feedback","","html-keyboard-response","108","240094","0.0-1.0-141.0-0.0","0","0","39939","","null","","","null","15","","","","","","","","","","","","","","","",""
"","ITI","","html-keyboard-response","109","241103","0.0-1.0-144.0","0","0","39939","","null","","","null","15","","","","","","","","","","","","","","","NaN",""
"","S1","","html-keyboard-response","110","241366","0.0-1.0-146.0","0","0","39939","","null","","","null","16","","","","","","","","","","","","","","","",""
"","ISI","","html-keyboard-response","111","242375","0.0-1.0-147.0","0","0","39939","","null","","","null","16","NaN","","","","","","","","","","","","","","",""
"","S2","","html-keyboard-response","112","242638","0.0-1.0-148.0","0","0","39939","","null","","","null","16","","NaN","","","","","","","","","","","","","",""
"","response","","html-keyboard-response","113","242988","0.0-1.0-149.0-0.0","0","0","39939","","349","","","75","16","","","1","16","training","adjacent","DC","4","3","R.jpg","Q.jpg","1","0","0","",""
"","feedback","","html-keyboard-response","114","244004","0.0-1.0-150.0-0.0","0","0","39939","","null","","","null","16","","","","","","","","","","","","","","","",""
"","time_out","","html-keyboard-response","115","246020","0.0-1.0-152.0-0.0","0","0","39939","","null","","","null","16","","","","","","","","","","","","","","","",""
"","ITI","","html-keyboard-response","116","247029","0.0-1.0-153.0","0","0","39939","","null","","","null","16","","","","","","","","","","","","","","","NaN",""
"","S1","","html-keyboard-response","117","247292","0.0-1.0-155.0","0","0","39939","","null","","","null","17","","","","","","","","","","","","","","","",""
"","ISI","","html-keyboard-response","118","248301","0.0-1.0-156.0","0","0","39939","","null","","","null","17","NaN","","","","","","","","","","","","","","",""
"","S2","","html-keyboard-response","119","248565","0.0-1.0-157.0","0","0","39939","","null","","","null","17","","NaN","","","","","","","","","","","","","",""
"","response","","html-keyboard-response","120","248934","0.0-1.0-158.0-0.0","0","0","39939","","367","","","75","17","","","1","17","training","adjacent","FE","6","5","M.jpg","N.jpg","1","0","0","",""
"","feedback","","html-keyboard-response","121","249945","0.0-1.0-159.0-0.0","0","0","39939","","null","","","null","17","","","","","","","","","","","","","","","",""
"","time_out","","html-keyboard-response","122","251962","0.0-1.0-161.0-0.0","0","0","39939","","null","","","null","17","","","","","","","","","","","","","","","",""
"","ITI","","html-keyboard-response","123","252970","0.0-1.0-162.0","0","0","39939","","null","","","null","17","","","","","","","","","","","","","","","NaN",""
"","S1","","html-keyboard-response","124","253234","0.0-1.0-164.0","0","0","39939","","null","","","null","18","","","","","","","","","","","","","","","",""
"","ISI","","html-keyboard-response","125","254243","0.0-1.0-165.0","0","0","39939","","null","","","null","18","NaN","","","","","","","","","","","","","","",""
"","S2","","html-keyboard-response","126","254507","0.0-1.0-166.0","0","0","39939","","null","","","null","18","","NaN","","","","","","","","","","","","","",""
"","response","","html-keyboard-response","127","254917","0.0-1.0-167.0-0.0","0","0","39939","","409","","","75","18","","","1","18","training","adjacent","GF","7","6","O.jpg","M.jpg","1","0","0","",""
"","feedback","","html-keyboard-response","128","255933","0.0-1.0-168.0-0.0","0","0","39939","","null","","","null","18","","","","","","","","","","","","","","","",""
"","time_out","","html-keyboard-response","129","257936","0.0-1.0-170.0-0.0","0","0","39939","","null","","","null","18","","","","","","","","","","","","","","","",""
"","ITI","","html-keyboard-response","130","258943","0.0-1.0-171.0","0","0","39939","","null","","","null","18","","","","","","","","","","","","","","","NaN",""
"","S1","","html-keyboard-response","131","259208","0.0-1.0-173.0","0","0","39939","","null","","","null","19","","","","","","","","","","","","","","","",""
"","ISI","","html-keyboard-response","132","260216","0.0-1.0-174.0","0","0","39939","","null","","","null","19","NaN","","","","","","","","","","","","","","",""
"","S2","","html-keyboard-response","133","260478","0.0-1.0-175.0","0","0","39939","","null","","","null","19","","NaN","","","","","","","","","","","","","",""
"","response","","html-keyboard-response","134","261038","0.0-1.0-176.0-0.0","0","0","39939","","559","","","75","19","","","1","19","training","adjacent","CB","3","2","Q.jpg","L.jpg","1","0","0","",""
"","feedback","","html-keyboard-response","135","262046","0.0-1.0-177.0-0.0","0","0","39939","","null","","","null","19","","","","","","","","","","","","","","","",""
"","time_out","","html-keyboard-response","136","264063","0.0-1.0-179.0-0.0","0","0","39939","","null","","","null","19","","","","","","","","","","","","","","","",""
"","ITI","","html-keyboard-response","137","265071","0.0-1.0-180.0","0","0","39939","","null","","","null","19","","","","","","","","","","","","","","","NaN",""
"","S1","","html-keyboard-response","138","265335","0.0-1.0-182.0","0","0","39939","","null","","","null","20","","","","","","","","","","","","","","","",""
"","ISI","","html-keyboard-response","139","266343","0.0-1.0-183.0","0","0","39939","","null","","","null","20","NaN","","","","","","","","","","","","","","",""
"","S2","","html-keyboard-response","140","266607","0.0-1.0-184.0","0","0","39939","","null","","","null","20","","NaN","","","","","","","","","","","","","",""
"","response","","html-keyboard-response","141","267031","0.0-1.0-185.0-0.0","0","0","39939","","423","","","68","20","","","1","20","training","adjacent","BA","2","1","L.jpg","P.jpg","0","0","1","",""
"","feedback","","html-keyboard-response","142","268033","0.0-1.0-186.0-0.0","0","0","39939","","null","","","null","20","","","","","","","","","","","","","","","",""
"","ITI","","html-keyboard-response","143","269043","0.0-1.0-189.0","0","0","39939","","null","","","null","20","","","","","","","","","","","","","","","NaN",""
"","S1","","html-keyboard-response","144","269306","0.0-1.0-191.0","0","0","39939","","null","","","null","21","","","","","","","","","","","","","","","",""
"","ISI","","html-keyboard-response","145","270314","0.0-1.0-192.0","0","0","39939","","null","","","null","21","NaN","","","","","","","","","","","","","","",""
"","S2","","html-keyboard-response","146","270578","0.0-1.0-193.0","0","0","39939","","null","","","null","21","","NaN","","","","","","","","","","","","","",""
"","response","","html-keyboard-response","147","270967","0.0-1.0-194.0-0.0","0","0","39939","","388","","","68","21","","","1","21","training","adjacent","BC","2","3","L.jpg","Q.jpg","0","1","0","",""
"","feedback","","html-keyboard-response","148","271974","0.0-1.0-195.0-0.0","0","0","39939","","null","","","null","21","","","","","","","","","","","","","","","",""
"","time_out","","html-keyboard-response","149","273992","0.0-1.0-197.0-0.0","0","0","39939","","null","","","null","21","","","","","","","","","","","","","","","",""
"","ITI","","html-keyboard-response","150","274999","0.0-1.0-198.0","0","0","39939","","null","","","null","21","","","","","","","","","","","","","","","NaN",""
"","S1","","html-keyboard-response","151","275263","0.0-1.0-200.0","0","0","39939","","null","","","null","22","","","","","","","","","","","","","","","",""
"","ISI","","html-keyboard-response","152","276272","0.0-1.0-201.0","0","0","39939","","null","","","null","22","NaN","","","","","","","","","","","","","","",""
"","S2","","html-keyboard-response","153","276535","0.0-1.0-202.0","0","0","39939","","null","","","null","22","","NaN","","","","","","","","","","","","","",""
"","response","","html-keyboard-response","154","277056","0.0-1.0-203.0-0.0","0","0","39939","","520","","","68","22","","","1","22","training","adjacent","CB","3","2","Q.jpg","L.jpg","0","0","1","",""
"","feedback","","html-keyboard-response","155","278072","0.0-1.0-204.0-0.0","0","0","39939","","null","","","null","22","","","","","","","","","","","","","","","",""
"","ITI","","html-keyboard-response","156","279079","0.0-1.0-207.0","0","0","39939","","null","","","null","22","","","","","","","","","","","","","","","NaN",""
"","S1","","html-keyboard-response","157","279344","0.0-1.0-209.0","0","0","39939","","null","","","null","23","","","","","","","","","","","","","","","",""
"","ISI","","html-keyboard-response","158","280351","0.0-1.0-210.0","0","0","39939","","null","","","null","23","NaN","","","","","","","","","","","","","","",""
"","S2","","html-keyboard-response","159","280614","0.0-1.0-211.0","0","0","39939","","null","","","null","23","","NaN","","","","","","","","","","","","","",""
"","response","","html-keyboard-response","160","281089","0.0-1.0-212.0-0.0","0","0","39939","","473","","","68","23","","","1","23","training","adjacent","AB","1","2","P.jpg","L.jpg","0","1","0","",""
"","feedback","","html-keyboard-response","161","282104","0.0-1.0-213.0-0.0","0","0","39939","","null","","","null","23","","","","","","","","","","","","","","","",""
"","time_out","","html-keyboard-response","162","284121","0.0-1.0-215.0-0.0","0","0","39939","","null","","","null","23","","","","","","","","","","","","","","","",""
"","ITI","","html-keyboard-response","163","285128","0.0-1.0-216.0","0","0","39939","","null","","","null","23","","","","","","","","","","","","","","","NaN",""
"","S1","","html-keyboard-response","164","285392","0.0-1.0-218.0","0","0","39939","","null","","","null","24","","","","","","","","","","","","","","","",""
"","ISI","","html-keyboard-response","165","286401","0.0-1.0-219.0","0","0","39939","","null","","","null","24","NaN","","","","","","","","","","","","","","",""
"","S2","","html-keyboard-response","166","286664","0.0-1.0-220.0","0","0","39939","","null","","","null","24","","NaN","","","","","","","","","","","","","",""
"","response","","html-keyboard-response","167","287385","0.0-1.0-221.0-0.0","0","0","39939","","720","","","75","24","","","1","24","training","adjacent","EF","5","6","N.jpg","M.jpg","1","1","1","",""
"","feedback","","html-keyboard-response","168","288387","0.0-1.0-222.0-0.0","0","0","39939","","null","","","null","24","","","","","","","","","","","","","","","",""
"","ITI","","html-keyboard-response","169","289394","0.0-1.0-225.0","0","0","39939","","null","","","null","24","","","","","","","","","","","","","","","NaN",""
"","S1","","html-keyboard-response","170","289659","0.0-1.0-227.0","0","0","39939","","null","","","null","25","","","","","","","","","","","","","","","",""
"","ISI","","html-keyboard-response","171","290667","0.0-1.0-228.0","0","0","39939","","null","","","null","25","NaN","","","","","","","","","","","","","","",""
"","S2","","html-keyboard-response","172","290931","0.0-1.0-229.0","0","0","39939","","null","","","null","25","","NaN","","","","","","","","","","","","","",""
"","response","","html-keyboard-response","173","291594","0.0-1.0-230.0-0.0","0","0","39939","","662","","","75","25","","","1","25","training","adjacent","EF","5","6","N.jpg","M.jpg","1","1","1","",""
"","feedback","","html-keyboard-response","174","292606","0.0-1.0-231.0-0.0","0","0","39939","","null","","","null","25","","","","","","","","","","","","","","","",""
"","ITI","","html-keyboard-response","175","293615","0.0-1.0-234.0","0","0","39939","","null","","","null","25","","","","","","","","","","","","","","","NaN",""
"","S1","","html-keyboard-response","176","293879","0.0-1.0-236.0","0","0","39939","","null","","","null","26","","","","","","","","","","","","","","","",""
"","ISI","","html-keyboard-response","177","294888","0.0-1.0-237.0","0","0","39939","","null","","","null","26","NaN","","","","","","","","","","","","","","",""
"","S2","","html-keyboard-response","178","295150","0.0-1.0-238.0","0","0","39939","","null","","","null","26","","NaN","","","","","","","","","","","","","",""
"","response","","html-keyboard-response","179","295723","0.0-1.0-239.0-0.0","0","0","39939","","571","","","75","26","","","1","26","training","adjacent","CB","3","2","Q.jpg","L.jpg","1","0","0","",""
"","feedback","","html-keyboard-response","180","296733","0.0-1.0-240.0-0.0","0","0","39939","","null","","","null","26","","","","","","","","","","","","","","","",""
"","time_out","","html-keyboard-response","181","298734","0.0-1.0-242.0-0.0","0","0","39939","","null","","","null","26","","","","","","","","","","","","","","","",""
"","ITI","","html-keyboard-response","182","299742","0.0-1.0-243.0","0","0","39939","","null","","","null","26","","","","","","","","","","","","","","","NaN",""
"","S1","","html-keyboard-response","183","300006","0.0-1.0-245.0","0","0","39939","","null","","","null","27","","","","","","","","","","","","","","","",""
"","ISI","","html-keyboard-response","184","301014","0.0-1.0-246.0","0","0","39939","","null","","","null","27","NaN","","","","","","","","","","","","","","",""
"","S2","","html-keyboard-response","185","301279","0.0-1.0-247.0","0","0","39939","","null","","","null","27","","NaN","","","","","","","","","","","","","",""
"","response","","html-keyboard-response","186","301923","0.0-1.0-248.0-0.0","0","0","39939","","642","","","68","27","","","1","27","training","adjacent","FG","6","7","M.jpg","O.jpg","0","1","0","",""
"","feedback","","html-keyboard-response","187","302939","0.0-1.0-249.0-0.0","0","0","39939","","null","","","null","27","","","","","","","","","","","","","","","",""
"","time_out","","html-keyboard-response","188","304955","0.0-1.0-251.0-0.0","0","0","39939","","null","","","null","27","","","","","","","","","","","","","","","",""
"","ITI","","html-keyboard-response","189","305962","0.0-1.0-252.0","0","0","39939","","null","","","null","27","","","","","","","","","","","","","","","NaN",""
"","S1","","html-keyboard-response","190","306226","0.0-1.0-254.0","0","0","39939","","null","","","null","28","","","","","","","","","","","","","","","",""
"","ISI","","html-keyboard-response","191","307235","0.0-1.0-255.0","0","0","39939","","null","","","null","28","NaN","","","","","","","","","","","","","","",""
"","S2","","html-keyboard-response","192","307498","0.0-1.0-256.0","0","0","39939","","null","","","null","28","","NaN","","","","","","","","","","","","","",""
"","response","","html-keyboard-response","193","308021","0.0-1.0-257.0-0.0","0","0","39939","","520","","","75","28","","","1","28","training","adjacent","CD","3","4","Q.jpg","R.jpg","1","1","1","",""
"","feedback","","html-keyboard-response","194","309034","0.0-1.0-258.0-0.0","0","0","39939","","null","","","null","28","","","","","","","","","","","","","","","",""
"","ITI","","html-keyboard-response","195","310043","0.0-1.0-261.0","0","0","39939","","null","","","null","28","","","","","","","","","","","","","","","NaN",""
"","S1","","html-keyboard-response","196","310306","0.0-1.0-263.0","0","0","39939","","null","","","null","29","","","","","","","","","","","","","","","",""
"","ISI","","html-keyboard-response","197","311314","0.0-1.0-264.0","0","0","39939","","null","","","null","29","NaN","","","","","","","","","","","","","","",""
"","S2","","html-keyboard-response","198","311578","0.0-1.0-265.0","0","0","39939","","null","","","null","29","","NaN","","","","","","","","","","","","","",""
"","response","","html-keyboard-response","199","312629","0.0-1.0-266.0-0.0","0","0","39939","","1050","","","68","29","","","1","29","training","adjacent","GF","7","6","O.jpg","M.jpg","0","0","1","",""
"","feedback","","html-keyboard-response","200","313641","0.0-1.0-267.0-0.0","0","0","39939","","null","","","null","29","","","","","","","","","","","","","","","",""
"","ITI","","html-keyboard-response","201","314649","0.0-1.0-270.0","0","0","39939","","null","","","null","29","","","","","","","","","","","","","","","NaN",""
"","S1","","html-keyboard-response","202","314914","0.0-1.0-272.0","0","0","39939","","null","","","null","30","","","","","","","","","","","","","","","",""
"","ISI","","html-keyboard-response","203","315923","0.0-1.0-273.0","0","0","39939","","null","","","null","30","NaN","","","","","","","","","","","","","","",""
"","S2","","html-keyboard-response","204","316187","0.0-1.0-274.0","0","0","39939","","null","","","null","30","","NaN","","","","","","","","","","","","","",""
"","response","","html-keyboard-response","205","316829","0.0-1.0-275.0-0.0","0","0","39939","","640","","","75","30","","","1","30","training","adjacent","GF","7","6","O.jpg","M.jpg","1","0","0","",""
"","feedback","","html-keyboard-response","206","317830","0.0-1.0-276.0-0.0","0","0","39939","","null","","","null","30","","","","","","","","","","","","","","","",""
"","time_out","","html-keyboard-response","207","319831","0.0-1.0-278.0-0.0","0","0","39939","","null","","","null","30","","","","","","","","","","","","","","","",""
"","ITI","","html-keyboard-response","208","320840","0.0-1.0-279.0","0","0","39939","","null","","","null","30","","","","","","","","","","","","","","","NaN",""
"","S1","","html-keyboard-response","209","321103","0.0-1.0-281.0","0","0","39939","","null","","","null","31","","","","","","","","","","","","","","","",""
"","ISI","","html-keyboard-response","210","322111","0.0-1.0-282.0","0","0","39939","","null","","","null","31","NaN","","","","","","","","","","","","","","",""
"","S2","","html-keyboard-response","211","322376","0.0-1.0-283.0","0","0","39939","","null","","","null","31","","NaN","","","","","","","","","","","","","",""
"","response","","html-keyboard-response","212","323063","0.0-1.0-284.0-0.0","0","0","39939","","685","","","75","31","","","1","31","training","adjacent","FE","6","5","M.jpg","N.jpg","1","0","0","",""
"","feedback","","html-keyboard-response","213","324066","0.0-1.0-285.0-0.0","0","0","39939","","null","","","null","31","","","","","","","","","","","","","","","",""
"","time_out","","html-keyboard-response","214","326068","0.0-1.0-287.0-0.0","0","0","39939","","null","","","null","31","","","","","","","","","","","","","","","",""
"","ITI","","html-keyboard-response","215","327077","0.0-1.0-288.0","0","0","39939","","null","","","null","31","","","","","","","","","","","","","","","NaN",""
"","S1","","html-keyboard-response","216","327340","0.0-1.0-290.0","0","0","39939","","null","","","null","32","","","","","","","","","","","","","","","",""
"","ISI","","html-keyboard-response","217","328348","0.0-1.0-291.0","0","0","39939","","null","","","null","32","NaN","","","","","","","","","","","","","","",""
"","S2","","html-keyboard-response","218","328612","0.0-1.0-292.0","0","0","39939","","null","","","null","32","","NaN","","","","","","","","","","","","","",""
"","response","","html-keyboard-response","219","328974","0.0-1.0-293.0-0.0","0","0","39939","","361","","","68","32","","","1","32","training","adjacent","FG","6","7","M.jpg","O.jpg","0","1","0","",""
"","feedback","","html-keyboard-response","220","329977","0.0-1.0-294.0-0.0","0","0","39939","","null","","","null","32","","","","","","","","","","","","","","","",""
"","time_out","","html-keyboard-response","221","331995","0.0-1.0-296.0-0.0","0","0","39939","","null","","","null","32","","","","","","","","","","","","","","","",""
"","ITI","","html-keyboard-response","222","333003","0.0-1.0-297.0","0","0","39939","","null","","","null","32","","","","","","","","","","","","","","","NaN",""
"","S1","","html-keyboard-response","223","333266","0.0-1.0-299.0","0","0","39939","","null","","","null","33","","","","","","","","","","","","","","","",""
"","ISI","","html-keyboard-response","224","334275","0.0-1.0-300.0","0","0","39939","","null","","","null","33","NaN","","","","","","","","","","","","","","",""
"","S2","","html-keyboard-response","225","334539","0.0-1.0-301.0","0","0","39939","","null","","","null","33","","NaN","","","","","","","","","","","","","",""
"","response","","html-keyboard-response","226","335062","0.0-1.0-302.0-0.0","0","0","39939","","522","","","75","33","","","1","33","training","adjacent","DE","4","5","R.jpg","N.jpg","1","1","1","",""
"","feedback","","html-keyboard-response","227","336075","0.0-1.0-303.0-0.0","0","0","39939","","null","","","null","33","","","","","","","","","","","","","","","",""
"","ITI","","html-keyboard-response","228","337083","0.0-1.0-306.0","0","0","39939","","null","","","null","33","","","","","","","","","","","","","","","NaN",""
"","S1","","html-keyboard-response","229","337347","0.0-1.0-308.0","0","0","39939","","null","","","null","34","","","","","","","","","","","","","","","",""
"","ISI","","html-keyboard-response","230","338355","0.0-1.0-309.0","0","0","39939","","null","","","null","34","NaN","","","","","","","","","","","","","","",""
"","S2","","html-keyboard-response","231","338620","0.0-1.0-310.0","0","0","39939","","null","","","null","34","","NaN","","","","","","","","","","","","","",""
"","response","","html-keyboard-response","232","338855","0.0-1.0-311.0-0.0","0","0","39939","","234","","","75","34","","","1","34","training","adjacent","DE","4","5","R.jpg","N.jpg","1","1","1","",""
"","feedback","","html-keyboard-response","233","339860","0.0-1.0-312.0-0.0","0","0","39939","","null","","","null","34","","","","","","","","","","","","","","","",""
"","ITI","","html-keyboard-response","234","340869","0.0-1.0-315.0","0","0","39939","","null","","","null","34","","","","","","","","","","","","","","","NaN",""
"","S1","","html-keyboard-response","235","341132","0.0-1.0-317.0","0","0","39939","","null","","","null","35","","","","","","","","","","","","","","","",""
"","ISI","","html-keyboard-response","236","342140","0.0-1.0-318.0","0","0","39939","","null","","","null","35","NaN","","","","","","","","","","","","","","",""
"","S2","","html-keyboard-response","237","342404","0.0-1.0-319.0","0","0","39939","","null","","","null","35","","NaN","","","","","","","","","","","","","",""
"","response","","html-keyboard-response","238","342544","0.0-1.0-320.0-0.0","0","0","39939","","138","","","75","35","","","1","35","training","adjacent","DE","4","5","R.jpg","N.jpg","1","1","1","",""
"","feedback","","html-keyboard-response","239","343552","0.0-1.0-321.0-0.0","0","0","39939","","null","","","null","35","","","","","","","","","","","","","","","",""
"","ITI","","html-keyboard-response","240","344560","0.0-1.0-324.0","0","0","39939","","null","","","null","35","","","","","","","","","","","","","","","NaN",""
"","S1","","html-keyboard-response","241","344824","0.0-1.0-326.0","0","0","39939","","null","","","null","36","","","","","","","","","","","","","","","",""
"","ISI","","html-keyboard-response","242","345833","0.0-1.0-327.0","0","0","39939","","null","","","null","36","NaN","","","","","","","","","","","","","","",""
"","S2","","html-keyboard-response","243","346096","0.0-1.0-328.0","0","0","39939","","null","","","null","36","","NaN","","","","","","","","","","","","","",""
"","response","","html-keyboard-response","244","346553","0.0-1.0-329.0-0.0","0","0","39939","","455","","","75","36","","","1","36","training","adjacent","EF","5","6","N.jpg","M.jpg","1","1","1","",""
"","feedback","","html-keyboard-response","245","347555","0.0-1.0-330.0-0.0","0","0","39939","","null","","","null","36","","","","","","","","","","","","","","","",""
"","ITI","","html-keyboard-response","246","348563","0.0-1.0-333.0","0","0","39939","","null","","","null","36","","","","","","","","","","","","","","","NaN",""
"","S1","","html-keyboard-response","247","348827","0.0-1.0-335.0","0","0","39939","","null","","","null","37","","","","","","","","","","","","","","","",""
"","ISI","","html-keyboard-response","248","349834","0.0-1.0-336.0","0","0","39939","","null","","","null","37","NaN","","","","","","","","","","","","","","",""
"","S2","","html-keyboard-response","249","350098","0.0-1.0-337.0","0","0","39939","","null","","","null","37","","NaN","","","","","","","","","","","","","",""
"","response","","html-keyboard-response","250","350472","0.0-1.0-338.0-0.0","0","0","39939","","373","","","75","37","","","1","37","training","adjacent","ED","5","4","N.jpg","R.jpg","1","0","0","",""
"","feedback","","html-keyboard-response","251","351479","0.0-1.0-339.0-0.0","0","0","39939","","null","","","null","37","","","","","","","","","","","","","","","",""
"","time_out","","html-keyboard-response","252","353495","0.0-1.0-341.0-0.0","0","0","39939","","null","","","null","37","","","","","","","","","","","","","","","",""
"","ITI","","html-keyboard-response","253","354504","0.0-1.0-342.0","0","0","39939","","null","","","null","37","","","","","","","","","","","","","","","NaN",""
"","S1","","html-keyboard-response","254","354768","0.0-1.0-344.0","0","0","39939","","null","","","null","38","","","","","","","","","","","","","","","",""
"","ISI","","html-keyboard-response","255","355776","0.0-1.0-345.0","0","0","39939","","728","","","68","38","d","","","","","","","","","","","","","","",""
"","S2","","html-keyboard-response","256","356040","0.0-1.0-346.0","0","0","39939","","null","","","null","38","","NaN","","","","","","","","","","","","","",""
"","response","","html-keyboard-response","257","356153","0.0-1.0-347.0-0.0","0","0","39939","","111","","","68","38","","","1","38","training","adjacent","AB","1","2","P.jpg","L.jpg","0","1","0","",""
"","feedback","","html-keyboard-response","258","357157","0.0-1.0-348.0-0.0","0","0","39939","","null","","","null","38","","","","","","","","","","","","","","","",""
"","time_out","","html-keyboard-response","259","359174","0.0-1.0-350.0-0.0","0","0","39939","","null","","","null","38","","","","","","","","","","","","","","","",""
"","ITI","","html-keyboard-response","260","360182","0.0-1.0-351.0","0","0","39939","","null","","","null","38","","","","","","","","","","","","","","","NaN",""
"","S1","","html-keyboard-response","261","360446","0.0-1.0-353.0","0","0","39939","","null","","","null","39","","","","","","","","","","","","","","","",""
"","ISI","","html-keyboard-response","262","361455","0.0-1.0-354.0","0","0","39939","","null","","","null","39","NaN","","","","","","","","","","","","","","",""
"","S2","","html-keyboard-response","263","361717","0.0-1.0-355.0","0","0","39939","","null","","","null","39","","NaN","","","","","","","","","","","","","",""
"","response","","html-keyboard-response","264","362194","0.0-1.0-356.0-0.0","0","0","39939","","476","","","75","39","","","1","39","training","adjacent","FE","6","5","M.jpg","N.jpg","1","0","0","",""
"","feedback","","html-keyboard-response","265","363206","0.0-1.0-357.0-0.0","0","0","39939","","null","","","null","39","","","","","","","","","","","","","","","",""
"","time_out","","html-keyboard-response","266","365208","0.0-1.0-359.0-0.0","0","0","39939","","null","","","null","39","","","","","","","","","","","","","","","",""
"","ITI","","html-keyboard-response","267","366216","0.0-1.0-360.0","0","0","39939","","null","","","null","39","","","","","","","","","","","","","","","NaN",""
"","S1","","html-keyboard-response","268","366480","0.0-1.0-362.0","0","0","39939","","null","","","null","40","","","","","","","","","","","","","","","",""
"","ISI","","html-keyboard-response","269","367488","0.0-1.0-363.0","0","0","39939","","null","","","null","40","NaN","","","","","","","","","","","","","","",""
"","S2","","html-keyboard-response","270","367751","0.0-1.0-364.0","0","0","39939","","null","","","null","40","","NaN","","","","","","","","","","","","","",""
"","response","","html-keyboard-response","271","368227","0.0-1.0-365.0-0.0","0","0","39939","","473","","","75","40","","","1","40","training","adjacent","BA","2","1","L.jpg","P.jpg","1","0","0","",""
"","feedback","","html-keyboard-response","272","369242","0.0-1.0-366.0-0.0","0","0","39939","","null","","","null","40","","","","","","","","","","","","","","","",""
"","time_out","","html-keyboard-response","273","371259","0.0-1.0-368.0-0.0","0","0","39939","","null","","","null","40","","","","","","","","","","","","","","","",""
"","ITI","","html-keyboard-response","274","372267","0.0-1.0-369.0","0","0","39939","","null","","","null","40","","","","","","","","","","","","","","","NaN",""
"","S1","","html-keyboard-response","275","372531","0.0-1.0-371.0","0","0","39939","","null","","","null","41","","","","","","","","","","","","","","","",""
"","ISI","","html-keyboard-response","276","373538","0.0-1.0-372.0","0","0","39939","","null","","","null","41","NaN","","","","","","","","","","","","","","",""
"","S2","","html-keyboard-response","277","373803","0.0-1.0-373.0","0","0","39939","","null","","","null","41","","NaN","","","","","","","","","","","","","",""
"","response","","html-keyboard-response","278","374277","0.0-1.0-374.0-0.0","0","0","39939","","472","","","68","41","","","1","41","training","adjacent","GF","7","6","O.jpg","M.jpg","0","0","1","",""
"","feedback","","html-keyboard-response","279","375293","0.0-1.0-375.0-0.0","0","0","39939","","null","","","null","41","","","","","","","","","","","","","","","",""
"","ITI","","html-keyboard-response","280","376299","0.0-1.0-378.0","0","0","39939","","null","","","null","41","","","","","","","","","","","","","","","NaN",""
"","S1","","html-keyboard-response","281","376564","0.0-1.0-380.0","0","0","39939","","null","","","null","42","","","","","","","","","","","","","","","",""
"","ISI","","html-keyboard-response","282","377572","0.0-1.0-381.0","0","0","39939","","null","","","null","42","NaN","","","","","","","","","","","","","","",""
"","S2","","html-keyboard-response","283","377836","0.0-1.0-382.0","0","0","39939","","null","","","null","42","","NaN","","","","","","","","","","","","","",""
"","response","","html-keyboard-response","284","378308","0.0-1.0-383.0-0.0","0","0","39939","","470","","","68","42","","","1","42","training","adjacent","CD","3","4","Q.jpg","R.jpg","0","1","0","",""
"","feedback","","html-keyboard-response","285","379325","0.0-1.0-384.0-0.0","0","0","39939","","null","","","null","42","","","","","","","","","","","","","","","",""
"","time_out","","html-keyboard-response","286","381342","0.0-1.0-386.0-0.0","0","0","39939","","null","","","null","42","","","","","","","","","","","","","","","",""
"","ITI","","html-keyboard-response","287","382350","0.0-1.0-387.0","0","0","39939","","null","","","null","42","","","","","","","","","","","","","","","NaN",""
"","S1","","html-keyboard-response","288","382614","0.0-1.0-389.0","0","0","39939","","null","","","null","43","","","","","","","","","","","","","","","",""
"","ISI","","html-keyboard-response","289","383622","0.0-1.0-390.0","0","0","39939","","null","","","null","43","NaN","","","","","","","","","","","","","","",""
"","S2","","html-keyboard-response","290","383886","0.0-1.0-391.0","0","0","39939","","null","","","null","43","","NaN","","","","","","","","","","","","","",""
"","response","","html-keyboard-response","291","384332","0.0-1.0-392.0-0.0","0","0","39939","","445","","","75","43","","","1","43","training","adjacent","ED","5","4","N.jpg","R.jpg","1","0","0","",""
"","feedback","","html-keyboard-response","292","385343","0.0-1.0-393.0-0.0","0","0","39939","","null","","","null","43","","","","","","","","","","","","","","","",""
"","time_out","","html-keyboard-response","293","387345","0.0-1.0-395.0-0.0","0","0","39939","","null","","","null","43","","","","","","","","","","","","","","","",""
"","ITI","","html-keyboard-response","294","388354","0.0-1.0-396.0","0","0","39939","","null","","","null","43","","","","","","","","","","","","","","","NaN",""
"","S1","","html-keyboard-response","295","388616","0.0-1.0-398.0","0","0","39939","","null","","","null","44","","","","","","","","","","","","","","","",""
"","ISI","","html-keyboard-response","296","389625","0.0-1.0-399.0","0","0","39939","","null","","","null","44","NaN","","","","","","","","","","","","","","",""
"","S2","","html-keyboard-response","297","389889","0.0-1.0-400.0","0","0","39939","","null","","","null","44","","NaN","","","","","","","","","","","","","",""
"","response","","html-keyboard-response","298","390325","0.0-1.0-401.0-0.0","0","0","39939","","435","","","68","44","","","1","44","training","adjacent","BA","2","1","L.jpg","P.jpg","0","0","1","",""
"","feedback","","html-keyboard-response","299","391331","0.0-1.0-402.0-0.0","0","0","39939","","null","","","null","44","","","","","","","","","","","","","","","",""
"","ITI","","html-keyboard-response","300","392340","0.0-1.0-405.0","0","0","39939","","null","","","null","44","","","","","","","","","","","","","","","NaN",""
"","S1","","html-keyboard-response","301","392605","0.0-1.0-407.0","0","0","39939","","null","","","null","45","","","","","","","","","","","","","","","",""
"","ISI","","html-keyboard-response","302","393613","0.0-1.0-408.0","0","0","39939","","null","","","null","45","NaN","","","","","","","","","","","","","","",""
"","S2","","html-keyboard-response","303","393877","0.0-1.0-409.0","0","0","39939","","null","","","null","45","","NaN","","","","","","","","","","","","","",""
"","response","","html-keyboard-response","304","394261","0.0-1.0-410.0-0.0","0","0","39939","","383","","","75","45","","","1","45","training","adjacent","BA","2","1","L.jpg","P.jpg","1","0","0","",""
"","feedback","","html-keyboard-response","305","395272","0.0-1.0-411.0-0.0","0","0","39939","","null","","","null","45","","","","","","","","","","","","","","","",""
"","time_out","","html-keyboard-response","306","397288","0.0-1.0-413.0-0.0","0","0","39939","","null","","","null","45","","","","","","","","","","","","","","","",""
"","ITI","","html-keyboard-response","307","398296","0.0-1.0-414.0","0","0","39939","","null","","","null","45","","","","","","","","","","","","","","","NaN",""
"","S1","","html-keyboard-response","308","398559","0.0-1.0-416.0","0","0","39939","","null","","","null","46","","","","","","","","","","","","","","","",""
"","ISI","","html-keyboard-response","309","399569","0.0-1.0-417.0","0","0","39939","","null","","","null","46","NaN","","","","","","","","","","","","","","",""
"","S2","","html-keyboard-response","310","399832","0.0-1.0-418.0","0","0","39939","","null","","","null","46","","NaN","","","","","","","","","","","","","",""
"","response","","html-keyboard-response","311","400391","0.0-1.0-419.0-0.0","0","0","39939","","557","","","75","46","","","1","46","training","adjacent","FE","6","5","M.jpg","N.jpg","1","0","0","",""
"","feedback","","html-keyboard-response","312","401399","0.0-1.0-420.0-0.0","0","0","39939","","null","","","null","46","","","","","","","","","","","","","","","",""
"","time_out","","html-keyboard-response","313","403415","0.0-1.0-422.0-0.0","0","0","39939","","null","","","null","46","","","","","","","","","","","","","","","",""
"","ITI","","html-keyboard-response","314","404424","0.0-1.0-423.0","0","0","39939","","null","","","null","46","","","","","","","","","","","","","","","NaN",""
"","S1","","html-keyboard-response","315","404688","0.0-1.0-425.0","0","0","39939","","null","","","null","47","","","","","","","","","","","","","","","",""
"","ISI","","html-keyboard-response","316","405696","0.0-1.0-426.0","0","0","39939","","null","","","null","47","NaN","","","","","","","","","","","","","","",""
"","S2","","html-keyboard-response","317","405959","0.0-1.0-427.0","0","0","39939","","null","","","null","47","","NaN","","","","","","","","","","","","","",""
"","response","","html-keyboard-response","318","406606","0.0-1.0-428.0-0.0","0","0","39939","","647","","","75","47","","","1","47","training","adjacent","FG","6","7","M.jpg","O.jpg","1","1","1","",""
"","feedback","","html-keyboard-response","319","407619","0.0-1.0-429.0-0.0","0","0","39939","","null","","","null","47","","","","","","","","","","","","","","","",""
"","ITI","","html-keyboard-response","320","408627","0.0-1.0-432.0","0","0","39939","","null","","","null","47","","","","","","","","","","","","","","","NaN",""
"","block_over","","html-keyboard-response","321","416240","0.0-1.0-433.0-0.0","0","0","39939","","7611","","","32","47","","","","","","","","","","","","","","","",""
"","S1","","html-keyboard-response","322","416493","0.0-1.0-434.0","0","0","39939","","null","","","null","48","","","","","","","","","","","","","","","",""
"","ISI","","html-keyboard-response","323","417502","0.0-1.0-435.0","0","0","39939","","null","","","null","48","NaN","","","","","","","","","","","","","","",""
"","S2","","html-keyboard-response","324","417765","0.0-1.0-436.0","0","0","39939","","null","","","null","48","","NaN","","","","","","","","","","","","","",""
"","response","","html-keyboard-response","325","418128","0.0-1.0-437.0-0.0","0","0","39939","","361","","","75","48","","","2","48","training","adjacent","DC","4","3","R.jpg","Q.jpg","1","0","0","",""
"","feedback","","html-keyboard-response","326","419144","0.0-1.0-438.0-0.0","0","0","39939","","null","","","null","48","","","","","","","","","","","","","","","",""
"","time_out","","html-keyboard-response","327","421146","0.0-1.0-440.0-0.0","0","0","39939","","null","","","null","48","","","","","","","","","","","","","","","",""
"","ITI","","html-keyboard-response","328","422154","0.0-1.0-441.0","0","0","39939","","null","","","null","48","","","","","","","","","","","","","","","NaN",""
"","S1","","html-keyboard-response","329","422418","0.0-1.0-443.0","0","0","39939","","null","","","null","49","","","","","","","","","","","","","","","",""
"","ISI","","html-keyboard-response","330","423426","0.0-1.0-444.0","0","0","39939","","null","","","null","49","NaN","","","","","","","","","","","","","","",""
"","S2","","html-keyboard-response","331","423691","0.0-1.0-445.0","0","0","39939","","null","","","null","49","","NaN","","","","","","","","","","","","","",""
"","response","","html-keyboard-response","332","424065","0.0-1.0-446.0-0.0","0","0","39939","","373","","","68","49","","","2","49","training","adjacent","BC","2","3","L.jpg","Q.jpg","0","1","0","",""
"","feedback","","html-keyboard-response","333","425072","0.0-1.0-447.0-0.0","0","0","39939","","null","","","null","49","","","","","","","","","","","","","","","",""
"","time_out","","html-keyboard-response","334","427088","0.0-1.0-449.0-0.0","0","0","39939","","null","","","null","49","","","","","","","","","","","","","","","",""
"","ITI","","html-keyboard-response","335","428096","0.0-1.0-450.0","0","0","39939","","null","","","null","49","","","","","","","","","","","","","","","NaN",""
"","S1","","html-keyboard-response","336","428359","0.0-1.0-452.0","0","0","39939","","null","","","null","50","","","","","","","","","","","","","","","",""
"","ISI","","html-keyboard-response","337","429368","0.0-1.0-453.0","0","0","39939","","null","","","null","50","NaN","","","","","","","","","","","","","","",""
"","S2","","html-keyboard-response","338","429632","0.0-1.0-454.0","0","0","39939","","null","","","null","50","","NaN","","","","","","","","","","","","","",""
"","response","","html-keyboard-response","339","430161","0.0-1.0-455.0-0.0","0","0","39939","","528","","","75","50","","","2","50","training","adjacent","CD","3","4","Q.jpg","R.jpg","1","1","1","",""
"","feedback","","html-keyboard-response","340","431167","0.0-1.0-456.0-0.0","0","0","39939","","null","","","null","50","","","","","","","","","","","","","","","",""
"","ITI","","html-keyboard-response","341","432176","0.0-1.0-459.0","0","0","39939","","null","","","null","50","","","","","","","","","","","","","","","NaN",""
"","S1","","html-keyboard-response","342","432441","0.0-1.0-461.0","0","0","39939","","null","","","null","51","","","","","","","","","","","","","","","",""
"","ISI","","html-keyboard-response","343","433448","0.0-1.0-462.0","0","0","39939","","null","","","null","51","NaN","","","","","","","","","","","","","","",""
"","S2","","html-keyboard-response","344","433712","0.0-1.0-463.0","0","0","39939","","null","","","null","51","","NaN","","","","","","","","","","","","","",""
"","response","","html-keyboard-response","345","434386","0.0-1.0-464.0-0.0","0","0","39939","","673","","","75","51","","","2","51","training","adjacent","CB","3","2","Q.jpg","L.jpg","1","0","0","",""
"","feedback","","html-keyboard-response","346","435404","0.0-1.0-465.0-0.0","0","0","39939","","null","","","null","51","","","","","","","","","","","","","","","",""
"","time_out","","html-keyboard-response","347","437419","0.0-1.0-467.0-0.0","0","0","39939","","null","","","null","51","","","","","","","","","","","","","","","",""
"","ITI","","html-keyboard-response","348","438427","0.0-1.0-468.0","0","0","39939","","null","","","null","51","","","","","","","","","","","","","","","NaN",""
"","S1","","html-keyboard-response","349","438692","0.0-1.0-470.0","0","0","39939","","null","","","null","52","","","","","","","","","","","","","","","",""
"","ISI","","html-keyboard-response","350","439699","0.0-1.0-471.0","0","0","39939","","null","","","null","52","NaN","","","","","","","","","","","","","","",""
"","S2","","html-keyboard-response","351","439964","0.0-1.0-472.0","0","0","39939","","null","","","null","52","","NaN","","","","","","","","","","","","","",""
"","response","","html-keyboard-response","352","441042","0.0-1.0-473.0-0.0","0","0","39939","","1077","","","75","52","","","2","52","training","adjacent","DC","4","3","R.jpg","Q.jpg","1","0","0","",""
"","feedback","","html-keyboard-response","353","442058","0.0-1.0-474.0-0.0","0","0","39939","","null","","","null","52","","","","","","","","","","","","","","","",""
"","time_out","","html-keyboard-response","354","444074","0.0-1.0-476.0-0.0","0","0","39939","","null","","","null","52","","","","","","","","","","","","","","","",""
"","ITI","","html-keyboard-response","355","445082","0.0-1.0-477.0","0","0","39939","","null","","","null","52","","","","","","","","","","","","","","","NaN",""
"","S1","","html-keyboard-response","356","445346","0.0-1.0-479.0","0","0","39939","","null","","","null","53","","","","","","","","","","","","","","","",""
"","ISI","","html-keyboard-response","357","446354","0.0-1.0-480.0","0","0","39939","","null","","","null","53","NaN","","","","","","","","","","","","","","",""
"","S2","","html-keyboard-response","358","446618","0.0-1.0-481.0","0","0","39939","","null","","","null","53","","NaN","","","","","","","","","","","","","",""
"","response","","html-keyboard-response","359","447532","0.0-1.0-482.0-0.0","0","0","39939","","912","","","68","53","","","2","53","training","adjacent","FG","6","7","M.jpg","O.jpg","0","1","0","",""
"","feedback","","html-keyboard-response","360","448541","0.0-1.0-483.0-0.0","0","0","39939","","null","","","null","53","","","","","","","","","","","","","","","",""
"","time_out","","html-keyboard-response","361","450558","0.0-1.0-485.0-0.0","0","0","39939","","null","","","null","53","","","","","","","","","","","","","","","",""
"","ITI","","html-keyboard-response","362","451565","0.0-1.0-486.0","0","0","39939","","null","","","null","53","","","","","","","","","","","","","","","NaN",""
"","S1","","html-keyboard-response","363","451829","0.0-1.0-488.0","0","0","39939","","null","","","null","54","","","","","","","","","","","","","","","",""
"","ISI","","html-keyboard-response","364","452838","0.0-1.0-489.0","0","0","39939","","null","","","null","54","NaN","","","","","","","","","","","","","","",""
"","S2","","html-keyboard-response","365","453103","0.0-1.0-490.0","0","0","39939","","null","","","null","54","","NaN","","","","","","","","","","","","","",""
"","response","","html-keyboard-response","366","453573","0.0-1.0-491.0-0.0","0","0","39939","","467","","","75","54","","","2","54","training","adjacent","FG","6","7","M.jpg","O.jpg","1","1","1","",""
"","feedback","","html-keyboard-response","367","454576","0.0-1.0-492.0-0.0","0","0","39939","","null","","","null","54","","","","","","","","","","","","","","","",""
"","ITI","","html-keyboard-response","368","455583","0.0-1.0-495.0","0","0","39939","","null","","","null","54","","","","","","","","","","","","","","","NaN",""
"","S1","","html-keyboard-response","369","455847","0.0-1.0-497.0","0","0","39939","","null","","","null","55","","","","","","","","","","","","","","","",""
"","ISI","","html-keyboard-response","370","456855","0.0-1.0-498.0","0","0","39939","","null","","","null","55","NaN","","","","","","","","","","","","","","",""
"","S2","","html-keyboard-response","371","457120","0.0-1.0-499.0","0","0","39939","","null","","","null","55","","NaN","","","","","","","","","","","","","",""
"","response","","html-keyboard-response","372","457732","0.0-1.0-500.0-0.0","0","0","39939","","612","","","75","55","","","2","55","training","adjacent","FG","6","7","M.jpg","O.jpg","1","1","1","",""
"","feedback","","html-keyboard-response","373","458749","0.0-1.0-501.0-0.0","0","0","39939","","null","","","null","55","","","","","","","","","","","","","","","",""
"","ITI","","html-keyboard-response","374","459756","0.0-1.0-504.0","0","0","39939","","null","","","null","55","","","","","","","","","","","","","","","NaN",""
"","S1","","html-keyboard-response","375","460020","0.0-1.0-506.0","0","0","39939","","null","","","null","56","","","","","","","","","","","","","","","",""
"","ISI","","html-keyboard-response","376","461028","0.0-1.0-507.0","0","0","39939","","null","","","null","56","NaN","","","","","","","","","","","","","","",""
"","S2","","html-keyboard-response","377","461292","0.0-1.0-508.0","0","0","39939","","null","","","null","56","","NaN","","","","","","","","","","","","","",""
"","response","","html-keyboard-response","378","461981","0.0-1.0-509.0-0.0","0","0","39939","","688","","","75","56","","","2","56","training","adjacent","BC","2","3","L.jpg","Q.jpg","1","1","1","",""
"","feedback","","html-keyboard-response","379","462983","0.0-1.0-510.0-0.0","0","0","39939","","null","","","null","56","","","","","","","","","","","","","","","",""
"","ITI","","html-keyboard-response","380","463992","0.0-1.0-513.0","0","0","39939","","null","","","null","56","","","","","","","","","","","","","","","NaN",""
"","S1","","html-keyboard-response","381","464255","0.0-1.0-515.0","0","0","39939","","null","","","null","57","","","","","","","","","","","","","","","",""
"","ISI","","html-keyboard-response","382","465264","0.0-1.0-516.0","0","0","39939","","null","","","null","57","NaN","","","","","","","","","","","","","","",""
"","S2","","html-keyboard-response","383","465528","0.0-1.0-517.0","0","0","39939","","null","","","null","57","","NaN","","","","","","","","","","","","","",""
"","response","","html-keyboard-response","384","466029","0.0-1.0-518.0-0.0","0","0","39939","","500","","","68","57","","","2","57","training","adjacent","GF","7","6","O.jpg","M.jpg","0","0","1","",""
"","feedback","","html-keyboard-response","385","467032","0.0-1.0-519.0-0.0","0","0","39939","","null","","","null","57","","","","","","","","","","","","","","","",""
"","ITI","","html-keyboard-response","386","468041","0.0-1.0-522.0","0","0","39939","","null","","","null","57","","","","","","","","","","","","","","","NaN",""
"","S1","","html-keyboard-response","387","468304","0.0-1.0-524.0","0","0","39939","","null","","","null","58","","","","","","","","","","","","","","","",""
"","ISI","","html-keyboard-response","388","469313","0.0-1.0-525.0","0","0","39939","","null","","","null","58","NaN","","","","","","","","","","","","","","",""
"","S2","","html-keyboard-response","389","469577","0.0-1.0-526.0","0","0","39939","","null","","","null","58","","NaN","","","","","","","","","","","","","",""
"","response","","html-keyboard-response","390","470246","0.0-1.0-527.0-0.0","0","0","39939","","668","","","68","58","","","2","58","training","adjacent","CD","3","4","Q.jpg","R.jpg","0","1","0","",""
"","feedback","","html-keyboard-response","391","471253","0.0-1.0-528.0-0.0","0","0","39939","","null","","","null","58","","","","","","","","","","","","","","","",""
"","time_out","","html-keyboard-response","392","473270","0.0-1.0-530.0-0.0","0","0","39939","","null","","","null","58","","","","","","","","","","","","","","","",""
"","ITI","","html-keyboard-response","393","474277","0.0-1.0-531.0","0","0","39939","","null","","","null","58","","","","","","","","","","","","","","","NaN",""
"","S1","","html-keyboard-response","394","474542","0.0-1.0-533.0","0","0","39939","","null","","","null","59","","","","","","","","","","","","","","","",""
"","ISI","","html-keyboard-response","395","475551","0.0-1.0-534.0","0","0","39939","","null","","","null","59","NaN","","","","","","","","","","","","","","",""
"","S2","","html-keyboard-response","396","475813","0.0-1.0-535.0","0","0","39939","","null","","","null","59","","NaN","","","","","","","","","","","","","",""
"","response","","html-keyboard-response","397","476350","0.0-1.0-536.0-0.0","0","0","39939","","536","","","75","59","","","2","59","training","adjacent","FG","6","7","M.jpg","O.jpg","1","1","1","",""
"","feedback","","html-keyboard-response","398","477364","0.0-1.0-537.0-0.0","0","0","39939","","null","","","null","59","","","","","","","","","","","","","","","",""
"","ITI","","html-keyboard-response","399","478373","0.0-1.0-540.0","0","0","39939","","null","","","null","59","","","","","","","","","","","","","","","NaN",""
"","S1","","html-keyboard-response","400","478636","0.0-1.0-542.0","0","0","39939","","null","","","null","60","","","","","","","","","","","","","","","",""
"","ISI","","html-keyboard-response","401","479645","0.0-1.0-543.0","0","0","39939","","null","","","null","60","NaN","","","","","","","","","","","","","","",""
"","S2","","html-keyboard-response","402","479908","0.0-1.0-544.0","0","0","39939","","null","","","null","60","","NaN","","","","","","","","","","","","","",""
"","response","","html-keyboard-response","403","480375","0.0-1.0-545.0-0.0","0","0","39939","","465","","","75","60","","","2","60","training","adjacent","BC","2","3","L.jpg","Q.jpg","1","1","1","",""
"","feedback","","html-keyboard-response","404","481382","0.0-1.0-546.0-0.0","0","0","39939","","null","","","null","60","","","","","","","","","","","","","","","",""
"","ITI","","html-keyboard-response","405","482390","0.0-1.0-549.0","0","0","39939","","null","","","null","60","","","","","","","","","","","","","","","NaN",""
"","S1","","html-keyboard-response","406","482653","0.0-1.0-551.0","0","0","39939","","null","","","null","61","","","","","","","","","","","","","","","",""
"","ISI","","html-keyboard-response","407","483662","0.0-1.0-552.0","0","0","39939","","null","","","null","61","NaN","","","","","","","","","","","","","","",""
"","S2","","html-keyboard-response","408","483926","0.0-1.0-553.0","0","0","39939","","null","","","null","61","","NaN","","","","","","","","","","","","","",""
"","response","","html-keyboard-response","409","484623","0.0-1.0-554.0-0.0","0","0","39939","","696","","","68","61","","","2","61","training","adjacent","DE","4","5","R.jpg","N.jpg","0","1","0","",""
"","feedback","","html-keyboard-response","410","485632","0.0-1.0-555.0-0.0","0","0","39939","","null","","","null","61","","","","","","","","","","","","","","","",""
"","time_out","","html-keyboard-response","411","487650","0.0-1.0-557.0-0.0","0","0","39939","","null","","","null","61","","","","","","","","","","","","","","","",""
"","ITI","","html-keyboard-response","412","488658","0.0-1.0-558.0","0","0","39939","","null","","","null","61","","","","","","","","","","","","","","","NaN",""
"","S1","","html-keyboard-response","413","488921","0.0-1.0-560.0","0","0","39939","","null","","","null","62","","","","","","","","","","","","","","","",""
"","ISI","","html-keyboard-response","414","489931","0.0-1.0-561.0","0","0","39939","","null","","","null","62","NaN","","","","","","","","","","","","","","",""
"","S2","","html-keyboard-response","415","490193","0.0-1.0-562.0","0","0","39939","","null","","","null","62","","NaN","","","","","","","","","","","","","",""
"","response","","html-keyboard-response","416","490688","0.0-1.0-563.0-0.0","0","0","39939","","494","","","75","62","","","2","62","training","adjacent","BA","2","1","L.jpg","P.jpg","1","0","0","",""
"","feedback","","html-keyboard-response","417","491699","0.0-1.0-564.0-0.0","0","0","39939","","null","","","null","62","","","","","","","","","","","","","","","",""
"","time_out","","html-keyboard-response","418","493714","0.0-1.0-566.0-0.0","0","0","39939","","null","","","null","62","","","","","","","","","","","","","","","",""
"","ITI","","html-keyboard-response","419","494723","0.0-1.0-567.0","0","0","39939","","null","","","null","62","","","","","","","","","","","","","","","NaN",""
"","S1","","html-keyboard-response","420","494986","0.0-1.0-569.0","0","0","39939","","null","","","null","63","","","","","","","","","","","","","","","",""
"","ISI","","html-keyboard-response","421","495996","0.0-1.0-570.0","0","0","39939","","null","","","null","63","NaN","","","","","","","","","","","","","","",""
"","S2","","html-keyboard-response","422","496259","0.0-1.0-571.0","0","0","39939","","null","","","null","63","","NaN","","","","","","","","","","","","","",""
"","response","","html-keyboard-response","423","496473","0.0-1.0-572.0-0.0","0","0","39939","","213","","","68","63","","","2","63","training","adjacent","AB","1","2","P.jpg","L.jpg","0","1","0","",""
"","feedback","","html-keyboard-response","424","497486","0.0-1.0-573.0-0.0","0","0","39939","","null","","","null","63","","","","","","","","","","","","","","","",""
"","time_out","","html-keyboard-response","425","499502","0.0-1.0-575.0-0.0","0","0","39939","","null","","","null","63","","","","","","","","","","","","","","","",""
"","ITI","","html-keyboard-response","426","500510","0.0-1.0-576.0","0","0","39939","","null","","","null","63","","","","","","","","","","","","","","","NaN",""
"","S1","","html-keyboard-response","427","500774","0.0-1.0-578.0","0","0","39939","","null","","","null","64","","","","","","","","","","","","","","","",""
"","ISI","","html-keyboard-response","428","501782","0.0-1.0-579.0","0","0","39939","","null","","","null","64","NaN","","","","","","","","","","","","","","",""
"","S2","","html-keyboard-response","429","502045","0.0-1.0-580.0","0","0","39939","","null","","","null","64","","NaN","","","","","","","","","","","","","",""
"","response","","html-keyboard-response","430","503203","0.0-1.0-581.0-0.0","0","0","39939","","1154","","","68","64","","","2","64","training","adjacent","AB","1","2","P.jpg","L.jpg","0","1","0","",""
"","feedback","","html-keyboard-response","431","504217","0.0-1.0-582.0-0.0","0","0","39939","","null","","","null","64","","","","","","","","","","","","","","","",""
"","time_out","","html-keyboard-response","432","506235","0.0-1.0-584.0-0.0","0","0","39939","","null","","","null","64","","","","","","","","","","","","","","","",""
"","ITI","","html-keyboard-response","433","507242","0.0-1.0-585.0","0","0","39939","","null","","","null","64","","","","","","","","","","","","","","","NaN",""
"","S1","","html-keyboard-response","434","507506","0.0-1.0-587.0","0","0","39939","","null","","","null","65","","","","","","","","","","","","","","","",""
"","ISI","","html-keyboard-response","435","508514","0.0-1.0-588.0","0","0","39939","","null","","","null","65","NaN","","","","","","","","","","","","","","",""
"","S2","","html-keyboard-response","436","508778","0.0-1.0-589.0","0","0","39939","","null","","","null","65","","NaN","","","","","","","","","","","","","",""
"","response","","html-keyboard-response","437","509250","0.0-1.0-590.0-0.0","0","0","39939","","471","","","75","65","","","2","65","training","adjacent","BA","2","1","L.jpg","P.jpg","1","0","0","",""
"","feedback","","html-keyboard-response","438","510253","0.0-1.0-591.0-0.0","0","0","39939","","null","","","null","65","","","","","","","","","","","","","","","",""
"","time_out","","html-keyboard-response","439","512270","0.0-1.0-593.0-0.0","0","0","39939","","null","","","null","65","","","","","","","","","","","","","","","",""
"","ITI","","html-keyboard-response","440","513277","0.0-1.0-594.0","0","0","39939","","null","","","null","65","","","","","","","","","","","","","","","NaN",""
"","S1","","html-keyboard-response","441","513541","0.0-1.0-596.0","0","0","39939","","null","","","null","66","","","","","","","","","","","","","","","",""
"","ISI","","html-keyboard-response","442","514549","0.0-1.0-597.0","0","0","39939","","null","","","null","66","NaN","","","","","","","","","","","","","","",""
"","S2","","html-keyboard-response","443","514812","0.0-1.0-598.0","0","0","39939","","null","","","null","66","","NaN","","","","","","","","","","","","","",""
"","response","","html-keyboard-response","444","515372","0.0-1.0-599.0-0.0","0","0","39939","","557","","","75","66","","","2","66","training","adjacent","FE","6","5","M.jpg","N.jpg","1","0","0","",""
"","feedback","","html-keyboard-response","445","516380","0.0-1.0-600.0-0.0","0","0","39939","","null","","","null","66","","","","","","","","","","","","","","","",""
"","time_out","","html-keyboard-response","446","518396","0.0-1.0-602.0-0.0","0","0","39939","","null","","","null","66","","","","","","","","","","","","","","","",""
"","ITI","","html-keyboard-response","447","519404","0.0-1.0-603.0","0","0","39939","","null","","","null","66","","","","","","","","","","","","","","","NaN",""
"","S1","","html-keyboard-response","448","519668","0.0-1.0-605.0","0","0","39939","","null","","","null","67","","","","","","","","","","","","","","","",""
"","ISI","","html-keyboard-response","449","520677","0.0-1.0-606.0","0","0","39939","","null","","","null","67","NaN","","","","","","","","","","","","","","",""
"","S2","","html-keyboard-response","450","520942","0.0-1.0-607.0","0","0","39939","","null","","","null","67","","NaN","","","","","","","","","","","","","",""
"","response","","html-keyboard-response","451","521155","0.0-1.0-608.0-0.0","0","0","39939","","212","","","68","67","","","2","67","training","adjacent","CB","3","2","Q.jpg","L.jpg","0","0","1","",""
"","feedback","","html-keyboard-response","452","522166","0.0-1.0-609.0-0.0","0","0","39939","","null","","","null","67","","","","","","","","","","","","","","","",""
"","ITI","","html-keyboard-response","453","523175","0.0-1.0-612.0","0","0","39939","","null","","","null","67","","","","","","","","","","","","","","","NaN",""
"","S1","","html-keyboard-response","454","523438","0.0-1.0-614.0","0","0","39939","","null","","","null","68","","","","","","","","","","","","","","","",""
"","ISI","","html-keyboard-response","455","524447","0.0-1.0-615.0","0","0","39939","","null","","","null","68","NaN","","","","","","","","","","","","","","",""
"","S2","","html-keyboard-response","456","524710","0.0-1.0-616.0","0","0","39939","","null","","","null","68","","NaN","","","","","","","","","","","","","",""
"","response","","html-keyboard-response","457","525468","0.0-1.0-617.0-0.0","0","0","39939","","757","","","68","68","","","2","68","training","adjacent","EF","5","6","N.jpg","M.jpg","0","1","0","",""
"","feedback","","html-keyboard-response","458","526480","0.0-1.0-618.0-0.0","0","0","39939","","null","","","null","68","","","","","","","","","","","","","","","",""
"","time_out","","html-keyboard-response","459","528496","0.0-1.0-620.0-0.0","0","0","39939","","null","","","null","68","","","","","","","","","","","","","","","",""
"","ITI","","html-keyboard-response","460","529504","0.0-1.0-621.0","0","0","39939","","null","","","null","68","","","","","","","","","","","","","","","NaN",""
"","S1","","html-keyboard-response","461","529768","0.0-1.0-623.0","0","0","39939","","null","","","null","69","","","","","","","","","","","","","","","",""
"","ISI","","html-keyboard-response","462","530778","0.0-1.0-624.0","0","0","39939","","null","","","null","69","NaN","","","","","","","","","","","","","","",""
"","S2","","html-keyboard-response","463","531041","0.0-1.0-625.0","0","0","39939","","null","","","null","69","","NaN","","","","","","","","","","","","","",""
"","response","","html-keyboard-response","464","531973","0.0-1.0-626.0-0.0","0","0","39939","","931","","","75","69","","","2","69","training","adjacent","ED","5","4","N.jpg","R.jpg","1","0","0","",""
"","feedback","","html-keyboard-response","465","532979","0.0-1.0-627.0-0.0","0","0","39939","","null","","","null","69","","","","","","","","","","","","","","","",""
"","time_out","","html-keyboard-response","466","534997","0.0-1.0-629.0-0.0","0","0","39939","","null","","","null","69","","","","","","","","","","","","","","","",""
"","ITI","","html-keyboard-response","467","536004","0.0-1.0-630.0","0","0","39939","","null","","","null","69","","","","","","","","","","","","","","","NaN",""
"","S1","","html-keyboard-response","468","536269","0.0-1.0-632.0","0","0","39939","","null","","","null","70","","","","","","","","","","","","","","","",""
"","ISI","","html-keyboard-response","469","537276","0.0-1.0-633.0","0","0","39939","","null","","","null","70","NaN","","","","","","","","","","","","","","",""
"","S2","","html-keyboard-response","470","537540","0.0-1.0-634.0","0","0","39939","","null","","","null","70","","NaN","","","","","","","","","","","","","",""
"","response","","html-keyboard-response","471","538406","0.0-1.0-635.0-0.0","0","0","39939","","865","","","68","70","","","2","70","training","adjacent","CB","3","2","Q.jpg","L.jpg","0","0","1","",""
"","feedback","","html-keyboard-response","472","539417","0.0-1.0-636.0-0.0","0","0","39939","","null","","","null","70","","","","","","","","","","","","","","","",""
"","ITI","","html-keyboard-response","473","540425","0.0-1.0-639.0","0","0","39939","","null","","","null","70","","","","","","","","","","","","","","","NaN",""
"","S1","","html-keyboard-response","474","540688","0.0-1.0-641.0","0","0","39939","","null","","","null","71","","","","","","","","","","","","","","","",""
"","ISI","","html-keyboard-response","475","541698","0.0-1.0-642.0","0","0","39939","","null","","","null","71","NaN","","","","","","","","","","","","","","",""
"","S2","","html-keyboard-response","476","541962","0.0-1.0-643.0","0","0","39939","","null","","","null","71","","NaN","","","","","","","","","","","","","",""
"","response","","html-keyboard-response","477","542590","0.0-1.0-644.0-0.0","0","0","39939","","627","","","75","71","","","2","71","training","adjacent","BC","2","3","L.jpg","Q.jpg","1","1","1","",""
"","feedback","","html-keyboard-response","478","543605","0.0-1.0-645.0-0.0","0","0","39939","","null","","","null","71","","","","","","","","","","","","","","","",""
"","ITI","","html-keyboard-response","479","544614","0.0-1.0-648.0","0","0","39939","","null","","","null","71","","","","","","","","","","","","","","","NaN",""
"","S1","","html-keyboard-response","480","544878","0.0-1.0-650.0","0","0","39939","","null","","","null","72","","","","","","","","","","","","","","","",""
"","ISI","","html-keyboard-response","481","545886","0.0-1.0-651.0","0","0","39939","","null","","","null","72","NaN","","","","","","","","","","","","","","",""
"","S2","","html-keyboard-response","482","546150","0.0-1.0-652.0","0","0","39939","","null","","","null","72","","NaN","","","","","","","","","","","","","",""
"","response","","html-keyboard-response","483","546710","0.0-1.0-653.0-0.0","0","0","39939","","559","","","75","72","","","2","72","training","adjacent","FE","6","5","M.jpg","N.jpg","1","0","0","",""
"","feedback","","html-keyboard-response","484","547717","0.0-1.0-654.0-0.0","0","0","39939","","null","","","null","72","","","","","","","","","","","","","","","",""
"","time_out","","html-keyboard-response","485","549733","0.0-1.0-656.0-0.0","0","0","39939","","null","","","null","72","","","","","","","","","","","","","","","",""
"","ITI","","html-keyboard-response","486","550742","0.0-1.0-657.0","0","0","39939","","null","","","null","72","","","","","","","","","","","","","","","NaN",""
"","S1","","html-keyboard-response","487","551006","0.0-1.0-659.0","0","0","39939","","null","","","null","73","","","","","","","","","","","","","","","",""
"","ISI","","html-keyboard-response","488","552013","0.0-1.0-660.0","0","0","39939","","null","","","null","73","NaN","","","","","","","","","","","","","","",""
"","S2","","html-keyboard-response","489","552279","0.0-1.0-661.0","0","0","39939","","null","","","null","73","","NaN","","","","","","","","","","","","","",""
"","response","","html-keyboard-response","490","552975","0.0-1.0-662.0-0.0","0","0","39939","","695","","","68","73","","","2","73","training","adjacent","AB","1","2","P.jpg","L.jpg","0","1","0","",""
"","feedback","","html-keyboard-response","491","553984","0.0-1.0-663.0-0.0","0","0","39939","","null","","","null","73","","","","","","","","","","","","","","","",""
"","time_out","","html-keyboard-response","492","555986","0.0-1.0-665.0-0.0","0","0","39939","","null","","","null","73","","","","","","","","","","","","","","","",""
"","ITI","","html-keyboard-response","493","556995","0.0-1.0-666.0","0","0","39939","","null","","","null","73","","","","","","","","","","","","","","","NaN",""
"","S1","","html-keyboard-response","494","557259","0.0-1.0-668.0","0","0","39939","","null","","","null","74","","","","","","","","","","","","","","","",""
"","ISI","","html-keyboard-response","495","558267","0.0-1.0-669.0","0","0","39939","","null","","","null","74","NaN","","","","","","","","","","","","","","",""
"","S2","","html-keyboard-response","496","558530","0.0-1.0-670.0","0","0","39939","","null","","","null","74","","NaN","","","","","","","","","","","","","",""
"","response","","html-keyboard-response","497","559337","0.0-1.0-671.0-0.0","0","0","39939","","803","","","75","74","","","2","74","training","adjacent","CD","3","4","Q.jpg","R.jpg","1","1","1","",""
"","feedback","","html-keyboard-response","498","560346","0.0-1.0-672.0-0.0","0","0","39939","","null","","","null","74","","","","","","","","","","","","","","","",""
"","ITI","","html-keyboard-response","499","561354","0.0-1.0-675.0","0","0","39939","","null","","","null","74","","","","","","","","","","","","","","","NaN",""
"","S1","","html-keyboard-response","500","561617","0.0-1.0-677.0","0","0","39939","","null","","","null","75","","","","","","","","","","","","","","","",""
"","ISI","","html-keyboard-response","501","562625","0.0-1.0-678.0","0","0","39939","","null","","","null","75","NaN","","","","","","","","","","","","","","",""
"","S2","","html-keyboard-response","502","562891","0.0-1.0-679.0","0","0","39939","","null","","","null","75","","NaN","","","","","","","","","","","","","",""
"","response","","html-keyboard-response","503","563416","0.0-1.0-680.0-0.0","0","0","39939","","524","","","75","75","","","2","75","training","adjacent","BA","2","1","L.jpg","P.jpg","1","0","0","",""
"","feedback","","html-keyboard-response","504","564425","0.0-1.0-681.0-0.0","0","0","39939","","null","","","null","75","","","","","","","","","","","","","","","",""
"","time_out","","html-keyboard-response","505","566426","0.0-1.0-683.0-0.0","0","0","39939","","null","","","null","75","","","","","","","","","","","","","","","",""
"","ITI","","html-keyboard-response","506","567434","0.0-1.0-684.0","0","0","39939","","null","","","null","75","","","","","","","","","","","","","","","NaN",""
"","S1","","html-keyboard-response","507","567698","0.0-1.0-686.0","0","0","39939","","null","","","null","76","","","","","","","","","","","","","","","",""
"","ISI","","html-keyboard-response","508","568707","0.0-1.0-687.0","0","0","39939","","null","","","null","76","NaN","","","","","","","","","","","","","","",""
"","S2","","html-keyboard-response","509","568970","0.0-1.0-688.0","0","0","39939","","null","","","null","76","","NaN","","","","","","","","","","","","","",""
"","response","","html-keyboard-response","510","569658","0.0-1.0-689.0-0.0","0","0","39939","","686","","","68","76","","","2","76","training","adjacent","EF","5","6","N.jpg","M.jpg","0","1","0","",""
"","feedback","","html-keyboard-response","511","570662","0.0-1.0-690.0-0.0","0","0","39939","","null","","","null","76","","","","","","","","","","","","","","","",""
"","time_out","","html-keyboard-response","512","572679","0.0-1.0-692.0-0.0","0","0","39939","","null","","","null","76","","","","","","","","","","","","","","","",""
"","ITI","","html-keyboard-response","513","573686","0.0-1.0-693.0","0","0","39939","","null","","","null","76","","","","","","","","","","","","","","","NaN",""
"","S1","","html-keyboard-response","514","573950","0.0-1.0-695.0","0","0","39939","","null","","","null","77","","","","","","","","","","","","","","","",""
"","ISI","","html-keyboard-response","515","574958","0.0-1.0-696.0","0","0","39939","","null","","","null","77","NaN","","","","","","","","","","","","","","",""
"","S2","","html-keyboard-response","516","575222","0.0-1.0-697.0","0","0","39939","","null","","","null","77","","NaN","","","","","","","","","","","","","",""
"","response","","html-keyboard-response","517","575947","0.0-1.0-698.0-0.0","0","0","39939","","721","","","68","77","","","2","77","training","adjacent","AB","1","2","P.jpg","L.jpg","0","1","0","",""
"","feedback","","html-keyboard-response","518","576960","0.0-1.0-699.0-0.0","0","0","39939","","null","","","null","77","","","","","","","","","","","","","","","",""
"","time_out","","html-keyboard-response","519","578978","0.0-1.0-701.0-0.0","0","0","39939","","null","","","null","77","","","","","","","","","","","","","","","",""
"","ITI","","html-keyboard-response","520","579985","0.0-1.0-702.0","0","0","39939","","null","","","null","77","","","","","","","","","","","","","","","NaN",""
"","S1","","html-keyboard-response","521","580249","0.0-1.0-704.0","0","0","39939","","null","","","null","78","","","","","","","","","","","","","","","",""
"","ISI","","html-keyboard-response","522","581257","0.0-1.0-705.0","0","0","39939","","null","","","null","78","NaN","","","","","","","","","","","","","","",""
"","S2","","html-keyboard-response","523","581521","0.0-1.0-706.0","0","0","39939","","null","","","null","78","","NaN","","","","","","","","","","","","","",""
"","response","","html-keyboard-response","524","582179","0.0-1.0-707.0-0.0","0","0","39939","","656","","","75","78","","","2","78","training","adjacent","FE","6","5","M.jpg","N.jpg","1","0","0","",""
"","feedback","","html-keyboard-response","525","583181","0.0-1.0-708.0-0.0","0","0","39939","","null","","","null","78","","","","","","","","","","","","","","","",""
"","time_out","","html-keyboard-response","526","585197","0.0-1.0-710.0-0.0","0","0","39939","","null","","","null","78","","","","","","","","","","","","","","","",""
"","ITI","","html-keyboard-response","527","586207","0.0-1.0-711.0","0","0","39939","","null","","","null","78","","","","","","","","","","","","","","","NaN",""
"","S1","","html-keyboard-response","528","586470","0.0-1.0-713.0","0","0","39939","","null","","","null","79","","","","","","","","","","","","","","","",""
"","ISI","","html-keyboard-response","529","587478","0.0-1.0-714.0","0","0","39939","","null","","","null","79","NaN","","","","","","","","","","","","","","",""
"","S2","","html-keyboard-response","530","587743","0.0-1.0-715.0","0","0","39939","","null","","","null","79","","NaN","","","","","","","","","","","","","",""
"","response","","html-keyboard-response","531","588770","0.0-1.0-716.0-0.0","0","0","39939","","1027","","","68","79","","","2","79","training","adjacent","GF","7","6","O.jpg","M.jpg","0","0","1","",""
"","feedback","","html-keyboard-response","532","589774","0.0-1.0-717.0-0.0","0","0","39939","","null","","","null","79","","","","","","","","","","","","","","","",""
"","ITI","","html-keyboard-response","533","590783","0.0-1.0-720.0","0","0","39939","","null","","","null","79","","","","","","","","","","","","","","","NaN",""
"","S1","","html-keyboard-response","534","591048","0.0-1.0-722.0","0","0","39939","","null","","","null","80","","","","","","","","","","","","","","","",""
"","ISI","","html-keyboard-response","535","592054","0.0-1.0-723.0","0","0","39939","","null","","","null","80","NaN","","","","","","","","","","","","","","",""
"","S2","","html-keyboard-response","536","592319","0.0-1.0-724.0","0","0","39939","","null","","","null","80","","NaN","","","","","","","","","","","","","",""
"","response","","html-keyboard-response","537","593132","0.0-1.0-725.0-0.0","0","0","39939","","811","","","75","80","","","2","80","training","adjacent","ED","5","4","N.jpg","R.jpg","1","0","0","",""
"","feedback","","html-keyboard-response","538","594149","0.0-1.0-726.0-0.0","0","0","39939","","null","","","null","80","","","","","","","","","","","","","","","",""
"","time_out","","html-keyboard-response","539","596165","0.0-1.0-728.0-0.0","0","0","39939","","null","","","null","80","","","","","","","","","","","","","","","",""
"","ITI","","html-keyboard-response","540","597174","0.0-1.0-729.0","0","0","39939","","null","","","null","80","","","","","","","","","","","","","","","NaN",""
"","S1","","html-keyboard-response","541","597438","0.0-1.0-731.0","0","0","39939","","null","","","null","81","","","","","","","","","","","","","","","",""
"","ISI","","html-keyboard-response","542","598447","0.0-1.0-732.0","0","0","39939","","null","","","null","81","NaN","","","","","","","","","","","","","","",""
"","S2","","html-keyboard-response","543","598711","0.0-1.0-733.0","0","0","39939","","null","","","null","81","","NaN","","","","","","","","","","","","","",""
"","response","","html-keyboard-response","544","599781","0.0-1.0-734.0-0.0","0","0","39939","","1067","","","75","81","","","2","81","training","adjacent","DC","4","3","R.jpg","Q.jpg","1","0","0","",""
"","feedback","","html-keyboard-response","545","600789","0.0-1.0-735.0-0.0","0","0","39939","","null","","","null","81","","","","","","","","","","","","","","","",""
"","time_out","","html-keyboard-response","546","602806","0.0-1.0-737.0-0.0","0","0","39939","","null","","","null","81","","","","","","","","","","","","","","","",""
"","ITI","","html-keyboard-response","547","603814","0.0-1.0-738.0","0","0","39939","","null","","","null","81","","","","","","","","","","","","","","","NaN",""
"","S1","","html-keyboard-response","548","604077","0.0-1.0-740.0","0","0","39939","","null","","","null","82","","","","","","","","","","","","","","","",""
"","ISI","","html-keyboard-response","549","605085","0.0-1.0-741.0","0","0","39939","","null","","","null","82","NaN","","","","","","","","","","","","","","",""
"","S2","","html-keyboard-response","550","605349","0.0-1.0-742.0","0","0","39939","","null","","","null","82","","NaN","","","","","","","","","","","","","",""
"","response","","html-keyboard-response","551","606093","0.0-1.0-743.0-0.0","0","0","39939","","743","","","68","82","","","2","82","training","adjacent","GF","7","6","O.jpg","M.jpg","0","0","1","",""
"","feedback","","html-keyboard-response","552","607103","0.0-1.0-744.0-0.0","0","0","39939","","null","","","null","82","","","","","","","","","","","","","","","",""
"","ITI","","html-keyboard-response","553","608111","0.0-1.0-747.0","0","0","39939","","null","","","null","82","","","","","","","","","","","","","","","NaN",""
"","S1","","html-keyboard-response","554","608375","0.0-1.0-749.0","0","0","39939","","null","","","null","83","","","","","","","","","","","","","","","",""
"","ISI","","html-keyboard-response","555","609384","0.0-1.0-750.0","0","0","39939","","null","","","null","83","NaN","","","","","","","","","","","","","","",""
"","S2","","html-keyboard-response","556","609649","0.0-1.0-751.0","0","0","39939","","null","","","null","83","","NaN","","","","","","","","","","","","","",""
"","response","","html-keyboard-response","557","610605","0.0-1.0-752.0-0.0","0","0","39939","","955","","","75","83","","","2","83","training","adjacent","DE","4","5","R.jpg","N.jpg","1","1","1","",""
"","feedback","","html-keyboard-response","558","611617","0.0-1.0-753.0-0.0","0","0","39939","","null","","","null","83","","","","","","","","","","","","","","","",""
"","ITI","","html-keyboard-response","559","612625","0.0-1.0-756.0","0","0","39939","","null","","","null","83","","","","","","","","","","","","","","","NaN",""
"","S1","","html-keyboard-response","560","612889","0.0-1.0-758.0","0","0","39939","","null","","","null","84","","","","","","","","","","","","","","","",""
"","ISI","","html-keyboard-response","561","613898","0.0-1.0-759.0","0","0","39939","","null","","","null","84","NaN","","","","","","","","","","","","","","",""
"","S2","","html-keyboard-response","562","614161","0.0-1.0-760.0","0","0","39939","","null","","","null","84","","NaN","","","","","","","","","","","","","",""
"","response","","html-keyboard-response","563","614838","0.0-1.0-761.0-0.0","0","0","39939","","676","","","75","84","","","2","84","training","adjacent","ED","5","4","N.jpg","R.jpg","1","0","0","",""
"","feedback","","html-keyboard-response","564","615852","0.0-1.0-762.0-0.0","0","0","39939","","null","","","null","84","","","","","","","","","","","","","","","",""
"","time_out","","html-keyboard-response","565","617869","0.0-1.0-764.0-0.0","0","0","39939","","null","","","null","84","","","","","","","","","","","","","","","",""
"","ITI","","html-keyboard-response","566","618878","0.0-1.0-765.0","0","0","39939","","null","","","null","84","","","","","","","","","","","","","","","NaN",""
"","S1","","html-keyboard-response","567","619142","0.0-1.0-767.0","0","0","39939","","null","","","null","85","","","","","","","","","","","","","","","",""
"","ISI","","html-keyboard-response","568","620150","0.0-1.0-768.0","0","0","39939","","null","","","null","85","NaN","","","","","","","","","","","","","","",""
"","S2","","html-keyboard-response","569","620414","0.0-1.0-769.0","0","0","39939","","null","","","null","85","","NaN","","","","","","","","","","","","","",""
"","response","","html-keyboard-response","570","621470","0.0-1.0-770.0-0.0","0","0","39939","","1056","","","75","85","","","2","85","training","adjacent","CB","3","2","Q.jpg","L.jpg","1","0","0","",""
"","feedback","","html-keyboard-response","571","622477","0.0-1.0-771.0-0.0","0","0","39939","","null","","","null","85","","","","","","","","","","","","","","","",""
"","time_out","","html-keyboard-response","572","624493","0.0-1.0-773.0-0.0","0","0","39939","","null","","","null","85","","","","","","","","","","","","","","","",""
"","ITI","","html-keyboard-response","573","625503","0.0-1.0-774.0","0","0","39939","","null","","","null","85","","","","","","","","","","","","","","","NaN",""
"","S1","","html-keyboard-response","574","625766","0.0-1.0-776.0","0","0","39939","","null","","","null","86","","","","","","","","","","","","","","","",""
"","ISI","","html-keyboard-response","575","626774","0.0-1.0-777.0","0","0","39939","","null","","","null","86","NaN","","","","","","","","","","","","","","",""
"","S2","","html-keyboard-response","576","627038","0.0-1.0-778.0","0","0","39939","","null","","","null","86","","NaN","","","","","","","","","","","","","",""
"","response","","html-keyboard-response","577","627848","0.0-1.0-779.0-0.0","0","0","39939","","809","","","68","86","","","2","86","training","adjacent","FE","6","5","M.jpg","N.jpg","0","0","1","",""
"","feedback","","html-keyboard-response","578","628853","0.0-1.0-780.0-0.0","0","0","39939","","null","","","null","86","","","","","","","","","","","","","","","",""
"","ITI","","html-keyboard-response","579","629860","0.0-1.0-783.0","0","0","39939","","null","","","null","86","","","","","","","","","","","","","","","NaN",""
"","S1","","html-keyboard-response","580","630124","0.0-1.0-785.0","0","0","39939","","null","","","null","87","","","","","","","","","","","","","","","",""
