"success","ttype","start_time","trial_type","trial_index","time_elapsed","internal_node_id","warning","missed_checkup","PID","view_history","rt","responses","repeat_instructions","key_press","index","keypress_isi","keypress_S2","block","trial_num","phase","group_type","pair_type","S1_stim","S2_stim","S1_img","S2_img","S1_chosen","S1_higher","accuracy","keypress_iti","total_bonus_tally"
"true","full_screen","d08012022hr1346","fullscreen","0","145785","0.0-0.0","0","0","64641","","","","","","","","","","","","","","","","","","","","","",""
"","instructions","","instructions","1","215031","0.0-1.0-0.0-0.0","0","0","64641","[{""page_index"":0,""viewing_time"":5985},{""page_index"":1,""viewing_time"":26898},{""page_index"":2,""viewing_time"":33843},{""page_index"":3,""viewing_time"":2516}]","69243","","","","","","","","","","","","","","","","","","","",""
"","comprehension_check","","survey-multi-choice","2","240856","0.0-1.0-0.0-1.0","0","0","64641","","25821","{""Q0"":""True"",""Q1"":""K"",""Q2"":""When you see the prompt 'MAKE A CHOICE' after the second image was presented"",""Q3"":""Green mark"",""Q4"":""either D or K""}","0","","","","","","","","","","","","","","","","","",""
"","start_exp","","html-keyboard-response","3","244713","0.0-1.0-1.0","0","0","64641","","3853","","","32","","","","","","","","","","","","","","","","",""
"","S1","","html-keyboard-response","4","244970","0.0-1.0-2.0","0","0","64641","","null","","","null","0","","","","","","","","","","","","","","","",""
"","ISI","","html-keyboard-response","5","246973","0.0-1.0-3.0","0","0","64641","","null","","","null","0","NaN","","","","","","","","","","","","","","",""
"","S2","","html-keyboard-response","6","247229","0.0-1.0-4.0","0","0","64641","","null","","","null","0","","NaN","","","","","","","","","","","","","",""
"","response","","html-keyboard-response","7","248260","0.0-1.0-5.0","0","0","64641","","1027","","","75","0","","","1","0","training","adjacent","FE","6","5","P.jpg","N.jpg","1","0","0","",""
"","feedback","","html-keyboard-response","8","249267","0.0-1.0-6.0-0.0","0","0","64641","","null","","","null","0","","","","","","","","","","","","","","","",""
"","time_out","","html-keyboard-response","9","251273","0.0-1.0-8.0-0.0","0","0","64641","","null","","","null","0","","","","","","","","","","","","","","","",""
"","ITI","","html-keyboard-response","10","252278","0.0-1.0-9.0","0","0","64641","","null","","","null","0","","","","","","","","","","","","","","","NaN",""
"","S1","","html-keyboard-response","11","252533","0.0-1.0-11.0","0","0","64641","","null","","","null","1","","","","","","","","","","","","","","","",""
"","ISI","","html-keyboard-response","12","254537","0.0-1.0-12.0","0","0","64641","","null","","","null","1","NaN","","","","","","","","","","","","","","",""
"","S2","","html-keyboard-response","13","254794","0.0-1.0-13.0","0","0","64641","","null","","","null","1","","NaN","","","","","","","","","","","","","",""
"","response","","html-keyboard-response","14","255265","0.0-1.0-14.0","0","0","64641","","468","","","68","1","","","1","1","training","adjacent","BA","2","1","R.jpg","O.jpg","0","0","1","",""
"","feedback","","html-keyboard-response","15","256271","0.0-1.0-15.0-0.0","0","0","64641","","null","","","null","1","","","","","","","","","","","","","","","",""
"","ITI","","html-keyboard-response","16","257275","0.0-1.0-18.0","0","0","64641","","null","","","null","1","","","","","","","","","","","","","","","NaN",""
"","S1","","html-keyboard-response","17","257529","0.0-1.0-20.0","0","0","64641","","null","","","null","2","","","","","","","","","","","","","","","",""
"","ISI","","html-keyboard-response","18","259534","0.0-1.0-21.0","0","0","64641","","null","","","null","2","NaN","","","","","","","","","","","","","","",""
"","S2","","html-keyboard-response","19","259788","0.0-1.0-22.0","0","0","64641","","null","","","null","2","","NaN","","","","","","","","","","","","","",""
"","response","","html-keyboard-response","20","260269","0.0-1.0-23.0","0","0","64641","","477","","","68","2","","","1","2","training","adjacent","DC","4","3","Q.jpg","M.jpg","0","0","1","",""
"","feedback","","html-keyboard-response","21","261275","0.0-1.0-24.0-0.0","0","0","64641","","null","","","null","2","","","","","","","","","","","","","","","",""
"","ITI","","html-keyboard-response","22","262279","0.0-1.0-27.0","0","0","64641","","null","","","null","2","","","","","","","","","","","","","","","NaN",""
"","S1","","html-keyboard-response","23","262533","0.0-1.0-29.0","0","0","64641","","null","","","null","3","","","","","","","","","","","","","","","",""
"","ISI","","html-keyboard-response","24","264536","0.0-1.0-30.0","0","0","64641","","null","","","null","3","NaN","","","","","","","","","","","","","","",""
"","S2","","html-keyboard-response","25","264791","0.0-1.0-31.0","0","0","64641","","null","","","null","3","","NaN","","","","","","","","","","","","","",""
"","response","","html-keyboard-response","26","265770","0.0-1.0-32.0","0","0","64641","","976","","","75","3","","","1","3","training","adjacent","DE","4","5","Q.jpg","N.jpg","1","1","1","",""
"","feedback","","html-keyboard-response","27","266774","0.0-1.0-33.0-0.0","0","0","64641","","null","","","null","3","","","","","","","","","","","","","","","",""
"","ITI","","html-keyboard-response","28","267778","0.0-1.0-36.0","0","0","64641","","null","","","null","3","","","","","","","","","","","","","","","NaN",""
"","S1","","html-keyboard-response","29","268037","0.0-1.0-38.0","0","0","64641","","null","","","null","4","","","","","","","","","","","","","","","",""
"","ISI","","html-keyboard-response","30","270041","0.0-1.0-39.0","0","0","64641","","null","","","null","4","NaN","","","","","","","","","","","","","","",""
"","S2","","html-keyboard-response","31","270295","0.0-1.0-40.0","0","0","64641","","null","","","null","4","","NaN","","","","","","","","","","","","","",""
"","response","","html-keyboard-response","32","270489","0.0-1.0-41.0","0","0","64641","","191","","","75","4","","","1","4","training","adjacent","BC","2","3","R.jpg","M.jpg","1","1","1","",""
"","feedback","","html-keyboard-response","33","271494","0.0-1.0-42.0-0.0","0","0","64641","","null","","","null","4","","","","","","","","","","","","","","","",""
"","ITI","","html-keyboard-response","34","272497","0.0-1.0-45.0","0","0","64641","","null","","","null","4","","","","","","","","","","","","","","","NaN",""
"","S1","","html-keyboard-response","35","272751","0.0-1.0-47.0","0","0","64641","","null","","","null","5","","","","","","","","","","","","","","","",""
"","ISI","","html-keyboard-response","36","274754","0.0-1.0-48.0","0","0","64641","","null","","","null","5","NaN","","","","","","","","","","","","","","",""
"","S2","","html-keyboard-response","37","275008","0.0-1.0-49.0","0","0","64641","","null","","","null","5","","NaN","","","","","","","","","","","","","",""
"","response","","html-keyboard-response","38","275256","0.0-1.0-50.0","0","0","64641","","245","","","68","5","","","1","5","training","adjacent","FE","6","5","P.jpg","N.jpg","0","0","1","",""
"","feedback","","html-keyboard-response","39","276260","0.0-1.0-51.0-0.0","0","0","64641","","null","","","null","5","","","","","","","","","","","","","","","",""
"","ITI","","html-keyboard-response","40","277267","0.0-1.0-54.0","0","0","64641","","null","","","null","5","","","","","","","","","","","","","","","NaN",""
"","S1","","html-keyboard-response","41","277520","0.0-1.0-56.0","0","0","64641","","null","","","null","6","","","","","","","","","","","","","","","",""
"","ISI","","html-keyboard-response","42","279525","0.0-1.0-57.0","0","0","64641","","null","","","null","6","NaN","","","","","","","","","","","","","","",""
"","S2","","html-keyboard-response","43","279779","0.0-1.0-58.0","0","0","64641","","null","","","null","6","","NaN","","","","","","","","","","","","","",""
"","response","","html-keyboard-response","44","280003","0.0-1.0-59.0","0","0","64641","","221","","","68","6","","","1","6","training","adjacent","DE","4","5","Q.jpg","N.jpg","0","1","0","",""
"","feedback","","html-keyboard-response","45","281009","0.0-1.0-60.0-0.0","0","0","64641","","null","","","null","6","","","","","","","","","","","","","","","",""
"","time_out","","html-keyboard-response","46","283013","0.0-1.0-62.0-0.0","0","0","64641","","null","","","null","6","","","","","","","","","","","","","","","",""
"","ITI","","html-keyboard-response","47","284017","0.0-1.0-63.0","0","0","64641","","null","","","null","6","","","","","","","","","","","","","","","NaN",""
"","S1","","html-keyboard-response","48","284271","0.0-1.0-65.0","0","0","64641","","null","","","null","7","","","","","","","","","","","","","","","",""
"","ISI","","html-keyboard-response","49","286275","0.0-1.0-66.0","0","0","64641","","null","","","null","7","NaN","","","","","","","","","","","","","","",""
"","S2","","html-keyboard-response","50","286530","0.0-1.0-67.0","0","0","64641","","null","","","null","7","","NaN","","","","","","","","","","","","","",""
"","response","","html-keyboard-response","51","286676","0.0-1.0-68.0","0","0","64641","","143","","","75","7","","","1","7","training","adjacent","FG","6","7","P.jpg","L.jpg","1","1","1","",""
"","feedback","","html-keyboard-response","52","287680","0.0-1.0-69.0-0.0","0","0","64641","","null","","","null","7","","","","","","","","","","","","","","","",""
"","ITI","","html-keyboard-response","53","288684","0.0-1.0-72.0","0","0","64641","","null","","","null","7","","","","","","","","","","","","","","","NaN",""
"","S1","","html-keyboard-response","54","288939","0.0-1.0-74.0","0","0","64641","","null","","","null","8","","","","","","","","","","","","","","","",""
"","ISI","","html-keyboard-response","55","290944","0.0-1.0-75.0","0","0","64641","","null","","","null","8","NaN","","","","","","","","","","","","","","",""
"","S2","","html-keyboard-response","56","291199","0.0-1.0-76.0","0","0","64641","","null","","","null","8","","NaN","","","","","","","","","","","","","",""
"","response","","html-keyboard-response","57","291709","0.0-1.0-77.0","0","0","64641","","508","","","68","8","","","1","8","training","adjacent","AB","1","2","O.jpg","R.jpg","0","1","0","",""
"","feedback","","html-keyboard-response","58","292712","0.0-1.0-78.0-0.0","0","0","64641","","null","","","null","8","","","","","","","","","","","","","","","",""
"","time_out","","html-keyboard-response","59","294715","0.0-1.0-80.0-0.0","0","0","64641","","null","","","null","8","","","","","","","","","","","","","","","",""
"","ITI","","html-keyboard-response","60","295720","0.0-1.0-81.0","0","0","64641","","null","","","null","8","","","","","","","","","","","","","","","NaN",""
"","S1","","html-keyboard-response","61","295986","0.0-1.0-83.0","0","0","64641","","null","","","null","9","","","","","","","","","","","","","","","",""
"","ISI","","html-keyboard-response","62","297990","0.0-1.0-84.0","0","0","64641","","null","","","null","9","NaN","","","","","","","","","","","","","","",""
"","S2","","html-keyboard-response","63","298244","0.0-1.0-85.0","0","0","64641","","null","","","null","9","","NaN","","","","","","","","","","","","","",""
"","response","","html-keyboard-response","64","298506","0.0-1.0-86.0","0","0","64641","","259","","","75","9","","","1","9","training","adjacent","FG","6","7","P.jpg","L.jpg","1","1","1","",""
"","feedback","","html-keyboard-response","65","299512","0.0-1.0-87.0-0.0","0","0","64641","","null","","","null","9","","","","","","","","","","","","","","","",""
"","ITI","","html-keyboard-response","66","300516","0.0-1.0-90.0","0","0","64641","","null","","","null","9","","","","","","","","","","","","","","","NaN",""
"","S1","","html-keyboard-response","67","300770","0.0-1.0-92.0","0","0","64641","","null","","","null","10","","","","","","","","","","","","","","","",""
"","ISI","","html-keyboard-response","68","302773","0.0-1.0-93.0","0","0","64641","","null","","","null","10","NaN","","","","","","","","","","","","","","",""
"","S2","","html-keyboard-response","69","303027","0.0-1.0-94.0","0","0","64641","","null","","","null","10","","NaN","","","","","","","","","","","","","",""
"","response","","html-keyboard-response","70","303403","0.0-1.0-95.0","0","0","64641","","373","","","75","10","","","1","10","training","adjacent","BA","2","1","R.jpg","O.jpg","1","0","0","",""
"","feedback","","html-keyboard-response","71","304409","0.0-1.0-96.0-0.0","0","0","64641","","null","","","null","10","","","","","","","","","","","","","","","",""
"","time_out","","html-keyboard-response","72","306413","0.0-1.0-98.0-0.0","0","0","64641","","null","","","null","10","","","","","","","","","","","","","","","",""
"","ITI","","html-keyboard-response","73","307418","0.0-1.0-99.0","0","0","64641","","null","","","null","10","","","","","","","","","","","","","","","NaN",""
"","S1","","html-keyboard-response","74","307673","0.0-1.0-101.0","0","0","64641","","null","","","null","11","","","","","","","","","","","","","","","",""
"","ISI","","html-keyboard-response","75","309676","0.0-1.0-102.0","0","0","64641","","null","","","null","11","NaN","","","","","","","","","","","","","","",""
"","S2","","html-keyboard-response","76","309930","0.0-1.0-103.0","0","0","64641","","null","","","null","11","","NaN","","","","","","","","","","","","","",""
"","response","","html-keyboard-response","77","310123","0.0-1.0-104.0","0","0","64641","","190","","","68","11","","","1","11","training","adjacent","BA","2","1","R.jpg","O.jpg","0","0","1","",""
"","feedback","","html-keyboard-response","78","311127","0.0-1.0-105.0-0.0","0","0","64641","","null","","","null","11","","","","","","","","","","","","","","","",""
"","ITI","","html-keyboard-response","79","312130","0.0-1.0-108.0","0","0","64641","","null","","","null","11","","","","","","","","","","","","","","","NaN",""
"","S1","","html-keyboard-response","80","312384","0.0-1.0-110.0","0","0","64641","","null","","","null","12","","","","","","","","","","","","","","","",""
"","ISI","","html-keyboard-response","81","314389","0.0-1.0-111.0","0","0","64641","","null","","","null","12","NaN","","","","","","","","","","","","","","",""
"","S2","","html-keyboard-response","82","314642","0.0-1.0-112.0","0","0","64641","","null","","","null","12","","NaN","","","","","","","","","","","","","",""
"","response","","html-keyboard-response","83","314693","0.0-1.0-113.0","0","0","64641","","47","","","68","12","","","1","12","training","adjacent","ED","5","4","N.jpg","Q.jpg","0","0","1","",""
"","feedback","","html-keyboard-response","84","315696","0.0-1.0-114.0-0.0","0","0","64641","","null","","","null","12","","","","","","","","","","","","","","","",""
"","ITI","","html-keyboard-response","85","316699","0.0-1.0-117.0","0","0","64641","","null","","","null","12","","","","","","","","","","","","","","","NaN",""
"","S1","","html-keyboard-response","86","316954","0.0-1.0-119.0","0","0","64641","","null","","","null","13","","","","","","","","","","","","","","","",""
"","ISI","","html-keyboard-response","87","318959","0.0-1.0-120.0","0","0","64641","","null","","","null","13","NaN","","","","","","","","","","","","","","",""
"","S2","","html-keyboard-response","88","319215","0.0-1.0-121.0","0","0","64641","","null","","","null","13","","NaN","","","","","","","","","","","","","",""
"","response","","html-keyboard-response","89","319463","0.0-1.0-122.0","0","0","64641","","245","","","68","13","","","1","13","training","adjacent","AB","1","2","O.jpg","R.jpg","0","1","0","",""
"","feedback","","html-keyboard-response","90","320467","0.0-1.0-123.0-0.0","0","0","64641","","null","","","null","13","","","","","","","","","","","","","","","",""
"","time_out","","html-keyboard-response","91","322470","0.0-1.0-125.0-0.0","0","0","64641","","null","","","null","13","","","","","","","","","","","","","","","",""
"","ITI","","html-keyboard-response","92","323478","0.0-1.0-126.0","0","0","64641","","null","","","null","13","","","","","","","","","","","","","","","NaN",""
"","S1","","html-keyboard-response","93","323732","0.0-1.0-128.0","0","0","64641","","null","","","null","14","","","","","","","","","","","","","","","",""
"","ISI","","html-keyboard-response","94","325735","0.0-1.0-129.0","0","0","64641","","169","","","75","14","k","","","","","","","","","","","","","","",""
"","S2","","html-keyboard-response","95","325991","0.0-1.0-130.0","0","0","64641","","null","","","null","14","","NaN","","","","","","","","","","","","","",""
"","response","","html-keyboard-response","96","326148","0.0-1.0-131.0","0","0","64641","","154","","","75","14","","","1","14","training","adjacent","DC","4","3","Q.jpg","M.jpg","1","0","0","",""
"","feedback","","html-keyboard-response","97","327153","0.0-1.0-132.0-0.0","0","0","64641","","null","","","null","14","","","","","","","","","","","","","","","",""
"","time_out","","html-keyboard-response","98","329157","0.0-1.0-134.0-0.0","0","0","64641","","null","","","null","14","","","","","","","","","","","","","","","",""
"","ITI","","html-keyboard-response","99","330161","0.0-1.0-135.0","0","0","64641","","null","","","null","14","","","","","","","","","","","","","","","NaN",""
"","S1","","html-keyboard-response","100","330417","0.0-1.0-137.0","0","0","64641","","null","","","null","15","","","","","","","","","","","","","","","",""
"","ISI","","html-keyboard-response","101","332420","0.0-1.0-138.0","0","0","64641","","null","","","null","15","NaN","","","","","","","","","","","","","","",""
"","S2","","html-keyboard-response","102","332682","0.0-1.0-139.0","0","0","64641","","null","","","null","15","","NaN","","","","","","","","","","","","","",""
"","response","","html-keyboard-response","103","332954","0.0-1.0-140.0","0","0","64641","","269","","","75","15","","","1","15","training","adjacent","CD","3","4","M.jpg","Q.jpg","1","1","1","",""
"","feedback","","html-keyboard-response","104","333959","0.0-1.0-141.0-0.0","0","0","64641","","null","","","null","15","","","","","","","","","","","","","","","",""
"","ITI","","html-keyboard-response","105","334963","0.0-1.0-144.0","0","0","64641","","null","","","null","15","","","","","","","","","","","","","","","NaN",""
"","S1","","html-keyboard-response","106","335218","0.0-1.0-146.0","0","0","64641","","null","","","null","16","","","","","","","","","","","","","","","",""
"","ISI","","html-keyboard-response","107","337222","0.0-1.0-147.0","0","0","64641","","null","","","null","16","NaN","","","","","","","","","","","","","","",""
"","S2","","html-keyboard-response","108","337477","0.0-1.0-148.0","0","0","64641","","null","","","null","16","","NaN","","","","","","","","","","","","","",""
"","response","","html-keyboard-response","109","337523","0.0-1.0-149.0","0","0","64641","","43","","","68","16","","","1","16","training","adjacent","FE","6","5","P.jpg","N.jpg","0","0","1","",""
"","feedback","","html-keyboard-response","110","338527","0.0-1.0-150.0-0.0","0","0","64641","","null","","","null","16","","","","","","","","","","","","","","","",""
"","ITI","","html-keyboard-response","111","339531","0.0-1.0-153.0","0","0","64641","","null","","","null","16","","","","","","","","","","","","","","","NaN",""
"","S1","","html-keyboard-response","112","339785","0.0-1.0-155.0","0","0","64641","","null","","","null","17","","","","","","","","","","","","","","","",""
"","ISI","","html-keyboard-response","113","341789","0.0-1.0-156.0","0","0","64641","","null","","","null","17","NaN","","","","","","","","","","","","","","",""
"","S2","","html-keyboard-response","114","342056","0.0-1.0-157.0","0","0","64641","","null","","","null","17","","NaN","","","","","","","","","","","","","",""
"","response","","html-keyboard-response","115","343057","0.0-1.0-158.0","0","0","64641","","998","","","68","17","","","1","17","training","adjacent","GF","7","6","L.jpg","P.jpg","0","0","1","",""
"","feedback","","html-keyboard-response","116","344061","0.0-1.0-159.0-0.0","0","0","64641","","null","","","null","17","","","","","","","","","","","","","","","",""
"","ITI","","html-keyboard-response","117","345065","0.0-1.0-162.0","0","0","64641","","null","","","null","17","","","","","","","","","","","","","","","NaN",""
"","S1","","html-keyboard-response","118","345318","0.0-1.0-164.0","0","0","64641","","null","","","null","18","","","","","","","","","","","","","","","",""
"","ISI","","html-keyboard-response","119","347323","0.0-1.0-165.0","0","0","64641","","953","","","68","18","d","","","","","","","","","","","","","","",""
"","S2","","html-keyboard-response","120","347578","0.0-1.0-166.0","0","0","64641","","null","","","null","18","","NaN","","","","","","","","","","","","","",""
"","response","","html-keyboard-response","121","347956","0.0-1.0-167.0","0","0","64641","","375","","","68","18","","","1","18","training","adjacent","CD","3","4","M.jpg","Q.jpg","0","1","0","",""
"","feedback","","html-keyboard-response","122","348965","0.0-1.0-168.0-0.0","0","0","64641","","null","","","null","18","","","","","","","","","","","","","","","",""
"","time_out","","html-keyboard-response","123","350968","0.0-1.0-170.0-0.0","0","0","64641","","null","","","null","18","","","","","","","","","","","","","","","",""
"","ITI","","html-keyboard-response","124","351973","0.0-1.0-171.0","0","0","64641","","null","","","null","18","","","","","","","","","","","","","","","NaN",""
"","S1","","html-keyboard-response","125","352228","0.0-1.0-173.0","0","0","64641","","null","","","null","19","","","","","","","","","","","","","","","",""
"","ISI","","html-keyboard-response","126","354232","0.0-1.0-174.0","0","0","64641","","null","","","null","19","NaN","","","","","","","","","","","","","","",""
"","S2","","html-keyboard-response","127","354486","0.0-1.0-175.0","0","0","64641","","null","","","null","19","","NaN","","","","","","","","","","","","","",""
"","response","","html-keyboard-response","128","354520","0.0-1.0-176.0","0","0","64641","","31","","","75","19","","","1","19","training","adjacent","DE","4","5","Q.jpg","N.jpg","1","1","1","",""
"","feedback","","html-keyboard-response","129","355525","0.0-1.0-177.0-0.0","0","0","64641","","null","","","null","19","","","","","","","","","","","","","","","",""
"","ITI","","html-keyboard-response","130","356529","0.0-1.0-180.0","0","0","64641","","null","","","null","19","","","","","","","","","","","","","","","NaN",""
"","S1","","html-keyboard-response","131","356799","0.0-1.0-182.0","0","0","64641","","null","","","null","20","","","","","","","","","","","","","","","",""
"","ISI","","html-keyboard-response","132","358801","0.0-1.0-183.0","0","0","64641","","null","","","null","20","NaN","","","","","","","","","","","","","","",""
"","S2","","html-keyboard-response","133","359054","0.0-1.0-184.0","0","0","64641","","null","","","null","20","","NaN","","","","","","","","","","","","","",""
"","response","","html-keyboard-response","134","359157","0.0-1.0-185.0","0","0","64641","","99","","","75","20","","","1","20","training","adjacent","BA","2","1","R.jpg","O.jpg","1","0","0","",""
"","feedback","","html-keyboard-response","135","360162","0.0-1.0-186.0-0.0","0","0","64641","","null","","","null","20","","","","","","","","","","","","","","","",""
"","time_out","","html-keyboard-response","136","362165","0.0-1.0-188.0-0.0","0","0","64641","","null","","","null","20","","","","","","","","","","","","","","","",""
"","ITI","","html-keyboard-response","137","363169","0.0-1.0-189.0","0","0","64641","","null","","","null","20","","","","","","","","","","","","","","","NaN",""
"","S1","","html-keyboard-response","138","363427","0.0-1.0-191.0","0","0","64641","","null","","","null","21","","","","","","","","","","","","","","","",""
"","ISI","","html-keyboard-response","139","365430","0.0-1.0-192.0","0","0","64641","","null","","","null","21","NaN","","","","","","","","","","","","","","",""
"","S2","","html-keyboard-response","140","365684","0.0-1.0-193.0","0","0","64641","","null","","","null","21","","NaN","","","","","","","","","","","","","",""
"","response","","html-keyboard-response","141","365742","0.0-1.0-194.0","0","0","64641","","54","","","68","21","","","1","21","training","adjacent","EF","5","6","N.jpg","P.jpg","0","1","0","",""
"","feedback","","html-keyboard-response","142","366748","0.0-1.0-195.0-0.0","0","0","64641","","null","","","null","21","","","","","","","","","","","","","","","",""
"","time_out","","html-keyboard-response","143","368752","0.0-1.0-197.0-0.0","0","0","64641","","null","","","null","21","","","","","","","","","","","","","","","",""
"","ITI","","html-keyboard-response","144","369756","0.0-1.0-198.0","0","0","64641","","null","","","null","21","","","","","","","","","","","","","","","NaN",""
"","S1","","html-keyboard-response","145","370012","0.0-1.0-200.0","0","0","64641","","null","","","null","22","","","","","","","","","","","","","","","",""
"","ISI","","html-keyboard-response","146","372015","0.0-1.0-201.0","0","0","64641","","null","","","null","22","NaN","","","","","","","","","","","","","","",""
"","S2","","html-keyboard-response","147","372269","0.0-1.0-202.0","0","0","64641","","null","","","null","22","","NaN","","","","","","","","","","","","","",""
"","response","","html-keyboard-response","148","372385","0.0-1.0-203.0","0","0","64641","","112","","","75","22","","","1","22","training","adjacent","GF","7","6","L.jpg","P.jpg","1","0","0","",""
"","feedback","","html-keyboard-response","149","373390","0.0-1.0-204.0-0.0","0","0","64641","","null","","","null","22","","","","","","","","","","","","","","","",""
"","time_out","","html-keyboard-response","150","375395","0.0-1.0-206.0-0.0","0","0","64641","","null","","","null","22","","","","","","","","","","","","","","","",""
"","ITI","","html-keyboard-response","151","376400","0.0-1.0-207.0","0","0","64641","","null","","","null","22","","","","","","","","","","","","","","","NaN",""
"","S1","","html-keyboard-response","152","376654","0.0-1.0-209.0","0","0","64641","","null","","","null","23","","","","","","","","","","","","","","","",""
"","ISI","","html-keyboard-response","153","378661","0.0-1.0-210.0","0","0","64641","","null","","","null","23","NaN","","","","","","","","","","","","","","",""
"","S2","","html-keyboard-response","154","378926","0.0-1.0-211.0","0","0","64641","","null","","","null","23","","NaN","","","","","","","","","","","","","",""
"","response","","html-keyboard-response","155","379025","0.0-1.0-212.0","0","0","64641","","95","","","68","23","","","1","23","training","adjacent","CD","3","4","M.jpg","Q.jpg","0","1","0","",""
"","feedback","","html-keyboard-response","156","380029","0.0-1.0-213.0-0.0","0","0","64641","","null","","","null","23","","","","","","","","","","","","","","","",""
"","time_out","","html-keyboard-response","157","382033","0.0-1.0-215.0-0.0","0","0","64641","","null","","","null","23","","","","","","","","","","","","","","","",""
"","ITI","","html-keyboard-response","158","383036","0.0-1.0-216.0","0","0","64641","","null","","","null","23","","","","","","","","","","","","","","","NaN",""
"","S1","","html-keyboard-response","159","383290","0.0-1.0-218.0","0","0","64641","","null","","","null","24","","","","","","","","","","","","","","","",""
"","ISI","","html-keyboard-response","160","385294","0.0-1.0-219.0","0","0","64641","","336","","","75","24","k","","","","","","","","","","","","","","",""
"","S2","","html-keyboard-response","161","385549","0.0-1.0-220.0","0","0","64641","","null","","","null","24","","NaN","","","","","","","","","","","","","",""
"","response","","html-keyboard-response","162","385756","0.0-1.0-221.0","0","0","64641","","204","","","75","24","","","1","24","training","adjacent","GF","7","6","L.jpg","P.jpg","1","0","0","",""
"","feedback","","html-keyboard-response","163","386761","0.0-1.0-222.0-0.0","0","0","64641","","null","","","null","24","","","","","","","","","","","","","","","",""
"","time_out","","html-keyboard-response","164","388765","0.0-1.0-224.0-0.0","0","0","64641","","null","","","null","24","","","","","","","","","","","","","","","",""
"","ITI","","html-keyboard-response","165","389770","0.0-1.0-225.0","0","0","64641","","null","","","null","24","","","","","","","","","","","","","","","NaN",""
"","S1","","html-keyboard-response","166","390024","0.0-1.0-227.0","0","0","64641","","null","","","null","25","","","","","","","","","","","","","","","",""
"","ISI","","html-keyboard-response","167","392027","0.0-1.0-228.0","0","0","64641","","null","","","null","25","NaN","","","","","","","","","","","","","","",""
"","S2","","html-keyboard-response","168","392282","0.0-1.0-229.0","0","0","64641","","null","","","null","25","","NaN","","","","","","","","","","","","","",""
"","response","","html-keyboard-response","169","392314","0.0-1.0-230.0","0","0","64641","","28","","","68","25","","","1","25","training","adjacent","BC","2","3","R.jpg","M.jpg","0","1","0","",""
"","feedback","","html-keyboard-response","170","393319","0.0-1.0-231.0-0.0","0","0","64641","","null","","","null","25","","","","","","","","","","","","","","","",""
"","time_out","","html-keyboard-response","171","395323","0.0-1.0-233.0-0.0","0","0","64641","","null","","","null","25","","","","","","","","","","","","","","","",""
"","ITI","","html-keyboard-response","172","396327","0.0-1.0-234.0","0","0","64641","","null","","","null","25","","","","","","","","","","","","","","","NaN",""
"","S1","","html-keyboard-response","173","396581","0.0-1.0-236.0","0","0","64641","","null","","","null","26","","","","","","","","","","","","","","","",""
"","ISI","","html-keyboard-response","174","398584","0.0-1.0-237.0","0","0","64641","","90","","","75","26","k","","","","","","","","","","","","","","",""
"","S2","","html-keyboard-response","175","398839","0.0-1.0-238.0","0","0","64641","","null","","","null","26","","NaN","","","","","","","","","","","","","",""
"","response","","html-keyboard-response","176","398875","0.0-1.0-239.0","0","0","64641","","33","","","75","26","","","1","26","training","adjacent","FG","6","7","P.jpg","L.jpg","1","1","1","",""
"","feedback","","html-keyboard-response","177","399879","0.0-1.0-240.0-0.0","0","0","64641","","null","","","null","26","","","","","","","","","","","","","","","",""
"","ITI","","html-keyboard-response","178","400882","0.0-1.0-243.0","0","0","64641","","null","","","null","26","","","","","","","","","","","","","","","NaN",""
"","S1","","html-keyboard-response","179","401137","0.0-1.0-245.0","0","0","64641","","null","","","null","27","","","","","","","","","","","","","","","",""
"","ISI","","html-keyboard-response","180","403150","0.0-1.0-246.0","0","0","64641","","null","","","null","27","NaN","","","","","","","","","","","","","","",""
"","S2","","html-keyboard-response","181","403406","0.0-1.0-247.0","0","0","64641","","null","","","null","27","","NaN","","","","","","","","","","","","","",""
"","response","","html-keyboard-response","182","403871","0.0-1.0-248.0","0","0","64641","","462","","","75","27","","","1","27","training","adjacent","DC","4","3","Q.jpg","M.jpg","1","0","0","",""
"","feedback","","html-keyboard-response","183","404874","0.0-1.0-249.0-0.0","0","0","64641","","null","","","null","27","","","","","","","","","","","","","","","",""
"","time_out","","html-keyboard-response","184","406878","0.0-1.0-251.0-0.0","0","0","64641","","null","","","null","27","","","","","","","","","","","","","","","",""
"","ITI","","html-keyboard-response","185","407882","0.0-1.0-252.0","0","0","64641","","null","","","null","27","","","","","","","","","","","","","","","NaN",""
"","S1","","html-keyboard-response","186","408136","0.0-1.0-254.0","0","0","64641","","null","","","null","28","","","","","","","","","","","","","","","",""
"","ISI","","html-keyboard-response","187","410140","0.0-1.0-255.0","0","0","64641","","null","","","null","28","NaN","","","","","","","","","","","","","","",""
"","S2","","html-keyboard-response","188","410394","0.0-1.0-256.0","0","0","64641","","null","","","null","28","","NaN","","","","","","","","","","","","","",""
"","response","","html-keyboard-response","189","410929","0.0-1.0-257.0","0","0","64641","","532","","","68","28","","","1","28","training","adjacent","GF","7","6","L.jpg","P.jpg","0","0","1","",""
"","feedback","","html-keyboard-response","190","411933","0.0-1.0-258.0-0.0","0","0","64641","","null","","","null","28","","","","","","","","","","","","","","","",""
"","ITI","","html-keyboard-response","191","412938","0.0-1.0-261.0","0","0","64641","","null","","","null","28","","","","","","","","","","","","","","","NaN",""
"","S1","","html-keyboard-response","192","413191","0.0-1.0-263.0","0","0","64641","","null","","","null","29","","","","","","","","","","","","","","","",""
"","ISI","","html-keyboard-response","193","415196","0.0-1.0-264.0","0","0","64641","","null","","","null","29","NaN","","","","","","","","","","","","","","",""
"","S2","","html-keyboard-response","194","415449","0.0-1.0-265.0","0","0","64641","","null","","","null","29","","NaN","","","","","","","","","","","","","",""
"","response","","html-keyboard-response","195","415814","0.0-1.0-266.0","0","0","64641","","362","","","68","29","","","1","29","training","adjacent","ED","5","4","N.jpg","Q.jpg","0","0","1","",""
"","feedback","","html-keyboard-response","196","416819","0.0-1.0-267.0-0.0","0","0","64641","","null","","","null","29","","","","","","","","","","","","","","","",""
"","ITI","","html-keyboard-response","197","417823","0.0-1.0-270.0","0","0","64641","","null","","","null","29","","","","","","","","","","","","","","","NaN",""
"","S1","","html-keyboard-response","198","418079","0.0-1.0-272.0","0","0","64641","","null","","","null","30","","","","","","","","","","","","","","","",""
"","ISI","","html-keyboard-response","199","420085","0.0-1.0-273.0","0","0","64641","","null","","","null","30","NaN","","","","","","","","","","","","","","",""
"","S2","","html-keyboard-response","200","420343","0.0-1.0-274.0","0","0","64641","","null","","","null","30","","NaN","","","","","","","","","","","","","",""
"","response","","html-keyboard-response","201","420527","0.0-1.0-275.0","0","0","64641","","181","","","68","30","","","1","30","training","adjacent","CB","3","2","M.jpg","R.jpg","0","0","1","",""
"","feedback","","html-keyboard-response","202","421531","0.0-1.0-276.0-0.0","0","0","64641","","null","","","null","30","","","","","","","","","","","","","","","",""
"","ITI","","html-keyboard-response","203","422536","0.0-1.0-279.0","0","0","64641","","null","","","null","30","","","","","","","","","","","","","","","NaN",""
"","S1","","html-keyboard-response","204","422790","0.0-1.0-281.0","0","0","64641","","null","","","null","31","","","","","","","","","","","","","","","",""
"","ISI","","html-keyboard-response","205","424794","0.0-1.0-282.0","0","0","64641","","null","","","null","31","NaN","","","","","","","","","","","","","","",""
"","S2","","html-keyboard-response","206","425048","0.0-1.0-283.0","0","0","64641","","null","","","null","31","","NaN","","","","","","","","","","","","","",""
"","response","","html-keyboard-response","207","425224","0.0-1.0-284.0","0","0","64641","","173","","","68","31","","","1","31","training","adjacent","FG","6","7","P.jpg","L.jpg","0","1","0","",""
"","feedback","","html-keyboard-response","208","426230","0.0-1.0-285.0-0.0","0","0","64641","","null","","","null","31","","","","","","","","","","","","","","","",""
"","time_out","","html-keyboard-response","209","428233","0.0-1.0-287.0-0.0","0","0","64641","","null","","","null","31","","","","","","","","","","","","","","","",""
"","ITI","","html-keyboard-response","210","429236","0.0-1.0-288.0","0","0","64641","","null","","","null","31","","","","","","","","","","","","","","","NaN",""
"","S1","","html-keyboard-response","211","429493","0.0-1.0-290.0","0","0","64641","","null","","","null","32","","","","","","","","","","","","","","","",""
"","ISI","","html-keyboard-response","212","431498","0.0-1.0-291.0","0","0","64641","","null","","","null","32","NaN","","","","","","","","","","","","","","",""
"","S2","","html-keyboard-response","213","431752","0.0-1.0-292.0","0","0","64641","","null","","","null","32","","NaN","","","","","","","","","","","","","",""
"","response","","html-keyboard-response","214","431799","0.0-1.0-293.0","0","0","64641","","45","","","75","32","","","1","32","training","adjacent","EF","5","6","N.jpg","P.jpg","1","1","1","",""
"","feedback","","html-keyboard-response","215","432803","0.0-1.0-294.0-0.0","0","0","64641","","null","","","null","32","","","","","","","","","","","","","","","",""
"","ITI","","html-keyboard-response","216","433808","0.0-1.0-297.0","0","0","64641","","null","","","null","32","","","","","","","","","","","","","","","NaN",""
"","S1","","html-keyboard-response","217","434062","0.0-1.0-299.0","0","0","64641","","null","","","null","33","","","","","","","","","","","","","","","",""
"","ISI","","html-keyboard-response","218","436066","0.0-1.0-300.0","0","0","64641","","null","","","null","33","NaN","","","","","","","","","","","","","","",""
"","S2","","html-keyboard-response","219","436321","0.0-1.0-301.0","0","0","64641","","null","","","null","33","","NaN","","","","","","","","","","","","","",""
"","response","","html-keyboard-response","220","436669","0.0-1.0-302.0","0","0","64641","","344","","","68","33","","","1","33","training","adjacent","EF","5","6","N.jpg","P.jpg","0","1","0","",""
"","feedback","","html-keyboard-response","221","437673","0.0-1.0-303.0-0.0","0","0","64641","","null","","","null","33","","","","","","","","","","","","","","","",""
"","time_out","","html-keyboard-response","222","439677","0.0-1.0-305.0-0.0","0","0","64641","","null","","","null","33","","","","","","","","","","","","","","","",""
"","ITI","","html-keyboard-response","223","440681","0.0-1.0-306.0","0","0","64641","","null","","","null","33","","","","","","","","","","","","","","","NaN",""
"","S1","","html-keyboard-response","224","440935","0.0-1.0-308.0","0","0","64641","","null","","","null","34","","","","","","","","","","","","","","","",""
"","ISI","","html-keyboard-response","225","442939","0.0-1.0-309.0","0","0","64641","","null","","","null","34","NaN","","","","","","","","","","","","","","",""
"","S2","","html-keyboard-response","226","443194","0.0-1.0-310.0","0","0","64641","","null","","","null","34","","NaN","","","","","","","","","","","","","",""
"","response","","html-keyboard-response","227","443292","0.0-1.0-311.0","0","0","64641","","94","","","68","34","","","1","34","training","adjacent","BC","2","3","R.jpg","M.jpg","0","1","0","",""
"","feedback","","html-keyboard-response","228","444296","0.0-1.0-312.0-0.0","0","0","64641","","null","","","null","34","","","","","","","","","","","","","","","",""
"","time_out","","html-keyboard-response","229","446300","0.0-1.0-314.0-0.0","0","0","64641","","null","","","null","34","","","","","","","","","","","","","","","",""
"","ITI","","html-keyboard-response","230","447303","0.0-1.0-315.0","0","0","64641","","null","","","null","34","","","","","","","","","","","","","","","NaN",""
"","S1","","html-keyboard-response","231","447558","0.0-1.0-317.0","0","0","64641","","null","","","null","35","","","","","","","","","","","","","","","",""
"","ISI","","html-keyboard-response","232","449562","0.0-1.0-318.0","0","0","64641","","null","","","null","35","NaN","","","","","","","","","","","","","","",""
"","S2","","html-keyboard-response","233","449816","0.0-1.0-319.0","0","0","64641","","null","","","null","35","","NaN","","","","","","","","","","","","","",""
"","response","","html-keyboard-response","234","450158","0.0-1.0-320.0","0","0","64641","","339","","","68","35","","","1","35","training","adjacent","ED","5","4","N.jpg","Q.jpg","0","0","1","",""
"","feedback","","html-keyboard-response","235","451164","0.0-1.0-321.0-0.0","0","0","64641","","null","","","null","35","","","","","","","","","","","","","","","",""
"","ITI","","html-keyboard-response","236","452169","0.0-1.0-324.0","0","0","64641","","null","","","null","35","","","","","","","","","","","","","","","NaN",""
"","S1","","html-keyboard-response","237","452425","0.0-1.0-326.0","0","0","64641","","null","","","null","36","","","","","","","","","","","","","","","",""
"","ISI","","html-keyboard-response","238","454428","0.0-1.0-327.0","0","0","64641","","null","","","null","36","NaN","","","","","","","","","","","","","","",""
"","S2","","html-keyboard-response","239","454686","0.0-1.0-328.0","0","0","64641","","null","","","null","36","","NaN","","","","","","","","","","","","","",""
"","response","","html-keyboard-response","240","455249","0.0-1.0-329.0","0","0","64641","","559","","","68","36","","","1","36","training","adjacent","FE","6","5","P.jpg","N.jpg","0","0","1","",""
"","feedback","","html-keyboard-response","241","456253","0.0-1.0-330.0-0.0","0","0","64641","","null","","","null","36","","","","","","","","","","","","","","","",""
"","ITI","","html-keyboard-response","242","457259","0.0-1.0-333.0","0","0","64641","","null","","","null","36","","","","","","","","","","","","","","","NaN",""
"","S1","","html-keyboard-response","243","457513","0.0-1.0-335.0","0","0","64641","","null","","","null","37","","","","","","","","","","","","","","","",""
"","ISI","","html-keyboard-response","244","459518","0.0-1.0-336.0","0","0","64641","","null","","","null","37","NaN","","","","","","","","","","","","","","",""
"","S2","","html-keyboard-response","245","459788","0.0-1.0-337.0","0","0","64641","","null","","","null","37","","NaN","","","","","","","","","","","","","",""
"","response","","html-keyboard-response","246","459833","0.0-1.0-338.0","0","0","64641","","41","","","75","37","","","1","37","training","adjacent","DC","4","3","Q.jpg","M.jpg","1","0","0","",""
"","feedback","","html-keyboard-response","247","460839","0.0-1.0-339.0-0.0","0","0","64641","","null","","","null","37","","","","","","","","","","","","","","","",""
"","time_out","","html-keyboard-response","248","462843","0.0-1.0-341.0-0.0","0","0","64641","","null","","","null","37","","","","","","","","","","","","","","","",""
"","ITI","","html-keyboard-response","249","463847","0.0-1.0-342.0","0","0","64641","","null","","","null","37","","","","","","","","","","","","","","","NaN",""
"","S1","","html-keyboard-response","250","464101","0.0-1.0-344.0","0","0","64641","","null","","","null","38","","","","","","","","","","","","","","","",""
"","ISI","","html-keyboard-response","251","466105","0.0-1.0-345.0","0","0","64641","","null","","","null","38","NaN","","","","","","","","","","","","","","",""
"","S2","","html-keyboard-response","252","466360","0.0-1.0-346.0","0","0","64641","","null","","","null","38","","NaN","","","","","","","","","","","","","",""
"","response","","html-keyboard-response","253","466467","0.0-1.0-347.0","0","0","64641","","103","","","75","38","","","1","38","training","adjacent","AB","1","2","O.jpg","R.jpg","1","1","1","",""
"","feedback","","html-keyboard-response","254","467471","0.0-1.0-348.0-0.0","0","0","64641","","null","","","null","38","","","","","","","","","","","","","","","",""
"","ITI","","html-keyboard-response","255","468475","0.0-1.0-351.0","0","0","64641","","null","","","null","38","","","","","","","","","","","","","","","NaN",""
"","S1","","html-keyboard-response","256","468729","0.0-1.0-353.0","0","0","64641","","null","","","null","39","","","","","","","","","","","","","","","",""
"","ISI","","html-keyboard-response","257","470733","0.0-1.0-354.0","0","0","64641","","null","","","null","39","NaN","","","","","","","","","","","","","","",""
"","S2","","html-keyboard-response","258","470987","0.0-1.0-355.0","0","0","64641","","null","","","null","39","","NaN","","","","","","","","","","","","","",""
"","response","","html-keyboard-response","259","471686","0.0-1.0-356.0","0","0","64641","","695","","","75","39","","","1","39","training","adjacent","EF","5","6","N.jpg","P.jpg","1","1","1","",""
"","feedback","","html-keyboard-response","260","472690","0.0-1.0-357.0-0.0","0","0","64641","","null","","","null","39","","","","","","","","","","","","","","","",""
"","ITI","","html-keyboard-response","261","473695","0.0-1.0-360.0","0","0","64641","","null","","","null","39","","","","","","","","","","","","","","","NaN",""
"","S1","","html-keyboard-response","262","473949","0.0-1.0-362.0","0","0","64641","","null","","","null","40","","","","","","","","","","","","","","","",""
"","ISI","","html-keyboard-response","263","475953","0.0-1.0-363.0","0","0","64641","","null","","","null","40","NaN","","","","","","","","","","","","","","",""
"","S2","","html-keyboard-response","264","476208","0.0-1.0-364.0","0","0","64641","","null","","","null","40","","NaN","","","","","","","","","","","","","",""
"","response","","html-keyboard-response","265","476991","0.0-1.0-365.0","0","0","64641","","779","","","75","40","","","1","40","training","adjacent","CB","3","2","M.jpg","R.jpg","1","0","0","",""
"","feedback","","html-keyboard-response","266","477995","0.0-1.0-366.0-0.0","0","0","64641","","null","","","null","40","","","","","","","","","","","","","","","",""
"","time_out","","html-keyboard-response","267","479999","0.0-1.0-368.0-0.0","0","0","64641","","null","","","null","40","","","","","","","","","","","","","","","",""
"","ITI","","html-keyboard-response","268","481005","0.0-1.0-369.0","0","0","64641","","null","","","null","40","","","","","","","","","","","","","","","NaN",""
"","S1","","html-keyboard-response","269","481259","0.0-1.0-371.0","0","0","64641","","null","","","null","41","","","","","","","","","","","","","","","",""
"","ISI","","html-keyboard-response","270","483263","0.0-1.0-372.0","0","0","64641","","null","","","null","41","NaN","","","","","","","","","","","","","","",""
"","S2","","html-keyboard-response","271","483518","0.0-1.0-373.0","0","0","64641","","249","","","75","41","","k","","","","","","","","","","","","","",""
"","response","","html-keyboard-response","272","484271","0.0-1.0-374.0","0","0","64641","","750","","","75","41","","","1","41","training","adjacent","ED","5","4","N.jpg","Q.jpg","1","0","0","",""
"","feedback","","html-keyboard-response","273","485275","0.0-1.0-375.0-0.0","0","0","64641","","null","","","null","41","","","","","","","","","","","","","","","",""
"","time_out","","html-keyboard-response","274","487279","0.0-1.0-377.0-0.0","0","0","64641","","null","","","null","41","","","","","","","","","","","","","","","",""
"","ITI","","html-keyboard-response","275","488283","0.0-1.0-378.0","0","0","64641","","null","","","null","41","","","","","","","","","","","","","","","NaN",""
"","S1","","html-keyboard-response","276","488538","0.0-1.0-380.0","0","0","64641","","null","","","null","42","","","","","","","","","","","","","","","",""
"","ISI","","html-keyboard-response","277","490541","0.0-1.0-381.0","0","0","64641","","null","","","null","42","NaN","","","","","","","","","","","","","","",""
"","S2","","html-keyboard-response","278","490796","0.0-1.0-382.0","0","0","64641","","null","","","null","42","","NaN","","","","","","","","","","","","","",""
"","response","","html-keyboard-response","279","491110","0.0-1.0-383.0","0","0","64641","","311","","","75","42","","","1","42","training","adjacent","DE","4","5","Q.jpg","N.jpg","1","1","1","",""
"","feedback","","html-keyboard-response","280","492115","0.0-1.0-384.0-0.0","0","0","64641","","null","","","null","42","","","","","","","","","","","","","","","",""
"","ITI","","html-keyboard-response","281","493119","0.0-1.0-387.0","0","0","64641","","null","","","null","42","","","","","","","","","","","","","","","NaN",""
"","S1","","html-keyboard-response","282","493378","0.0-1.0-389.0","0","0","64641","","null","","","null","43","","","","","","","","","","","","","","","",""
"","ISI","","html-keyboard-response","283","495381","0.0-1.0-390.0","0","0","64641","","null","","","null","43","NaN","","","","","","","","","","","","","","",""
"","S2","","html-keyboard-response","284","495635","0.0-1.0-391.0","0","0","64641","","null","","","null","43","","NaN","","","","","","","","","","","","","",""
"","response","","html-keyboard-response","285","495926","0.0-1.0-392.0","0","0","64641","","287","","","68","43","","","1","43","training","adjacent","AB","1","2","O.jpg","R.jpg","0","1","0","",""
"","feedback","","html-keyboard-response","286","496931","0.0-1.0-393.0-0.0","0","0","64641","","null","","","null","43","","","","","","","","","","","","","","","",""
"","time_out","","html-keyboard-response","287","498935","0.0-1.0-395.0-0.0","0","0","64641","","null","","","null","43","","","","","","","","","","","","","","","",""
"","ITI","","html-keyboard-response","288","499939","0.0-1.0-396.0","0","0","64641","","null","","","null","43","","","","","","","","","","","","","","","NaN",""
"","S1","","html-keyboard-response","289","500193","0.0-1.0-398.0","0","0","64641","","null","","","null","44","","","","","","","","","","","","","","","",""
"","ISI","","html-keyboard-response","290","502197","0.0-1.0-399.0","0","0","64641","","null","","","null","44","NaN","","","","","","","","","","","","","","",""
"","S2","","html-keyboard-response","291","502451","0.0-1.0-400.0","0","0","64641","","null","","","null","44","","NaN","","","","","","","","","","","","","",""
"","response","","html-keyboard-response","292","502962","0.0-1.0-401.0","0","0","64641","","507","","","68","44","","","1","44","training","adjacent","CD","3","4","M.jpg","Q.jpg","0","1","0","",""
"","feedback","","html-keyboard-response","293","503967","0.0-1.0-402.0-0.0","0","0","64641","","null","","","null","44","","","","","","","","","","","","","","","",""
"","time_out","","html-keyboard-response","294","505971","0.0-1.0-404.0-0.0","0","0","64641","","null","","","null","44","","","","","","","","","","","","","","","",""
"","ITI","","html-keyboard-response","295","506975","0.0-1.0-405.0","0","0","64641","","null","","","null","44","","","","","","","","","","","","","","","NaN",""
"","S1","","html-keyboard-response","296","507229","0.0-1.0-407.0","0","0","64641","","null","","","null","45","","","","","","","","","","","","","","","",""
"","ISI","","html-keyboard-response","297","509234","0.0-1.0-408.0","0","0","64641","","null","","","null","45","NaN","","","","","","","","","","","","","","",""
"","S2","","html-keyboard-response","298","509491","0.0-1.0-409.0","0","0","64641","","null","","","null","45","","NaN","","","","","","","","","","","","","",""
"","response","","html-keyboard-response","299","509633","0.0-1.0-410.0","0","0","64641","","137","","","68","45","","","1","45","training","adjacent","BC","2","3","R.jpg","M.jpg","0","1","0","",""
"","feedback","","html-keyboard-response","300","510637","0.0-1.0-411.0-0.0","0","0","64641","","null","","","null","45","","","","","","","","","","","","","","","",""
"","time_out","","html-keyboard-response","301","512641","0.0-1.0-413.0-0.0","0","0","64641","","null","","","null","45","","","","","","","","","","","","","","","",""
"","ITI","","html-keyboard-response","302","513645","0.0-1.0-414.0","0","0","64641","","null","","","null","45","","","","","","","","","","","","","","","NaN",""
"","S1","","html-keyboard-response","303","513899","0.0-1.0-416.0","0","0","64641","","null","","","null","46","","","","","","","","","","","","","","","",""
"","ISI","","html-keyboard-response","304","515904","0.0-1.0-417.0","0","0","64641","","null","","","null","46","NaN","","","","","","","","","","","","","","",""
"","S2","","html-keyboard-response","305","516158","0.0-1.0-418.0","0","0","64641","","null","","","null","46","","NaN","","","","","","","","","","","","","",""
"","response","","html-keyboard-response","306","516166","0.0-1.0-419.0","0","0","64641","","1","","","68","46","","","1","46","training","adjacent","CB","3","2","M.jpg","R.jpg","0","0","1","",""
"","feedback","","html-keyboard-response","307","517171","0.0-1.0-420.0-0.0","0","0","64641","","null","","","null","46","","","","","","","","","","","","","","","",""
"","ITI","","html-keyboard-response","308","518175","0.0-1.0-423.0","0","0","64641","","null","","","null","46","","","","","","","","","","","","","","","NaN",""
"","S1","","html-keyboard-response","309","518432","0.0-1.0-425.0","0","0","64641","","null","","","null","47","","","","","","","","","","","","","","","",""
"","ISI","","html-keyboard-response","310","520436","0.0-1.0-426.0","0","0","64641","","null","","","null","47","NaN","","","","","","","","","","","","","","",""
"","S2","","html-keyboard-response","311","520690","0.0-1.0-427.0","0","0","64641","","null","","","null","47","","NaN","","","","","","","","","","","","","",""
"","response","","html-keyboard-response","312","521325","0.0-1.0-428.0","0","0","64641","","630","","","68","47","","","1","47","training","adjacent","CB","3","2","M.jpg","R.jpg","0","0","1","",""
"","feedback","","html-keyboard-response","313","522330","0.0-1.0-429.0-0.0","0","0","64641","","null","","","null","47","","","","","","","","","","","","","","","",""
"","ITI","","html-keyboard-response","314","523334","0.0-1.0-432.0","0","0","64641","","null","","","null","47","","","","","","","","","","","","","","","NaN",""
"","block_over","","html-keyboard-response","315","529992","0.0-1.0-433.0-0.0","0","0","64641","","6652","","","32","47","","","","","","","","","","","","","","","",""
"","S1","","html-keyboard-response","316","530247","0.0-1.0-434.0","0","0","64641","","null","","","null","48","","","","","","","","","","","","","","","",""
"","ISI","","html-keyboard-response","317","532250","0.0-1.0-435.0","0","0","64641","","null","","","null","48","NaN","","","","","","","","","","","","","","",""
"","S2","","html-keyboard-response","318","532502","0.0-1.0-436.0","0","0","64641","","null","","","null","48","","NaN","","","","","","","","","","","","","",""
"","response","","html-keyboard-response","319","532896","0.0-1.0-437.0","0","0","64641","","391","","","75","48","","","2","48","training","adjacent","BC","2","3","R.jpg","M.jpg","1","1","1","",""
"","feedback","","html-keyboard-response","320","533901","0.0-1.0-438.0-0.0","0","0","64641","","null","","","null","48","","","","","","","","","","","","","","","",""
"","ITI","","html-keyboard-response","321","534904","0.0-1.0-441.0","0","0","64641","","null","","","null","48","","","","","","","","","","","","","","","NaN",""
"","S1","","html-keyboard-response","322","535159","0.0-1.0-443.0","0","0","64641","","null","","","null","49","","","","","","","","","","","","","","","",""
"","ISI","","html-keyboard-response","323","537163","0.0-1.0-444.0","0","0","64641","","null","","","null","49","NaN","","","","","","","","","","","","","","",""
"","S2","","html-keyboard-response","324","537418","0.0-1.0-445.0","0","0","64641","","null","","","null","49","","NaN","","","","","","","","","","","","","",""
"","response","","html-keyboard-response","325","537994","0.0-1.0-446.0","0","0","64641","","573","","","75","49","","","2","49","training","adjacent","GF","7","6","L.jpg","P.jpg","1","0","0","",""
"","feedback","","html-keyboard-response","326","539000","0.0-1.0-447.0-0.0","0","0","64641","","null","","","null","49","","","","","","","","","","","","","","","",""
"","time_out","","html-keyboard-response","327","541004","0.0-1.0-449.0-0.0","0","0","64641","","null","","","null","49","","","","","","","","","","","","","","","",""
"","ITI","","html-keyboard-response","328","542008","0.0-1.0-450.0","0","0","64641","","null","","","null","49","","","","","","","","","","","","","","","NaN",""
"","S1","","html-keyboard-response","329","542263","0.0-1.0-452.0","0","0","64641","","null","","","null","50","","","","","","","","","","","","","","","",""
"","ISI","","html-keyboard-response","330","544285","0.0-1.0-453.0","0","0","64641","","null","","","null","50","NaN","","","","","","","","","","","","","","",""
"","S2","","html-keyboard-response","331","544539","0.0-1.0-454.0","0","0","64641","","null","","","null","50","","NaN","","","","","","","","","","","","","",""
"","response","","html-keyboard-response","332","544592","0.0-1.0-455.0","0","0","64641","","51","","","75","50","","","2","50","training","adjacent","FE","6","5","P.jpg","N.jpg","1","0","0","",""
"","feedback","","html-keyboard-response","333","545598","0.0-1.0-456.0-0.0","0","0","64641","","null","","","null","50","","","","","","","","","","","","","","","",""
"","time_out","","html-keyboard-response","334","547603","0.0-1.0-458.0-0.0","0","0","64641","","null","","","null","50","","","","","","","","","","","","","","","",""
"","ITI","","html-keyboard-response","335","548607","0.0-1.0-459.0","0","0","64641","","null","","","null","50","","","","","","","","","","","","","","","NaN",""
"","S1","","html-keyboard-response","336","548862","0.0-1.0-461.0","0","0","64641","","null","","","null","51","","","","","","","","","","","","","","","",""
"","ISI","","html-keyboard-response","337","550866","0.0-1.0-462.0","0","0","64641","","209","","","68","51","d","","","","","","","","","","","","","","",""
"","S2","","html-keyboard-response","338","551120","0.0-1.0-463.0","0","0","64641","","null","","","null","51","","NaN","","","","","","","","","","","","","",""
"","response","","html-keyboard-response","339","551247","0.0-1.0-464.0","0","0","64641","","123","","","68","51","","","2","51","training","adjacent","CD","3","4","M.jpg","Q.jpg","0","1","0","",""
"","feedback","","html-keyboard-response","340","552251","0.0-1.0-465.0-0.0","0","0","64641","","null","","","null","51","","","","","","","","","","","","","","","",""
"","time_out","","html-keyboard-response","341","554255","0.0-1.0-467.0-0.0","0","0","64641","","null","","","null","51","","","","","","","","","","","","","","","",""
"","ITI","","html-keyboard-response","342","555259","0.0-1.0-468.0","0","0","64641","","null","","","null","51","","","","","","","","","","","","","","","NaN",""
"","S1","","html-keyboard-response","343","555522","0.0-1.0-470.0","0","0","64641","","null","","","null","52","","","","","","","","","","","","","","","",""
"","ISI","","html-keyboard-response","344","557526","0.0-1.0-471.0","0","0","64641","","351","","","75","52","k","","","","","","","","","","","","","","",""
"","S2","","html-keyboard-response","345","557780","0.0-1.0-472.0","0","0","64641","","null","","","null","52","","NaN","","","","","","","","","","","","","",""
"","response","","html-keyboard-response","346","557822","0.0-1.0-473.0","0","0","64641","","39","","","75","52","","","2","52","training","adjacent","DE","4","5","Q.jpg","N.jpg","1","1","1","",""
"","feedback","","html-keyboard-response","347","558829","0.0-1.0-474.0-0.0","0","0","64641","","null","","","null","52","","","","","","","","","","","","","","","",""
"","ITI","","html-keyboard-response","348","559832","0.0-1.0-477.0","0","0","64641","","null","","","null","52","","","","","","","","","","","","","","","NaN",""
"","S1","","html-keyboard-response","349","560086","0.0-1.0-479.0","0","0","64641","","null","","","null","53","","","","","","","","","","","","","","","",""
"","ISI","","html-keyboard-response","350","562089","0.0-1.0-480.0","0","0","64641","","null","","","null","53","NaN","","","","","","","","","","","","","","",""
"","S2","","html-keyboard-response","351","562343","0.0-1.0-481.0","0","0","64641","","null","","","null","53","","NaN","","","","","","","","","","","","","",""
"","response","","html-keyboard-response","352","562730","0.0-1.0-482.0","0","0","64641","","384","","","75","53","","","2","53","training","adjacent","BA","2","1","R.jpg","O.jpg","1","0","0","",""
"","feedback","","html-keyboard-response","353","563734","0.0-1.0-483.0-0.0","0","0","64641","","null","","","null","53","","","","","","","","","","","","","","","",""
"","time_out","","html-keyboard-response","354","565738","0.0-1.0-485.0-0.0","0","0","64641","","null","","","null","53","","","","","","","","","","","","","","","",""
"","ITI","","html-keyboard-response","355","566741","0.0-1.0-486.0","0","0","64641","","null","","","null","53","","","","","","","","","","","","","","","NaN",""
"","S1","","html-keyboard-response","356","566995","0.0-1.0-488.0","0","0","64641","","null","","","null","54","","","","","","","","","","","","","","","",""
"","ISI","","html-keyboard-response","357","568998","0.0-1.0-489.0","0","0","64641","","null","","","null","54","NaN","","","","","","","","","","","","","","",""
"","S2","","html-keyboard-response","358","569252","0.0-1.0-490.0","0","0","64641","","null","","","null","54","","NaN","","","","","","","","","","","","","",""
"","response","","html-keyboard-response","359","569285","0.0-1.0-491.0","0","0","64641","","30","","","75","54","","","2","54","training","adjacent","BC","2","3","R.jpg","M.jpg","1","1","1","",""
"","feedback","","html-keyboard-response","360","570288","0.0-1.0-492.0-0.0","0","0","64641","","null","","","null","54","","","","","","","","","","","","","","","",""
"","ITI","","html-keyboard-response","361","571293","0.0-1.0-495.0","0","0","64641","","null","","","null","54","","","","","","","","","","","","","","","NaN",""
"","S1","","html-keyboard-response","362","571546","0.0-1.0-497.0","0","0","64641","","null","","","null","55","","","","","","","","","","","","","","","",""
"","ISI","","html-keyboard-response","363","573549","0.0-1.0-498.0","0","0","64641","","null","","","null","55","NaN","","","","","","","","","","","","","","",""
"","S2","","html-keyboard-response","364","573810","0.0-1.0-499.0","0","0","64641","","null","","","null","55","","NaN","","","","","","","","","","","","","",""
"","response","","html-keyboard-response","365","573862","0.0-1.0-500.0","0","0","64641","","49","","","75","55","","","2","55","training","adjacent","ED","5","4","N.jpg","Q.jpg","1","0","0","",""
"","feedback","","html-keyboard-response","366","574866","0.0-1.0-501.0-0.0","0","0","64641","","null","","","null","55","","","","","","","","","","","","","","","",""
"","time_out","","html-keyboard-response","367","576890","0.0-1.0-503.0-0.0","0","0","64641","","null","","","null","55","","","","","","","","","","","","","","","",""
"","ITI","","html-keyboard-response","368","577894","0.0-1.0-504.0","0","0","64641","","null","","","null","55","","","","","","","","","","","","","","","NaN",""
"","S1","","html-keyboard-response","369","578148","0.0-1.0-506.0","0","0","64641","","null","","","null","56","","","","","","","","","","","","","","","",""
"","ISI","","html-keyboard-response","370","580151","0.0-1.0-507.0","0","0","64641","","null","","","null","56","NaN","","","","","","","","","","","","","","",""
"","S2","","html-keyboard-response","371","580405","0.0-1.0-508.0","0","0","64641","","null","","","null","56","","NaN","","","","","","","","","","","","","",""
"","response","","html-keyboard-response","372","580545","0.0-1.0-509.0","0","0","64641","","138","","","68","56","","","2","56","training","adjacent","FG","6","7","P.jpg","L.jpg","0","1","0","",""
"","feedback","","html-keyboard-response","373","581551","0.0-1.0-510.0-0.0","0","0","64641","","null","","","null","56","","","","","","","","","","","","","","","",""
"","time_out","","html-keyboard-response","374","583555","0.0-1.0-512.0-0.0","0","0","64641","","null","","","null","56","","","","","","","","","","","","","","","",""
"","ITI","","html-keyboard-response","375","584559","0.0-1.0-513.0","0","0","64641","","null","","","null","56","","","","","","","","","","","","","","","NaN",""
"","S1","","html-keyboard-response","376","584814","0.0-1.0-515.0","0","0","64641","","null","","","null","57","","","","","","","","","","","","","","","",""
"","ISI","","html-keyboard-response","377","586818","0.0-1.0-516.0","0","0","64641","","null","","","null","57","NaN","","","","","","","","","","","","","","",""
"","S2","","html-keyboard-response","378","587074","0.0-1.0-517.0","0","0","64641","","null","","","null","57","","NaN","","","","","","","","","","","","","",""
"","response","","html-keyboard-response","379","587489","0.0-1.0-518.0","0","0","64641","","411","","","68","57","","","2","57","training","adjacent","DC","4","3","Q.jpg","M.jpg","0","0","1","",""
"","feedback","","html-keyboard-response","380","588495","0.0-1.0-519.0-0.0","0","0","64641","","null","","","null","57","","","","","","","","","","","","","","","",""
"","ITI","","html-keyboard-response","381","589499","0.0-1.0-522.0","0","0","64641","","null","","","null","57","","","","","","","","","","","","","","","NaN",""
"","S1","","html-keyboard-response","382","589754","0.0-1.0-524.0","0","0","64641","","null","","","null","58","","","","","","","","","","","","","","","",""
"","ISI","","html-keyboard-response","383","591758","0.0-1.0-525.0","0","0","64641","","null","","","null","58","NaN","","","","","","","","","","","","","","",""
"","S2","","html-keyboard-response","384","592013","0.0-1.0-526.0","0","0","64641","","null","","","null","58","","NaN","","","","","","","","","","","","","",""
"","response","","html-keyboard-response","385","592620","0.0-1.0-527.0","0","0","64641","","603","","","68","58","","","2","58","training","adjacent","CB","3","2","M.jpg","R.jpg","0","0","1","",""
"","feedback","","html-keyboard-response","386","593625","0.0-1.0-528.0-0.0","0","0","64641","","null","","","null","58","","","","","","","","","","","","","","","",""
"","ITI","","html-keyboard-response","387","594629","0.0-1.0-531.0","0","0","64641","","null","","","null","58","","","","","","","","","","","","","","","NaN",""
"","S1","","html-keyboard-response","388","594884","0.0-1.0-533.0","0","0","64641","","null","","","null","59","","","","","","","","","","","","","","","",""
"","ISI","","html-keyboard-response","389","596886","0.0-1.0-534.0","0","0","64641","","null","","","null","59","NaN","","","","","","","","","","","","","","",""
"","S2","","html-keyboard-response","390","597142","0.0-1.0-535.0","0","0","64641","","null","","","null","59","","NaN","","","","","","","","","","","","","",""
"","response","","html-keyboard-response","391","597757","0.0-1.0-536.0","0","0","64641","","611","","","68","59","","","2","59","training","adjacent","FE","6","5","P.jpg","N.jpg","0","0","1","",""
"","feedback","","html-keyboard-response","392","598767","0.0-1.0-537.0-0.0","0","0","64641","","null","","","null","59","","","","","","","","","","","","","","","",""
"","ITI","","html-keyboard-response","393","599773","0.0-1.0-540.0","0","0","64641","","null","","","null","59","","","","","","","","","","","","","","","NaN",""
"","S1","","html-keyboard-response","394","600029","0.0-1.0-542.0","0","0","64641","","null","","","null","60","","","","","","","","","","","","","","","",""
"","ISI","","html-keyboard-response","395","602033","0.0-1.0-543.0","0","0","64641","","null","","","null","60","NaN","","","","","","","","","","","","","","",""
"","S2","","html-keyboard-response","396","602288","0.0-1.0-544.0","0","0","64641","","null","","","null","60","","NaN","","","","","","","","","","","","","",""
"","response","","html-keyboard-response","397","602585","0.0-1.0-545.0","0","0","64641","","293","","","68","60","","","2","60","training","adjacent","BA","2","1","R.jpg","O.jpg","0","0","1","",""
"","feedback","","html-keyboard-response","398","603590","0.0-1.0-546.0-0.0","0","0","64641","","null","","","null","60","","","","","","","","","","","","","","","",""
"","ITI","","html-keyboard-response","399","604594","0.0-1.0-549.0","0","0","64641","","null","","","null","60","","","","","","","","","","","","","","","NaN",""
"","S1","","html-keyboard-response","400","604849","0.0-1.0-551.0","0","0","64641","","null","","","null","61","","","","","","","","","","","","","","","",""
"","ISI","","html-keyboard-response","401","606852","0.0-1.0-552.0","0","0","64641","","null","","","null","61","NaN","","","","","","","","","","","","","","",""
"","S2","","html-keyboard-response","402","607106","0.0-1.0-553.0","0","0","64641","","null","","","null","61","","NaN","","","","","","","","","","","","","",""
"","response","","html-keyboard-response","403","607392","0.0-1.0-554.0","0","0","64641","","282","","","75","61","","","2","61","training","adjacent","CD","3","4","M.jpg","Q.jpg","1","1","1","",""
"","feedback","","html-keyboard-response","404","608397","0.0-1.0-555.0-0.0","0","0","64641","","null","","","null","61","","","","","","","","","","","","","","","",""
"","ITI","","html-keyboard-response","405","609401","0.0-1.0-558.0","0","0","64641","","null","","","null","61","","","","","","","","","","","","","","","NaN",""
"","S1","","html-keyboard-response","406","609656","0.0-1.0-560.0","0","0","64641","","null","","","null","62","","","","","","","","","","","","","","","",""
"","ISI","","html-keyboard-response","407","611660","0.0-1.0-561.0","0","0","64641","","null","","","null","62","NaN","","","","","","","","","","","","","","",""
"","S2","","html-keyboard-response","408","611914","0.0-1.0-562.0","0","0","64641","","null","","","null","62","","NaN","","","","","","","","","","","","","",""
"","response","","html-keyboard-response","409","612018","0.0-1.0-563.0","0","0","64641","","101","","","75","62","","","2","62","training","adjacent","ED","5","4","N.jpg","Q.jpg","1","0","0","",""
"","feedback","","html-keyboard-response","410","613022","0.0-1.0-564.0-0.0","0","0","64641","","null","","","null","62","","","","","","","","","","","","","","","",""
"","time_out","","html-keyboard-response","411","615027","0.0-1.0-566.0-0.0","0","0","64641","","null","","","null","62","","","","","","","","","","","","","","","",""
"","ITI","","html-keyboard-response","412","616031","0.0-1.0-567.0","0","0","64641","","null","","","null","62","","","","","","","","","","","","","","","NaN",""
"","S1","","html-keyboard-response","413","616285","0.0-1.0-569.0","0","0","64641","","null","","","null","63","","","","","","","","","","","","","","","",""
"","ISI","","html-keyboard-response","414","618289","0.0-1.0-570.0","0","0","64641","","168","","","75","63","k","","","","","","","","","","","","","","",""
"","S2","","html-keyboard-response","415","618543","0.0-1.0-571.0","0","0","64641","","null","","","null","63","","NaN","","","","","","","","","","","","","",""
"","response","","html-keyboard-response","416","618631","0.0-1.0-572.0","0","0","64641","","84","","","75","63","","","2","63","training","adjacent","BA","2","1","R.jpg","O.jpg","1","0","0","",""
"","feedback","","html-keyboard-response","417","619637","0.0-1.0-573.0-0.0","0","0","64641","","null","","","null","63","","","","","","","","","","","","","","","",""
"","time_out","","html-keyboard-response","418","621641","0.0-1.0-575.0-0.0","0","0","64641","","null","","","null","63","","","","","","","","","","","","","","","",""
"","ITI","","html-keyboard-response","419","622648","0.0-1.0-576.0","0","0","64641","","null","","","null","63","","","","","","","","","","","","","","","NaN",""
"","S1","","html-keyboard-response","420","622903","0.0-1.0-578.0","0","0","64641","","null","","","null","64","","","","","","","","","","","","","","","",""
"","ISI","","html-keyboard-response","421","624909","0.0-1.0-579.0","0","0","64641","","null","","","null","64","NaN","","","","","","","","","","","","","","",""
"","S2","","html-keyboard-response","422","625164","0.0-1.0-580.0","0","0","64641","","null","","","null","64","","NaN","","","","","","","","","","","","","",""
"","response","","html-keyboard-response","423","625492","0.0-1.0-581.0","0","0","64641","","324","","","75","64","","","2","64","training","adjacent","FE","6","5","P.jpg","N.jpg","1","0","0","",""
"","feedback","","html-keyboard-response","424","626497","0.0-1.0-582.0-0.0","0","0","64641","","null","","","null","64","","","","","","","","","","","","","","","",""
"","time_out","","html-keyboard-response","425","628502","0.0-1.0-584.0-0.0","0","0","64641","","null","","","null","64","","","","","","","","","","","","","","","",""
"","ITI","","html-keyboard-response","426","629506","0.0-1.0-585.0","0","0","64641","","null","","","null","64","","","","","","","","","","","","","","","NaN",""
"","S1","","html-keyboard-response","427","629760","0.0-1.0-587.0","0","0","64641","","null","","","null","65","","","","","","","","","","","","","","","",""
"","ISI","","html-keyboard-response","428","631764","0.0-1.0-588.0","0","0","64641","","null","","","null","65","NaN","","","","","","","","","","","","","","",""
"","S2","","html-keyboard-response","429","632019","0.0-1.0-589.0","0","0","64641","","null","","","null","65","","NaN","","","","","","","","","","","","","",""
"","response","","html-keyboard-response","430","632327","0.0-1.0-590.0","0","0","64641","","304","","","75","65","","","2","65","training","adjacent","CD","3","4","M.jpg","Q.jpg","1","1","1","",""
"","feedback","","html-keyboard-response","431","633332","0.0-1.0-591.0-0.0","0","0","64641","","null","","","null","65","","","","","","","","","","","","","","","",""
"","ITI","","html-keyboard-response","432","634334","0.0-1.0-594.0","0","0","64641","","null","","","null","65","","","","","","","","","","","","","","","NaN",""
"","S1","","html-keyboard-response","433","634588","0.0-1.0-596.0","0","0","64641","","null","","","null","66","","","","","","","","","","","","","","","",""
"","ISI","","html-keyboard-response","434","636592","0.0-1.0-597.0","0","0","64641","","null","","","null","66","NaN","","","","","","","","","","","","","","",""
"","S2","","html-keyboard-response","435","636847","0.0-1.0-598.0","0","0","64641","","null","","","null","66","","NaN","","","","","","","","","","","","","",""
"","response","","html-keyboard-response","436","637894","0.0-1.0-599.0","0","0","64641","","1044","","","75","66","","","2","66","training","adjacent","DC","4","3","Q.jpg","M.jpg","1","0","0","",""
"","feedback","","html-keyboard-response","437","638899","0.0-1.0-600.0-0.0","0","0","64641","","null","","","null","66","","","","","","","","","","","","","","","",""
"","time_out","","html-keyboard-response","438","640902","0.0-1.0-602.0-0.0","0","0","64641","","null","","","null","66","","","","","","","","","","","","","","","",""
"","ITI","","html-keyboard-response","439","641906","0.0-1.0-603.0","0","0","64641","","null","","","null","66","","","","","","","","","","","","","","","NaN",""
"","S1","","html-keyboard-response","440","642161","0.0-1.0-605.0","0","0","64641","","null","","","null","67","","","","","","","","","","","","","","","",""
"","ISI","","html-keyboard-response","441","644164","0.0-1.0-606.0","0","0","64641","","null","","","null","67","NaN","","","","","","","","","","","","","","",""
"","S2","","html-keyboard-response","442","644418","0.0-1.0-607.0","0","0","64641","","null","","","null","67","","NaN","","","","","","","","","","","","","",""
"","response","","html-keyboard-response","443","644572","0.0-1.0-608.0","0","0","64641","","150","","","68","67","","","2","67","training","adjacent","GF","7","6","L.jpg","P.jpg","0","0","1","",""
"","feedback","","html-keyboard-response","444","645578","0.0-1.0-609.0-0.0","0","0","64641","","null","","","null","67","","","","","","","","","","","","","","","",""
"","ITI","","html-keyboard-response","445","646582","0.0-1.0-612.0","0","0","64641","","null","","","null","67","","","","","","","","","","","","","","","NaN",""
"","S1","","html-keyboard-response","446","646836","0.0-1.0-614.0","0","0","64641","","null","","","null","68","","","","","","","","","","","","","","","",""
"","ISI","","html-keyboard-response","447","648840","0.0-1.0-615.0","0","0","64641","","null","","","null","68","NaN","","","","","","","","","","","","","","",""
"","S2","","html-keyboard-response","448","649097","0.0-1.0-616.0","0","0","64641","","null","","","null","68","","NaN","","","","","","","","","","","","","",""
"","response","","html-keyboard-response","449","649563","0.0-1.0-617.0","0","0","64641","","463","","","68","68","","","2","68","training","adjacent","GF","7","6","L.jpg","P.jpg","0","0","1","",""
"","feedback","","html-keyboard-response","450","650568","0.0-1.0-618.0-0.0","0","0","64641","","null","","","null","68","","","","","","","","","","","","","","","",""
"","ITI","","html-keyboard-response","451","651573","0.0-1.0-621.0","0","0","64641","","null","","","null","68","","","","","","","","","","","","","","","NaN",""
"","S1","","html-keyboard-response","452","651829","0.0-1.0-623.0","0","0","64641","","null","","","null","69","","","","","","","","","","","","","","","",""
"","ISI","","html-keyboard-response","453","653833","0.0-1.0-624.0","0","0","64641","","null","","","null","69","NaN","","","","","","","","","","","","","","",""
"","S2","","html-keyboard-response","454","654087","0.0-1.0-625.0","0","0","64641","","null","","","null","69","","NaN","","","","","","","","","","","","","",""
"","response","","html-keyboard-response","455","654225","0.0-1.0-626.0","0","0","64641","","134","","","68","69","","","2","69","training","adjacent","AB","1","2","O.jpg","R.jpg","0","1","0","",""
"","feedback","","html-keyboard-response","456","655231","0.0-1.0-627.0-0.0","0","0","64641","","null","","","null","69","","","","","","","","","","","","","","","",""
"","time_out","","html-keyboard-response","457","657235","0.0-1.0-629.0-0.0","0","0","64641","","null","","","null","69","","","","","","","","","","","","","","","",""
"","ITI","","html-keyboard-response","458","658239","0.0-1.0-630.0","0","0","64641","","null","","","null","69","","","","","","","","","","","","","","","NaN",""
"","S1","","html-keyboard-response","459","658496","0.0-1.0-632.0","0","0","64641","","null","","","null","70","","","","","","","","","","","","","","","",""
"","ISI","","html-keyboard-response","460","660500","0.0-1.0-633.0","0","0","64641","","590","","","68","70","d","","","","","","","","","","","","","","",""
"","S2","","html-keyboard-response","461","660754","0.0-1.0-634.0","0","0","64641","","null","","","null","70","","NaN","","","","","","","","","","","","","",""
"","response","","html-keyboard-response","462","660880","0.0-1.0-635.0","0","0","64641","","122","","","68","70","","","2","70","training","adjacent","CB","3","2","M.jpg","R.jpg","0","0","1","",""
"","feedback","","html-keyboard-response","463","661885","0.0-1.0-636.0-0.0","0","0","64641","","null","","","null","70","","","","","","","","","","","","","","","",""
"","ITI","","html-keyboard-response","464","662890","0.0-1.0-639.0","0","0","64641","","null","","","null","70","","","","","","","","","","","","","","","NaN",""
"","S1","","html-keyboard-response","465","663144","0.0-1.0-641.0","0","0","64641","","null","","","null","71","","","","","","","","","","","","","","","",""
"","ISI","","html-keyboard-response","466","665147","0.0-1.0-642.0","0","0","64641","","null","","","null","71","NaN","","","","","","","","","","","","","","",""
"","S2","","html-keyboard-response","467","665401","0.0-1.0-643.0","0","0","64641","","null","","","null","71","","NaN","","","","","","","","","","","","","",""
"","response","","html-keyboard-response","468","665823","0.0-1.0-644.0","0","0","64641","","419","","","75","71","","","2","71","training","adjacent","EF","5","6","N.jpg","P.jpg","1","1","1","",""
"","feedback","","html-keyboard-response","469","666828","0.0-1.0-645.0-0.0","0","0","64641","","null","","","null","71","","","","","","","","","","","","","","","",""
"","ITI","","html-keyboard-response","470","667833","0.0-1.0-648.0","0","0","64641","","null","","","null","71","","","","","","","","","","","","","","","NaN",""
"","S1","","html-keyboard-response","471","668087","0.0-1.0-650.0","0","0","64641","","null","","","null","72","","","","","","","","","","","","","","","",""
"","ISI","","html-keyboard-response","472","670091","0.0-1.0-651.0","0","0","64641","","null","","","null","72","NaN","","","","","","","","","","","","","","",""
"","S2","","html-keyboard-response","473","670345","0.0-1.0-652.0","0","0","64641","","null","","","null","72","","NaN","","","","","","","","","","","","","",""
"","response","","html-keyboard-response","474","670542","0.0-1.0-653.0","0","0","64641","","194","","","68","72","","","2","72","training","adjacent","EF","5","6","N.jpg","P.jpg","0","1","0","",""
"","feedback","","html-keyboard-response","475","671547","0.0-1.0-654.0-0.0","0","0","64641","","null","","","null","72","","","","","","","","","","","","","","","",""
"","time_out","","html-keyboard-response","476","673551","0.0-1.0-656.0-0.0","0","0","64641","","null","","","null","72","","","","","","","","","","","","","","","",""
"","ITI","","html-keyboard-response","477","674555","0.0-1.0-657.0","0","0","64641","","null","","","null","72","","","","","","","","","","","","","","","NaN",""
"","S1","","html-keyboard-response","478","674808","0.0-1.0-659.0","0","0","64641","","null","","","null","73","","","","","","","","","","","","","","","",""
"","ISI","","html-keyboard-response","479","676813","0.0-1.0-660.0","0","0","64641","","null","","","null","73","NaN","","","","","","","","","","","","","","",""
"","S2","","html-keyboard-response","480","677068","0.0-1.0-661.0","0","0","64641","","null","","","null","73","","NaN","","","","","","","","","","","","","",""
"","response","","html-keyboard-response","481","677400","0.0-1.0-662.0","0","0","64641","","329","","","75","73","","","2","73","training","adjacent","FG","6","7","P.jpg","L.jpg","1","1","1","",""
"","feedback","","html-keyboard-response","482","678405","0.0-1.0-663.0-0.0","0","0","64641","","null","","","null","73","","","","","","","","","","","","","","","",""
"","ITI","","html-keyboard-response","483","679411","0.0-1.0-666.0","0","0","64641","","null","","","null","73","","","","","","","","","","","","","","","NaN",""
"","S1","","html-keyboard-response","484","679665","0.0-1.0-668.0","0","0","64641","","null","","","null","74","","","","","","","","","","","","","","","",""
"","ISI","","html-keyboard-response","485","681669","0.0-1.0-669.0","0","0","64641","","null","","","null","74","NaN","","","","","","","","","","","","","","",""
"","S2","","html-keyboard-response","486","681933","0.0-1.0-670.0","0","0","64641","","null","","","null","74","","NaN","","","","","","","","","","","","","",""
"","response","","html-keyboard-response","487","682265","0.0-1.0-671.0","0","0","64641","","329","","","68","74","","","2","74","training","adjacent","EF","5","6","N.jpg","P.jpg","0","1","0","",""
"","feedback","","html-keyboard-response","488","683269","0.0-1.0-672.0-0.0","0","0","64641","","null","","","null","74","","","","","","","","","","","","","","","",""
"","time_out","","html-keyboard-response","489","685273","0.0-1.0-674.0-0.0","0","0","64641","","null","","","null","74","","","","","","","","","","","","","","","",""
"","ITI","","html-keyboard-response","490","686277","0.0-1.0-675.0","0","0","64641","","null","","","null","74","","","","","","","","","","","","","","","NaN",""
"","S1","","html-keyboard-response","491","686533","0.0-1.0-677.0","0","0","64641","","null","","","null","75","","","","","","","","","","","","","","","",""
"","ISI","","html-keyboard-response","492","688537","0.0-1.0-678.0","0","0","64641","","null","","","null","75","NaN","","","","","","","","","","","","","","",""
"","S2","","html-keyboard-response","493","688793","0.0-1.0-679.0","0","0","64641","","null","","","null","75","","NaN","","","","","","","","","","","","","",""
"","response","","html-keyboard-response","494","688911","0.0-1.0-680.0","0","0","64641","","113","","","75","75","","","2","75","training","adjacent","DC","4","3","Q.jpg","M.jpg","1","0","0","",""
"","feedback","","html-keyboard-response","495","689916","0.0-1.0-681.0-0.0","0","0","64641","","null","","","null","75","","","","","","","","","","","","","","","",""
"","time_out","","html-keyboard-response","496","691921","0.0-1.0-683.0-0.0","0","0","64641","","null","","","null","75","","","","","","","","","","","","","","","",""
"","ITI","","html-keyboard-response","497","692925","0.0-1.0-684.0","0","0","64641","","null","","","null","75","","","","","","","","","","","","","","","NaN",""
"","S1","","html-keyboard-response","498","693180","0.0-1.0-686.0","0","0","64641","","null","","","null","76","","","","","","","","","","","","","","","",""
"","ISI","","html-keyboard-response","499","695183","0.0-1.0-687.0","0","0","64641","","null","","","null","76","NaN","","","","","","","","","","","","","","",""
"","S2","","html-keyboard-response","500","695438","0.0-1.0-688.0","0","0","64641","","null","","","null","76","","NaN","","","","","","","","","","","","","",""
"","response","","html-keyboard-response","501","695535","0.0-1.0-689.0","0","0","64641","","94","","","75","76","","","2","76","training","adjacent","AB","1","2","O.jpg","R.jpg","1","1","1","",""
"","feedback","","html-keyboard-response","502","696540","0.0-1.0-690.0-0.0","0","0","64641","","null","","","null","76","","","","","","","","","","","","","","","",""
"","ITI","","html-keyboard-response","503","697546","0.0-1.0-693.0","0","0","64641","","null","","","null","76","","","","","","","","","","","","","","","NaN",""
"","S1","","html-keyboard-response","504","697801","0.0-1.0-695.0","0","0","64641","","null","","","null","77","","","","","","","","","","","","","","","",""
"","ISI","","html-keyboard-response","505","699806","0.0-1.0-696.0","0","0","64641","","null","","","null","77","NaN","","","","","","","","","","","","","","",""
"","S2","","html-keyboard-response","506","700061","0.0-1.0-697.0","0","0","64641","","null","","","null","77","","NaN","","","","","","","","","","","","","",""
"","response","","html-keyboard-response","507","700607","0.0-1.0-698.0","0","0","64641","","544","","","75","77","","","2","77","training","adjacent","CB","3","2","M.jpg","R.jpg","1","0","0","",""
"","feedback","","html-keyboard-response","508","701611","0.0-1.0-699.0-0.0","0","0","64641","","null","","","null","77","","","","","","","","","","","","","","","",""
"","time_out","","html-keyboard-response","509","703616","0.0-1.0-701.0-0.0","0","0","64641","","null","","","null","77","","","","","","","","","","","","","","","",""
"","ITI","","html-keyboard-response","510","704619","0.0-1.0-702.0","0","0","64641","","null","","","null","77","","","","","","","","","","","","","","","NaN",""
"","S1","","html-keyboard-response","511","704874","0.0-1.0-704.0","0","0","64641","","null","","","null","78","","","","","","","","","","","","","","","",""
"","ISI","","html-keyboard-response","512","706880","0.0-1.0-705.0","0","0","64641","","401","","","75","78","k","","","","","","","","","","","","","","",""
"","S2","","html-keyboard-response","513","707137","0.0-1.0-706.0","0","0","64641","","null","","","null","78","","NaN","","","","","","","","","","","","","",""
"","response","","html-keyboard-response","514","707255","0.0-1.0-707.0","0","0","64641","","114","","","75","78","","","2","78","training","adjacent","GF","7","6","L.jpg","P.jpg","1","0","0","",""
"","feedback","","html-keyboard-response","515","708261","0.0-1.0-708.0-0.0","0","0","64641","","null","","","null","78","","","","","","","","","","","","","","","",""
"","time_out","","html-keyboard-response","516","710265","0.0-1.0-710.0-0.0","0","0","64641","","null","","","null","78","","","","","","","","","","","","","","","",""
"","ITI","","html-keyboard-response","517","711269","0.0-1.0-711.0","0","0","64641","","null","","","null","78","","","","","","","","","","","","","","","NaN",""
"","S1","","html-keyboard-response","518","711523","0.0-1.0-713.0","0","0","64641","","null","","","null","79","","","","","","","","","","","","","","","",""
"","ISI","","html-keyboard-response","519","713527","0.0-1.0-714.0","0","0","64641","","492","","","68","79","d","","","","","","","","","","","","","","",""
"","S2","","html-keyboard-response","520","713781","0.0-1.0-715.0","0","0","64641","","null","","","null","79","","NaN","","","","","","","","","","","","","",""
"","response","","html-keyboard-response","521","714139","0.0-1.0-716.0","0","0","64641","","354","","","68","79","","","2","79","training","adjacent","DE","4","5","Q.jpg","N.jpg","0","1","0","",""
"","feedback","","html-keyboard-response","522","715144","0.0-1.0-717.0-0.0","0","0","64641","","null","","","null","79","","","","","","","","","","","","","","","",""
"","time_out","","html-keyboard-response","523","717148","0.0-1.0-719.0-0.0","0","0","64641","","null","","","null","79","","","","","","","","","","","","","","","",""
"","ITI","","html-keyboard-response","524","718152","0.0-1.0-720.0","0","0","64641","","null","","","null","79","","","","","","","","","","","","","","","NaN",""
"","S1","","html-keyboard-response","525","718407","0.0-1.0-722.0","0","0","64641","","null","","","null","80","","","","","","","","","","","","","","","",""
"","ISI","","html-keyboard-response","526","720410","0.0-1.0-723.0","0","0","64641","","null","","","null","80","NaN","","","","","","","","","","","","","","",""
"","S2","","html-keyboard-response","527","720666","0.0-1.0-724.0","0","0","64641","","null","","","null","80","","NaN","","","","","","","","","","","","","",""
"","response","","html-keyboard-response","528","721050","0.0-1.0-725.0","0","0","64641","","380","","","68","80","","","2","80","training","adjacent","AB","1","2","O.jpg","R.jpg","0","1","0","",""
"","feedback","","html-keyboard-response","529","722054","0.0-1.0-726.0-0.0","0","0","64641","","null","","","null","80","","","","","","","","","","","","","","","",""
"","time_out","","html-keyboard-response","530","724059","0.0-1.0-728.0-0.0","0","0","64641","","null","","","null","80","","","","","","","","","","","","","","","",""
"","ITI","","html-keyboard-response","531","725070","0.0-1.0-729.0","0","0","64641","","null","","","null","80","","","","","","","","","","","","","","","NaN",""
"","S1","","html-keyboard-response","532","725323","0.0-1.0-731.0","0","0","64641","","null","","","null","81","","","","","","","","","","","","","","","",""
"","ISI","","html-keyboard-response","533","727326","0.0-1.0-732.0","0","0","64641","","null","","","null","81","NaN","","","","","","","","","","","","","","",""
"","S2","","html-keyboard-response","534","727579","0.0-1.0-733.0","0","0","64641","","null","","","null","81","","NaN","","","","","","","","","","","","","",""
"","response","","html-keyboard-response","535","727964","0.0-1.0-734.0","0","0","64641","","382","","","68","81","","","2","81","training","adjacent","AB","1","2","O.jpg","R.jpg","0","1","0","",""
"","feedback","","html-keyboard-response","536","728969","0.0-1.0-735.0-0.0","0","0","64641","","null","","","null","81","","","","","","","","","","","","","","","",""
"","time_out","","html-keyboard-response","537","730974","0.0-1.0-737.0-0.0","0","0","64641","","null","","","null","81","","","","","","","","","","","","","","","",""
"","ITI","","html-keyboard-response","538","731976","0.0-1.0-738.0","0","0","64641","","null","","","null","81","","","","","","","","","","","","","","","NaN",""
"","S1","","html-keyboard-response","539","732230","0.0-1.0-740.0","0","0","64641","","null","","","null","82","","","","","","","","","","","","","","","",""
"","ISI","","html-keyboard-response","540","734233","0.0-1.0-741.0","0","0","64641","","null","","","null","82","NaN","","","","","","","","","","","","","","",""
"","S2","","html-keyboard-response","541","734487","0.0-1.0-742.0","0","0","64641","","null","","","null","82","","NaN","","","","","","","","","","","","","",""
"","response","","html-keyboard-response","542","734556","0.0-1.0-743.0","0","0","64641","","65","","","75","82","","","2","82","training","adjacent","DE","4","5","Q.jpg","N.jpg","1","1","1","",""
"","feedback","","html-keyboard-response","543","735561","0.0-1.0-744.0-0.0","0","0","64641","","null","","","null","82","","","","","","","","","","","","","","","",""
"","ITI","","html-keyboard-response","544","736564","0.0-1.0-747.0","0","0","64641","","null","","","null","82","","","","","","","","","","","","","","","NaN",""
"","S1","","html-keyboard-response","545","736826","0.0-1.0-749.0","0","0","64641","","null","","","null","83","","","","","","","","","","","","","","","",""
"","ISI","","html-keyboard-response","546","738830","0.0-1.0-750.0","0","0","64641","","null","","","null","83","NaN","","","","","","","","","","","","","","",""
"","S2","","html-keyboard-response","547","739084","0.0-1.0-751.0","0","0","64641","","null","","","null","83","","NaN","","","","","","","","","","","","","",""
"","response","","html-keyboard-response","548","739523","0.0-1.0-752.0","0","0","64641","","434","","","75","83","","","2","83","training","adjacent","EF","5","6","N.jpg","P.jpg","1","1","1","",""
"","feedback","","html-keyboard-response","549","740528","0.0-1.0-753.0-0.0","0","0","64641","","null","","","null","83","","","","","","","","","","","","","","","",""
"","ITI","","html-keyboard-response","550","741533","0.0-1.0-756.0","0","0","64641","","null","","","null","83","","","","","","","","","","","","","","","NaN",""
"","S1","","html-keyboard-response","551","741788","0.0-1.0-758.0","0","0","64641","","null","","","null","84","","","","","","","","","","","","","","","",""
"","ISI","","html-keyboard-response","552","743792","0.0-1.0-759.0","0","0","64641","","null","","","null","84","NaN","","","","","","","","","","","","","","",""
"","S2","","html-keyboard-response","553","744046","0.0-1.0-760.0","0","0","64641","","null","","","null","84","","NaN","","","","","","","","","","","","","",""
"","response","","html-keyboard-response","554","744346","0.0-1.0-761.0","0","0","64641","","297","","","75","84","","","2","84","training","adjacent","DC","4","3","Q.jpg","M.jpg","1","0","0","",""
"","feedback","","html-keyboard-response","555","745361","0.0-1.0-762.0-0.0","0","0","64641","","null","","","null","84","","","","","","","","","","","","","","","",""
"","time_out","","html-keyboard-response","556","747366","0.0-1.0-764.0-0.0","0","0","64641","","null","","","null","84","","","","","","","","","","","","","","","",""
"","ITI","","html-keyboard-response","557","748370","0.0-1.0-765.0","0","0","64641","","null","","","null","84","","","","","","","","","","","","","","","NaN",""
"","S1","","html-keyboard-response","558","748625","0.0-1.0-767.0","0","0","64641","","null","","","null","85","","","","","","","","","","","","","","","",""
"","ISI","","html-keyboard-response","559","750628","0.0-1.0-768.0","0","0","64641","","null","","","null","85","NaN","","","","","","","","","","","","","","",""
"","S2","","html-keyboard-response","560","750886","0.0-1.0-769.0","0","0","64641","","null","","","null","85","","NaN","","","","","","","","","","","","","",""
"","response","","html-keyboard-response","561","751389","0.0-1.0-770.0","0","0","64641","","499","","","68","85","","","2","85","training","adjacent","BC","2","3","R.jpg","M.jpg","0","1","0","",""
"","feedback","","html-keyboard-response","562","752394","0.0-1.0-771.0-0.0","0","0","64641","","null","","","null","85","","","","","","","","","","","","","","","",""
"","time_out","","html-keyboard-response","563","754399","0.0-1.0-773.0-0.0","0","0","64641","","null","","","null","85","","","","","","","","","","","","","","","",""
"","ITI","","html-keyboard-response","564","755404","0.0-1.0-774.0","0","0","64641","","null","","","null","85","","","","","","","","","","","","","","","NaN",""
"","S1","","html-keyboard-response","565","755659","0.0-1.0-776.0","0","0","64641","","null","","","null","86","","","","","","","","","","","","","","","",""
"","ISI","","html-keyboard-response","566","757663","0.0-1.0-777.0","0","0","64641","","null","","","null","86","NaN","","","","","","","","","","","","","","",""
"","S2","","html-keyboard-response","567","757918","0.0-1.0-778.0","0","0","64641","","null","","","null","86","","NaN","","","","","","","","","","","","","",""
"","response","","html-keyboard-response","568","758049","0.0-1.0-779.0","0","0","64641","","127","","","75","86","","","2","86","training","adjacent","FG","6","7","P.jpg","L.jpg","1","1","1","",""
"","feedback","","html-keyboard-response","569","759054","0.0-1.0-780.0-0.0","0","0","64641","","null","","","null","86","","","","","","","","","","","","","","","",""
"","ITI","","html-keyboard-response","570","760060","0.0-1.0-783.0","0","0","64641","","null","","","null","86","","","","","","","","","","","","","","","NaN",""
"","S1","","html-keyboard-response","571","760316","0.0-1.0-785.0","0","0","64641","","null","","","null","87","","","","","","","","","","","","","","","",""
"","ISI","","html-keyboard-response","572","762320","0.0-1.0-786.0","0","0","64641","","null","","","null","87","NaN","","","","","","","","","","","","","","",""
"","S2","","html-keyboard-response","573","762574","0.0-1.0-787.0","0","0","64641","","null","","","null","87","","NaN","","","","","","","","","","","","","",""
"","response","","html-keyboard-response","574","763092","0.0-1.0-788.0","0","0","64641","","512","","","68","87","","","2","87","training","adjacent","DE","4","5","Q.jpg","N.jpg","0","1","0","",""
"","feedback","","html-keyboard-response","575","764100","0.0-1.0-789.0-0.0","0","0","64641","","null","","","null","87","","","","","","","","","","","","","","","",""
"","time_out","","html-keyboard-response","576","766104","0.0-1.0-791.0-0.0","0","0","64641","","null","","","null","87","","","","","","","","","","","","","","","",""
"","ITI","","html-keyboard-response","577","767108","0.0-1.0-792.0","0","0","64641","","null","","","null","87","","","","","","","","","","","","","","","NaN",""
"","S1","","html-keyboard-response","578","767361","0.0-1.0-794.0","0","0","64641","","null","","","null","88","","","","","","","","","","","","","","","",""
"","ISI","","html-keyboard-response","579","769365","0.0-1.0-795.0","0","0","64641","","426","","","75","88","k","","","","","","","","","","","","","","",""
"","S2","","html-keyboard-response","580","769619","0.0-1.0-796.0","0","0","64641","","null","","","null","88","","NaN","","","","","","","","","","","","","",""
"","response","","html-keyboard-response","581","769712","0.0-1.0-797.0","0","0","64641","","90","","","68","88","","","2","88","training","adjacent","ED","5","4","N.jpg","Q.jpg","0","0","1","",""
"","feedback","","html-keyboard-response","582","770717","0.0-1.0-798.0-0.0","0","0","64641","","null","","","null","88","","","","","","","","","","","","","","","",""
"","ITI","","html-keyboard-response","583","771721","0.0-1.0-801.0","0","0","64641","","null","","","null","88","","","","","","","","","","","","","","","NaN",""
"","S1","","html-keyboard-response","584","771976","0.0-1.0-803.0","0","0","64641","","null","","","null","89","","","","","","","","","","","","","","","",""
"","ISI","","html-keyboard-response","585","773980","0.0-1.0-804.0","0","0","64641","","null","","","null","89","NaN","","","","","","","","","","","","","","",""
