"success","ttype","start_time","trial_type","trial_index","time_elapsed","internal_node_id","warning","missed_checkup","PID","view_history","rt","responses","repeat_instructions","key_press","index","keypress_isi","keypress_S2","block","trial_num","phase","group_type","pair_type","S1_stim","S2_stim","S1_img","S2_img","S1_chosen","S1_higher","accuracy","keypress_iti","total_bonus_tally"
"true","full_screen","d03032023hr1942","fullscreen","0","9796","0.0-0.0","0","0","30270","","","","","","","","","","","","","","","","","","","","","",""
"","instructions","","instructions","1","43641","0.0-1.0-0.0-0.0","0","0","30270","[{""page_index"":0,""viewing_time"":5024},{""page_index"":1,""viewing_time"":15965},{""page_index"":2,""viewing_time"":10834},{""page_index"":3,""viewing_time"":2018}]","33841","","","","","","","","","","","","","","","","","","","",""
"","comprehension_check","","survey-multi-choice","2","75771","0.0-1.0-0.0-1.0","0","0","30270","","32125","{""Q0"":""True"",""Q1"":""K"",""Q2"":""Once the second image appears and while the screen 'MAKE A CHOICE' is shown"",""Q3"":""Green mark"",""Q4"":""either D or K""}","1","","","","","","","","","","","","","","","","","",""
"","missed_instruction_checkup","","html-keyboard-response","3","77860","0.0-1.0-0.0-2.0-0.0","0","1","30270","","2080","","","32","","","","","","","","","","","","","","","","",""
"","instructions","","instructions","4","128418","0.0-1.0-0.1-0.1","0","0","30270","[{""page_index"":0,""viewing_time"":2442},{""page_index"":1,""viewing_time"":38113},{""page_index"":2,""viewing_time"":7967},{""page_index"":3,""viewing_time"":2033}]","50556","","","","","","","","","","","","","","","","","","","",""
"","comprehension_check","","survey-multi-choice","5","194301","0.0-1.0-0.1-1.1","0","0","30270","","65873","{""Q0"":""True"",""Q1"":""D"",""Q2"":""Once the second image appears and while the screen 'MAKE A CHOICE' is shown"",""Q3"":""Green mark"",""Q4"":""either D or K""}","0","","","","","","","","","","","","","","","","","",""
"","start_exp","","html-keyboard-response","6","195722","0.0-1.0-1.0","0","0","30270","","1413","","","32","","","","","","","","","","","","","","","","",""
"","S1","","html-keyboard-response","7","195984","0.0-1.0-2.0","0","0","30270","","null","","","null","0","","","","","","","","","","","","","","","",""
"","ISI","","html-keyboard-response","8","196496","0.0-1.0-3.0","0","0","30270","","null","","","null","0","NaN","","","","","","","","","","","","","","",""
"","S2","","html-keyboard-response","9","196755","0.0-1.0-4.0","0","0","30270","","null","","","null","0","","NaN","","","","","","","","","","","","","",""
"","response","","html-keyboard-response","10","197813","0.0-1.0-5.0-0.0","0","0","30270","","1055","","","75","0","","","1","0","training","adjacent","DE","4","5","Q.jpg","R.jpg","0","1","0","",""
"","feedback","","html-keyboard-response","11","198821","0.0-1.0-6.0-0.0","0","0","30270","","null","","","null","0","","","","","","","","","","","","","","","",""
"","time_out","","html-keyboard-response","12","200831","0.0-1.0-8.0-0.0","0","0","30270","","null","","","null","0","","","","","","","","","","","","","","","",""
"","ITI","","html-keyboard-response","13","201843","0.0-1.0-9.0","0","0","30270","","null","","","null","0","","","","","","","","","","","","","","","NaN",""
"","S1","","html-keyboard-response","14","202101","0.0-1.0-11.0","0","0","30270","","null","","","null","1","","","","","","","","","","","","","","","",""
"","ISI","","html-keyboard-response","15","202613","0.0-1.0-12.0","0","0","30270","","null","","","null","1","NaN","","","","","","","","","","","","","","",""
"","S2","","html-keyboard-response","16","202878","0.0-1.0-13.0","0","0","30270","","null","","","null","1","","NaN","","","","","","","","","","","","","",""
"","response","","html-keyboard-response","17","203395","0.0-1.0-14.0-0.0","0","0","30270","","513","","","75","1","","","1","1","training","adjacent","CB","3","2","O.jpg","L.jpg","0","0","1","",""
"","feedback","","html-keyboard-response","18","204404","0.0-1.0-15.0-0.0","0","0","30270","","null","","","null","1","","","","","","","","","","","","","","","",""
"","ITI","","html-keyboard-response","19","205412","0.0-1.0-18.0","0","0","30270","","null","","","null","1","","","","","","","","","","","","","","","NaN",""
"","S1","","html-keyboard-response","20","205679","0.0-1.0-20.0","0","0","30270","","null","","","null","2","","","","","","","","","","","","","","","",""
"","ISI","","html-keyboard-response","21","206191","0.0-1.0-21.0","0","0","30270","","null","","","null","2","NaN","","","","","","","","","","","","","","",""
"","S2","","html-keyboard-response","22","206453","0.0-1.0-22.0","0","0","30270","","null","","","null","2","","NaN","","","","","","","","","","","","","",""
"","response","","html-keyboard-response","23","206910","0.0-1.0-23.0-0.0","0","0","30270","","452","","","75","2","","","1","2","training","adjacent","CD","3","4","O.jpg","Q.jpg","0","1","0","",""
"","feedback","","html-keyboard-response","24","207925","0.0-1.0-24.0-0.0","0","0","30270","","null","","","null","2","","","","","","","","","","","","","","","",""
"","time_out","","html-keyboard-response","25","209935","0.0-1.0-26.0-0.0","0","0","30270","","null","","","null","2","","","","","","","","","","","","","","","",""
"","ITI","","html-keyboard-response","26","210948","0.0-1.0-27.0","0","0","30270","","null","","","null","2","","","","","","","","","","","","","","","NaN",""
"","S1","","html-keyboard-response","27","211216","0.0-1.0-29.0","0","0","30270","","null","","","null","3","","","","","","","","","","","","","","","",""
"","ISI","","html-keyboard-response","28","211727","0.0-1.0-30.0","0","0","30270","","null","","","null","3","NaN","","","","","","","","","","","","","","",""
"","S2","","html-keyboard-response","29","211989","0.0-1.0-31.0","0","0","30270","","null","","","null","3","","NaN","","","","","","","","","","","","","",""
"","response","","html-keyboard-response","30","212347","0.0-1.0-32.0-0.0","0","0","30270","","354","","","75","3","","","1","3","training","adjacent","CB","3","2","O.jpg","L.jpg","0","0","1","",""
"","feedback","","html-keyboard-response","31","213360","0.0-1.0-33.0-0.0","0","0","30270","","null","","","null","3","","","","","","","","","","","","","","","",""
"","ITI","","html-keyboard-response","32","214372","0.0-1.0-36.0","0","0","30270","","null","","","null","3","","","","","","","","","","","","","","","NaN",""
"","S1","","html-keyboard-response","33","214640","0.0-1.0-38.0","0","0","30270","","null","","","null","4","","","","","","","","","","","","","","","",""
"","ISI","","html-keyboard-response","34","215151","0.0-1.0-39.0","0","0","30270","","null","","","null","4","NaN","","","","","","","","","","","","","","",""
"","S2","","html-keyboard-response","35","215412","0.0-1.0-40.0","0","0","30270","","null","","","null","4","","NaN","","","","","","","","","","","","","",""
"","response","","html-keyboard-response","36","216131","0.0-1.0-41.0-0.0","0","0","30270","","715","","","68","4","","","1","4","training","adjacent","ED","5","4","R.jpg","Q.jpg","1","0","0","",""
"","feedback","","html-keyboard-response","37","217140","0.0-1.0-42.0-0.0","0","0","30270","","null","","","null","4","","","","","","","","","","","","","","","",""
"","time_out","","html-keyboard-response","38","219151","0.0-1.0-44.0-0.0","0","0","30270","","null","","","null","4","","","","","","","","","","","","","","","",""
"","ITI","","html-keyboard-response","39","220164","0.0-1.0-45.0","0","0","30270","","null","","","null","4","","","","","","","","","","","","","","","NaN",""
"","S1","","html-keyboard-response","40","220430","0.0-1.0-47.0","0","0","30270","","null","","","null","5","","","","","","","","","","","","","","","",""
"","ISI","","html-keyboard-response","41","220943","0.0-1.0-48.0","0","0","30270","","null","","","null","5","NaN","","","","","","","","","","","","","","",""
"","S2","","html-keyboard-response","42","221204","0.0-1.0-49.0","0","0","30270","","null","","","null","5","","NaN","","","","","","","","","","","","","",""
"","response","","html-keyboard-response","43","221663","0.0-1.0-50.0-0.0","0","0","30270","","454","","","68","5","","","1","5","training","adjacent","BA","2","1","L.jpg","M.jpg","1","0","0","",""
"","feedback","","html-keyboard-response","44","222676","0.0-1.0-51.0-0.0","0","0","30270","","null","","","null","5","","","","","","","","","","","","","","","",""
"","time_out","","html-keyboard-response","45","224686","0.0-1.0-53.0-0.0","0","0","30270","","null","","","null","5","","","","","","","","","","","","","","","",""
"","ITI","","html-keyboard-response","46","225699","0.0-1.0-54.0","0","0","30270","","null","","","null","5","","","","","","","","","","","","","","","NaN",""
"","S1","","html-keyboard-response","47","225966","0.0-1.0-56.0","0","0","30270","","null","","","null","6","","","","","","","","","","","","","","","",""
"","ISI","","html-keyboard-response","48","226477","0.0-1.0-57.0","0","0","30270","","null","","","null","6","NaN","","","","","","","","","","","","","","",""
"","S2","","html-keyboard-response","49","226740","0.0-1.0-58.0","0","0","30270","","null","","","null","6","","NaN","","","","","","","","","","","","","",""
"","response","","html-keyboard-response","50","227216","0.0-1.0-59.0-0.0","0","0","30270","","471","","","68","6","","","1","6","training","adjacent","FE","6","5","P.jpg","R.jpg","1","0","0","",""
"","feedback","","html-keyboard-response","51","228228","0.0-1.0-60.0-0.0","0","0","30270","","null","","","null","6","","","","","","","","","","","","","","","",""
"","time_out","","html-keyboard-response","52","230238","0.0-1.0-62.0-0.0","0","0","30270","","null","","","null","6","","","","","","","","","","","","","","","",""
"","ITI","","html-keyboard-response","53","231251","0.0-1.0-63.0","0","0","30270","","null","","","null","6","","","","","","","","","","","","","","","NaN",""
"","S1","","html-keyboard-response","54","231518","0.0-1.0-65.0","0","0","30270","","null","","","null","7","","","","","","","","","","","","","","","",""
"","ISI","","html-keyboard-response","55","232030","0.0-1.0-66.0","0","0","30270","","null","","","null","7","NaN","","","","","","","","","","","","","","",""
"","S2","","html-keyboard-response","56","232292","0.0-1.0-67.0","0","0","30270","","null","","","null","7","","NaN","","","","","","","","","","","","","",""
"","response","","html-keyboard-response","57","232694","0.0-1.0-68.0-0.0","0","0","30270","","397","","","75","7","","","1","7","training","adjacent","GF","7","6","N.jpg","P.jpg","0","0","1","",""
"","feedback","","html-keyboard-response","58","233710","0.0-1.0-69.0-0.0","0","0","30270","","null","","","null","7","","","","","","","","","","","","","","","",""
"","ITI","","html-keyboard-response","59","234723","0.0-1.0-72.0","0","0","30270","","null","","","null","7","","","","","","","","","","","","","","","NaN",""
"","S1","","html-keyboard-response","60","234989","0.0-1.0-74.0","0","0","30270","","null","","","null","8","","","","","","","","","","","","","","","",""
"","ISI","","html-keyboard-response","61","235502","0.0-1.0-75.0","0","0","30270","","null","","","null","8","NaN","","","","","","","","","","","","","","",""
"","S2","","html-keyboard-response","62","235764","0.0-1.0-76.0","0","0","30270","","null","","","null","8","","NaN","","","","","","","","","","","","","",""
"","response","","html-keyboard-response","63","236183","0.0-1.0-77.0-0.0","0","0","30270","","418","","","68","8","","","1","8","training","adjacent","CD","3","4","O.jpg","Q.jpg","1","1","1","",""
"","feedback","","html-keyboard-response","64","237199","0.0-1.0-78.0-0.0","0","0","30270","","null","","","null","8","","","","","","","","","","","","","","","",""
"","ITI","","html-keyboard-response","65","238212","0.0-1.0-81.0","0","0","30270","","null","","","null","8","","","","","","","","","","","","","","","NaN",""
"","S1","","html-keyboard-response","66","238478","0.0-1.0-83.0","0","0","30270","","null","","","null","9","","","","","","","","","","","","","","","",""
"","ISI","","html-keyboard-response","67","238987","0.0-1.0-84.0","0","0","30270","","null","","","null","9","NaN","","","","","","","","","","","","","","",""
"","S2","","html-keyboard-response","68","239251","0.0-1.0-85.0","0","0","30270","","null","","","null","9","","NaN","","","","","","","","","","","","","",""
"","response","","html-keyboard-response","69","239763","0.0-1.0-86.0-0.0","0","0","30270","","508","","","68","9","","","1","9","training","adjacent","CD","3","4","O.jpg","Q.jpg","1","1","1","",""
"","feedback","","html-keyboard-response","70","240771","0.0-1.0-87.0-0.0","0","0","30270","","null","","","null","9","","","","","","","","","","","","","","","",""
"","ITI","","html-keyboard-response","71","241779","0.0-1.0-90.0","0","0","30270","","null","","","null","9","","","","","","","","","","","","","","","NaN",""
"","S1","","html-keyboard-response","72","242045","0.0-1.0-92.0","0","0","30270","","null","","","null","10","","","","","","","","","","","","","","","",""
"","ISI","","html-keyboard-response","73","242555","0.0-1.0-93.0","0","0","30270","","null","","","null","10","NaN","","","","","","","","","","","","","","",""
"","S2","","html-keyboard-response","74","242819","0.0-1.0-94.0","0","0","30270","","null","","","null","10","","NaN","","","","","","","","","","","","","",""
"","response","","html-keyboard-response","75","243320","0.0-1.0-95.0-0.0","0","0","30270","","496","","","75","10","","","1","10","training","adjacent","CB","3","2","O.jpg","L.jpg","0","0","1","",""
"","feedback","","html-keyboard-response","76","244334","0.0-1.0-96.0-0.0","0","0","30270","","null","","","null","10","","","","","","","","","","","","","","","",""
"","ITI","","html-keyboard-response","77","245347","0.0-1.0-99.0","0","0","30270","","null","","","null","10","","","","","","","","","","","","","","","NaN",""
"","S1","","html-keyboard-response","78","245614","0.0-1.0-101.0","0","0","30270","","null","","","null","11","","","","","","","","","","","","","","","",""
"","ISI","","html-keyboard-response","79","246125","0.0-1.0-102.0","0","0","30270","","null","","","null","11","NaN","","","","","","","","","","","","","","",""
"","S2","","html-keyboard-response","80","246382","0.0-1.0-103.0","0","0","30270","","null","","","null","11","","NaN","","","","","","","","","","","","","",""
"","response","","html-keyboard-response","81","246805","0.0-1.0-104.0-0.0","0","0","30270","","418","","","68","11","","","1","11","training","adjacent","DE","4","5","Q.jpg","R.jpg","1","1","1","",""
"","feedback","","html-keyboard-response","82","247822","0.0-1.0-105.0-0.0","0","0","30270","","null","","","null","11","","","","","","","","","","","","","","","",""
"","ITI","","html-keyboard-response","83","248835","0.0-1.0-108.0","0","0","30270","","null","","","null","11","","","","","","","","","","","","","","","NaN",""
"","S1","","html-keyboard-response","84","249102","0.0-1.0-110.0","0","0","30270","","null","","","null","12","","","","","","","","","","","","","","","",""
"","ISI","","html-keyboard-response","85","249614","0.0-1.0-111.0","0","0","30270","","null","","","null","12","NaN","","","","","","","","","","","","","","",""
"","S2","","html-keyboard-response","86","249875","0.0-1.0-112.0","0","0","30270","","null","","","null","12","","NaN","","","","","","","","","","","","","",""
"","response","","html-keyboard-response","87","250417","0.0-1.0-113.0-0.0","0","0","30270","","537","","","68","12","","","1","12","training","adjacent","AB","1","2","M.jpg","L.jpg","1","1","1","",""
"","feedback","","html-keyboard-response","88","251426","0.0-1.0-114.0-0.0","0","0","30270","","null","","","null","12","","","","","","","","","","","","","","","",""
"","ITI","","html-keyboard-response","89","252433","0.0-1.0-117.0","0","0","30270","","null","","","null","12","","","","","","","","","","","","","","","NaN",""
"","S1","","html-keyboard-response","90","252690","0.0-1.0-119.0","0","0","30270","","null","","","null","13","","","","","","","","","","","","","","","",""
"","ISI","","html-keyboard-response","91","253203","0.0-1.0-120.0","0","0","30270","","null","","","null","13","NaN","","","","","","","","","","","","","","",""
"","S2","","html-keyboard-response","92","253469","0.0-1.0-121.0","0","0","30270","","null","","","null","13","","NaN","","","","","","","","","","","","","",""
"","response","","html-keyboard-response","93","253901","0.0-1.0-122.0-0.0","0","0","30270","","428","","","68","13","","","1","13","training","adjacent","AB","1","2","M.jpg","L.jpg","1","1","1","",""
"","feedback","","html-keyboard-response","94","254915","0.0-1.0-123.0-0.0","0","0","30270","","null","","","null","13","","","","","","","","","","","","","","","",""
"","ITI","","html-keyboard-response","95","255923","0.0-1.0-126.0","0","0","30270","","null","","","null","13","","","","","","","","","","","","","","","NaN",""
"","S1","","html-keyboard-response","96","256189","0.0-1.0-128.0","0","0","30270","","null","","","null","14","","","","","","","","","","","","","","","",""
"","ISI","","html-keyboard-response","97","256701","0.0-1.0-129.0","0","0","30270","","null","","","null","14","NaN","","","","","","","","","","","","","","",""
"","S2","","html-keyboard-response","98","256962","0.0-1.0-130.0","0","0","30270","","null","","","null","14","","NaN","","","","","","","","","","","","","",""
"","response","","html-keyboard-response","99","257419","0.0-1.0-131.0-0.0","0","0","30270","","452","","","68","14","","","1","14","training","adjacent","DE","4","5","Q.jpg","R.jpg","1","1","1","",""
"","feedback","","html-keyboard-response","100","258429","0.0-1.0-132.0-0.0","0","0","30270","","null","","","null","14","","","","","","","","","","","","","","","",""
"","ITI","","html-keyboard-response","101","259442","0.0-1.0-135.0","0","0","30270","","null","","","null","14","","","","","","","","","","","","","","","NaN",""
"","S1","","html-keyboard-response","102","259709","0.0-1.0-137.0","0","0","30270","","null","","","null","15","","","","","","","","","","","","","","","",""
"","ISI","","html-keyboard-response","103","260221","0.0-1.0-138.0","0","0","30270","","null","","","null","15","NaN","","","","","","","","","","","","","","",""
"","S2","","html-keyboard-response","104","260482","0.0-1.0-139.0","0","0","30270","","null","","","null","15","","NaN","","","","","","","","","","","","","",""
"","response","","html-keyboard-response","105","260945","0.0-1.0-140.0-0.0","0","0","30270","","458","","","75","15","","","1","15","training","adjacent","FE","6","5","P.jpg","R.jpg","0","0","1","",""
"","feedback","","html-keyboard-response","106","261955","0.0-1.0-141.0-0.0","0","0","30270","","null","","","null","15","","","","","","","","","","","","","","","",""
"","ITI","","html-keyboard-response","107","262962","0.0-1.0-144.0","0","0","30270","","null","","","null","15","","","","","","","","","","","","","","","NaN",""
"","S1","","html-keyboard-response","108","263228","0.0-1.0-146.0","0","0","30270","","null","","","null","16","","","","","","","","","","","","","","","",""
"","ISI","","html-keyboard-response","109","263740","0.0-1.0-147.0","0","0","30270","","null","","","null","16","NaN","","","","","","","","","","","","","","",""
"","S2","","html-keyboard-response","110","263997","0.0-1.0-148.0","0","0","30270","","null","","","null","16","","NaN","","","","","","","","","","","","","",""
"","response","","html-keyboard-response","111","264504","0.0-1.0-149.0-0.0","0","0","30270","","503","","","68","16","","","1","16","training","adjacent","EF","5","6","R.jpg","P.jpg","1","1","1","",""
"","feedback","","html-keyboard-response","112","265518","0.0-1.0-150.0-0.0","0","0","30270","","null","","","null","16","","","","","","","","","","","","","","","",""
"","ITI","","html-keyboard-response","113","266530","0.0-1.0-153.0","0","0","30270","","null","","","null","16","","","","","","","","","","","","","","","NaN",""
"","S1","","html-keyboard-response","114","266797","0.0-1.0-155.0","0","0","30270","","null","","","null","17","","","","","","","","","","","","","","","",""
"","ISI","","html-keyboard-response","115","267308","0.0-1.0-156.0","0","0","30270","","null","","","null","17","NaN","","","","","","","","","","","","","","",""
"","S2","","html-keyboard-response","116","267570","0.0-1.0-157.0","0","0","30270","","null","","","null","17","","NaN","","","","","","","","","","","","","",""
"","response","","html-keyboard-response","117","267963","0.0-1.0-158.0-0.0","0","0","30270","","390","","","75","17","","","1","17","training","adjacent","GF","7","6","N.jpg","P.jpg","0","0","1","",""
"","feedback","","html-keyboard-response","118","268978","0.0-1.0-159.0-0.0","0","0","30270","","null","","","null","17","","","","","","","","","","","","","","","",""
"","ITI","","html-keyboard-response","119","269986","0.0-1.0-162.0","0","0","30270","","null","","","null","17","","","","","","","","","","","","","","","NaN",""
"","S1","","html-keyboard-response","120","270254","0.0-1.0-164.0","0","0","30270","","null","","","null","18","","","","","","","","","","","","","","","",""
"","ISI","","html-keyboard-response","121","270764","0.0-1.0-165.0","0","0","30270","","null","","","null","18","NaN","","","","","","","","","","","","","","",""
"","S2","","html-keyboard-response","122","271024","0.0-1.0-166.0","0","0","30270","","null","","","null","18","","NaN","","","","","","","","","","","","","",""
"","response","","html-keyboard-response","123","271470","0.0-1.0-167.0-0.0","0","0","30270","","442","","","75","18","","","1","18","training","adjacent","GF","7","6","N.jpg","P.jpg","0","0","1","",""
"","feedback","","html-keyboard-response","124","272481","0.0-1.0-168.0-0.0","0","0","30270","","null","","","null","18","","","","","","","","","","","","","","","",""
"","ITI","","html-keyboard-response","125","273489","0.0-1.0-171.0","0","0","30270","","null","","","null","18","","","","","","","","","","","","","","","NaN",""
"","S1","","html-keyboard-response","126","273757","0.0-1.0-173.0","0","0","30270","","null","","","null","19","","","","","","","","","","","","","","","",""
"","ISI","","html-keyboard-response","127","274269","0.0-1.0-174.0","0","0","30270","","null","","","null","19","NaN","","","","","","","","","","","","","","",""
"","S2","","html-keyboard-response","128","274530","0.0-1.0-175.0","0","0","30270","","null","","","null","19","","NaN","","","","","","","","","","","","","",""
"","response","","html-keyboard-response","129","274883","0.0-1.0-176.0-0.0","0","0","30270","","348","","","68","19","","","1","19","training","adjacent","BC","2","3","L.jpg","O.jpg","1","1","1","",""
"","feedback","","html-keyboard-response","130","275900","0.0-1.0-177.0-0.0","0","0","30270","","null","","","null","19","","","","","","","","","","","","","","","",""
"","ITI","","html-keyboard-response","131","276913","0.0-1.0-180.0","0","0","30270","","null","","","null","19","","","","","","","","","","","","","","","NaN",""
"","S1","","html-keyboard-response","132","277180","0.0-1.0-182.0","0","0","30270","","null","","","null","20","","","","","","","","","","","","","","","",""
"","ISI","","html-keyboard-response","133","277692","0.0-1.0-183.0","0","0","30270","","null","","","null","20","NaN","","","","","","","","","","","","","","",""
"","S2","","html-keyboard-response","134","277954","0.0-1.0-184.0","0","0","30270","","null","","","null","20","","NaN","","","","","","","","","","","","","",""
"","response","","html-keyboard-response","135","278368","0.0-1.0-185.0-0.0","0","0","30270","","409","","","75","20","","","1","20","training","adjacent","CB","3","2","O.jpg","L.jpg","0","0","1","",""
"","feedback","","html-keyboard-response","136","279375","0.0-1.0-186.0-0.0","0","0","30270","","null","","","null","20","","","","","","","","","","","","","","","",""
"","ITI","","html-keyboard-response","137","280384","0.0-1.0-189.0","0","0","30270","","null","","","null","20","","","","","","","","","","","","","","","NaN",""
"","S1","","html-keyboard-response","138","280642","0.0-1.0-191.0","0","0","30270","","null","","","null","21","","","","","","","","","","","","","","","",""
"","ISI","","html-keyboard-response","139","281154","0.0-1.0-192.0","0","0","30270","","null","","","null","21","NaN","","","","","","","","","","","","","","",""
"","S2","","html-keyboard-response","140","281418","0.0-1.0-193.0","0","0","30270","","null","","","null","21","","NaN","","","","","","","","","","","","","",""
"","response","","html-keyboard-response","141","281837","0.0-1.0-194.0-0.0","0","0","30270","","415","","","68","21","","","1","21","training","adjacent","FG","6","7","P.jpg","N.jpg","1","1","1","",""
"","feedback","","html-keyboard-response","142","282849","0.0-1.0-195.0-0.0","0","0","30270","","null","","","null","21","","","","","","","","","","","","","","","",""
"","ITI","","html-keyboard-response","143","283855","0.0-1.0-198.0","0","0","30270","","null","","","null","21","","","","","","","","","","","","","","","NaN",""
"","S1","","html-keyboard-response","144","284113","0.0-1.0-200.0","0","0","30270","","null","","","null","22","","","","","","","","","","","","","","","",""
"","ISI","","html-keyboard-response","145","284625","0.0-1.0-201.0","0","0","30270","","null","","","null","22","NaN","","","","","","","","","","","","","","",""
"","S2","","html-keyboard-response","146","284887","0.0-1.0-202.0","0","0","30270","","null","","","null","22","","NaN","","","","","","","","","","","","","",""
"","response","","html-keyboard-response","147","285245","0.0-1.0-203.0-0.0","0","0","30270","","353","","","68","22","","","1","22","training","adjacent","DC","4","3","Q.jpg","O.jpg","1","0","0","",""
"","feedback","","html-keyboard-response","148","286257","0.0-1.0-204.0-0.0","0","0","30270","","null","","","null","22","","","","","","","","","","","","","","","",""
"","time_out","","html-keyboard-response","149","288268","0.0-1.0-206.0-0.0","0","0","30270","","null","","","null","22","","","","","","","","","","","","","","","",""
"","ITI","","html-keyboard-response","150","289280","0.0-1.0-207.0","0","0","30270","","null","","","null","22","","","","","","","","","","","","","","","NaN",""
"","S1","","html-keyboard-response","151","289547","0.0-1.0-209.0","0","0","30270","","null","","","null","23","","","","","","","","","","","","","","","",""
"","ISI","","html-keyboard-response","152","290060","0.0-1.0-210.0","0","0","30270","","null","","","null","23","NaN","","","","","","","","","","","","","","",""
"","S2","","html-keyboard-response","153","290320","0.0-1.0-211.0","0","0","30270","","null","","","null","23","","NaN","","","","","","","","","","","","","",""
"","response","","html-keyboard-response","154","290909","0.0-1.0-212.0-0.0","0","0","30270","","585","","","75","23","","","1","23","training","adjacent","BA","2","1","L.jpg","M.jpg","0","0","1","",""
"","feedback","","html-keyboard-response","155","291920","0.0-1.0-213.0-0.0","0","0","30270","","null","","","null","23","","","","","","","","","","","","","","","",""
"","ITI","","html-keyboard-response","156","292928","0.0-1.0-216.0","0","0","30270","","null","","","null","23","","","","","","","","","","","","","","","NaN",""
"","S1","","html-keyboard-response","157","293194","0.0-1.0-218.0","0","0","30270","","null","","","null","24","","","","","","","","","","","","","","","",""
"","ISI","","html-keyboard-response","158","293704","0.0-1.0-219.0","0","0","30270","","null","","","null","24","NaN","","","","","","","","","","","","","","",""
"","S2","","html-keyboard-response","159","293969","0.0-1.0-220.0","0","0","30270","","null","","","null","24","","NaN","","","","","","","","","","","","","",""
"","response","","html-keyboard-response","160","294411","0.0-1.0-221.0-0.0","0","0","30270","","438","","","68","24","","","1","24","training","adjacent","FE","6","5","P.jpg","R.jpg","1","0","0","",""
"","feedback","","html-keyboard-response","161","295424","0.0-1.0-222.0-0.0","0","0","30270","","null","","","null","24","","","","","","","","","","","","","","","",""
"","time_out","","html-keyboard-response","162","297435","0.0-1.0-224.0-0.0","0","0","30270","","null","","","null","24","","","","","","","","","","","","","","","",""
"","ITI","","html-keyboard-response","163","298448","0.0-1.0-225.0","0","0","30270","","null","","","null","24","","","","","","","","","","","","","","","NaN",""
"","S1","","html-keyboard-response","164","298715","0.0-1.0-227.0","0","0","30270","","null","","","null","25","","","","","","","","","","","","","","","",""
"","ISI","","html-keyboard-response","165","299227","0.0-1.0-228.0","0","0","30270","","null","","","null","25","NaN","","","","","","","","","","","","","","",""
"","S2","","html-keyboard-response","166","299486","0.0-1.0-229.0","0","0","30270","","null","","","null","25","","NaN","","","","","","","","","","","","","",""
"","response","","html-keyboard-response","167","299861","0.0-1.0-230.0-0.0","0","0","30270","","372","","","68","25","","","1","25","training","adjacent","BC","2","3","L.jpg","O.jpg","1","1","1","",""
"","feedback","","html-keyboard-response","168","300875","0.0-1.0-231.0-0.0","0","0","30270","","null","","","null","25","","","","","","","","","","","","","","","",""
"","ITI","","html-keyboard-response","169","301887","0.0-1.0-234.0","0","0","30270","","null","","","null","25","","","","","","","","","","","","","","","NaN",""
"","S1","","html-keyboard-response","170","302144","0.0-1.0-236.0","0","0","30270","","null","","","null","26","","","","","","","","","","","","","","","",""
"","ISI","","html-keyboard-response","171","302657","0.0-1.0-237.0","0","0","30270","","null","","","null","26","NaN","","","","","","","","","","","","","","",""
"","S2","","html-keyboard-response","172","302924","0.0-1.0-238.0","0","0","30270","","null","","","null","26","","NaN","","","","","","","","","","","","","",""
"","response","","html-keyboard-response","173","303160","0.0-1.0-239.0-0.0","0","0","30270","","235","","","68","26","","","1","26","training","adjacent","AB","1","2","M.jpg","L.jpg","1","1","1","",""
"","feedback","","html-keyboard-response","174","304167","0.0-1.0-240.0-0.0","0","0","30270","","null","","","null","26","","","","","","","","","","","","","","","",""
"","ITI","","html-keyboard-response","175","305178","0.0-1.0-243.0","0","0","30270","","null","","","null","26","","","","","","","","","","","","","","","NaN",""
"","S1","","html-keyboard-response","176","305440","0.0-1.0-245.0","0","0","30270","","null","","","null","27","","","","","","","","","","","","","","","",""
"","ISI","","html-keyboard-response","177","305952","0.0-1.0-246.0","0","0","30270","","null","","","null","27","NaN","","","","","","","","","","","","","","",""
"","S2","","html-keyboard-response","178","306218","0.0-1.0-247.0","0","0","30270","","null","","","null","27","","NaN","","","","","","","","","","","","","",""
"","response","","html-keyboard-response","179","306738","0.0-1.0-248.0-0.0","0","0","30270","","515","","","68","27","","","1","27","training","adjacent","DC","4","3","Q.jpg","O.jpg","1","0","0","",""
"","feedback","","html-keyboard-response","180","307754","0.0-1.0-249.0-0.0","0","0","30270","","null","","","null","27","","","","","","","","","","","","","","","",""
"","time_out","","html-keyboard-response","181","309770","0.0-1.0-251.0-0.0","0","0","30270","","null","","","null","27","","","","","","","","","","","","","","","",""
"","ITI","","html-keyboard-response","182","310784","0.0-1.0-252.0","0","0","30270","","null","","","null","27","","","","","","","","","","","","","","","NaN",""
"","S1","","html-keyboard-response","183","311050","0.0-1.0-254.0","0","0","30270","","null","","","null","28","","","","","","","","","","","","","","","",""
"","ISI","","html-keyboard-response","184","311563","0.0-1.0-255.0","0","0","30270","","null","","","null","28","NaN","","","","","","","","","","","","","","",""
"","S2","","html-keyboard-response","185","311823","0.0-1.0-256.0","0","0","30270","","null","","","null","28","","NaN","","","","","","","","","","","","","",""
"","response","","html-keyboard-response","186","312308","0.0-1.0-257.0-0.0","0","0","30270","","480","","","68","28","","","1","28","training","adjacent","EF","5","6","R.jpg","P.jpg","1","1","1","",""
"","feedback","","html-keyboard-response","187","313323","0.0-1.0-258.0-0.0","0","0","30270","","null","","","null","28","","","","","","","","","","","","","","","",""
"","ITI","","html-keyboard-response","188","314336","0.0-1.0-261.0","0","0","30270","","null","","","null","28","","","","","","","","","","","","","","","NaN",""
"","S1","","html-keyboard-response","189","314603","0.0-1.0-263.0","0","0","30270","","null","","","null","29","","","","","","","","","","","","","","","",""
"","ISI","","html-keyboard-response","190","315113","0.0-1.0-264.0","0","0","30270","","null","","","null","29","NaN","","","","","","","","","","","","","","",""
"","S2","","html-keyboard-response","191","315376","0.0-1.0-265.0","0","0","30270","","null","","","null","29","","NaN","","","","","","","","","","","","","",""
"","response","","html-keyboard-response","192","315800","0.0-1.0-266.0-0.0","0","0","30270","","420","","","68","29","","","1","29","training","adjacent","FG","6","7","P.jpg","N.jpg","1","1","1","",""
"","feedback","","html-keyboard-response","193","316810","0.0-1.0-267.0-0.0","0","0","30270","","null","","","null","29","","","","","","","","","","","","","","","",""
"","ITI","","html-keyboard-response","194","317824","0.0-1.0-270.0","0","0","30270","","null","","","null","29","","","","","","","","","","","","","","","NaN",""
"","S1","","html-keyboard-response","195","318091","0.0-1.0-272.0","0","0","30270","","null","","","null","30","","","","","","","","","","","","","","","",""
"","ISI","","html-keyboard-response","196","318602","0.0-1.0-273.0","0","0","30270","","null","","","null","30","NaN","","","","","","","","","","","","","","",""
"","S2","","html-keyboard-response","197","318859","0.0-1.0-274.0","0","0","30270","","null","","","null","30","","NaN","","","","","","","","","","","","","",""
"","response","","html-keyboard-response","198","319325","0.0-1.0-275.0-0.0","0","0","30270","","461","","","75","30","","","1","30","training","adjacent","ED","5","4","R.jpg","Q.jpg","0","0","1","",""
"","feedback","","html-keyboard-response","199","320336","0.0-1.0-276.0-0.0","0","0","30270","","null","","","null","30","","","","","","","","","","","","","","","",""
"","ITI","","html-keyboard-response","200","321343","0.0-1.0-279.0","0","0","30270","","null","","","null","30","","","","","","","","","","","","","","","NaN",""
"","S1","","html-keyboard-response","201","321610","0.0-1.0-281.0","0","0","30270","","null","","","null","31","","","","","","","","","","","","","","","",""
"","ISI","","html-keyboard-response","202","322122","0.0-1.0-282.0","0","0","30270","","null","","","null","31","NaN","","","","","","","","","","","","","","",""
"","S2","","html-keyboard-response","203","322383","0.0-1.0-283.0","0","0","30270","","null","","","null","31","","NaN","","","","","","","","","","","","","",""
"","response","","html-keyboard-response","204","322792","0.0-1.0-284.0-0.0","0","0","30270","","406","","","68","31","","","1","31","training","adjacent","BA","2","1","L.jpg","M.jpg","1","0","0","",""
"","feedback","","html-keyboard-response","205","323801","0.0-1.0-285.0-0.0","0","0","30270","","null","","","null","31","","","","","","","","","","","","","","","",""
"","time_out","","html-keyboard-response","206","325818","0.0-1.0-287.0-0.0","0","0","30270","","null","","","null","31","","","","","","","","","","","","","","","",""
"","ITI","","html-keyboard-response","207","326831","0.0-1.0-288.0","0","0","30270","","null","","","null","31","","","","","","","","","","","","","","","NaN",""
"","S1","","html-keyboard-response","208","327098","0.0-1.0-290.0","0","0","30270","","null","","","null","32","","","","","","","","","","","","","","","",""
"","ISI","","html-keyboard-response","209","327610","0.0-1.0-291.0","0","0","30270","","null","","","null","32","NaN","","","","","","","","","","","","","","",""
"","S2","","html-keyboard-response","210","327871","0.0-1.0-292.0","0","0","30270","","null","","","null","32","","NaN","","","","","","","","","","","","","",""
"","response","","html-keyboard-response","211","328346","0.0-1.0-293.0-0.0","0","0","30270","","470","","","75","32","","","1","32","training","adjacent","ED","5","4","R.jpg","Q.jpg","0","0","1","",""
"","feedback","","html-keyboard-response","212","329359","0.0-1.0-294.0-0.0","0","0","30270","","null","","","null","32","","","","","","","","","","","","","","","",""
"","ITI","","html-keyboard-response","213","330367","0.0-1.0-297.0","0","0","30270","","null","","","null","32","","","","","","","","","","","","","","","NaN",""
"","S1","","html-keyboard-response","214","330633","0.0-1.0-299.0","0","0","30270","","null","","","null","33","","","","","","","","","","","","","","","",""
"","ISI","","html-keyboard-response","215","331146","0.0-1.0-300.0","0","0","30270","","null","","","null","33","NaN","","","","","","","","","","","","","","",""
"","S2","","html-keyboard-response","216","331407","0.0-1.0-301.0","0","0","30270","","null","","","null","33","","NaN","","","","","","","","","","","","","",""
"","response","","html-keyboard-response","217","331837","0.0-1.0-302.0-0.0","0","0","30270","","428","","","68","33","","","1","33","training","adjacent","DC","4","3","Q.jpg","O.jpg","1","0","0","",""
"","feedback","","html-keyboard-response","218","332847","0.0-1.0-303.0-0.0","0","0","30270","","null","","","null","33","","","","","","","","","","","","","","","",""
"","time_out","","html-keyboard-response","219","334858","0.0-1.0-305.0-0.0","0","0","30270","","null","","","null","33","","","","","","","","","","","","","","","",""
"","ITI","","html-keyboard-response","220","335868","0.0-1.0-306.0","0","0","30270","","null","","","null","33","","","","","","","","","","","","","","","NaN",""
"","S1","","html-keyboard-response","221","336127","0.0-1.0-308.0","0","0","30270","","null","","","null","34","","","","","","","","","","","","","","","",""
"","ISI","","html-keyboard-response","222","336638","0.0-1.0-309.0","0","0","30270","","null","","","null","34","NaN","","","","","","","","","","","","","","",""
"","S2","","html-keyboard-response","223","336895","0.0-1.0-310.0","0","0","30270","","null","","","null","34","","NaN","","","","","","","","","","","","","",""
"","response","","html-keyboard-response","224","337248","0.0-1.0-311.0-0.0","0","0","30270","","349","","","75","34","","","1","34","training","adjacent","GF","7","6","N.jpg","P.jpg","0","0","1","",""
"","feedback","","html-keyboard-response","225","338266","0.0-1.0-312.0-0.0","0","0","30270","","null","","","null","34","","","","","","","","","","","","","","","",""
"","ITI","","html-keyboard-response","226","339279","0.0-1.0-315.0","0","0","30270","","null","","","null","34","","","","","","","","","","","","","","","NaN",""
"","S1","","html-keyboard-response","227","339546","0.0-1.0-317.0","0","0","30270","","null","","","null","35","","","","","","","","","","","","","","","",""
"","ISI","","html-keyboard-response","228","340058","0.0-1.0-318.0","0","0","30270","","null","","","null","35","NaN","","","","","","","","","","","","","","",""
"","S2","","html-keyboard-response","229","340319","0.0-1.0-319.0","0","0","30270","","null","","","null","35","","NaN","","","","","","","","","","","","","",""
"","response","","html-keyboard-response","230","340784","0.0-1.0-320.0-0.0","0","0","30270","","461","","","68","35","","","1","35","training","adjacent","DE","4","5","Q.jpg","R.jpg","1","1","1","",""
"","feedback","","html-keyboard-response","231","341801","0.0-1.0-321.0-0.0","0","0","30270","","null","","","null","35","","","","","","","","","","","","","","","",""
"","ITI","","html-keyboard-response","232","342815","0.0-1.0-324.0","0","0","30270","","null","","","null","35","","","","","","","","","","","","","","","NaN",""
"","S1","","html-keyboard-response","233","343081","0.0-1.0-326.0","0","0","30270","","null","","","null","36","","","","","","","","","","","","","","","",""
"","ISI","","html-keyboard-response","234","343593","0.0-1.0-327.0","0","0","30270","","null","","","null","36","NaN","","","","","","","","","","","","","","",""
"","S2","","html-keyboard-response","235","343854","0.0-1.0-328.0","0","0","30270","","null","","","null","36","","NaN","","","","","","","","","","","","","",""
"","response","","html-keyboard-response","236","344218","0.0-1.0-329.0-0.0","0","0","30270","","361","","","68","36","","","1","36","training","adjacent","FE","6","5","P.jpg","R.jpg","1","0","0","",""
"","feedback","","html-keyboard-response","237","345231","0.0-1.0-330.0-0.0","0","0","30270","","null","","","null","36","","","","","","","","","","","","","","","",""
"","time_out","","html-keyboard-response","238","347241","0.0-1.0-332.0-0.0","0","0","30270","","null","","","null","36","","","","","","","","","","","","","","","",""
"","ITI","","html-keyboard-response","239","348254","0.0-1.0-333.0","0","0","30270","","null","","","null","36","","","","","","","","","","","","","","","NaN",""
"","S1","","html-keyboard-response","240","348521","0.0-1.0-335.0","0","0","30270","","null","","","null","37","","","","","","","","","","","","","","","",""
"","ISI","","html-keyboard-response","241","349025","0.0-1.0-336.0","0","0","30270","","null","","","null","37","NaN","","","","","","","","","","","","","","",""
"","S2","","html-keyboard-response","242","349286","0.0-1.0-337.0","0","0","30270","","null","","","null","37","","NaN","","","","","","","","","","","","","",""
"","response","","html-keyboard-response","243","349492","0.0-1.0-338.0-0.0","0","0","30270","","201","","","68","37","","","1","37","training","adjacent","BA","2","1","L.jpg","M.jpg","1","0","0","",""
"","feedback","","html-keyboard-response","244","350505","0.0-1.0-339.0-0.0","0","0","30270","","null","","","null","37","","","","","","","","","","","","","","","",""
"","time_out","","html-keyboard-response","245","352521","0.0-1.0-341.0-0.0","0","0","30270","","null","","","null","37","","","","","","","","","","","","","","","",""
"","ITI","","html-keyboard-response","246","353534","0.0-1.0-342.0","0","0","30270","","null","","","null","37","","","","","","","","","","","","","","","NaN",""
"","S1","","html-keyboard-response","247","353801","0.0-1.0-344.0","0","0","30270","","null","","","null","38","","","","","","","","","","","","","","","",""
"","ISI","","html-keyboard-response","248","354312","0.0-1.0-345.0","0","0","30270","","null","","","null","38","NaN","","","","","","","","","","","","","","",""
"","S2","","html-keyboard-response","249","354574","0.0-1.0-346.0","0","0","30270","","null","","","null","38","","NaN","","","","","","","","","","","","","",""
"","response","","html-keyboard-response","250","354937","0.0-1.0-347.0-0.0","0","0","30270","","360","","","68","38","","","1","38","training","adjacent","BC","2","3","L.jpg","O.jpg","1","1","1","",""
"","feedback","","html-keyboard-response","251","355949","0.0-1.0-348.0-0.0","0","0","30270","","null","","","null","38","","","","","","","","","","","","","","","",""
"","ITI","","html-keyboard-response","252","356958","0.0-1.0-351.0","0","0","30270","","null","","","null","38","","","","","","","","","","","","","","","NaN",""
"","S1","","html-keyboard-response","253","357225","0.0-1.0-353.0","0","0","30270","","null","","","null","39","","","","","","","","","","","","","","","",""
"","ISI","","html-keyboard-response","254","357736","0.0-1.0-354.0","0","0","30270","","null","","","null","39","NaN","","","","","","","","","","","","","","",""
"","S2","","html-keyboard-response","255","357998","0.0-1.0-355.0","0","0","30270","","null","","","null","39","","NaN","","","","","","","","","","","","","",""
"","response","","html-keyboard-response","256","358579","0.0-1.0-356.0-0.0","0","0","30270","","577","","","68","39","","","1","39","training","adjacent","AB","1","2","M.jpg","L.jpg","1","1","1","",""
"","feedback","","html-keyboard-response","257","359593","0.0-1.0-357.0-0.0","0","0","30270","","null","","","null","39","","","","","","","","","","","","","","","",""
"","ITI","","html-keyboard-response","258","360609","0.0-1.0-360.0","0","0","30270","","null","","","null","39","","","","","","","","","","","","","","","NaN",""
"","S1","","html-keyboard-response","259","360872","0.0-1.0-362.0","0","0","30270","","null","","","null","40","","","","","","","","","","","","","","","",""
"","ISI","","html-keyboard-response","260","361384","0.0-1.0-363.0","0","0","30270","","null","","","null","40","NaN","","","","","","","","","","","","","","",""
"","S2","","html-keyboard-response","261","361645","0.0-1.0-364.0","0","0","30270","","null","","","null","40","","NaN","","","","","","","","","","","","","",""
"","response","","html-keyboard-response","262","361868","0.0-1.0-365.0-0.0","0","0","30270","","219","","","75","40","","","1","40","training","adjacent","EF","5","6","R.jpg","P.jpg","0","1","0","",""
"","feedback","","html-keyboard-response","263","362878","0.0-1.0-366.0-0.0","0","0","30270","","null","","","null","40","","","","","","","","","","","","","","","",""
"","time_out","","html-keyboard-response","264","364888","0.0-1.0-368.0-0.0","0","0","30270","","null","","","null","40","","","","","","","","","","","","","","","",""
"","ITI","","html-keyboard-response","265","365901","0.0-1.0-369.0","0","0","30270","","null","","","null","40","","","","","","","","","","","","","","","NaN",""
"","S1","","html-keyboard-response","266","366168","0.0-1.0-371.0","0","0","30270","","null","","","null","41","","","","","","","","","","","","","","","",""
"","ISI","","html-keyboard-response","267","366680","0.0-1.0-372.0","0","0","30270","","null","","","null","41","NaN","","","","","","","","","","","","","","",""
"","S2","","html-keyboard-response","268","366941","0.0-1.0-373.0","0","0","30270","","null","","","null","41","","NaN","","","","","","","","","","","","","",""
"","response","","html-keyboard-response","269","367206","0.0-1.0-374.0-0.0","0","0","30270","","261","","","75","41","","","1","41","training","adjacent","EF","5","6","R.jpg","P.jpg","0","1","0","",""
"","feedback","","html-keyboard-response","270","368216","0.0-1.0-375.0-0.0","0","0","30270","","null","","","null","41","","","","","","","","","","","","","","","",""
"","time_out","","html-keyboard-response","271","370232","0.0-1.0-377.0-0.0","0","0","30270","","null","","","null","41","","","","","","","","","","","","","","","",""
"","ITI","","html-keyboard-response","272","371245","0.0-1.0-378.0","0","0","30270","","null","","","null","41","","","","","","","","","","","","","","","NaN",""
"","S1","","html-keyboard-response","273","371512","0.0-1.0-380.0","0","0","30270","","null","","","null","42","","","","","","","","","","","","","","","",""
"","ISI","","html-keyboard-response","274","372024","0.0-1.0-381.0","0","0","30270","","null","","","null","42","NaN","","","","","","","","","","","","","","",""
"","S2","","html-keyboard-response","275","372286","0.0-1.0-382.0","0","0","30270","","null","","","null","42","","NaN","","","","","","","","","","","","","",""
"","response","","html-keyboard-response","276","372615","0.0-1.0-383.0-0.0","0","0","30270","","326","","","75","42","","","1","42","training","adjacent","ED","5","4","R.jpg","Q.jpg","0","0","1","",""
"","feedback","","html-keyboard-response","277","373629","0.0-1.0-384.0-0.0","0","0","30270","","null","","","null","42","","","","","","","","","","","","","","","",""
"","ITI","","html-keyboard-response","278","374637","0.0-1.0-387.0","0","0","30270","","null","","","null","42","","","","","","","","","","","","","","","NaN",""
"","S1","","html-keyboard-response","279","374904","0.0-1.0-389.0","0","0","30270","","null","","","null","43","","","","","","","","","","","","","","","",""
"","ISI","","html-keyboard-response","280","375416","0.0-1.0-390.0","0","0","30270","","null","","","null","43","NaN","","","","","","","","","","","","","","",""
"","S2","","html-keyboard-response","281","375677","0.0-1.0-391.0","0","0","30270","","null","","","null","43","","NaN","","","","","","","","","","","","","",""
"","response","","html-keyboard-response","282","375921","0.0-1.0-392.0-0.0","0","0","30270","","241","","","75","43","","","1","43","training","adjacent","CD","3","4","O.jpg","Q.jpg","0","1","0","",""
"","feedback","","html-keyboard-response","283","376935","0.0-1.0-393.0-0.0","0","0","30270","","null","","","null","43","","","","","","","","","","","","","","","",""
"","time_out","","html-keyboard-response","284","378952","0.0-1.0-395.0-0.0","0","0","30270","","null","","","null","43","","","","","","","","","","","","","","","",""
"","ITI","","html-keyboard-response","285","379965","0.0-1.0-396.0","0","0","30270","","null","","","null","43","","","","","","","","","","","","","","","NaN",""
"","S1","","html-keyboard-response","286","380229","0.0-1.0-398.0","0","0","30270","","null","","","null","44","","","","","","","","","","","","","","","",""
"","ISI","","html-keyboard-response","287","380743","0.0-1.0-399.0","0","0","30270","","null","","","null","44","NaN","","","","","","","","","","","","","","",""
"","S2","","html-keyboard-response","288","381005","0.0-1.0-400.0","0","0","30270","","null","","","null","44","","NaN","","","","","","","","","","","","","",""
"","response","","html-keyboard-response","289","381412","0.0-1.0-401.0-0.0","0","0","30270","","403","","","68","44","","","1","44","training","adjacent","BC","2","3","L.jpg","O.jpg","1","1","1","",""
"","feedback","","html-keyboard-response","290","382424","0.0-1.0-402.0-0.0","0","0","30270","","null","","","null","44","","","","","","","","","","","","","","","",""
"","ITI","","html-keyboard-response","291","383437","0.0-1.0-405.0","0","0","30270","","null","","","null","44","","","","","","","","","","","","","","","NaN",""
"","S1","","html-keyboard-response","292","383703","0.0-1.0-407.0","0","0","30270","","null","","","null","45","","","","","","","","","","","","","","","",""
"","ISI","","html-keyboard-response","293","384213","0.0-1.0-408.0","0","0","30270","","null","","","null","45","NaN","","","","","","","","","","","","","","",""
"","S2","","html-keyboard-response","294","384477","0.0-1.0-409.0","0","0","30270","","null","","","null","45","","NaN","","","","","","","","","","","","","",""
"","response","","html-keyboard-response","295","384846","0.0-1.0-410.0-0.0","0","0","30270","","366","","","68","45","","","1","45","training","adjacent","DC","4","3","Q.jpg","O.jpg","1","0","0","",""
"","feedback","","html-keyboard-response","296","385863","0.0-1.0-411.0-0.0","0","0","30270","","null","","","null","45","","","","","","","","","","","","","","","",""
"","time_out","","html-keyboard-response","297","387879","0.0-1.0-413.0-0.0","0","0","30270","","null","","","null","45","","","","","","","","","","","","","","","",""
"","ITI","","html-keyboard-response","298","388891","0.0-1.0-414.0","0","0","30270","","null","","","null","45","","","","","","","","","","","","","","","NaN",""
"","S1","","html-keyboard-response","299","389148","0.0-1.0-416.0","0","0","30270","","null","","","null","46","","","","","","","","","","","","","","","",""
"","ISI","","html-keyboard-response","300","389660","0.0-1.0-417.0","0","0","30270","","null","","","null","46","NaN","","","","","","","","","","","","","","",""
"","S2","","html-keyboard-response","301","389927","0.0-1.0-418.0","0","0","30270","","null","","","null","46","","NaN","","","","","","","","","","","","","",""
"","response","","html-keyboard-response","302","390330","0.0-1.0-419.0-0.0","0","0","30270","","399","","","68","46","","","1","46","training","adjacent","FG","6","7","P.jpg","N.jpg","1","1","1","",""
"","feedback","","html-keyboard-response","303","391340","0.0-1.0-420.0-0.0","0","0","30270","","null","","","null","46","","","","","","","","","","","","","","","",""
"","ITI","","html-keyboard-response","304","392346","0.0-1.0-423.0","0","0","30270","","null","","","null","46","","","","","","","","","","","","","","","NaN",""
"","S1","","html-keyboard-response","305","392604","0.0-1.0-425.0","0","0","30270","","null","","","null","47","","","","","","","","","","","","","","","",""
"","ISI","","html-keyboard-response","306","393116","0.0-1.0-426.0","0","0","30270","","null","","","null","47","NaN","","","","","","","","","","","","","","",""
"","S2","","html-keyboard-response","307","393383","0.0-1.0-427.0","0","0","30270","","null","","","null","47","","NaN","","","","","","","","","","","","","",""
"","response","","html-keyboard-response","308","393581","0.0-1.0-428.0-0.0","0","0","30270","","193","","","75","47","","","1","47","training","adjacent","FG","6","7","P.jpg","N.jpg","0","1","0","",""
"","feedback","","html-keyboard-response","309","394588","0.0-1.0-429.0-0.0","0","0","30270","","null","","","null","47","","","","","","","","","","","","","","","",""
"","time_out","","html-keyboard-response","310","396599","0.0-1.0-431.0-0.0","0","0","30270","","null","","","null","47","","","","","","","","","","","","","","","",""
"","ITI","","html-keyboard-response","311","397612","0.0-1.0-432.0","0","0","30270","","null","","","null","47","","","","","","","","","","","","","","","NaN",""
"","block_over","","html-keyboard-response","312","502179","0.0-1.0-433.0-0.0","0","0","30270","","104562","","","32","47","","","","","","","","","","","","","","","",""
"","S1","","html-keyboard-response","313","502440","0.0-1.0-434.0","0","0","30270","","null","","","null","48","","","","","","","","","","","","","","","",""
"","ISI","","html-keyboard-response","314","502952","0.0-1.0-435.0","0","0","30270","","null","","","null","48","NaN","","","","","","","","","","","","","","",""
"","S2","","html-keyboard-response","315","503218","0.0-1.0-436.0","0","0","30270","","null","","","null","48","","NaN","","","","","","","","","","","","","",""
"","response","","html-keyboard-response","316","503857","0.0-1.0-437.0-0.0","0","0","30270","","637","","","75","48","","","2","48","training","adjacent","BA","2","1","L.jpg","M.jpg","0","0","1","",""
"","feedback","","html-keyboard-response","317","504872","0.0-1.0-438.0-0.0","0","0","30270","","null","","","null","48","","","","","","","","","","","","","","","",""
"","ITI","","html-keyboard-response","318","505879","0.0-1.0-441.0","0","0","30270","","null","","","null","48","","","","","","","","","","","","","","","NaN",""
"","S1","","html-keyboard-response","319","506147","0.0-1.0-443.0","0","0","30270","","null","","","null","49","","","","","","","","","","","","","","","",""
"","ISI","","html-keyboard-response","320","506658","0.0-1.0-444.0","0","0","30270","","null","","","null","49","NaN","","","","","","","","","","","","","","",""
"","S2","","html-keyboard-response","321","506919","0.0-1.0-445.0","0","0","30270","","null","","","null","49","","NaN","","","","","","","","","","","","","",""
"","response","","html-keyboard-response","322","507459","0.0-1.0-446.0-0.0","0","0","30270","","535","","","75","49","","","2","49","training","adjacent","FE","6","5","P.jpg","R.jpg","0","0","1","",""
"","feedback","","html-keyboard-response","323","508471","0.0-1.0-447.0-0.0","0","0","30270","","null","","","null","49","","","","","","","","","","","","","","","",""
"","ITI","","html-keyboard-response","324","509480","0.0-1.0-450.0","0","0","30270","","null","","","null","49","","","","","","","","","","","","","","","NaN",""
"","S1","","html-keyboard-response","325","509746","0.0-1.0-452.0","0","0","30270","","null","","","null","50","","","","","","","","","","","","","","","",""
"","ISI","","html-keyboard-response","326","510255","0.0-1.0-453.0","0","0","30270","","null","","","null","50","NaN","","","","","","","","","","","","","","",""
"","S2","","html-keyboard-response","327","510519","0.0-1.0-454.0","0","0","30270","","null","","","null","50","","NaN","","","","","","","","","","","","","",""
"","response","","html-keyboard-response","328","510774","0.0-1.0-455.0-0.0","0","0","30270","","250","","","68","50","","","2","50","training","adjacent","FG","6","7","P.jpg","N.jpg","1","1","1","",""
"","feedback","","html-keyboard-response","329","511783","0.0-1.0-456.0-0.0","0","0","30270","","null","","","null","50","","","","","","","","","","","","","","","",""
"","ITI","","html-keyboard-response","330","512791","0.0-1.0-459.0","0","0","30270","","null","","","null","50","","","","","","","","","","","","","","","NaN",""
"","S1","","html-keyboard-response","331","513053","0.0-1.0-461.0","0","0","30270","","null","","","null","51","","","","","","","","","","","","","","","",""
"","ISI","","html-keyboard-response","332","513559","0.0-1.0-462.0","0","0","30270","","null","","","null","51","NaN","","","","","","","","","","","","","","",""
"","S2","","html-keyboard-response","333","513826","0.0-1.0-463.0","0","0","30270","","null","","","null","51","","NaN","","","","","","","","","","","","","",""
"","response","","html-keyboard-response","334","514080","0.0-1.0-464.0-0.0","0","0","30270","","252","","","68","51","","","2","51","training","adjacent","DC","4","3","Q.jpg","O.jpg","1","0","0","",""
"","feedback","","html-keyboard-response","335","515090","0.0-1.0-465.0-0.0","0","0","30270","","null","","","null","51","","","","","","","","","","","","","","","",""
"","time_out","","html-keyboard-response","336","517105","0.0-1.0-467.0-0.0","0","0","30270","","null","","","null","51","","","","","","","","","","","","","","","",""
"","ITI","","html-keyboard-response","337","518119","0.0-1.0-468.0","0","0","30270","","null","","","null","51","","","","","","","","","","","","","","","NaN",""
"","S1","","html-keyboard-response","338","518386","0.0-1.0-470.0","0","0","30270","","null","","","null","52","","","","","","","","","","","","","","","",""
"","ISI","","html-keyboard-response","339","518898","0.0-1.0-471.0","0","0","30270","","null","","","null","52","NaN","","","","","","","","","","","","","","",""
"","S2","","html-keyboard-response","340","519159","0.0-1.0-472.0","0","0","30270","","null","","","null","52","","NaN","","","","","","","","","","","","","",""
"","response","","html-keyboard-response","341","519670","0.0-1.0-473.0-0.0","0","0","30270","","506","","","68","52","","","2","52","training","adjacent","BC","2","3","L.jpg","O.jpg","1","1","1","",""
"","feedback","","html-keyboard-response","342","520679","0.0-1.0-474.0-0.0","0","0","30270","","null","","","null","52","","","","","","","","","","","","","","","",""
"","ITI","","html-keyboard-response","343","521687","0.0-1.0-477.0","0","0","30270","","null","","","null","52","","","","","","","","","","","","","","","NaN",""
"","S1","","html-keyboard-response","344","521953","0.0-1.0-479.0","0","0","30270","","null","","","null","53","","","","","","","","","","","","","","","",""
"","ISI","","html-keyboard-response","345","522465","0.0-1.0-480.0","0","0","30270","","null","","","null","53","NaN","","","","","","","","","","","","","","",""
"","S2","","html-keyboard-response","346","522727","0.0-1.0-481.0","0","0","30270","","null","","","null","53","","NaN","","","","","","","","","","","","","",""
"","response","","html-keyboard-response","347","523255","0.0-1.0-482.0-0.0","0","0","30270","","524","","","68","53","","","2","53","training","adjacent","DE","4","5","Q.jpg","R.jpg","1","1","1","",""
"","feedback","","html-keyboard-response","348","524263","0.0-1.0-483.0-0.0","0","0","30270","","null","","","null","53","","","","","","","","","","","","","","","",""
"","ITI","","html-keyboard-response","349","525271","0.0-1.0-486.0","0","0","30270","","null","","","null","53","","","","","","","","","","","","","","","NaN",""
"","S1","","html-keyboard-response","350","525535","0.0-1.0-488.0","0","0","30270","","null","","","null","54","","","","","","","","","","","","","","","",""
"","ISI","","html-keyboard-response","351","526050","0.0-1.0-489.0","0","0","30270","","null","","","null","54","NaN","","","","","","","","","","","","","","",""
"","S2","","html-keyboard-response","352","526311","0.0-1.0-490.0","0","0","30270","","null","","","null","54","","NaN","","","","","","","","","","","","","",""
"","response","","html-keyboard-response","353","526964","0.0-1.0-491.0-0.0","0","0","30270","","651","","","68","54","","","2","54","training","adjacent","FG","6","7","P.jpg","N.jpg","1","1","1","",""
"","feedback","","html-keyboard-response","354","527977","0.0-1.0-492.0-0.0","0","0","30270","","null","","","null","54","","","","","","","","","","","","","","","",""
"","ITI","","html-keyboard-response","355","528985","0.0-1.0-495.0","0","0","30270","","null","","","null","54","","","","","","","","","","","","","","","NaN",""
"","S1","","html-keyboard-response","356","529252","0.0-1.0-497.0","0","0","30270","","null","","","null","55","","","","","","","","","","","","","","","",""
"","ISI","","html-keyboard-response","357","529764","0.0-1.0-498.0","0","0","30270","","null","","","null","55","NaN","","","","","","","","","","","","","","",""
"","S2","","html-keyboard-response","358","530026","0.0-1.0-499.0","0","0","30270","","null","","","null","55","","NaN","","","","","","","","","","","","","",""
"","response","","html-keyboard-response","359","530413","0.0-1.0-500.0-0.0","0","0","30270","","382","","","75","55","","","2","55","training","adjacent","AB","1","2","M.jpg","L.jpg","0","1","0","",""
"","feedback","","html-keyboard-response","360","531430","0.0-1.0-501.0-0.0","0","0","30270","","null","","","null","55","","","","","","","","","","","","","","","",""
"","time_out","","html-keyboard-response","361","533447","0.0-1.0-503.0-0.0","0","0","30270","","null","","","null","55","","","","","","","","","","","","","","","",""
"","ITI","","html-keyboard-response","362","534462","0.0-1.0-504.0","0","0","30270","","null","","","null","55","","","","","","","","","","","","","","","NaN",""
"","S1","","html-keyboard-response","363","534729","0.0-1.0-506.0","0","0","30270","","null","","","null","56","","","","","","","","","","","","","","","",""
"","ISI","","html-keyboard-response","364","535241","0.0-1.0-507.0","0","0","30270","","null","","","null","56","NaN","","","","","","","","","","","","","","",""
"","S2","","html-keyboard-response","365","535503","0.0-1.0-508.0","0","0","30270","","null","","","null","56","","NaN","","","","","","","","","","","","","",""
"","response","","html-keyboard-response","366","535905","0.0-1.0-509.0-0.0","0","0","30270","","399","","","68","56","","","2","56","training","adjacent","BC","2","3","L.jpg","O.jpg","1","1","1","",""
"","feedback","","html-keyboard-response","367","536921","0.0-1.0-510.0-0.0","0","0","30270","","null","","","null","56","","","","","","","","","","","","","","","",""
"","ITI","","html-keyboard-response","368","537935","0.0-1.0-513.0","0","0","30270","","null","","","null","56","","","","","","","","","","","","","","","NaN",""
"","S1","","html-keyboard-response","369","538202","0.0-1.0-515.0","0","0","30270","","null","","","null","57","","","","","","","","","","","","","","","",""
"","ISI","","html-keyboard-response","370","538715","0.0-1.0-516.0","0","0","30270","","null","","","null","57","NaN","","","","","","","","","","","","","","",""
"","S2","","html-keyboard-response","371","538975","0.0-1.0-517.0","0","0","30270","","null","","","null","57","","NaN","","","","","","","","","","","","","",""
"","response","","html-keyboard-response","372","539205","0.0-1.0-518.0-0.0","0","0","30270","","226","","","68","57","","","2","57","training","adjacent","ED","5","4","R.jpg","Q.jpg","1","0","0","",""
"","feedback","","html-keyboard-response","373","540218","0.0-1.0-519.0-0.0","0","0","30270","","null","","","null","57","","","","","","","","","","","","","","","",""
"","time_out","","html-keyboard-response","374","542236","0.0-1.0-521.0-0.0","0","0","30270","","null","","","null","57","","","","","","","","","","","","","","","",""
"","ITI","","html-keyboard-response","375","543249","0.0-1.0-522.0","0","0","30270","","null","","","null","57","","","","","","","","","","","","","","","NaN",""
"","S1","","html-keyboard-response","376","543515","0.0-1.0-524.0","0","0","30270","","null","","","null","58","","","","","","","","","","","","","","","",""
"","ISI","","html-keyboard-response","377","544029","0.0-1.0-525.0","0","0","30270","","null","","","null","58","NaN","","","","","","","","","","","","","","",""
"","S2","","html-keyboard-response","378","544290","0.0-1.0-526.0","0","0","30270","","null","","","null","58","","NaN","","","","","","","","","","","","","",""
"","response","","html-keyboard-response","379","544498","0.0-1.0-527.0-0.0","0","0","30270","","203","","","75","58","","","2","58","training","adjacent","GF","7","6","N.jpg","P.jpg","0","0","1","",""
"","feedback","","html-keyboard-response","380","545506","0.0-1.0-528.0-0.0","0","0","30270","","null","","","null","58","","","","","","","","","","","","","","","",""
"","ITI","","html-keyboard-response","381","546515","0.0-1.0-531.0","0","0","30270","","null","","","null","58","","","","","","","","","","","","","","","NaN",""
"","S1","","html-keyboard-response","382","546782","0.0-1.0-533.0","0","0","30270","","null","","","null","59","","","","","","","","","","","","","","","",""
"","ISI","","html-keyboard-response","383","547294","0.0-1.0-534.0","0","0","30270","","null","","","null","59","NaN","","","","","","","","","","","","","","",""
"","S2","","html-keyboard-response","384","547554","0.0-1.0-535.0","0","0","30270","","null","","","null","59","","NaN","","","","","","","","","","","","","",""
"","response","","html-keyboard-response","385","548070","0.0-1.0-536.0-0.0","0","0","30270","","512","","","68","59","","","2","59","training","adjacent","EF","5","6","R.jpg","P.jpg","1","1","1","",""
"","feedback","","html-keyboard-response","386","549086","0.0-1.0-537.0-0.0","0","0","30270","","null","","","null","59","","","","","","","","","","","","","","","",""
"","ITI","","html-keyboard-response","387","550099","0.0-1.0-540.0","0","0","30270","","null","","","null","59","","","","","","","","","","","","","","","NaN",""
"","S1","","html-keyboard-response","388","550366","0.0-1.0-542.0","0","0","30270","","null","","","null","60","","","","","","","","","","","","","","","",""
"","ISI","","html-keyboard-response","389","550878","0.0-1.0-543.0","0","0","30270","","null","","","null","60","NaN","","","","","","","","","","","","","","",""
"","S2","","html-keyboard-response","390","551139","0.0-1.0-544.0","0","0","30270","","null","","","null","60","","NaN","","","","","","","","","","","","","",""
"","response","","html-keyboard-response","391","551660","0.0-1.0-545.0-0.0","0","0","30270","","516","","","75","60","","","2","60","training","adjacent","BA","2","1","L.jpg","M.jpg","0","0","1","",""
"","feedback","","html-keyboard-response","392","552670","0.0-1.0-546.0-0.0","0","0","30270","","null","","","null","60","","","","","","","","","","","","","","","",""
"","ITI","","html-keyboard-response","393","553683","0.0-1.0-549.0","0","0","30270","","null","","","null","60","","","","","","","","","","","","","","","NaN",""
"","S1","","html-keyboard-response","394","553951","0.0-1.0-551.0","0","0","30270","","null","","","null","61","","","","","","","","","","","","","","","",""
"","ISI","","html-keyboard-response","395","554463","0.0-1.0-552.0","0","0","30270","","null","","","null","61","NaN","","","","","","","","","","","","","","",""
"","S2","","html-keyboard-response","396","554724","0.0-1.0-553.0","0","0","30270","","null","","","null","61","","NaN","","","","","","","","","","","","","",""
"","response","","html-keyboard-response","397","554951","0.0-1.0-554.0-0.0","0","0","30270","","223","","","75","61","","","2","61","training","adjacent","ED","5","4","R.jpg","Q.jpg","0","0","1","",""
"","feedback","","html-keyboard-response","398","555967","0.0-1.0-555.0-0.0","0","0","30270","","null","","","null","61","","","","","","","","","","","","","","","",""
"","ITI","","html-keyboard-response","399","556981","0.0-1.0-558.0","0","0","30270","","null","","","null","61","","","","","","","","","","","","","","","NaN",""
"","S1","","html-keyboard-response","400","557247","0.0-1.0-560.0","0","0","30270","","null","","","null","62","","","","","","","","","","","","","","","",""
"","ISI","","html-keyboard-response","401","557759","0.0-1.0-561.0","0","0","30270","","null","","","null","62","NaN","","","","","","","","","","","","","","",""
"","S2","","html-keyboard-response","402","558020","0.0-1.0-562.0","0","0","30270","","null","","","null","62","","NaN","","","","","","","","","","","","","",""
"","response","","html-keyboard-response","403","558169","0.0-1.0-563.0-0.0","0","0","30270","","145","","","75","62","","","2","62","training","adjacent","DC","4","3","Q.jpg","O.jpg","0","0","1","",""
"","feedback","","html-keyboard-response","404","559183","0.0-1.0-564.0-0.0","0","0","30270","","null","","","null","62","","","","","","","","","","","","","","","",""
"","ITI","","html-keyboard-response","405","560194","0.0-1.0-567.0","0","0","30270","","null","","","null","62","","","","","","","","","","","","","","","NaN",""
"","S1","","html-keyboard-response","406","560453","0.0-1.0-569.0","0","0","30270","","null","","","null","63","","","","","","","","","","","","","","","",""
"","ISI","","html-keyboard-response","407","560965","0.0-1.0-570.0","0","0","30270","","null","","","null","63","NaN","","","","","","","","","","","","","","",""
"","S2","","html-keyboard-response","408","561231","0.0-1.0-571.0","0","0","30270","","null","","","null","63","","NaN","","","","","","","","","","","","","",""
"","response","","html-keyboard-response","409","561508","0.0-1.0-572.0-0.0","0","0","30270","","272","","","68","63","","","2","63","training","adjacent","BC","2","3","L.jpg","O.jpg","1","1","1","",""
"","feedback","","html-keyboard-response","410","562517","0.0-1.0-573.0-0.0","0","0","30270","","null","","","null","63","","","","","","","","","","","","","","","",""
"","ITI","","html-keyboard-response","411","563524","0.0-1.0-576.0","0","0","30270","","null","","","null","63","","","","","","","","","","","","","","","NaN",""
"","S1","","html-keyboard-response","412","563791","0.0-1.0-578.0","0","0","30270","","null","","","null","64","","","","","","","","","","","","","","","",""
"","ISI","","html-keyboard-response","413","564304","0.0-1.0-579.0","0","0","30270","","null","","","null","64","NaN","","","","","","","","","","","","","","",""
"","S2","","html-keyboard-response","414","564565","0.0-1.0-580.0","0","0","30270","","null","","","null","64","","NaN","","","","","","","","","","","","","",""
"","response","","html-keyboard-response","415","564863","0.0-1.0-581.0-0.0","0","0","30270","","294","","","75","64","","","2","64","training","adjacent","BA","2","1","L.jpg","M.jpg","0","0","1","",""
"","feedback","","html-keyboard-response","416","565874","0.0-1.0-582.0-0.0","0","0","30270","","null","","","null","64","","","","","","","","","","","","","","","",""
"","ITI","","html-keyboard-response","417","566885","0.0-1.0-585.0","0","0","30270","","null","","","null","64","","","","","","","","","","","","","","","NaN",""
"","S1","","html-keyboard-response","418","567152","0.0-1.0-587.0","0","0","30270","","null","","","null","65","","","","","","","","","","","","","","","",""
"","ISI","","html-keyboard-response","419","567664","0.0-1.0-588.0","0","0","30270","","null","","","null","65","NaN","","","","","","","","","","","","","","",""
"","S2","","html-keyboard-response","420","567925","0.0-1.0-589.0","0","0","30270","","null","","","null","65","","NaN","","","","","","","","","","","","","",""
"","response","","html-keyboard-response","421","568197","0.0-1.0-590.0-0.0","0","0","30270","","270","","","68","65","","","2","65","training","adjacent","CB","3","2","O.jpg","L.jpg","1","0","0","",""
"","feedback","","html-keyboard-response","422","569205","0.0-1.0-591.0-0.0","0","0","30270","","null","","","null","65","","","","","","","","","","","","","","","",""
"","time_out","","html-keyboard-response","423","571216","0.0-1.0-593.0-0.0","0","0","30270","","null","","","null","65","","","","","","","","","","","","","","","",""
"","ITI","","html-keyboard-response","424","572228","0.0-1.0-594.0","0","0","30270","","null","","","null","65","","","","","","","","","","","","","","","NaN",""
"","S1","","html-keyboard-response","425","572485","0.0-1.0-596.0","0","0","30270","","null","","","null","66","","","","","","","","","","","","","","","",""
"","ISI","","html-keyboard-response","426","572997","0.0-1.0-597.0","0","0","30270","","null","","","null","66","NaN","","","","","","","","","","","","","","",""
"","S2","","html-keyboard-response","427","573264","0.0-1.0-598.0","0","0","30270","","null","","","null","66","","NaN","","","","","","","","","","","","","",""
"","response","","html-keyboard-response","428","573619","0.0-1.0-599.0-0.0","0","0","30270","","351","","","75","66","","","2","66","training","adjacent","ED","5","4","R.jpg","Q.jpg","0","0","1","",""
"","feedback","","html-keyboard-response","429","574629","0.0-1.0-600.0-0.0","0","0","30270","","null","","","null","66","","","","","","","","","","","","","","","",""
"","ITI","","html-keyboard-response","430","575637","0.0-1.0-603.0","0","0","30270","","null","","","null","66","","","","","","","","","","","","","","","NaN",""
"","S1","","html-keyboard-response","431","575904","0.0-1.0-605.0","0","0","30270","","null","","","null","67","","","","","","","","","","","","","","","",""
"","ISI","","html-keyboard-response","432","576415","0.0-1.0-606.0","0","0","30270","","null","","","null","67","NaN","","","","","","","","","","","","","","",""
"","S2","","html-keyboard-response","433","576677","0.0-1.0-607.0","0","0","30270","","null","","","null","67","","NaN","","","","","","","","","","","","","",""
"","response","","html-keyboard-response","434","577197","0.0-1.0-608.0-0.0","0","0","30270","","515","","","68","67","","","2","67","training","adjacent","EF","5","6","R.jpg","P.jpg","1","1","1","",""
"","feedback","","html-keyboard-response","435","578208","0.0-1.0-609.0-0.0","0","0","30270","","null","","","null","67","","","","","","","","","","","","","","","",""
"","ITI","","html-keyboard-response","436","579221","0.0-1.0-612.0","0","0","30270","","null","","","null","67","","","","","","","","","","","","","","","NaN",""
"","S1","","html-keyboard-response","437","579488","0.0-1.0-614.0","0","0","30270","","null","","","null","68","","","","","","","","","","","","","","","",""
"","ISI","","html-keyboard-response","438","580000","0.0-1.0-615.0","0","0","30270","","null","","","null","68","NaN","","","","","","","","","","","","","","",""
"","S2","","html-keyboard-response","439","580261","0.0-1.0-616.0","0","0","30270","","null","","","null","68","","NaN","","","","","","","","","","","","","",""
"","response","","html-keyboard-response","440","580725","0.0-1.0-617.0-0.0","0","0","30270","","460","","","68","68","","","2","68","training","adjacent","DC","4","3","Q.jpg","O.jpg","1","0","0","",""
"","feedback","","html-keyboard-response","441","581733","0.0-1.0-618.0-0.0","0","0","30270","","null","","","null","68","","","","","","","","","","","","","","","",""
"","time_out","","html-keyboard-response","442","583744","0.0-1.0-620.0-0.0","0","0","30270","","null","","","null","68","","","","","","","","","","","","","","","",""
"","ITI","","html-keyboard-response","443","584757","0.0-1.0-621.0","0","0","30270","","null","","","null","68","","","","","","","","","","","","","","","NaN",""
"","S1","","html-keyboard-response","444","585024","0.0-1.0-623.0","0","0","30270","","null","","","null","69","","","","","","","","","","","","","","","",""
"","ISI","","html-keyboard-response","445","585536","0.0-1.0-624.0","0","0","30270","","null","","","null","69","NaN","","","","","","","","","","","","","","",""
"","S2","","html-keyboard-response","446","585797","0.0-1.0-625.0","0","0","30270","","null","","","null","69","","NaN","","","","","","","","","","","","","",""
"","response","","html-keyboard-response","447","586282","0.0-1.0-626.0-0.0","0","0","30270","","480","","","68","69","","","2","69","training","adjacent","DE","4","5","Q.jpg","R.jpg","1","1","1","",""
"","feedback","","html-keyboard-response","448","587296","0.0-1.0-627.0-0.0","0","0","30270","","null","","","null","69","","","","","","","","","","","","","","","",""
"","ITI","","html-keyboard-response","449","588309","0.0-1.0-630.0","0","0","30270","","null","","","null","69","","","","","","","","","","","","","","","NaN",""
"","S1","","html-keyboard-response","450","588575","0.0-1.0-632.0","0","0","30270","","null","","","null","70","","","","","","","","","","","","","","","",""
"","ISI","","html-keyboard-response","451","589087","0.0-1.0-633.0","0","0","30270","","null","","","null","70","NaN","","","","","","","","","","","","","","",""
"","S2","","html-keyboard-response","452","589349","0.0-1.0-634.0","0","0","30270","","null","","","null","70","","NaN","","","","","","","","","","","","","",""
"","response","","html-keyboard-response","453","589753","0.0-1.0-635.0-0.0","0","0","30270","","399","","","75","70","","","2","70","training","adjacent","ED","5","4","R.jpg","Q.jpg","0","0","1","",""
"","feedback","","html-keyboard-response","454","590768","0.0-1.0-636.0-0.0","0","0","30270","","null","","","null","70","","","","","","","","","","","","","","","",""
"","ITI","","html-keyboard-response","455","591781","0.0-1.0-639.0","0","0","30270","","null","","","null","70","","","","","","","","","","","","","","","NaN",""
"","S1","","html-keyboard-response","456","592048","0.0-1.0-641.0","0","0","30270","","null","","","null","71","","","","","","","","","","","","","","","",""
"","ISI","","html-keyboard-response","457","592559","0.0-1.0-642.0","0","0","30270","","null","","","null","71","NaN","","","","","","","","","","","","","","",""
"","S2","","html-keyboard-response","458","592822","0.0-1.0-643.0","0","0","30270","","null","","","null","71","","NaN","","","","","","","","","","","","","",""
"","response","","html-keyboard-response","459","593295","0.0-1.0-644.0-0.0","0","0","30270","","469","","","68","71","","","2","71","training","adjacent","DE","4","5","Q.jpg","R.jpg","1","1","1","",""
"","feedback","","html-keyboard-response","460","594308","0.0-1.0-645.0-0.0","0","0","30270","","null","","","null","71","","","","","","","","","","","","","","","",""
"","ITI","","html-keyboard-response","461","595316","0.0-1.0-648.0","0","0","30270","","null","","","null","71","","","","","","","","","","","","","","","NaN",""
"","S1","","html-keyboard-response","462","595573","0.0-1.0-650.0","0","0","30270","","null","","","null","72","","","","","","","","","","","","","","","",""
"","ISI","","html-keyboard-response","463","596085","0.0-1.0-651.0","0","0","30270","","null","","","null","72","NaN","","","","","","","","","","","","","","",""
"","S2","","html-keyboard-response","464","596352","0.0-1.0-652.0","0","0","30270","","null","","","null","72","","NaN","","","","","","","","","","","","","",""
"","response","","html-keyboard-response","465","597046","0.0-1.0-653.0-0.0","0","0","30270","","691","","","68","72","","","2","72","training","adjacent","DC","4","3","Q.jpg","O.jpg","1","0","0","",""
"","feedback","","html-keyboard-response","466","598063","0.0-1.0-654.0-0.0","0","0","30270","","null","","","null","72","","","","","","","","","","","","","","","",""
"","time_out","","html-keyboard-response","467","600079","0.0-1.0-656.0-0.0","0","0","30270","","null","","","null","72","","","","","","","","","","","","","","","",""
"","ITI","","html-keyboard-response","468","601093","0.0-1.0-657.0","0","0","30270","","null","","","null","72","","","","","","","","","","","","","","","NaN",""
"","S1","","html-keyboard-response","469","601360","0.0-1.0-659.0","0","0","30270","","null","","","null","73","","","","","","","","","","","","","","","",""
"","ISI","","html-keyboard-response","470","601871","0.0-1.0-660.0","0","0","30270","","null","","","null","73","NaN","","","","","","","","","","","","","","",""
"","S2","","html-keyboard-response","471","602133","0.0-1.0-661.0","0","0","30270","","null","","","null","73","","NaN","","","","","","","","","","","","","",""
"","response","","html-keyboard-response","472","602558","0.0-1.0-662.0-0.0","0","0","30270","","421","","","75","73","","","2","73","training","adjacent","AB","1","2","M.jpg","L.jpg","0","1","0","",""
"","feedback","","html-keyboard-response","473","603570","0.0-1.0-663.0-0.0","0","0","30270","","null","","","null","73","","","","","","","","","","","","","","","",""
"","time_out","","html-keyboard-response","474","605584","0.0-1.0-665.0-0.0","0","0","30270","","null","","","null","73","","","","","","","","","","","","","","","",""
"","ITI","","html-keyboard-response","475","606596","0.0-1.0-666.0","0","0","30270","","null","","","null","73","","","","","","","","","","","","","","","NaN",""
"","S1","","html-keyboard-response","476","606864","0.0-1.0-668.0","0","0","30270","","null","","","null","74","","","","","","","","","","","","","","","",""
"","ISI","","html-keyboard-response","477","607375","0.0-1.0-669.0","0","0","30270","","null","","","null","74","NaN","","","","","","","","","","","","","","",""
"","S2","","html-keyboard-response","478","607636","0.0-1.0-670.0","0","0","30270","","null","","","null","74","","NaN","","","","","","","","","","","","","",""
"","response","","html-keyboard-response","479","607955","0.0-1.0-671.0-0.0","0","0","30270","","315","","","75","74","","","2","74","training","adjacent","GF","7","6","N.jpg","P.jpg","0","0","1","",""
"","feedback","","html-keyboard-response","480","608962","0.0-1.0-672.0-0.0","0","0","30270","","null","","","null","74","","","","","","","","","","","","","","","",""
"","ITI","","html-keyboard-response","481","609972","0.0-1.0-675.0","0","0","30270","","null","","","null","74","","","","","","","","","","","","","","","NaN",""
"","S1","","html-keyboard-response","482","610240","0.0-1.0-677.0","0","0","30270","","null","","","null","75","","","","","","","","","","","","","","","",""
"","ISI","","html-keyboard-response","483","610751","0.0-1.0-678.0","0","0","30270","","null","","","null","75","NaN","","","","","","","","","","","","","","",""
"","S2","","html-keyboard-response","484","611010","0.0-1.0-679.0","0","0","30270","","null","","","null","75","","NaN","","","","","","","","","","","","","",""
"","response","","html-keyboard-response","485","611695","0.0-1.0-680.0-0.0","0","0","30270","","681","","","68","75","","","2","75","training","adjacent","EF","5","6","R.jpg","P.jpg","1","1","1","",""
"","feedback","","html-keyboard-response","486","612709","0.0-1.0-681.0-0.0","0","0","30270","","null","","","null","75","","","","","","","","","","","","","","","",""
"","ITI","","html-keyboard-response","487","613716","0.0-1.0-684.0","0","0","30270","","null","","","null","75","","","","","","","","","","","","","","","NaN",""
"","S1","","html-keyboard-response","488","613983","0.0-1.0-686.0","0","0","30270","","null","","","null","76","","","","","","","","","","","","","","","",""
"","ISI","","html-keyboard-response","489","614494","0.0-1.0-687.0","0","0","30270","","null","","","null","76","NaN","","","","","","","","","","","","","","",""
"","S2","","html-keyboard-response","490","614756","0.0-1.0-688.0","0","0","30270","","null","","","null","76","","NaN","","","","","","","","","","","","","",""
"","response","","html-keyboard-response","491","615406","0.0-1.0-689.0-0.0","0","0","30270","","648","","","68","76","","","2","76","training","adjacent","FE","6","5","P.jpg","R.jpg","1","0","0","",""
"","feedback","","html-keyboard-response","492","616420","0.0-1.0-690.0-0.0","0","0","30270","","null","","","null","76","","","","","","","","","","","","","","","",""
"","time_out","","html-keyboard-response","493","618428","0.0-1.0-692.0-0.0","0","0","30270","","null","","","null","76","","","","","","","","","","","","","","","",""
"","ITI","","html-keyboard-response","494","619439","0.0-1.0-693.0","0","0","30270","","null","","","null","76","","","","","","","","","","","","","","","NaN",""
"","S1","","html-keyboard-response","495","619700","0.0-1.0-695.0","0","0","30270","","null","","","null","77","","","","","","","","","","","","","","","",""
"","ISI","","html-keyboard-response","496","620212","0.0-1.0-696.0","0","0","30270","","null","","","null","77","NaN","","","","","","","","","","","","","","",""
"","S2","","html-keyboard-response","497","620479","0.0-1.0-697.0","0","0","30270","","null","","","null","77","","NaN","","","","","","","","","","","","","",""
"","response","","html-keyboard-response","498","620678","0.0-1.0-698.0-0.0","0","0","30270","","195","","","68","77","","","2","77","training","adjacent","CB","3","2","O.jpg","L.jpg","1","0","0","",""
"","feedback","","html-keyboard-response","499","621694","0.0-1.0-699.0-0.0","0","0","30270","","null","","","null","77","","","","","","","","","","","","","","","",""
"","time_out","","html-keyboard-response","500","623711","0.0-1.0-701.0-0.0","0","0","30270","","null","","","null","77","","","","","","","","","","","","","","","",""
"","ITI","","html-keyboard-response","501","624723","0.0-1.0-702.0","0","0","30270","","null","","","null","77","","","","","","","","","","","","","","","NaN",""
"","S1","","html-keyboard-response","502","624991","0.0-1.0-704.0","0","0","30270","","null","","","null","78","","","","","","","","","","","","","","","",""
"","ISI","","html-keyboard-response","503","625502","0.0-1.0-705.0","0","0","30270","","null","","","null","78","NaN","","","","","","","","","","","","","","",""
"","S2","","html-keyboard-response","504","625764","0.0-1.0-706.0","0","0","30270","","null","","","null","78","","NaN","","","","","","","","","","","","","",""
"","response","","html-keyboard-response","505","626474","0.0-1.0-707.0-0.0","0","0","30270","","706","","","68","78","","","2","78","training","adjacent","EF","5","6","R.jpg","P.jpg","1","1","1","",""
"","feedback","","html-keyboard-response","506","627487","0.0-1.0-708.0-0.0","0","0","30270","","null","","","null","78","","","","","","","","","","","","","","","",""
"","ITI","","html-keyboard-response","507","628500","0.0-1.0-711.0","0","0","30270","","null","","","null","78","","","","","","","","","","","","","","","NaN",""
"","S1","","html-keyboard-response","508","628766","0.0-1.0-713.0","0","0","30270","","null","","","null","79","","","","","","","","","","","","","","","",""
"","ISI","","html-keyboard-response","509","629279","0.0-1.0-714.0","0","0","30270","","null","","","null","79","NaN","","","","","","","","","","","","","","",""
"","S2","","html-keyboard-response","510","629541","0.0-1.0-715.0","0","0","30270","","null","","","null","79","","NaN","","","","","","","","","","","","","",""
"","response","","html-keyboard-response","511","630071","0.0-1.0-716.0-0.0","0","0","30270","","526","","","68","79","","","2","79","training","adjacent","FE","6","5","P.jpg","R.jpg","1","0","0","",""
"","feedback","","html-keyboard-response","512","631086","0.0-1.0-717.0-0.0","0","0","30270","","null","","","null","79","","","","","","","","","","","","","","","",""
"","time_out","","html-keyboard-response","513","633102","0.0-1.0-719.0-0.0","0","0","30270","","null","","","null","79","","","","","","","","","","","","","","","",""
"","ITI","","html-keyboard-response","514","634116","0.0-1.0-720.0","0","0","30270","","null","","","null","79","","","","","","","","","","","","","","","NaN",""
"","S1","","html-keyboard-response","515","634382","0.0-1.0-722.0","0","0","30270","","null","","","null","80","","","","","","","","","","","","","","","",""
"","ISI","","html-keyboard-response","516","634894","0.0-1.0-723.0","0","0","30270","","null","","","null","80","NaN","","","","","","","","","","","","","","",""
"","S2","","html-keyboard-response","517","635155","0.0-1.0-724.0","0","0","30270","","null","","","null","80","","NaN","","","","","","","","","","","","","",""
"","response","","html-keyboard-response","518","635597","0.0-1.0-725.0-0.0","0","0","30270","","438","","","75","80","","","2","80","training","adjacent","CB","3","2","O.jpg","L.jpg","0","0","1","",""
"","feedback","","html-keyboard-response","519","636611","0.0-1.0-726.0-0.0","0","0","30270","","null","","","null","80","","","","","","","","","","","","","","","",""
"","ITI","","html-keyboard-response","520","637619","0.0-1.0-729.0","0","0","30270","","null","","","null","80","","","","","","","","","","","","","","","NaN",""
"","S1","","html-keyboard-response","521","637884","0.0-1.0-731.0","0","0","30270","","null","","","null","81","","","","","","","","","","","","","","","",""
"","ISI","","html-keyboard-response","522","638398","0.0-1.0-732.0","0","0","30270","","null","","","null","81","NaN","","","","","","","","","","","","","","",""
"","S2","","html-keyboard-response","523","638657","0.0-1.0-733.0","0","0","30270","","null","","","null","81","","NaN","","","","","","","","","","","","","",""
"","response","","html-keyboard-response","524","639060","0.0-1.0-734.0-0.0","0","0","30270","","402","","","75","81","","","2","81","training","adjacent","CB","3","2","O.jpg","L.jpg","0","0","1","",""
"","feedback","","html-keyboard-response","525","640068","0.0-1.0-735.0-0.0","0","0","30270","","null","","","null","81","","","","","","","","","","","","","","","",""
"","ITI","","html-keyboard-response","526","641075","0.0-1.0-738.0","0","0","30270","","null","","","null","81","","","","","","","","","","","","","","","NaN",""
"","S1","","html-keyboard-response","527","641342","0.0-1.0-740.0","0","0","30270","","null","","","null","82","","","","","","","","","","","","","","","",""
"","ISI","","html-keyboard-response","528","641853","0.0-1.0-741.0","0","0","30270","","null","","","null","82","NaN","","","","","","","","","","","","","","",""
"","S2","","html-keyboard-response","529","642115","0.0-1.0-742.0","0","0","30270","","null","","","null","82","","NaN","","","","","","","","","","","","","",""
"","response","","html-keyboard-response","530","642457","0.0-1.0-743.0-0.0","0","0","30270","","338","","","68","82","","","2","82","training","adjacent","AB","1","2","M.jpg","L.jpg","1","1","1","",""
"","feedback","","html-keyboard-response","531","643470","0.0-1.0-744.0-0.0","0","0","30270","","null","","","null","82","","","","","","","","","","","","","","","",""
"","ITI","","html-keyboard-response","532","644481","0.0-1.0-747.0","0","0","30270","","null","","","null","82","","","","","","","","","","","","","","","NaN",""
"","S1","","html-keyboard-response","533","644739","0.0-1.0-749.0","0","0","30270","","null","","","null","83","","","","","","","","","","","","","","","",""
"","ISI","","html-keyboard-response","534","645251","0.0-1.0-750.0","0","0","30270","","null","","","null","83","NaN","","","","","","","","","","","","","","",""
"","S2","","html-keyboard-response","535","645515","0.0-1.0-751.0","0","0","30270","","null","","","null","83","","NaN","","","","","","","","","","","","","",""
"","response","","html-keyboard-response","536","645905","0.0-1.0-752.0-0.0","0","0","30270","","386","","","68","83","","","2","83","training","adjacent","DE","4","5","Q.jpg","R.jpg","1","1","1","",""
"","feedback","","html-keyboard-response","537","646914","0.0-1.0-753.0-0.0","0","0","30270","","null","","","null","83","","","","","","","","","","","","","","","",""
"","ITI","","html-keyboard-response","538","647923","0.0-1.0-756.0","0","0","30270","","null","","","null","83","","","","","","","","","","","","","","","NaN",""
"","S1","","html-keyboard-response","539","648190","0.0-1.0-758.0","0","0","30270","","null","","","null","84","","","","","","","","","","","","","","","",""
"","ISI","","html-keyboard-response","540","648702","0.0-1.0-759.0","0","0","30270","","null","","","null","84","NaN","","","","","","","","","","","","","","",""
"","S2","","html-keyboard-response","541","648963","0.0-1.0-760.0","0","0","30270","","null","","","null","84","","NaN","","","","","","","","","","","","","",""
"","response","","html-keyboard-response","542","649157","0.0-1.0-761.0-0.0","0","0","30270","","189","","","75","84","","","2","84","training","adjacent","FG","6","7","P.jpg","N.jpg","0","1","0","",""
"","feedback","","html-keyboard-response","543","650174","0.0-1.0-762.0-0.0","0","0","30270","","null","","","null","84","","","","","","","","","","","","","","","",""
"","time_out","","html-keyboard-response","544","652190","0.0-1.0-764.0-0.0","0","0","30270","","null","","","null","84","","","","","","","","","","","","","","","",""
"","ITI","","html-keyboard-response","545","653203","0.0-1.0-765.0","0","0","30270","","null","","","null","84","","","","","","","","","","","","","","","NaN",""
"","S1","","html-keyboard-response","546","653469","0.0-1.0-767.0","0","0","30270","","null","","","null","85","","","","","","","","","","","","","","","",""
"","ISI","","html-keyboard-response","547","653981","0.0-1.0-768.0","0","0","30270","","null","","","null","85","NaN","","","","","","","","","","","","","","",""
"","S2","","html-keyboard-response","548","654243","0.0-1.0-769.0","0","0","30270","","null","","","null","85","","NaN","","","","","","","","","","","","","",""
"","response","","html-keyboard-response","549","654702","0.0-1.0-770.0-0.0","0","0","30270","","454","","","68","85","","","2","85","training","adjacent","AB","1","2","M.jpg","L.jpg","1","1","1","",""
"","feedback","","html-keyboard-response","550","655714","0.0-1.0-771.0-0.0","0","0","30270","","null","","","null","85","","","","","","","","","","","","","","","",""
"","ITI","","html-keyboard-response","551","656722","0.0-1.0-774.0","0","0","30270","","null","","","null","85","","","","","","","","","","","","","","","NaN",""
"","S1","","html-keyboard-response","552","656989","0.0-1.0-776.0","0","0","30270","","null","","","null","86","","","","","","","","","","","","","","","",""
"","ISI","","html-keyboard-response","553","657501","0.0-1.0-777.0","0","0","30270","","null","","","null","86","NaN","","","","","","","","","","","","","","",""
"","S2","","html-keyboard-response","554","657763","0.0-1.0-778.0","0","0","30270","","null","","","null","86","","NaN","","","","","","","","","","","","","",""
"","response","","html-keyboard-response","555","657938","0.0-1.0-779.0-0.0","0","0","30270","","170","","","75","86","","","2","86","training","adjacent","FG","6","7","P.jpg","N.jpg","0","1","0","",""
"","feedback","","html-keyboard-response","556","658947","0.0-1.0-780.0-0.0","0","0","30270","","null","","","null","86","","","","","","","","","","","","","","","",""
"","time_out","","html-keyboard-response","557","660957","0.0-1.0-782.0-0.0","0","0","30270","","null","","","null","86","","","","","","","","","","","","","","","",""
"","ITI","","html-keyboard-response","558","661970","0.0-1.0-783.0","0","0","30270","","null","","","null","86","","","","","","","","","","","","","","","NaN",""
"","S1","","html-keyboard-response","559","662237","0.0-1.0-785.0","0","0","30270","","null","","","null","87","","","","","","","","","","","","","","","",""
"","ISI","","html-keyboard-response","560","662749","0.0-1.0-786.0","0","0","30270","","null","","","null","87","NaN","","","","","","","","","","","","","","",""
"","S2","","html-keyboard-response","561","663010","0.0-1.0-787.0","0","0","30270","","null","","","null","87","","NaN","","","","","","","","","","","","","",""
"","response","","html-keyboard-response","562","663412","0.0-1.0-788.0-0.0","0","0","30270","","398","","","68","87","","","2","87","training","adjacent","CD","3","4","O.jpg","Q.jpg","1","1","1","",""
"","feedback","","html-keyboard-response","563","664429","0.0-1.0-789.0-0.0","0","0","30270","","null","","","null","87","","","","","","","","","","","","","","","",""
"","ITI","","html-keyboard-response","564","665442","0.0-1.0-792.0","0","0","30270","","null","","","null","87","","","","","","","","","","","","","","","NaN",""
"","S1","","html-keyboard-response","565","665709","0.0-1.0-794.0","0","0","30270","","null","","","null","88","","","","","","","","","","","","","","","",""
"","ISI","","html-keyboard-response","566","666221","0.0-1.0-795.0","0","0","30270","","null","","","null","88","NaN","","","","","","","","","","","","","","",""
"","S2","","html-keyboard-response","567","666482","0.0-1.0-796.0","0","0","30270","","null","","","null","88","","NaN","","","","","","","","","","","","","",""
"","response","","html-keyboard-response","568","666629","0.0-1.0-797.0-0.0","0","0","30270","","142","","","75","88","","","2","88","training","adjacent","FE","6","5","P.jpg","R.jpg","0","0","1","",""
"","feedback","","html-keyboard-response","569","667645","0.0-1.0-798.0-0.0","0","0","30270","","null","","","null","88","","","","","","","","","","","","","","","",""
"","ITI","","html-keyboard-response","570","668658","0.0-1.0-801.0","0","0","30270","","null","","","null","88","","","","","","","","","","","","","","","NaN",""
"","S1","","html-keyboard-response","571","668925","0.0-1.0-803.0","0","0","30270","","null","","","null","89","","","","","","","","","","","","","","","",""
"","ISI","","html-keyboard-response","572","669436","0.0-1.0-804.0","0","0","30270","","null","","","null","89","NaN","","","","","","","","","","","","","","",""
"","S2","","html-keyboard-response","573","669698","0.0-1.0-805.0","0","0","30270","","null","","","null","89","","NaN","","","","","","","","","","","","","",""
"","response","","html-keyboard-response","574","670015","0.0-1.0-806.0-0.0","0","0","30270","","315","","","68","89","","","2","89","training","adjacent","GF","7","6","N.jpg","P.jpg","1","0","0","",""
"","feedback","","html-keyboard-response","575","671025","0.0-1.0-807.0-0.0","0","0","30270","","null","","","null","89","","","","","","","","","","","","","","","",""
"","time_out","","html-keyboard-response","576","673029","0.0-1.0-809.0-0.0","0","0","30270","","null","","","null","89","","","","","","","","","","","","","","","",""
"","ITI","","html-keyboard-response","577","674042","0.0-1.0-810.0","0","0","30270","","null","","","null","89","","","","","","","","","","","","","","","NaN",""
"","S1","","html-keyboard-response","578","674306","0.0-1.0-812.0","0","0","30270","","null","","","null","90","","","","","","","","","","","","","","","",""
"","ISI","","html-keyboard-response","579","674818","0.0-1.0-813.0","0","0","30270","","null","","","null","90","NaN","","","","","","","","","","","","","","",""
"","S2","","html-keyboard-response","580","675082","0.0-1.0-814.0","0","0","30270","","null","","","null","90","","NaN","","","","","","","","","","","","","",""
