"success","ttype","start_time","trial_type","trial_index","time_elapsed","internal_node_id","warning","missed_checkup","PID","view_history","rt","responses","repeat_instructions","key_press","index","keypress_isi","keypress_S2","block","trial_num","phase","group_type","pair_type","S1_stim","S2_stim","S1_img","S2_img","S1_chosen","S1_higher","accuracy","keypress_iti","total_bonus_tally"
"true","full_screen","d04142023hr1358","fullscreen","0","116076","0.0-0.0","0","0","48643","","","","","","","","","","","","","","","","","","","","","",""
"","instructions","","instructions","1","162423","0.0-1.0-0.0-0.0","0","0","48643","[{""page_index"":0,""viewing_time"":8676},{""page_index"":1,""viewing_time"":26963},{""page_index"":2,""viewing_time"":8626},{""page_index"":3,""viewing_time"":2079}]","46344","","","","","","","","","","","","","","","","","","","",""
"","comprehension_check","","survey-multi-choice","2","185177","0.0-1.0-0.0-1.0","0","0","48643","","22749","{""Q0"":""True"",""Q1"":""K"",""Q2"":""Only while the second image is shown"",""Q3"":""Green mark"",""Q4"":""either D or K""}","1","","","","","","","","","","","","","","","","","",""
"","missed_instruction_checkup","","html-keyboard-response","3","187433","0.0-1.0-0.0-2.0-0.0","0","1","48643","","2252","","","32","","","","","","","","","","","","","","","","",""
"","instructions","","instructions","4","201159","0.0-1.0-0.1-0.1","0","0","48643","[{""page_index"":0,""viewing_time"":6176},{""page_index"":1,""viewing_time"":5399},{""page_index"":2,""viewing_time"":1119},{""page_index"":3,""viewing_time"":1029}]","13723","","","","","","","","","","","","","","","","","","","",""
"","comprehension_check","","survey-multi-choice","5","210863","0.0-1.0-0.1-1.1","0","0","48643","","9700","{""Q0"":""True"",""Q1"":""K"",""Q2"":""Once the second image appears and while the screen 'MAKE A CHOICE' is shown"",""Q3"":""Green mark"",""Q4"":""either D or K""}","0","","","","","","","","","","","","","","","","","",""
"","start_exp","","html-keyboard-response","6","212369","0.0-1.0-1.0","0","0","48643","","1501","","","32","","","","","","","","","","","","","","","","",""
"","S1","","html-keyboard-response","7","212624","0.0-1.0-2.0","0","0","48643","","null","","","null","0","","","","","","","","","","","","","","","",""
"","ISI","","html-keyboard-response","8","213628","0.0-1.0-3.0","0","0","48643","","null","","","null","0","NaN","","","","","","","","","","","","","","",""
"","S2","","html-keyboard-response","9","213881","0.0-1.0-4.0","0","0","48643","","null","","","null","0","","NaN","","","","","","","","","","","","","",""
"","response","","html-keyboard-response","10","215638","0.0-1.0-5.0-0.0","0","0","48643","","null","","","null","0","","","1","0","training","adjacent","CD","3","4","R.jpg","N.jpg","NaN","1","0","",""
"","too_slow_prompt","","html-keyboard-response","11","216648","0.0-1.0-7.0-0.0","1","0","48643","","null","","","null","","","","","","","","","","","","","","","","",""
"","time_out","","html-keyboard-response","12","218657","0.0-1.0-8.0-0.0","0","0","48643","","null","","","null","0","","","","","","","","","","","","","","","",""
"","ITI","","html-keyboard-response","13","219669","0.0-1.0-9.0","0","0","48643","","null","","","null","0","","","","","","","","","","","","","","","NaN",""
"","S1","","html-keyboard-response","14","219924","0.0-1.0-11.0","0","0","48643","","null","","","null","1","","","","","","","","","","","","","","","",""
"","ISI","","html-keyboard-response","15","220936","0.0-1.0-12.0","0","0","48643","","null","","","null","1","NaN","","","","","","","","","","","","","","",""
"","S2","","html-keyboard-response","16","221190","0.0-1.0-13.0","0","0","48643","","null","","","null","1","","NaN","","","","","","","","","","","","","",""
"","response","","html-keyboard-response","17","221553","0.0-1.0-14.0-0.0","0","0","48643","","361","","","75","1","","","1","1","training","adjacent","CD","3","4","R.jpg","N.jpg","1","1","1","",""
"","feedback","","html-keyboard-response","18","222555","0.0-1.0-15.0-0.0","0","0","48643","","null","","","null","1","","","","","","","","","","","","","","","",""
"","ITI","","html-keyboard-response","19","223569","0.0-1.0-18.0","0","0","48643","","null","","","null","1","","","","","","","","","","","","","","","NaN",""
"","S1","","html-keyboard-response","20","223823","0.0-1.0-20.0","0","0","48643","","null","","","null","2","","","","","","","","","","","","","","","",""
"","ISI","","html-keyboard-response","21","224838","0.0-1.0-21.0","0","0","48643","","null","","","null","2","NaN","","","","","","","","","","","","","","",""
"","S2","","html-keyboard-response","22","225090","0.0-1.0-22.0","0","0","48643","","null","","","null","2","","NaN","","","","","","","","","","","","","",""
"","response","","html-keyboard-response","23","225320","0.0-1.0-23.0-0.0","0","0","48643","","229","","","75","2","","","1","2","training","adjacent","FG","6","7","M.jpg","O.jpg","1","1","1","",""
"","feedback","","html-keyboard-response","24","226323","0.0-1.0-24.0-0.0","0","0","48643","","null","","","null","2","","","","","","","","","","","","","","","",""
"","ITI","","html-keyboard-response","25","227332","0.0-1.0-27.0","0","0","48643","","null","","","null","2","","","","","","","","","","","","","","","NaN",""
"","S1","","html-keyboard-response","26","227585","0.0-1.0-29.0","0","0","48643","","null","","","null","3","","","","","","","","","","","","","","","",""
"","ISI","","html-keyboard-response","27","228599","0.0-1.0-30.0","0","0","48643","","null","","","null","3","NaN","","","","","","","","","","","","","","",""
"","S2","","html-keyboard-response","28","228851","0.0-1.0-31.0","0","0","48643","","null","","","null","3","","NaN","","","","","","","","","","","","","",""
"","response","","html-keyboard-response","29","229128","0.0-1.0-32.0-0.0","0","0","48643","","276","","","68","3","","","1","3","training","adjacent","FE","6","5","M.jpg","P.jpg","0","0","1","",""
"","feedback","","html-keyboard-response","30","230139","0.0-1.0-33.0-0.0","0","0","48643","","null","","","null","3","","","","","","","","","","","","","","","",""
"","ITI","","html-keyboard-response","31","231151","0.0-1.0-36.0","0","0","48643","","null","","","null","3","","","","","","","","","","","","","","","NaN",""
"","S1","","html-keyboard-response","32","231404","0.0-1.0-38.0","0","0","48643","","null","","","null","4","","","","","","","","","","","","","","","",""
"","ISI","","html-keyboard-response","33","232406","0.0-1.0-39.0","0","0","48643","","null","","","null","4","NaN","","","","","","","","","","","","","","",""
"","S2","","html-keyboard-response","34","232661","0.0-1.0-40.0","0","0","48643","","null","","","null","4","","NaN","","","","","","","","","","","","","",""
"","response","","html-keyboard-response","35","232762","0.0-1.0-41.0-0.0","0","0","48643","","99","","","75","4","","","1","4","training","adjacent","GF","7","6","O.jpg","M.jpg","1","0","0","",""
"","feedback","","html-keyboard-response","36","233770","0.0-1.0-42.0-0.0","0","0","48643","","null","","","null","4","","","","","","","","","","","","","","","",""
"","time_out","","html-keyboard-response","37","235781","0.0-1.0-44.0-0.0","0","0","48643","","null","","","null","4","","","","","","","","","","","","","","","",""
"","ITI","","html-keyboard-response","38","236796","0.0-1.0-45.0","0","0","48643","","null","","","null","4","","","","","","","","","","","","","","","NaN",""
"","S1","","html-keyboard-response","39","237049","0.0-1.0-47.0","0","0","48643","","null","","","null","5","","","","","","","","","","","","","","","",""
"","ISI","","html-keyboard-response","40","238054","0.0-1.0-48.0","0","0","48643","","null","","","null","5","NaN","","","","","","","","","","","","","","",""
"","S2","","html-keyboard-response","41","238309","0.0-1.0-49.0","0","0","48643","","null","","","null","5","","NaN","","","","","","","","","","","","","",""
"","response","","html-keyboard-response","42","238536","0.0-1.0-50.0-0.0","0","0","48643","","226","","","68","5","","","1","5","training","adjacent","AB","1","2","Q.jpg","L.jpg","0","1","0","",""
"","feedback","","html-keyboard-response","43","239542","0.0-1.0-51.0-0.0","0","0","48643","","null","","","null","5","","","","","","","","","","","","","","","",""
"","time_out","","html-keyboard-response","44","241556","0.0-1.0-53.0-0.0","0","0","48643","","null","","","null","5","","","","","","","","","","","","","","","",""
"","ITI","","html-keyboard-response","45","242569","0.0-1.0-54.0","0","0","48643","","null","","","null","5","","","","","","","","","","","","","","","NaN",""
"","S1","","html-keyboard-response","46","242835","0.0-1.0-56.0","0","0","48643","","null","","","null","6","","","","","","","","","","","","","","","",""
"","ISI","","html-keyboard-response","47","243838","0.0-1.0-57.0","0","0","48643","","null","","","null","6","NaN","","","","","","","","","","","","","","",""
"","S2","","html-keyboard-response","48","244093","0.0-1.0-58.0","0","0","48643","","null","","","null","6","","NaN","","","","","","","","","","","","","",""
"","response","","html-keyboard-response","49","244449","0.0-1.0-59.0-0.0","0","0","48643","","355","","","75","6","","","1","6","training","adjacent","DE","4","5","N.jpg","P.jpg","1","1","1","",""
"","feedback","","html-keyboard-response","50","245460","0.0-1.0-60.0-0.0","0","0","48643","","null","","","null","6","","","","","","","","","","","","","","","",""
"","ITI","","html-keyboard-response","51","246473","0.0-1.0-63.0","0","0","48643","","null","","","null","6","","","","","","","","","","","","","","","NaN",""
"","S1","","html-keyboard-response","52","246730","0.0-1.0-65.0","0","0","48643","","null","","","null","7","","","","","","","","","","","","","","","",""
"","ISI","","html-keyboard-response","53","247744","0.0-1.0-66.0","0","0","48643","","null","","","null","7","NaN","","","","","","","","","","","","","","",""
"","S2","","html-keyboard-response","54","247998","0.0-1.0-67.0","0","0","48643","","null","","","null","7","","NaN","","","","","","","","","","","","","",""
"","response","","html-keyboard-response","55","248217","0.0-1.0-68.0-0.0","0","0","48643","","217","","","75","7","","","1","7","training","adjacent","DC","4","3","N.jpg","R.jpg","1","0","0","",""
"","feedback","","html-keyboard-response","56","249233","0.0-1.0-69.0-0.0","0","0","48643","","null","","","null","7","","","","","","","","","","","","","","","",""
"","time_out","","html-keyboard-response","57","251245","0.0-1.0-71.0-0.0","0","0","48643","","null","","","null","7","","","","","","","","","","","","","","","",""
"","ITI","","html-keyboard-response","58","252260","0.0-1.0-72.0","0","0","48643","","null","","","null","7","","","","","","","","","","","","","","","NaN",""
"","S1","","html-keyboard-response","59","252515","0.0-1.0-74.0","0","0","48643","","null","","","null","8","","","","","","","","","","","","","","","",""
"","ISI","","html-keyboard-response","60","253530","0.0-1.0-75.0","0","0","48643","","null","","","null","8","NaN","","","","","","","","","","","","","","",""
"","S2","","html-keyboard-response","61","253796","0.0-1.0-76.0","0","0","48643","","null","","","null","8","","NaN","","","","","","","","","","","","","",""
"","response","","html-keyboard-response","62","254017","0.0-1.0-77.0-0.0","0","0","48643","","220","","","68","8","","","1","8","training","adjacent","DC","4","3","N.jpg","R.jpg","0","0","1","",""
"","feedback","","html-keyboard-response","63","255024","0.0-1.0-78.0-0.0","0","0","48643","","null","","","null","8","","","","","","","","","","","","","","","",""
"","ITI","","html-keyboard-response","64","256040","0.0-1.0-81.0","0","0","48643","","null","","","null","8","","","","","","","","","","","","","","","NaN",""
"","S1","","html-keyboard-response","65","256292","0.0-1.0-83.0","0","0","48643","","null","","","null","9","","","","","","","","","","","","","","","",""
"","ISI","","html-keyboard-response","66","257306","0.0-1.0-84.0","0","0","48643","","null","","","null","9","NaN","","","","","","","","","","","","","","",""
"","S2","","html-keyboard-response","67","257560","0.0-1.0-85.0","0","0","48643","","null","","","null","9","","NaN","","","","","","","","","","","","","",""
"","response","","html-keyboard-response","68","257793","0.0-1.0-86.0-0.0","0","0","48643","","231","","","68","9","","","1","9","training","adjacent","ED","5","4","P.jpg","N.jpg","0","0","1","",""
"","feedback","","html-keyboard-response","69","258809","0.0-1.0-87.0-0.0","0","0","48643","","null","","","null","9","","","","","","","","","","","","","","","",""
"","ITI","","html-keyboard-response","70","259825","0.0-1.0-90.0","0","0","48643","","null","","","null","9","","","","","","","","","","","","","","","NaN",""
"","S1","","html-keyboard-response","71","260077","0.0-1.0-92.0","0","0","48643","","null","","","null","10","","","","","","","","","","","","","","","",""
"","ISI","","html-keyboard-response","72","261086","0.0-1.0-93.0","0","0","48643","","null","","","null","10","NaN","","","","","","","","","","","","","","",""
"","S2","","html-keyboard-response","73","261342","0.0-1.0-94.0","0","0","48643","","null","","","null","10","","NaN","","","","","","","","","","","","","",""
"","response","","html-keyboard-response","74","261417","0.0-1.0-95.0-0.0","0","0","48643","","73","","","68","10","","","1","10","training","adjacent","CD","3","4","R.jpg","N.jpg","0","1","0","",""
"","feedback","","html-keyboard-response","75","262424","0.0-1.0-96.0-0.0","0","0","48643","","null","","","null","10","","","","","","","","","","","","","","","",""
"","time_out","","html-keyboard-response","76","264433","0.0-1.0-98.0-0.0","0","0","48643","","null","","","null","10","","","","","","","","","","","","","","","",""
"","ITI","","html-keyboard-response","77","265446","0.0-1.0-99.0","0","0","48643","","null","","","null","10","","","","","","","","","","","","","","","NaN",""
"","S1","","html-keyboard-response","78","265698","0.0-1.0-101.0","0","0","48643","","null","","","null","11","","","","","","","","","","","","","","","",""
"","ISI","","html-keyboard-response","79","266712","0.0-1.0-102.0","0","0","48643","","null","","","null","11","NaN","","","","","","","","","","","","","","",""
"","S2","","html-keyboard-response","80","266964","0.0-1.0-103.0","0","0","48643","","null","","","null","11","","NaN","","","","","","","","","","","","","",""
"","response","","html-keyboard-response","81","267112","0.0-1.0-104.0-0.0","0","0","48643","","147","","","75","11","","","1","11","training","adjacent","EF","5","6","P.jpg","M.jpg","1","1","1","",""
"","feedback","","html-keyboard-response","82","268129","0.0-1.0-105.0-0.0","0","0","48643","","null","","","null","11","","","","","","","","","","","","","","","",""
"","ITI","","html-keyboard-response","83","269139","0.0-1.0-108.0","0","0","48643","","null","","","null","11","","","","","","","","","","","","","","","NaN",""
"","S1","","html-keyboard-response","84","269394","0.0-1.0-110.0","0","0","48643","","null","","","null","12","","","","","","","","","","","","","","","",""
"","ISI","","html-keyboard-response","85","270405","0.0-1.0-111.0","0","0","48643","","null","","","null","12","NaN","","","","","","","","","","","","","","",""
"","S2","","html-keyboard-response","86","270672","0.0-1.0-112.0","0","0","48643","","null","","","null","12","","NaN","","","","","","","","","","","","","",""
"","response","","html-keyboard-response","87","270904","0.0-1.0-113.0-0.0","0","0","48643","","231","","","68","12","","","1","12","training","adjacent","CB","3","2","R.jpg","L.jpg","0","0","1","",""
"","feedback","","html-keyboard-response","88","271919","0.0-1.0-114.0-0.0","0","0","48643","","null","","","null","12","","","","","","","","","","","","","","","",""
"","ITI","","html-keyboard-response","89","272934","0.0-1.0-117.0","0","0","48643","","null","","","null","12","","","","","","","","","","","","","","","NaN",""
"","S1","","html-keyboard-response","90","273188","0.0-1.0-119.0","0","0","48643","","null","","","null","13","","","","","","","","","","","","","","","",""
"","ISI","","html-keyboard-response","91","274200","0.0-1.0-120.0","0","0","48643","","null","","","null","13","NaN","","","","","","","","","","","","","","",""
"","S2","","html-keyboard-response","92","274455","0.0-1.0-121.0","0","0","48643","","null","","","null","13","","NaN","","","","","","","","","","","","","",""
"","response","","html-keyboard-response","93","274529","0.0-1.0-122.0-0.0","0","0","48643","","73","","","75","13","","","1","13","training","adjacent","GF","7","6","O.jpg","M.jpg","1","0","0","",""
"","feedback","","html-keyboard-response","94","275532","0.0-1.0-123.0-0.0","0","0","48643","","null","","","null","13","","","","","","","","","","","","","","","",""
"","time_out","","html-keyboard-response","95","277543","0.0-1.0-125.0-0.0","0","0","48643","","null","","","null","13","","","","","","","","","","","","","","","",""
"","ITI","","html-keyboard-response","96","278557","0.0-1.0-126.0","0","0","48643","","null","","","null","13","","","","","","","","","","","","","","","NaN",""
"","S1","","html-keyboard-response","97","278811","0.0-1.0-128.0","0","0","48643","","null","","","null","14","","","","","","","","","","","","","","","",""
"","ISI","","html-keyboard-response","98","279826","0.0-1.0-129.0","0","0","48643","","null","","","null","14","NaN","","","","","","","","","","","","","","",""
"","S2","","html-keyboard-response","99","280080","0.0-1.0-130.0","0","0","48643","","null","","","null","14","","NaN","","","","","","","","","","","","","",""
"","response","","html-keyboard-response","100","280304","0.0-1.0-131.0-0.0","0","0","48643","","223","","","75","14","","","1","14","training","adjacent","GF","7","6","O.jpg","M.jpg","1","0","0","",""
"","feedback","","html-keyboard-response","101","281316","0.0-1.0-132.0-0.0","0","0","48643","","null","","","null","14","","","","","","","","","","","","","","","",""
"","time_out","","html-keyboard-response","102","283323","0.0-1.0-134.0-0.0","0","0","48643","","null","","","null","14","","","","","","","","","","","","","","","",""
"","ITI","","html-keyboard-response","103","284337","0.0-1.0-135.0","0","0","48643","","null","","","null","14","","","","","","","","","","","","","","","NaN",""
"","S1","","html-keyboard-response","104","284604","0.0-1.0-137.0","0","0","48643","","null","","","null","15","","","","","","","","","","","","","","","",""
"","ISI","","html-keyboard-response","105","285618","0.0-1.0-138.0","0","0","48643","","null","","","null","15","NaN","","","","","","","","","","","","","","",""
"","S2","","html-keyboard-response","106","285872","0.0-1.0-139.0","0","0","48643","","null","","","null","15","","NaN","","","","","","","","","","","","","",""
"","response","","html-keyboard-response","107","285929","0.0-1.0-140.0-0.0","0","0","48643","","55","","","68","15","","","1","15","training","adjacent","CB","3","2","R.jpg","L.jpg","0","0","1","",""
"","feedback","","html-keyboard-response","108","286932","0.0-1.0-141.0-0.0","0","0","48643","","null","","","null","15","","","","","","","","","","","","","","","",""
"","ITI","","html-keyboard-response","109","287946","0.0-1.0-144.0","0","0","48643","","null","","","null","15","","","","","","","","","","","","","","","NaN",""
"","S1","","html-keyboard-response","110","288200","0.0-1.0-146.0","0","0","48643","","null","","","null","16","","","","","","","","","","","","","","","",""
"","ISI","","html-keyboard-response","111","289214","0.0-1.0-147.0","0","0","48643","","null","","","null","16","NaN","","","","","","","","","","","","","","",""
"","S2","","html-keyboard-response","112","289466","0.0-1.0-148.0","0","0","48643","","null","","","null","16","","NaN","","","","","","","","","","","","","",""
"","response","","html-keyboard-response","113","289488","0.0-1.0-149.0-0.0","0","0","48643","","20","","","75","16","","","1","16","training","adjacent","FG","6","7","M.jpg","O.jpg","1","1","1","",""
"","feedback","","html-keyboard-response","114","290495","0.0-1.0-150.0-0.0","0","0","48643","","null","","","null","16","","","","","","","","","","","","","","","",""
"","ITI","","html-keyboard-response","115","291510","0.0-1.0-153.0","0","0","48643","","null","","","null","16","","","","","","","","","","","","","","","NaN",""
"","S1","","html-keyboard-response","116","291764","0.0-1.0-155.0","0","0","48643","","null","","","null","17","","","","","","","","","","","","","","","",""
"","ISI","","html-keyboard-response","117","292778","0.0-1.0-156.0","0","0","48643","","null","","","null","17","NaN","","","","","","","","","","","","","","",""
"","S2","","html-keyboard-response","118","293033","0.0-1.0-157.0","0","0","48643","","null","","","null","17","","NaN","","","","","","","","","","","","","",""
"","response","","html-keyboard-response","119","293224","0.0-1.0-158.0-0.0","0","0","48643","","189","","","75","17","","","1","17","training","adjacent","DC","4","3","N.jpg","R.jpg","1","0","0","",""
"","feedback","","html-keyboard-response","120","294237","0.0-1.0-159.0-0.0","0","0","48643","","null","","","null","17","","","","","","","","","","","","","","","",""
"","time_out","","html-keyboard-response","121","296246","0.0-1.0-161.0-0.0","0","0","48643","","null","","","null","17","","","","","","","","","","","","","","","",""
"","ITI","","html-keyboard-response","122","297252","0.0-1.0-162.0","0","0","48643","","null","","","null","17","","","","","","","","","","","","","","","NaN",""
"","S1","","html-keyboard-response","123","297505","0.0-1.0-164.0","0","0","48643","","null","","","null","18","","","","","","","","","","","","","","","",""
"","ISI","","html-keyboard-response","124","298521","0.0-1.0-165.0","0","0","48643","","null","","","null","18","NaN","","","","","","","","","","","","","","",""
"","S2","","html-keyboard-response","125","298775","0.0-1.0-166.0","0","0","48643","","null","","","null","18","","NaN","","","","","","","","","","","","","",""
"","response","","html-keyboard-response","126","299024","0.0-1.0-167.0-0.0","0","0","48643","","248","","","68","18","","","1","18","training","adjacent","DE","4","5","N.jpg","P.jpg","0","1","0","",""
"","feedback","","html-keyboard-response","127","300028","0.0-1.0-168.0-0.0","0","0","48643","","null","","","null","18","","","","","","","","","","","","","","","",""
"","time_out","","html-keyboard-response","128","302038","0.0-1.0-170.0-0.0","0","0","48643","","null","","","null","18","","","","","","","","","","","","","","","",""
"","ITI","","html-keyboard-response","129","303050","0.0-1.0-171.0","0","0","48643","","null","","","null","18","","","","","","","","","","","","","","","NaN",""
"","S1","","html-keyboard-response","130","303304","0.0-1.0-173.0","0","0","48643","","null","","","null","19","","","","","","","","","","","","","","","",""
"","ISI","","html-keyboard-response","131","304316","0.0-1.0-174.0","0","0","48643","","null","","","null","19","NaN","","","","","","","","","","","","","","",""
"","S2","","html-keyboard-response","132","304569","0.0-1.0-175.0","0","0","48643","","null","","","null","19","","NaN","","","","","","","","","","","","","",""
"","response","","html-keyboard-response","133","304713","0.0-1.0-176.0-0.0","0","0","48643","","143","","","75","19","","","1","19","training","adjacent","BA","2","1","L.jpg","Q.jpg","1","0","0","",""
"","feedback","","html-keyboard-response","134","305722","0.0-1.0-177.0-0.0","0","0","48643","","null","","","null","19","","","","","","","","","","","","","","","",""
"","time_out","","html-keyboard-response","135","307732","0.0-1.0-179.0-0.0","0","0","48643","","null","","","null","19","","","","","","","","","","","","","","","",""
"","ITI","","html-keyboard-response","136","308749","0.0-1.0-180.0","0","0","48643","","null","","","null","19","","","","","","","","","","","","","","","NaN",""
"","S1","","html-keyboard-response","137","309001","0.0-1.0-182.0","0","0","48643","","null","","","null","20","","","","","","","","","","","","","","","",""
"","ISI","","html-keyboard-response","138","310016","0.0-1.0-183.0","0","0","48643","","null","","","null","20","NaN","","","","","","","","","","","","","","",""
"","S2","","html-keyboard-response","139","310269","0.0-1.0-184.0","0","0","48643","","null","","","null","20","","NaN","","","","","","","","","","","","","",""
"","response","","html-keyboard-response","140","310368","0.0-1.0-185.0-0.0","0","0","48643","","97","","","75","20","","","1","20","training","adjacent","FG","6","7","M.jpg","O.jpg","1","1","1","",""
"","feedback","","html-keyboard-response","141","311379","0.0-1.0-186.0-0.0","0","0","48643","","null","","","null","20","","","","","","","","","","","","","","","",""
"","ITI","","html-keyboard-response","142","312390","0.0-1.0-189.0","0","0","48643","","null","","","null","20","","","","","","","","","","","","","","","NaN",""
"","S1","","html-keyboard-response","143","312645","0.0-1.0-191.0","0","0","48643","","null","","","null","21","","","","","","","","","","","","","","","",""
"","ISI","","html-keyboard-response","144","313659","0.0-1.0-192.0","0","0","48643","","null","","","null","21","NaN","","","","","","","","","","","","","","",""
"","S2","","html-keyboard-response","145","313912","0.0-1.0-193.0","0","0","48643","","null","","","null","21","","NaN","","","","","","","","","","","","","",""
"","response","","html-keyboard-response","146","313921","0.0-1.0-194.0-0.0","0","0","48643","","7","","","68","21","","","1","21","training","adjacent","EF","5","6","P.jpg","M.jpg","0","1","0","",""
"","feedback","","html-keyboard-response","147","314930","0.0-1.0-195.0-0.0","0","0","48643","","null","","","null","21","","","","","","","","","","","","","","","",""
"","time_out","","html-keyboard-response","148","316939","0.0-1.0-197.0-0.0","0","0","48643","","null","","","null","21","","","","","","","","","","","","","","","",""
"","ITI","","html-keyboard-response","149","317953","0.0-1.0-198.0","0","0","48643","","null","","","null","21","","","","","","","","","","","","","","","NaN",""
"","S1","","html-keyboard-response","150","318208","0.0-1.0-200.0","0","0","48643","","null","","","null","22","","","","","","","","","","","","","","","",""
"","ISI","","html-keyboard-response","151","319221","0.0-1.0-201.0","0","0","48643","","null","","","null","22","NaN","","","","","","","","","","","","","","",""
"","S2","","html-keyboard-response","152","319476","0.0-1.0-202.0","0","0","48643","","null","","","null","22","","NaN","","","","","","","","","","","","","",""
"","response","","html-keyboard-response","153","319624","0.0-1.0-203.0-0.0","0","0","48643","","146","","","75","22","","","1","22","training","adjacent","ED","5","4","P.jpg","N.jpg","1","0","0","",""
"","feedback","","html-keyboard-response","154","320632","0.0-1.0-204.0-0.0","0","0","48643","","null","","","null","22","","","","","","","","","","","","","","","",""
"","time_out","","html-keyboard-response","155","322645","0.0-1.0-206.0-0.0","0","0","48643","","null","","","null","22","","","","","","","","","","","","","","","",""
"","ITI","","html-keyboard-response","156","323657","0.0-1.0-207.0","0","0","48643","","null","","","null","22","","","","","","","","","","","","","","","NaN",""
"","S1","","html-keyboard-response","157","323912","0.0-1.0-209.0","0","0","48643","","null","","","null","23","","","","","","","","","","","","","","","",""
"","ISI","","html-keyboard-response","158","324926","0.0-1.0-210.0","0","0","48643","","null","","","null","23","NaN","","","","","","","","","","","","","","",""
"","S2","","html-keyboard-response","159","325177","0.0-1.0-211.0","0","0","48643","","null","","","null","23","","NaN","","","","","","","","","","","","","",""
"","response","","html-keyboard-response","160","325240","0.0-1.0-212.0-0.0","0","0","48643","","61","","","68","23","","","1","23","training","adjacent","BC","2","3","L.jpg","R.jpg","0","1","0","",""
"","feedback","","html-keyboard-response","161","326250","0.0-1.0-213.0-0.0","0","0","48643","","null","","","null","23","","","","","","","","","","","","","","","",""
"","time_out","","html-keyboard-response","162","328259","0.0-1.0-215.0-0.0","0","0","48643","","null","","","null","23","","","","","","","","","","","","","","","",""
"","ITI","","html-keyboard-response","163","329267","0.0-1.0-216.0","0","0","48643","","null","","","null","23","","","","","","","","","","","","","","","NaN",""
"","S1","","html-keyboard-response","164","329522","0.0-1.0-218.0","0","0","48643","","null","","","null","24","","","","","","","","","","","","","","","",""
"","ISI","","html-keyboard-response","165","330532","0.0-1.0-219.0","0","0","48643","","null","","","null","24","NaN","","","","","","","","","","","","","","",""
"","S2","","html-keyboard-response","166","330788","0.0-1.0-220.0","0","0","48643","","null","","","null","24","","NaN","","","","","","","","","","","","","",""
"","response","","html-keyboard-response","167","330848","0.0-1.0-221.0-0.0","0","0","48643","","58","","","75","24","","","1","24","training","adjacent","AB","1","2","Q.jpg","L.jpg","1","1","1","",""
"","feedback","","html-keyboard-response","168","331864","0.0-1.0-222.0-0.0","0","0","48643","","null","","","null","24","","","","","","","","","","","","","","","",""
"","ITI","","html-keyboard-response","169","332877","0.0-1.0-225.0","0","0","48643","","null","","","null","24","","","","","","","","","","","","","","","NaN",""
"","S1","","html-keyboard-response","170","333144","0.0-1.0-227.0","0","0","48643","","null","","","null","25","","","","","","","","","","","","","","","",""
"","ISI","","html-keyboard-response","171","334158","0.0-1.0-228.0","0","0","48643","","null","","","null","25","NaN","","","","","","","","","","","","","","",""
"","S2","","html-keyboard-response","172","334412","0.0-1.0-229.0","0","0","48643","","null","","","null","25","","NaN","","","","","","","","","","","","","",""
"","response","","html-keyboard-response","173","334472","0.0-1.0-230.0-0.0","0","0","48643","","57","","","75","25","","","1","25","training","adjacent","DE","4","5","N.jpg","P.jpg","1","1","1","",""
"","feedback","","html-keyboard-response","174","335486","0.0-1.0-231.0-0.0","0","0","48643","","null","","","null","25","","","","","","","","","","","","","","","",""
"","ITI","","html-keyboard-response","175","336499","0.0-1.0-234.0","0","0","48643","","null","","","null","25","","","","","","","","","","","","","","","NaN",""
"","S1","","html-keyboard-response","176","336752","0.0-1.0-236.0","0","0","48643","","null","","","null","26","","","","","","","","","","","","","","","",""
"","ISI","","html-keyboard-response","177","337765","0.0-1.0-237.0","0","0","48643","","null","","","null","26","NaN","","","","","","","","","","","","","","",""
"","S2","","html-keyboard-response","178","338019","0.0-1.0-238.0","0","0","48643","","null","","","null","26","","NaN","","","","","","","","","","","","","",""
"","response","","html-keyboard-response","179","338104","0.0-1.0-239.0-0.0","0","0","48643","","83","","","75","26","","","1","26","training","adjacent","BA","2","1","L.jpg","Q.jpg","1","0","0","",""
"","feedback","","html-keyboard-response","180","339113","0.0-1.0-240.0-0.0","0","0","48643","","null","","","null","26","","","","","","","","","","","","","","","",""
"","time_out","","html-keyboard-response","181","341125","0.0-1.0-242.0-0.0","0","0","48643","","null","","","null","26","","","","","","","","","","","","","","","",""
"","ITI","","html-keyboard-response","182","342130","0.0-1.0-243.0","0","0","48643","","null","","","null","26","","","","","","","","","","","","","","","NaN",""
"","S1","","html-keyboard-response","183","342386","0.0-1.0-245.0","0","0","48643","","null","","","null","27","","","","","","","","","","","","","","","",""
"","ISI","","html-keyboard-response","184","343398","0.0-1.0-246.0","0","0","48643","","null","","","null","27","NaN","","","","","","","","","","","","","","",""
"","S2","","html-keyboard-response","185","343496","0.0-1.0-247.0","0","0","48643","","96","","","68","27","","d","1","27","training","adjacent","EF","5","6","P.jpg","M.jpg","0","1","0","",""
"","feedback","","html-keyboard-response","186","344507","0.0-1.0-249.0-0.0","0","0","48643","","null","","","null","27","","","","","","","","","","","","","","","",""
"","time_out","","html-keyboard-response","187","346520","0.0-1.0-251.0-0.0","0","0","48643","","null","","","null","27","","","","","","","","","","","","","","","",""
"","ITI","","html-keyboard-response","188","347535","0.0-1.0-252.0","0","0","48643","","null","","","null","27","","","","","","","","","","","","","","","NaN",""
"","S1","","html-keyboard-response","189","347789","0.0-1.0-254.0","0","0","48643","","null","","","null","28","","","","","","","","","","","","","","","",""
"","ISI","","html-keyboard-response","190","348804","0.0-1.0-255.0","0","0","48643","","null","","","null","28","NaN","","","","","","","","","","","","","","",""
"","S2","","html-keyboard-response","191","349059","0.0-1.0-256.0","0","0","48643","","null","","","null","28","","NaN","","","","","","","","","","","","","",""
"","response","","html-keyboard-response","192","349481","0.0-1.0-257.0-0.0","0","0","48643","","419","","","68","28","","","1","28","training","adjacent","BC","2","3","L.jpg","R.jpg","0","1","0","",""
"","feedback","","html-keyboard-response","193","350493","0.0-1.0-258.0-0.0","0","0","48643","","null","","","null","28","","","","","","","","","","","","","","","",""
"","time_out","","html-keyboard-response","194","352506","0.0-1.0-260.0-0.0","0","0","48643","","null","","","null","28","","","","","","","","","","","","","","","",""
"","ITI","","html-keyboard-response","195","353517","0.0-1.0-261.0","0","0","48643","","null","","","null","28","","","","","","","","","","","","","","","NaN",""
"","S1","","html-keyboard-response","196","353769","0.0-1.0-263.0","0","0","48643","","null","","","null","29","","","","","","","","","","","","","","","",""
"","ISI","","html-keyboard-response","197","354781","0.0-1.0-264.0","0","0","48643","","null","","","null","29","NaN","","","","","","","","","","","","","","",""
"","S2","","html-keyboard-response","198","355034","0.0-1.0-265.0","0","0","48643","","null","","","null","29","","NaN","","","","","","","","","","","","","",""
"","response","","html-keyboard-response","199","355159","0.0-1.0-266.0-0.0","0","0","48643","","124","","","75","29","","","1","29","training","adjacent","DE","4","5","N.jpg","P.jpg","1","1","1","",""
"","feedback","","html-keyboard-response","200","356172","0.0-1.0-267.0-0.0","0","0","48643","","null","","","null","29","","","","","","","","","","","","","","","",""
"","ITI","","html-keyboard-response","201","357186","0.0-1.0-270.0","0","0","48643","","null","","","null","29","","","","","","","","","","","","","","","NaN",""
"","S1","","html-keyboard-response","202","357441","0.0-1.0-272.0","0","0","48643","","null","","","null","30","","","","","","","","","","","","","","","",""
"","ISI","","html-keyboard-response","203","358455","0.0-1.0-273.0","0","0","48643","","null","","","null","30","NaN","","","","","","","","","","","","","","",""
"","S2","","html-keyboard-response","204","358721","0.0-1.0-274.0","0","0","48643","","null","","","null","30","","NaN","","","","","","","","","","","","","",""
"","response","","html-keyboard-response","205","358736","0.0-1.0-275.0-0.0","0","0","48643","","13","","","75","30","","","1","30","training","adjacent","EF","5","6","P.jpg","M.jpg","1","1","1","",""
"","feedback","","html-keyboard-response","206","359749","0.0-1.0-276.0-0.0","0","0","48643","","null","","","null","30","","","","","","","","","","","","","","","",""
"","ITI","","html-keyboard-response","207","360753","0.0-1.0-279.0","0","0","48643","","null","","","null","30","","","","","","","","","","","","","","","NaN",""
"","S1","","html-keyboard-response","208","361007","0.0-1.0-281.0","0","0","48643","","null","","","null","31","","","","","","","","","","","","","","","",""
"","ISI","","html-keyboard-response","209","362021","0.0-1.0-282.0","0","0","48643","","null","","","null","31","NaN","","","","","","","","","","","","","","",""
"","S2","","html-keyboard-response","210","362274","0.0-1.0-283.0","0","0","48643","","null","","","null","31","","NaN","","","","","","","","","","","","","",""
"","response","","html-keyboard-response","211","362449","0.0-1.0-284.0-0.0","0","0","48643","","173","","","68","31","","","1","31","training","adjacent","CD","3","4","R.jpg","N.jpg","0","1","0","",""
"","feedback","","html-keyboard-response","212","363466","0.0-1.0-285.0-0.0","0","0","48643","","null","","","null","31","","","","","","","","","","","","","","","",""
"","time_out","","html-keyboard-response","213","365477","0.0-1.0-287.0-0.0","0","0","48643","","null","","","null","31","","","","","","","","","","","","","","","",""
"","ITI","","html-keyboard-response","214","366488","0.0-1.0-288.0","0","0","48643","","null","","","null","31","","","","","","","","","","","","","","","NaN",""
"","S1","","html-keyboard-response","215","366741","0.0-1.0-290.0","0","0","48643","","null","","","null","32","","","","","","","","","","","","","","","",""
"","ISI","","html-keyboard-response","216","367745","0.0-1.0-291.0","0","0","48643","","null","","","null","32","NaN","","","","","","","","","","","","","","",""
"","S2","","html-keyboard-response","217","367959","0.0-1.0-292.0","0","0","48643","","213","","","75","32","","k","1","32","training","adjacent","FE","6","5","M.jpg","P.jpg","1","0","0","",""
"","feedback","","html-keyboard-response","218","368965","0.0-1.0-294.0-0.0","0","0","48643","","null","","","null","32","","","","","","","","","","","","","","","",""
"","time_out","","html-keyboard-response","219","370977","0.0-1.0-296.0-0.0","0","0","48643","","null","","","null","32","","","","","","","","","","","","","","","",""
"","ITI","","html-keyboard-response","220","371988","0.0-1.0-297.0","0","0","48643","","null","","","null","32","","","","","","","","","","","","","","","NaN",""
"","S1","","html-keyboard-response","221","372242","0.0-1.0-299.0","0","0","48643","","null","","","null","33","","","","","","","","","","","","","","","",""
"","ISI","","html-keyboard-response","222","373258","0.0-1.0-300.0","0","0","48643","","null","","","null","33","NaN","","","","","","","","","","","","","","",""
"","S2","","html-keyboard-response","223","373510","0.0-1.0-301.0","0","0","48643","","null","","","null","33","","NaN","","","","","","","","","","","","","",""
"","response","","html-keyboard-response","224","373519","0.0-1.0-302.0-0.0","0","0","48643","","8","","","68","33","","","1","33","training","adjacent","BC","2","3","L.jpg","R.jpg","0","1","0","",""
"","feedback","","html-keyboard-response","225","374522","0.0-1.0-303.0-0.0","0","0","48643","","null","","","null","33","","","","","","","","","","","","","","","",""
"","time_out","","html-keyboard-response","226","376534","0.0-1.0-305.0-0.0","0","0","48643","","null","","","null","33","","","","","","","","","","","","","","","",""
"","ITI","","html-keyboard-response","227","377547","0.0-1.0-306.0","0","0","48643","","null","","","null","33","","","","","","","","","","","","","","","NaN",""
"","S1","","html-keyboard-response","228","377799","0.0-1.0-308.0","0","0","48643","","null","","","null","34","","","","","","","","","","","","","","","",""
"","ISI","","html-keyboard-response","229","378815","0.0-1.0-309.0","0","0","48643","","null","","","null","34","NaN","","","","","","","","","","","","","","",""
"","S2","","html-keyboard-response","230","379069","0.0-1.0-310.0","0","0","48643","","null","","","null","34","","NaN","","","","","","","","","","","","","",""
"","response","","html-keyboard-response","231","379111","0.0-1.0-311.0-0.0","0","0","48643","","40","","","75","34","","","1","34","training","adjacent","BA","2","1","L.jpg","Q.jpg","1","0","0","",""
"","feedback","","html-keyboard-response","232","380115","0.0-1.0-312.0-0.0","0","0","48643","","null","","","null","34","","","","","","","","","","","","","","","",""
"","time_out","","html-keyboard-response","233","382131","0.0-1.0-314.0-0.0","0","0","48643","","null","","","null","34","","","","","","","","","","","","","","","",""
"","ITI","","html-keyboard-response","234","383144","0.0-1.0-315.0","0","0","48643","","null","","","null","34","","","","","","","","","","","","","","","NaN",""
"","S1","","html-keyboard-response","235","383398","0.0-1.0-317.0","0","0","48643","","null","","","null","35","","","","","","","","","","","","","","","",""
"","ISI","","html-keyboard-response","236","384408","0.0-1.0-318.0","0","0","48643","","null","","","null","35","NaN","","","","","","","","","","","","","","",""
"","S2","","html-keyboard-response","237","384661","0.0-1.0-319.0","0","0","48643","","null","","","null","35","","NaN","","","","","","","","","","","","","",""
"","response","","html-keyboard-response","238","384712","0.0-1.0-320.0-0.0","0","0","48643","","48","","","75","35","","","1","35","training","adjacent","BC","2","3","L.jpg","R.jpg","1","1","1","",""
"","feedback","","html-keyboard-response","239","385723","0.0-1.0-321.0-0.0","0","0","48643","","null","","","null","35","","","","","","","","","","","","","","","",""
"","ITI","","html-keyboard-response","240","386739","0.0-1.0-324.0","0","0","48643","","null","","","null","35","","","","","","","","","","","","","","","NaN",""
"","S1","","html-keyboard-response","241","386994","0.0-1.0-326.0","0","0","48643","","null","","","null","36","","","","","","","","","","","","","","","",""
"","ISI","","html-keyboard-response","242","388006","0.0-1.0-327.0","0","0","48643","","null","","","null","36","NaN","","","","","","","","","","","","","","",""
"","S2","","html-keyboard-response","243","388258","0.0-1.0-328.0","0","0","48643","","null","","","null","36","","NaN","","","","","","","","","","","","","",""
"","response","","html-keyboard-response","244","388311","0.0-1.0-329.0-0.0","0","0","48643","","51","","","75","36","","","1","36","training","adjacent","GF","7","6","O.jpg","M.jpg","1","0","0","",""
"","feedback","","html-keyboard-response","245","389318","0.0-1.0-330.0-0.0","0","0","48643","","null","","","null","36","","","","","","","","","","","","","","","",""
"","time_out","","html-keyboard-response","246","391330","0.0-1.0-332.0-0.0","0","0","48643","","null","","","null","36","","","","","","","","","","","","","","","",""
"","ITI","","html-keyboard-response","247","392343","0.0-1.0-333.0","0","0","48643","","null","","","null","36","","","","","","","","","","","","","","","NaN",""
"","S1","","html-keyboard-response","248","392596","0.0-1.0-335.0","0","0","48643","","null","","","null","37","","","","","","","","","","","","","","","",""
"","ISI","","html-keyboard-response","249","393613","0.0-1.0-336.0","0","0","48643","","null","","","null","37","NaN","","","","","","","","","","","","","","",""
"","S2","","html-keyboard-response","250","393878","0.0-1.0-337.0","0","0","48643","","null","","","null","37","","NaN","","","","","","","","","","","","","",""
"","response","","html-keyboard-response","251","393879","0.0-1.0-338.0-0.0","0","0","48643","","1","","","68","37","","","1","37","training","adjacent","ED","5","4","P.jpg","N.jpg","0","0","1","",""
"","feedback","","html-keyboard-response","252","394892","0.0-1.0-339.0-0.0","0","0","48643","","null","","","null","37","","","","","","","","","","","","","","","",""
"","ITI","","html-keyboard-response","253","395901","0.0-1.0-342.0","0","0","48643","","null","","","null","37","","","","","","","","","","","","","","","NaN",""
"","S1","","html-keyboard-response","254","396153","0.0-1.0-344.0","0","0","48643","","null","","","null","38","","","","","","","","","","","","","","","",""
"","ISI","","html-keyboard-response","255","397168","0.0-1.0-345.0","0","0","48643","","null","","","null","38","NaN","","","","","","","","","","","","","","",""
"","S2","","html-keyboard-response","256","397421","0.0-1.0-346.0","0","0","48643","","null","","","null","38","","NaN","","","","","","","","","","","","","",""
"","response","","html-keyboard-response","257","397511","0.0-1.0-347.0-0.0","0","0","48643","","89","","","75","38","","","1","38","training","adjacent","FE","6","5","M.jpg","P.jpg","1","0","0","",""
"","feedback","","html-keyboard-response","258","398527","0.0-1.0-348.0-0.0","0","0","48643","","null","","","null","38","","","","","","","","","","","","","","","",""
"","time_out","","html-keyboard-response","259","400532","0.0-1.0-350.0-0.0","0","0","48643","","null","","","null","38","","","","","","","","","","","","","","","",""
"","ITI","","html-keyboard-response","260","401535","0.0-1.0-351.0","0","0","48643","","null","","","null","38","","","","","","","","","","","","","","","NaN",""
"","S1","","html-keyboard-response","261","401789","0.0-1.0-353.0","0","0","48643","","null","","","null","39","","","","","","","","","","","","","","","",""
"","ISI","","html-keyboard-response","262","402803","0.0-1.0-354.0","0","0","48643","","null","","","null","39","NaN","","","","","","","","","","","","","","",""
"","S2","","html-keyboard-response","263","403057","0.0-1.0-355.0","0","0","48643","","null","","","null","39","","NaN","","","","","","","","","","","","","",""
"","response","","html-keyboard-response","264","403111","0.0-1.0-356.0-0.0","0","0","48643","","53","","","75","39","","","1","39","training","adjacent","BA","2","1","L.jpg","Q.jpg","1","0","0","",""
"","feedback","","html-keyboard-response","265","404116","0.0-1.0-357.0-0.0","0","0","48643","","null","","","null","39","","","","","","","","","","","","","","","",""
"","time_out","","html-keyboard-response","266","406131","0.0-1.0-359.0-0.0","0","0","48643","","null","","","null","39","","","","","","","","","","","","","","","",""
"","ITI","","html-keyboard-response","267","407133","0.0-1.0-360.0","0","0","48643","","null","","","null","39","","","","","","","","","","","","","","","NaN",""
"","S1","","html-keyboard-response","268","407398","0.0-1.0-362.0","0","0","48643","","null","","","null","40","","","","","","","","","","","","","","","",""
"","ISI","","html-keyboard-response","269","408406","0.0-1.0-363.0","0","0","48643","","null","","","null","40","NaN","","","","","","","","","","","","","","",""
"","S2","","html-keyboard-response","270","408657","0.0-1.0-364.0","0","0","48643","","null","","","null","40","","NaN","","","","","","","","","","","","","",""
"","response","","html-keyboard-response","271","408671","0.0-1.0-365.0-0.0","0","0","48643","","11","","","68","40","","","1","40","training","adjacent","CB","3","2","R.jpg","L.jpg","0","0","1","",""
"","feedback","","html-keyboard-response","272","409681","0.0-1.0-366.0-0.0","0","0","48643","","null","","","null","40","","","","","","","","","","","","","","","",""
"","ITI","","html-keyboard-response","273","410693","0.0-1.0-369.0","0","0","48643","","null","","","null","40","","","","","","","","","","","","","","","NaN",""
"","S1","","html-keyboard-response","274","410948","0.0-1.0-371.0","0","0","48643","","null","","","null","41","","","","","","","","","","","","","","","",""
"","ISI","","html-keyboard-response","275","411951","0.0-1.0-372.0","0","0","48643","","null","","","null","41","NaN","","","","","","","","","","","","","","",""
"","S2","","html-keyboard-response","276","412206","0.0-1.0-373.0","0","0","48643","","null","","","null","41","","NaN","","","","","","","","","","","","","",""
"","response","","html-keyboard-response","277","412263","0.0-1.0-374.0-0.0","0","0","48643","","56","","","68","41","","","1","41","training","adjacent","AB","1","2","Q.jpg","L.jpg","0","1","0","",""
"","feedback","","html-keyboard-response","278","413275","0.0-1.0-375.0-0.0","0","0","48643","","null","","","null","41","","","","","","","","","","","","","","","",""
"","time_out","","html-keyboard-response","279","415280","0.0-1.0-377.0-0.0","0","0","48643","","null","","","null","41","","","","","","","","","","","","","","","",""
"","ITI","","html-keyboard-response","280","416291","0.0-1.0-378.0","0","0","48643","","null","","","null","41","","","","","","","","","","","","","","","NaN",""
"","S1","","html-keyboard-response","281","416545","0.0-1.0-380.0","0","0","48643","","null","","","null","42","","","","","","","","","","","","","","","",""
"","ISI","","html-keyboard-response","282","417559","0.0-1.0-381.0","0","0","48643","","null","","","null","42","NaN","","","","","","","","","","","","","","",""
"","S2","","html-keyboard-response","283","417813","0.0-1.0-382.0","0","0","48643","","null","","","null","42","","NaN","","","","","","","","","","","","","",""
"","response","","html-keyboard-response","284","417824","0.0-1.0-383.0-0.0","0","0","48643","","9","","","75","42","","","1","42","training","adjacent","AB","1","2","Q.jpg","L.jpg","1","1","1","",""
"","feedback","","html-keyboard-response","285","418828","0.0-1.0-384.0-0.0","0","0","48643","","null","","","null","42","","","","","","","","","","","","","","","",""
"","ITI","","html-keyboard-response","286","419830","0.0-1.0-387.0","0","0","48643","","null","","","null","42","","","","","","","","","","","","","","","NaN",""
"","S1","","html-keyboard-response","287","420097","0.0-1.0-389.0","0","0","48643","","null","","","null","43","","","","","","","","","","","","","","","",""
"","ISI","","html-keyboard-response","288","421110","0.0-1.0-390.0","0","0","48643","","null","","","null","43","NaN","","","","","","","","","","","","","","",""
"","S2","","html-keyboard-response","289","421365","0.0-1.0-391.0","0","0","48643","","null","","","null","43","","NaN","","","","","","","","","","","","","",""
"","response","","html-keyboard-response","290","421632","0.0-1.0-392.0-0.0","0","0","48643","","265","","","75","43","","","1","43","training","adjacent","ED","5","4","P.jpg","N.jpg","1","0","0","",""
"","feedback","","html-keyboard-response","291","422648","0.0-1.0-393.0-0.0","0","0","48643","","null","","","null","43","","","","","","","","","","","","","","","",""
"","time_out","","html-keyboard-response","292","424661","0.0-1.0-395.0-0.0","0","0","48643","","null","","","null","43","","","","","","","","","","","","","","","",""
"","ITI","","html-keyboard-response","293","425675","0.0-1.0-396.0","0","0","48643","","null","","","null","43","","","","","","","","","","","","","","","NaN",""
"","S1","","html-keyboard-response","294","425929","0.0-1.0-398.0","0","0","48643","","null","","","null","44","","","","","","","","","","","","","","","",""
"","ISI","","html-keyboard-response","295","426946","0.0-1.0-399.0","0","0","48643","","null","","","null","44","NaN","","","","","","","","","","","","","","",""
"","S2","","html-keyboard-response","296","427198","0.0-1.0-400.0","0","0","48643","","null","","","null","44","","NaN","","","","","","","","","","","","","",""
"","response","","html-keyboard-response","297","427255","0.0-1.0-401.0-0.0","0","0","48643","","56","","","75","44","","","1","44","training","adjacent","FG","6","7","M.jpg","O.jpg","1","1","1","",""
"","feedback","","html-keyboard-response","298","428260","0.0-1.0-402.0-0.0","0","0","48643","","null","","","null","44","","","","","","","","","","","","","","","",""
"","ITI","","html-keyboard-response","299","429266","0.0-1.0-405.0","0","0","48643","","null","","","null","44","","","","","","","","","","","","","","","NaN",""
"","S1","","html-keyboard-response","300","429532","0.0-1.0-407.0","0","0","48643","","null","","","null","45","","","","","","","","","","","","","","","",""
"","ISI","","html-keyboard-response","301","430543","0.0-1.0-408.0","0","0","48643","","null","","","null","45","NaN","","","","","","","","","","","","","","",""
"","S2","","html-keyboard-response","302","430798","0.0-1.0-409.0","0","0","48643","","null","","","null","45","","NaN","","","","","","","","","","","","","",""
"","response","","html-keyboard-response","303","430856","0.0-1.0-410.0-0.0","0","0","48643","","55","","","68","45","","","1","45","training","adjacent","CB","3","2","R.jpg","L.jpg","0","0","1","",""
"","feedback","","html-keyboard-response","304","431863","0.0-1.0-411.0-0.0","0","0","48643","","null","","","null","45","","","","","","","","","","","","","","","",""
"","ITI","","html-keyboard-response","305","432877","0.0-1.0-414.0","0","0","48643","","null","","","null","45","","","","","","","","","","","","","","","NaN",""
"","S1","","html-keyboard-response","306","433132","0.0-1.0-416.0","0","0","48643","","null","","","null","46","","","","","","","","","","","","","","","",""
"","ISI","","html-keyboard-response","307","434144","0.0-1.0-417.0","0","0","48643","","null","","","null","46","NaN","","","","","","","","","","","","","","",""
"","S2","","html-keyboard-response","308","434396","0.0-1.0-418.0","0","0","48643","","null","","","null","46","","NaN","","","","","","","","","","","","","",""
"","response","","html-keyboard-response","309","434472","0.0-1.0-419.0-0.0","0","0","48643","","73","","","75","46","","","1","46","training","adjacent","DC","4","3","N.jpg","R.jpg","1","0","0","",""
"","feedback","","html-keyboard-response","310","435479","0.0-1.0-420.0-0.0","0","0","48643","","null","","","null","46","","","","","","","","","","","","","","","",""
"","time_out","","html-keyboard-response","311","437491","0.0-1.0-422.0-0.0","0","0","48643","","null","","","null","46","","","","","","","","","","","","","","","",""
"","ITI","","html-keyboard-response","312","438504","0.0-1.0-423.0","0","0","48643","","null","","","null","46","","","","","","","","","","","","","","","NaN",""
"","S1","","html-keyboard-response","313","438760","0.0-1.0-425.0","0","0","48643","","null","","","null","47","","","","","","","","","","","","","","","",""
"","ISI","","html-keyboard-response","314","439773","0.0-1.0-426.0","0","0","48643","","null","","","null","47","NaN","","","","","","","","","","","","","","",""
"","S2","","html-keyboard-response","315","440027","0.0-1.0-427.0","0","0","48643","","null","","","null","47","","NaN","","","","","","","","","","","","","",""
"","response","","html-keyboard-response","316","440111","0.0-1.0-428.0-0.0","0","0","48643","","82","","","68","47","","","1","47","training","adjacent","FE","6","5","M.jpg","P.jpg","0","0","1","",""
"","feedback","","html-keyboard-response","317","441121","0.0-1.0-429.0-0.0","0","0","48643","","null","","","null","47","","","","","","","","","","","","","","","",""
"","ITI","","html-keyboard-response","318","442132","0.0-1.0-432.0","0","0","48643","","null","","","null","47","","","","","","","","","","","","","","","NaN",""
"","block_over","","html-keyboard-response","319","1629166","0.0-1.0-433.0-0.0","0","0","48643","","1187031","","","32","47","","","","","","","","","","","","","","","",""
"","S1","","html-keyboard-response","320","1629423","0.0-1.0-434.0","0","0","48643","","null","","","null","48","","","","","","","","","","","","","","","",""
"","ISI","","html-keyboard-response","321","1630432","0.0-1.0-435.0","0","0","48643","","null","","","null","48","NaN","","","","","","","","","","","","","","",""
"","S2","","html-keyboard-response","322","1630686","0.0-1.0-436.0","0","0","48643","","null","","","null","48","","NaN","","","","","","","","","","","","","",""
"","response","","html-keyboard-response","323","1630821","0.0-1.0-437.0-0.0","0","0","48643","","133","","","75","48","","","2","48","training","adjacent","DE","4","5","N.jpg","P.jpg","1","1","1","",""
"","feedback","","html-keyboard-response","324","1631826","0.0-1.0-438.0-0.0","0","0","48643","","null","","","null","48","","","","","","","","","","","","","","","",""
"","ITI","","html-keyboard-response","325","1632829","0.0-1.0-441.0","0","0","48643","","null","","","null","48","","","","","","","","","","","","","","","NaN",""
"","S1","","html-keyboard-response","326","1633095","0.0-1.0-443.0","0","0","48643","","null","","","null","49","","","","","","","","","","","","","","","",""
"","ISI","","html-keyboard-response","327","1634100","0.0-1.0-444.0","0","0","48643","","null","","","null","49","NaN","","","","","","","","","","","","","","",""
"","S2","","html-keyboard-response","328","1634360","0.0-1.0-445.0","0","0","48643","","null","","","null","49","","NaN","","","","","","","","","","","","","",""
"","response","","html-keyboard-response","329","1634654","0.0-1.0-446.0-0.0","0","0","48643","","292","","","75","49","","","2","49","training","adjacent","DE","4","5","N.jpg","P.jpg","1","1","1","",""
"","feedback","","html-keyboard-response","330","1635663","0.0-1.0-447.0-0.0","0","0","48643","","null","","","null","49","","","","","","","","","","","","","","","",""
"","ITI","","html-keyboard-response","331","1636670","0.0-1.0-450.0","0","0","48643","","null","","","null","49","","","","","","","","","","","","","","","NaN",""
"","S1","","html-keyboard-response","332","1636924","0.0-1.0-452.0","0","0","48643","","null","","","null","50","","","","","","","","","","","","","","","",""
"","ISI","","html-keyboard-response","333","1637930","0.0-1.0-453.0","0","0","48643","","null","","","null","50","NaN","","","","","","","","","","","","","","",""
"","S2","","html-keyboard-response","334","1638194","0.0-1.0-454.0","0","0","48643","","null","","","null","50","","NaN","","","","","","","","","","","","","",""
"","response","","html-keyboard-response","335","1638286","0.0-1.0-455.0-0.0","0","0","48643","","90","","","68","50","","","2","50","training","adjacent","ED","5","4","P.jpg","N.jpg","0","0","1","",""
"","feedback","","html-keyboard-response","336","1639304","0.0-1.0-456.0-0.0","0","0","48643","","null","","","null","50","","","","","","","","","","","","","","","",""
"","ITI","","html-keyboard-response","337","1640310","0.0-1.0-459.0","0","0","48643","","null","","","null","50","","","","","","","","","","","","","","","NaN",""
"","S1","","html-keyboard-response","338","1640563","0.0-1.0-461.0","0","0","48643","","null","","","null","51","","","","","","","","","","","","","","","",""
"","ISI","","html-keyboard-response","339","1641577","0.0-1.0-462.0","0","0","48643","","null","","","null","51","NaN","","","","","","","","","","","","","","",""
"","S2","","html-keyboard-response","340","1641830","0.0-1.0-463.0","0","0","48643","","null","","","null","51","","NaN","","","","","","","","","","","","","",""
"","response","","html-keyboard-response","341","1641862","0.0-1.0-464.0-0.0","0","0","48643","","29","","","68","51","","","2","51","training","adjacent","GF","7","6","O.jpg","M.jpg","0","0","1","",""
"","feedback","","html-keyboard-response","342","1642876","0.0-1.0-465.0-0.0","0","0","48643","","null","","","null","51","","","","","","","","","","","","","","","",""
"","ITI","","html-keyboard-response","343","1643890","0.0-1.0-468.0","0","0","48643","","null","","","null","51","","","","","","","","","","","","","","","NaN",""
"","S1","","html-keyboard-response","344","1644157","0.0-1.0-470.0","0","0","48643","","null","","","null","52","","","","","","","","","","","","","","","",""
"","ISI","","html-keyboard-response","345","1645167","0.0-1.0-471.0","0","0","48643","","null","","","null","52","NaN","","","","","","","","","","","","","","",""
"","S2","","html-keyboard-response","346","1645421","0.0-1.0-472.0","0","0","48643","","null","","","null","52","","NaN","","","","","","","","","","","","","",""
"","response","","html-keyboard-response","347","1645456","0.0-1.0-473.0-0.0","0","0","48643","","33","","","68","52","","","2","52","training","adjacent","EF","5","6","P.jpg","M.jpg","0","1","0","",""
"","feedback","","html-keyboard-response","348","1646463","0.0-1.0-474.0-0.0","0","0","48643","","null","","","null","52","","","","","","","","","","","","","","","",""
"","time_out","","html-keyboard-response","349","1648473","0.0-1.0-476.0-0.0","0","0","48643","","null","","","null","52","","","","","","","","","","","","","","","",""
"","ITI","","html-keyboard-response","350","1649482","0.0-1.0-477.0","0","0","48643","","null","","","null","52","","","","","","","","","","","","","","","NaN",""
"","S1","","html-keyboard-response","351","1649734","0.0-1.0-479.0","0","0","48643","","null","","","null","53","","","","","","","","","","","","","","","",""
"","ISI","","html-keyboard-response","352","1650748","0.0-1.0-480.0","0","0","48643","","null","","","null","53","NaN","","","","","","","","","","","","","","",""
"","S2","","html-keyboard-response","353","1651001","0.0-1.0-481.0","0","0","48643","","null","","","null","53","","NaN","","","","","","","","","","","","","",""
"","response","","html-keyboard-response","354","1651077","0.0-1.0-482.0-0.0","0","0","48643","","74","","","68","53","","","2","53","training","adjacent","BC","2","3","L.jpg","R.jpg","0","1","0","",""
"","feedback","","html-keyboard-response","355","1652089","0.0-1.0-483.0-0.0","0","0","48643","","null","","","null","53","","","","","","","","","","","","","","","",""
"","time_out","","html-keyboard-response","356","1654101","0.0-1.0-485.0-0.0","0","0","48643","","null","","","null","53","","","","","","","","","","","","","","","",""
"","ITI","","html-keyboard-response","357","1655113","0.0-1.0-486.0","0","0","48643","","null","","","null","53","","","","","","","","","","","","","","","NaN",""
"","S1","","html-keyboard-response","358","1655365","0.0-1.0-488.0","0","0","48643","","null","","","null","54","","","","","","","","","","","","","","","",""
"","ISI","","html-keyboard-response","359","1656377","0.0-1.0-489.0","0","0","48643","","null","","","null","54","NaN","","","","","","","","","","","","","","",""
"","S2","","html-keyboard-response","360","1656630","0.0-1.0-490.0","0","0","48643","","null","","","null","54","","NaN","","","","","","","","","","","","","",""
"","response","","html-keyboard-response","361","1656637","0.0-1.0-491.0-0.0","0","0","48643","","7","","","75","54","","","2","54","training","adjacent","CB","3","2","R.jpg","L.jpg","1","0","0","",""
"","feedback","","html-keyboard-response","362","1657644","0.0-1.0-492.0-0.0","0","0","48643","","null","","","null","54","","","","","","","","","","","","","","","",""
"","time_out","","html-keyboard-response","363","1659656","0.0-1.0-494.0-0.0","0","0","48643","","null","","","null","54","","","","","","","","","","","","","","","",""
"","ITI","","html-keyboard-response","364","1660665","0.0-1.0-495.0","0","0","48643","","null","","","null","54","","","","","","","","","","","","","","","NaN",""
"","S1","","html-keyboard-response","365","1660933","0.0-1.0-497.0","0","0","48643","","null","","","null","55","","","","","","","","","","","","","","","",""
"","ISI","","html-keyboard-response","366","1661946","0.0-1.0-498.0","0","0","48643","","null","","","null","55","NaN","","","","","","","","","","","","","","",""
"","S2","","html-keyboard-response","367","1662149","0.0-1.0-499.0","0","0","48643","","201","","","68","55","","d","2","55","training","adjacent","AB","1","2","Q.jpg","L.jpg","0","1","0","",""
"","feedback","","html-keyboard-response","368","1663160","0.0-1.0-501.0-0.0","0","0","48643","","null","","","null","55","","","","","","","","","","","","","","","",""
"","time_out","","html-keyboard-response","369","1665177","0.0-1.0-503.0-0.0","0","0","48643","","null","","","null","55","","","","","","","","","","","","","","","",""
"","ITI","","html-keyboard-response","370","1666192","0.0-1.0-504.0","0","0","48643","","null","","","null","55","","","","","","","","","","","","","","","NaN",""
"","S1","","html-keyboard-response","371","1666455","0.0-1.0-506.0","0","0","48643","","null","","","null","56","","","","","","","","","","","","","","","",""
"","ISI","","html-keyboard-response","372","1667471","0.0-1.0-507.0","0","0","48643","","null","","","null","56","NaN","","","","","","","","","","","","","","",""
"","S2","","html-keyboard-response","373","1667678","0.0-1.0-508.0","0","0","48643","","205","","","75","56","","k","2","56","training","adjacent","FE","6","5","M.jpg","P.jpg","1","0","0","",""
"","feedback","","html-keyboard-response","374","1668693","0.0-1.0-510.0-0.0","0","0","48643","","null","","","null","56","","","","","","","","","","","","","","","",""
"","time_out","","html-keyboard-response","375","1670710","0.0-1.0-512.0-0.0","0","0","48643","","null","","","null","56","","","","","","","","","","","","","","","",""
"","ITI","","html-keyboard-response","376","1671720","0.0-1.0-513.0","0","0","48643","","null","","","null","56","","","","","","","","","","","","","","","NaN",""
"","S1","","html-keyboard-response","377","1671972","0.0-1.0-515.0","0","0","48643","","null","","","null","57","","","","","","","","","","","","","","","",""
"","ISI","","html-keyboard-response","378","1672987","0.0-1.0-516.0","0","0","48643","","null","","","null","57","NaN","","","","","","","","","","","","","","",""
"","S2","","html-keyboard-response","379","1673254","0.0-1.0-517.0","0","0","48643","","null","","","null","57","","NaN","","","","","","","","","","","","","",""
"","response","","html-keyboard-response","380","1673359","0.0-1.0-518.0-0.0","0","0","48643","","103","","","75","57","","","2","57","training","adjacent","GF","7","6","O.jpg","M.jpg","1","0","0","",""
"","feedback","","html-keyboard-response","381","1674377","0.0-1.0-519.0-0.0","0","0","48643","","null","","","null","57","","","","","","","","","","","","","","","",""
"","time_out","","html-keyboard-response","382","1676383","0.0-1.0-521.0-0.0","0","0","48643","","null","","","null","57","","","","","","","","","","","","","","","",""
"","ITI","","html-keyboard-response","383","1677398","0.0-1.0-522.0","0","0","48643","","null","","","null","57","","","","","","","","","","","","","","","NaN",""
"","S1","","html-keyboard-response","384","1677664","0.0-1.0-524.0","0","0","48643","","null","","","null","58","","","","","","","","","","","","","","","",""
"","ISI","","html-keyboard-response","385","1678675","0.0-1.0-525.0","0","0","48643","","null","","","null","58","NaN","","","","","","","","","","","","","","",""
"","S2","","html-keyboard-response","386","1678918","0.0-1.0-526.0","0","0","48643","","241","","","68","58","","d","2","58","training","adjacent","BC","2","3","L.jpg","R.jpg","0","1","0","",""
"","feedback","","html-keyboard-response","387","1679927","0.0-1.0-528.0-0.0","0","0","48643","","null","","","null","58","","","","","","","","","","","","","","","",""
"","time_out","","html-keyboard-response","388","1681933","0.0-1.0-530.0-0.0","0","0","48643","","null","","","null","58","","","","","","","","","","","","","","","",""
"","ITI","","html-keyboard-response","389","1682940","0.0-1.0-531.0","0","0","48643","","null","","","null","58","","","","","","","","","","","","","","","NaN",""
"","S1","","html-keyboard-response","390","1683203","0.0-1.0-533.0","0","0","48643","","null","","","null","59","","","","","","","","","","","","","","","",""
"","ISI","","html-keyboard-response","391","1684214","0.0-1.0-534.0","0","0","48643","","257","","","75","59","k","","","","","","","","","","","","","","",""
"","S2","","html-keyboard-response","392","1684430","0.0-1.0-535.0","0","0","48643","","214","","","75","59","","k","2","59","training","adjacent","CB","3","2","R.jpg","L.jpg","1","0","0","",""
"","feedback","","html-keyboard-response","393","1685438","0.0-1.0-537.0-0.0","0","0","48643","","null","","","null","59","","","","","","","","","","","","","","","",""
"","time_out","","html-keyboard-response","394","1687446","0.0-1.0-539.0-0.0","0","0","48643","","null","","","null","59","","","","","","","","","","","","","","","",""
"","ITI","","html-keyboard-response","395","1688459","0.0-1.0-540.0","0","0","48643","","null","","","null","59","","","","","","","","","","","","","","","NaN",""
"","S1","","html-keyboard-response","396","1688715","0.0-1.0-542.0","0","0","48643","","null","","","null","60","","","","","","","","","","","","","","","",""
"","ISI","","html-keyboard-response","397","1689723","0.0-1.0-543.0","0","0","48643","","null","","","null","60","NaN","","","","","","","","","","","","","","",""
"","S2","","html-keyboard-response","398","1689966","0.0-1.0-544.0","0","0","48643","","241","","","75","60","","k","2","60","training","adjacent","BA","2","1","L.jpg","Q.jpg","1","0","0","",""
"","feedback","","html-keyboard-response","399","1690971","0.0-1.0-546.0-0.0","0","0","48643","","null","","","null","60","","","","","","","","","","","","","","","",""
"","time_out","","html-keyboard-response","400","1692984","0.0-1.0-548.0-0.0","0","0","48643","","null","","","null","60","","","","","","","","","","","","","","","",""
"","ITI","","html-keyboard-response","401","1693993","0.0-1.0-549.0","0","0","48643","","null","","","null","60","","","","","","","","","","","","","","","NaN",""
"","S1","","html-keyboard-response","402","1694258","0.0-1.0-551.0","0","0","48643","","null","","","null","61","","","","","","","","","","","","","","","",""
"","ISI","","html-keyboard-response","403","1695272","0.0-1.0-552.0","0","0","48643","","null","","","null","61","NaN","","","","","","","","","","","","","","",""
"","S2","","html-keyboard-response","404","1695524","0.0-1.0-553.0","0","0","48643","","null","","","null","61","","NaN","","","","","","","","","","","","","",""
"","response","","html-keyboard-response","405","1695606","0.0-1.0-554.0-0.0","0","0","48643","","80","","","68","61","","","2","61","training","adjacent","FE","6","5","M.jpg","P.jpg","0","0","1","",""
"","feedback","","html-keyboard-response","406","1696618","0.0-1.0-555.0-0.0","0","0","48643","","null","","","null","61","","","","","","","","","","","","","","","",""
"","ITI","","html-keyboard-response","407","1697623","0.0-1.0-558.0","0","0","48643","","null","","","null","61","","","","","","","","","","","","","","","NaN",""
"","S1","","html-keyboard-response","408","1697890","0.0-1.0-560.0","0","0","48643","","null","","","null","62","","","","","","","","","","","","","","","",""
"","ISI","","html-keyboard-response","409","1698905","0.0-1.0-561.0","0","0","48643","","null","","","null","62","NaN","","","","","","","","","","","","","","",""
"","S2","","html-keyboard-response","410","1699143","0.0-1.0-562.0","0","0","48643","","235","","","68","62","","d","2","62","training","adjacent","CB","3","2","R.jpg","L.jpg","0","0","1","",""
"","feedback","","html-keyboard-response","411","1700159","0.0-1.0-564.0-0.0","0","0","48643","","null","","","null","62","","","","","","","","","","","","","","","",""
"","ITI","","html-keyboard-response","412","1701165","0.0-1.0-567.0","0","0","48643","","null","","","null","62","","","","","","","","","","","","","","","NaN",""
"","S1","","html-keyboard-response","413","1701423","0.0-1.0-569.0","0","0","48643","","null","","","null","63","","","","","","","","","","","","","","","",""
"","ISI","","html-keyboard-response","414","1702430","0.0-1.0-570.0","0","0","48643","","null","","","null","63","NaN","","","","","","","","","","","","","","",""
"","S2","","html-keyboard-response","415","1702629","0.0-1.0-571.0","0","0","48643","","197","","","68","63","","d","2","63","training","adjacent","FG","6","7","M.jpg","O.jpg","0","1","0","",""
"","feedback","","html-keyboard-response","416","1703632","0.0-1.0-573.0-0.0","0","0","48643","","null","","","null","63","","","","","","","","","","","","","","","",""
"","time_out","","html-keyboard-response","417","1705634","0.0-1.0-575.0-0.0","0","0","48643","","null","","","null","63","","","","","","","","","","","","","","","",""
"","ITI","","html-keyboard-response","418","1706638","0.0-1.0-576.0","0","0","48643","","null","","","null","63","","","","","","","","","","","","","","","NaN",""
"","S1","","html-keyboard-response","419","1706905","0.0-1.0-578.0","0","0","48643","","null","","","null","64","","","","","","","","","","","","","","","",""
"","ISI","","html-keyboard-response","420","1707915","0.0-1.0-579.0","0","0","48643","","null","","","null","64","NaN","","","","","","","","","","","","","","",""
"","S2","","html-keyboard-response","421","1708175","0.0-1.0-580.0","0","0","48643","","258","","","68","64","","d","2","64","training","adjacent","CD","3","4","R.jpg","N.jpg","0","1","0","",""
"","feedback","","html-keyboard-response","422","1709191","0.0-1.0-582.0-0.0","0","0","48643","","null","","","null","64","","","","","","","","","","","","","","","",""
"","time_out","","html-keyboard-response","423","1711199","0.0-1.0-584.0-0.0","0","0","48643","","null","","","null","64","","","","","","","","","","","","","","","",""
"","ITI","","html-keyboard-response","424","1712209","0.0-1.0-585.0","0","0","48643","","null","","","null","64","","","","","","","","","","","","","","","NaN",""
"","S1","","html-keyboard-response","425","1712464","0.0-1.0-587.0","0","0","48643","","null","","","null","65","","","","","","","","","","","","","","","",""
"","ISI","","html-keyboard-response","426","1713476","0.0-1.0-588.0","0","0","48643","","null","","","null","65","NaN","","","","","","","","","","","","","","",""
"","S2","","html-keyboard-response","427","1713743","0.0-1.0-589.0","0","0","48643","","null","","","null","65","","NaN","","","","","","","","","","","","","",""
"","response","","html-keyboard-response","428","1713749","0.0-1.0-590.0-0.0","0","0","48643","","5","","","68","65","","","2","65","training","adjacent","EF","5","6","P.jpg","M.jpg","0","1","0","",""
"","feedback","","html-keyboard-response","429","1714754","0.0-1.0-591.0-0.0","0","0","48643","","null","","","null","65","","","","","","","","","","","","","","","",""
"","time_out","","html-keyboard-response","430","1716767","0.0-1.0-593.0-0.0","0","0","48643","","null","","","null","65","","","","","","","","","","","","","","","",""
"","ITI","","html-keyboard-response","431","1717771","0.0-1.0-594.0","0","0","48643","","null","","","null","65","","","","","","","","","","","","","","","NaN",""
"","S1","","html-keyboard-response","432","1718026","0.0-1.0-596.0","0","0","48643","","null","","","null","66","","","","","","","","","","","","","","","",""
"","ISI","","html-keyboard-response","433","1719033","0.0-1.0-597.0","0","0","48643","","null","","","null","66","NaN","","","","","","","","","","","","","","",""
"","S2","","html-keyboard-response","434","1719301","0.0-1.0-598.0","0","0","48643","","null","","","null","66","","NaN","","","","","","","","","","","","","",""
"","response","","html-keyboard-response","435","1719326","0.0-1.0-599.0-0.0","0","0","48643","","23","","","68","66","","","2","66","training","adjacent","AB","1","2","Q.jpg","L.jpg","0","1","0","",""
"","feedback","","html-keyboard-response","436","1720342","0.0-1.0-600.0-0.0","0","0","48643","","null","","","null","66","","","","","","","","","","","","","","","",""
"","time_out","","html-keyboard-response","437","1722351","0.0-1.0-602.0-0.0","0","0","48643","","null","","","null","66","","","","","","","","","","","","","","","",""
"","ITI","","html-keyboard-response","438","1723367","0.0-1.0-603.0","0","0","48643","","null","","","null","66","","","","","","","","","","","","","","","NaN",""
"","S1","","html-keyboard-response","439","1723623","0.0-1.0-605.0","0","0","48643","","null","","","null","67","","","","","","","","","","","","","","","",""
"","ISI","","html-keyboard-response","440","1724637","0.0-1.0-606.0","0","0","48643","","null","","","null","67","NaN","","","","","","","","","","","","","","",""
"","S2","","html-keyboard-response","441","1724877","0.0-1.0-607.0","0","0","48643","","240","","","75","67","","k","2","67","training","adjacent","CD","3","4","R.jpg","N.jpg","1","1","1","",""
"","feedback","","html-keyboard-response","442","1725889","0.0-1.0-609.0-0.0","0","0","48643","","null","","","null","67","","","","","","","","","","","","","","","",""
"","ITI","","html-keyboard-response","443","1726903","0.0-1.0-612.0","0","0","48643","","null","","","null","67","","","","","","","","","","","","","","","NaN",""
"","S1","","html-keyboard-response","444","1727157","0.0-1.0-614.0","0","0","48643","","null","","","null","68","","","","","","","","","","","","","","","",""
"","ISI","","html-keyboard-response","445","1728168","0.0-1.0-615.0","0","0","48643","","null","","","null","68","NaN","","","","","","","","","","","","","","",""
"","S2","","html-keyboard-response","446","1728422","0.0-1.0-616.0","0","0","48643","","252","","","68","68","","d","2","68","training","adjacent","DC","4","3","N.jpg","R.jpg","0","0","1","",""
"","feedback","","html-keyboard-response","447","1729438","0.0-1.0-618.0-0.0","0","0","48643","","null","","","null","68","","","","","","","","","","","","","","","",""
"","ITI","","html-keyboard-response","448","1730445","0.0-1.0-621.0","0","0","48643","","null","","","null","68","","","","","","","","","","","","","","","NaN",""
"","S1","","html-keyboard-response","449","1730700","0.0-1.0-623.0","0","0","48643","","null","","","null","69","","","","","","","","","","","","","","","",""
"","ISI","","html-keyboard-response","450","1731713","0.0-1.0-624.0","0","0","48643","","null","","","null","69","NaN","","","","","","","","","","","","","","",""
"","S2","","html-keyboard-response","451","1731957","0.0-1.0-625.0","0","0","48643","","242","","","75","69","","k","2","69","training","adjacent","GF","7","6","O.jpg","M.jpg","1","0","0","",""
"","feedback","","html-keyboard-response","452","1732974","0.0-1.0-627.0-0.0","0","0","48643","","null","","","null","69","","","","","","","","","","","","","","","",""
"","time_out","","html-keyboard-response","453","1734991","0.0-1.0-629.0-0.0","0","0","48643","","null","","","null","69","","","","","","","","","","","","","","","",""
"","ITI","","html-keyboard-response","454","1736003","0.0-1.0-630.0","0","0","48643","","null","","","null","69","","","","","","","","","","","","","","","NaN",""
"","S1","","html-keyboard-response","455","1736269","0.0-1.0-632.0","0","0","48643","","null","","","null","70","","","","","","","","","","","","","","","",""
"","ISI","","html-keyboard-response","456","1737285","0.0-1.0-633.0","0","0","48643","","null","","","null","70","NaN","","","","","","","","","","","","","","",""
"","S2","","html-keyboard-response","457","1737553","0.0-1.0-634.0","0","0","48643","","null","","","null","70","","NaN","","","","","","","","","","","","","",""
"","response","","html-keyboard-response","458","1737636","0.0-1.0-635.0-0.0","0","0","48643","","82","","","75","70","","","2","70","training","adjacent","AB","1","2","Q.jpg","L.jpg","1","1","1","",""
"","feedback","","html-keyboard-response","459","1738647","0.0-1.0-636.0-0.0","0","0","48643","","null","","","null","70","","","","","","","","","","","","","","","",""
"","ITI","","html-keyboard-response","460","1739663","0.0-1.0-639.0","0","0","48643","","null","","","null","70","","","","","","","","","","","","","","","NaN",""
"","S1","","html-keyboard-response","461","1739918","0.0-1.0-641.0","0","0","48643","","null","","","null","71","","","","","","","","","","","","","","","",""
"","ISI","","html-keyboard-response","462","1740933","0.0-1.0-642.0","0","0","48643","","null","","","null","71","NaN","","","","","","","","","","","","","","",""
"","S2","","html-keyboard-response","463","1741185","0.0-1.0-643.0","0","0","48643","","null","","","null","71","","NaN","","","","","","","","","","","","","",""
"","response","","html-keyboard-response","464","1741197","0.0-1.0-644.0-0.0","0","0","48643","","10","","","75","71","","","2","71","training","adjacent","FE","6","5","M.jpg","P.jpg","1","0","0","",""
"","feedback","","html-keyboard-response","465","1742213","0.0-1.0-645.0-0.0","0","0","48643","","null","","","null","71","","","","","","","","","","","","","","","",""
"","time_out","","html-keyboard-response","466","1744231","0.0-1.0-647.0-0.0","0","0","48643","","null","","","null","71","","","","","","","","","","","","","","","",""
"","ITI","","html-keyboard-response","467","1745234","0.0-1.0-648.0","0","0","48643","","null","","","null","71","","","","","","","","","","","","","","","NaN",""
"","S1","","html-keyboard-response","468","1745489","0.0-1.0-650.0","0","0","48643","","null","","","null","72","","","","","","","","","","","","","","","",""
"","ISI","","html-keyboard-response","469","1746499","0.0-1.0-651.0","0","0","48643","","null","","","null","72","NaN","","","","","","","","","","","","","","",""
"","S2","","html-keyboard-response","470","1746766","0.0-1.0-652.0","0","0","48643","","null","","","null","72","","NaN","","","","","","","","","","","","","",""
"","response","","html-keyboard-response","471","1746981","0.0-1.0-653.0-0.0","0","0","48643","","213","","","75","72","","","2","72","training","adjacent","FG","6","7","M.jpg","O.jpg","1","1","1","",""
"","feedback","","html-keyboard-response","472","1747996","0.0-1.0-654.0-0.0","0","0","48643","","null","","","null","72","","","","","","","","","","","","","","","",""
"","ITI","","html-keyboard-response","473","1749001","0.0-1.0-657.0","0","0","48643","","null","","","null","72","","","","","","","","","","","","","","","NaN",""
"","S1","","html-keyboard-response","474","1749256","0.0-1.0-659.0","0","0","48643","","null","","","null","73","","","","","","","","","","","","","","","",""
"","ISI","","html-keyboard-response","475","1750270","0.0-1.0-660.0","0","0","48643","","null","","","null","73","NaN","","","","","","","","","","","","","","",""
"","S2","","html-keyboard-response","476","1750537","0.0-1.0-661.0","0","0","48643","","null","","","null","73","","NaN","","","","","","","","","","","","","",""
"","response","","html-keyboard-response","477","1750558","0.0-1.0-662.0-0.0","0","0","48643","","19","","","68","73","","","2","73","training","adjacent","EF","5","6","P.jpg","M.jpg","0","1","0","",""
"","feedback","","html-keyboard-response","478","1751568","0.0-1.0-663.0-0.0","0","0","48643","","null","","","null","73","","","","","","","","","","","","","","","",""
"","time_out","","html-keyboard-response","479","1753580","0.0-1.0-665.0-0.0","0","0","48643","","null","","","null","73","","","","","","","","","","","","","","","",""
"","ITI","","html-keyboard-response","480","1754591","0.0-1.0-666.0","0","0","48643","","null","","","null","73","","","","","","","","","","","","","","","NaN",""
"","S1","","html-keyboard-response","481","1754845","0.0-1.0-668.0","0","0","48643","","null","","","null","74","","","","","","","","","","","","","","","",""
"","ISI","","html-keyboard-response","482","1755856","0.0-1.0-669.0","0","0","48643","","null","","","null","74","NaN","","","","","","","","","","","","","","",""
"","S2","","html-keyboard-response","483","1756101","0.0-1.0-670.0","0","0","48643","","243","","","75","74","","k","2","74","training","adjacent","FG","6","7","M.jpg","O.jpg","1","1","1","",""
"","feedback","","html-keyboard-response","484","1757104","0.0-1.0-672.0-0.0","0","0","48643","","null","","","null","74","","","","","","","","","","","","","","","",""
"","ITI","","html-keyboard-response","485","1758118","0.0-1.0-675.0","0","0","48643","","null","","","null","74","","","","","","","","","","","","","","","NaN",""
"","S1","","html-keyboard-response","486","1758374","0.0-1.0-677.0","0","0","48643","","null","","","null","75","","","","","","","","","","","","","","","",""
"","ISI","","html-keyboard-response","487","1759386","0.0-1.0-678.0","0","0","48643","","null","","","null","75","NaN","","","","","","","","","","","","","","",""
"","S2","","html-keyboard-response","488","1759640","0.0-1.0-679.0","0","0","48643","","null","","","null","75","","NaN","","","","","","","","","","","","","",""
"","response","","html-keyboard-response","489","1759685","0.0-1.0-680.0-0.0","0","0","48643","","43","","","75","75","","","2","75","training","adjacent","BC","2","3","L.jpg","R.jpg","1","1","1","",""
"","feedback","","html-keyboard-response","490","1760702","0.0-1.0-681.0-0.0","0","0","48643","","null","","","null","75","","","","","","","","","","","","","","","",""
"","ITI","","html-keyboard-response","491","1761712","0.0-1.0-684.0","0","0","48643","","null","","","null","75","","","","","","","","","","","","","","","NaN",""
"","S1","","html-keyboard-response","492","1761965","0.0-1.0-686.0","0","0","48643","","null","","","null","76","","","","","","","","","","","","","","","",""
"","ISI","","html-keyboard-response","493","1762978","0.0-1.0-687.0","0","0","48643","","null","","","null","76","NaN","","","","","","","","","","","","","","",""
"","S2","","html-keyboard-response","494","1763231","0.0-1.0-688.0","0","0","48643","","null","","","null","76","","NaN","","","","","","","","","","","","","",""
"","response","","html-keyboard-response","495","1763454","0.0-1.0-689.0-0.0","0","0","48643","","221","","","75","76","","","2","76","training","adjacent","ED","5","4","P.jpg","N.jpg","1","0","0","",""
"","feedback","","html-keyboard-response","496","1764465","0.0-1.0-690.0-0.0","0","0","48643","","null","","","null","76","","","","","","","","","","","","","","","",""
"","time_out","","html-keyboard-response","497","1766483","0.0-1.0-692.0-0.0","0","0","48643","","null","","","null","76","","","","","","","","","","","","","","","",""
"","ITI","","html-keyboard-response","498","1767495","0.0-1.0-693.0","0","0","48643","","null","","","null","76","","","","","","","","","","","","","","","NaN",""
"","S1","","html-keyboard-response","499","1767748","0.0-1.0-695.0","0","0","48643","","null","","","null","77","","","","","","","","","","","","","","","",""
"","ISI","","html-keyboard-response","500","1768758","0.0-1.0-696.0","0","0","48643","","null","","","null","77","NaN","","","","","","","","","","","","","","",""
"","S2","","html-keyboard-response","501","1768998","0.0-1.0-697.0","0","0","48643","","237","","","68","77","","d","2","77","training","adjacent","BC","2","3","L.jpg","R.jpg","0","1","0","",""
"","feedback","","html-keyboard-response","502","1770001","0.0-1.0-699.0-0.0","0","0","48643","","null","","","null","77","","","","","","","","","","","","","","","",""
"","time_out","","html-keyboard-response","503","1772013","0.0-1.0-701.0-0.0","0","0","48643","","null","","","null","77","","","","","","","","","","","","","","","",""
"","ITI","","html-keyboard-response","504","1773028","0.0-1.0-702.0","0","0","48643","","null","","","null","77","","","","","","","","","","","","","","","NaN",""
"","S1","","html-keyboard-response","505","1773280","0.0-1.0-704.0","0","0","48643","","null","","","null","78","","","","","","","","","","","","","","","",""
"","ISI","","html-keyboard-response","506","1774293","0.0-1.0-705.0","0","0","48643","","null","","","null","78","NaN","","","","","","","","","","","","","","",""
"","S2","","html-keyboard-response","507","1774557","0.0-1.0-706.0","0","0","48643","","263","","","75","78","","k","2","78","training","adjacent","CD","3","4","R.jpg","N.jpg","1","1","1","",""
"","feedback","","html-keyboard-response","508","1775573","0.0-1.0-708.0-0.0","0","0","48643","","null","","","null","78","","","","","","","","","","","","","","","",""
"","ITI","","html-keyboard-response","509","1776582","0.0-1.0-711.0","0","0","48643","","null","","","null","78","","","","","","","","","","","","","","","NaN",""
"","S1","","html-keyboard-response","510","1776835","0.0-1.0-713.0","0","0","48643","","null","","","null","79","","","","","","","","","","","","","","","",""
"","ISI","","html-keyboard-response","511","1777852","0.0-1.0-714.0","0","0","48643","","null","","","null","79","NaN","","","","","","","","","","","","","","",""
"","S2","","html-keyboard-response","512","1778110","0.0-1.0-715.0","0","0","48643","","256","","","68","79","","d","2","79","training","adjacent","DC","4","3","N.jpg","R.jpg","0","0","1","",""
"","feedback","","html-keyboard-response","513","1779127","0.0-1.0-717.0-0.0","0","0","48643","","null","","","null","79","","","","","","","","","","","","","","","",""
"","ITI","","html-keyboard-response","514","1780141","0.0-1.0-720.0","0","0","48643","","null","","","null","79","","","","","","","","","","","","","","","NaN",""
"","S1","","html-keyboard-response","515","1780396","0.0-1.0-722.0","0","0","48643","","null","","","null","80","","","","","","","","","","","","","","","",""
"","ISI","","html-keyboard-response","516","1781407","0.0-1.0-723.0","0","0","48643","","null","","","null","80","NaN","","","","","","","","","","","","","","",""
"","S2","","html-keyboard-response","517","1781661","0.0-1.0-724.0","0","0","48643","","251","","","75","80","","k","2","80","training","adjacent","ED","5","4","P.jpg","N.jpg","1","0","0","",""
"","feedback","","html-keyboard-response","518","1782668","0.0-1.0-726.0-0.0","0","0","48643","","null","","","null","80","","","","","","","","","","","","","","","",""
"","time_out","","html-keyboard-response","519","1784679","0.0-1.0-728.0-0.0","0","0","48643","","null","","","null","80","","","","","","","","","","","","","","","",""
"","ITI","","html-keyboard-response","520","1785693","0.0-1.0-729.0","0","0","48643","","null","","","null","80","","","","","","","","","","","","","","","NaN",""
"","S1","","html-keyboard-response","521","1785947","0.0-1.0-731.0","0","0","48643","","null","","","null","81","","","","","","","","","","","","","","","",""
"","ISI","","html-keyboard-response","522","1786958","0.0-1.0-732.0","0","0","48643","","null","","","null","81","NaN","","","","","","","","","","","","","","",""
"","S2","","html-keyboard-response","523","1787197","0.0-1.0-733.0","0","0","48643","","236","","","68","81","","d","2","81","training","adjacent","CD","3","4","R.jpg","N.jpg","0","1","0","",""
"","feedback","","html-keyboard-response","524","1788208","0.0-1.0-735.0-0.0","0","0","48643","","null","","","null","81","","","","","","","","","","","","","","","",""
"","time_out","","html-keyboard-response","525","1790220","0.0-1.0-737.0-0.0","0","0","48643","","null","","","null","81","","","","","","","","","","","","","","","",""
"","ITI","","html-keyboard-response","526","1791231","0.0-1.0-738.0","0","0","48643","","null","","","null","81","","","","","","","","","","","","","","","NaN",""
"","S1","","html-keyboard-response","527","1791482","0.0-1.0-740.0","0","0","48643","","null","","","null","82","","","","","","","","","","","","","","","",""
"","ISI","","html-keyboard-response","528","1792486","0.0-1.0-741.0","0","0","48643","","null","","","null","82","NaN","","","","","","","","","","","","","","",""
"","S2","","html-keyboard-response","529","1792741","0.0-1.0-742.0","0","0","48643","","253","","","75","82","","k","2","82","training","adjacent","AB","1","2","Q.jpg","L.jpg","1","1","1","",""
"","feedback","","html-keyboard-response","530","1793747","0.0-1.0-744.0-0.0","0","0","48643","","null","","","null","82","","","","","","","","","","","","","","","",""
"","ITI","","html-keyboard-response","531","1794761","0.0-1.0-747.0","0","0","48643","","null","","","null","82","","","","","","","","","","","","","","","NaN",""
"","S1","","html-keyboard-response","532","1795014","0.0-1.0-749.0","0","0","48643","","null","","","null","83","","","","","","","","","","","","","","","",""
"","ISI","","html-keyboard-response","533","1796024","0.0-1.0-750.0","0","0","48643","","null","","","null","83","NaN","","","","","","","","","","","","","","",""
"","S2","","html-keyboard-response","534","1796278","0.0-1.0-751.0","0","0","48643","","null","","","null","83","","NaN","","","","","","","","","","","","","",""
"","response","","html-keyboard-response","535","1796341","0.0-1.0-752.0-0.0","0","0","48643","","60","","","75","83","","","2","83","training","adjacent","DE","4","5","N.jpg","P.jpg","1","1","1","",""
"","feedback","","html-keyboard-response","536","1797355","0.0-1.0-753.0-0.0","0","0","48643","","null","","","null","83","","","","","","","","","","","","","","","",""
"","ITI","","html-keyboard-response","537","1798369","0.0-1.0-756.0","0","0","48643","","null","","","null","83","","","","","","","","","","","","","","","NaN",""
"","S1","","html-keyboard-response","538","1798624","0.0-1.0-758.0","0","0","48643","","null","","","null","84","","","","","","","","","","","","","","","",""
"","ISI","","html-keyboard-response","539","1799628","0.0-1.0-759.0","0","0","48643","","null","","","null","84","NaN","","","","","","","","","","","","","","",""
"","S2","","html-keyboard-response","540","1799884","0.0-1.0-760.0","0","0","48643","","null","","","null","84","","NaN","","","","","","","","","","","","","",""
"","response","","html-keyboard-response","541","1799895","0.0-1.0-761.0-0.0","0","0","48643","","9","","","68","84","","","2","84","training","adjacent","BA","2","1","L.jpg","Q.jpg","0","0","1","",""
"","feedback","","html-keyboard-response","542","1800899","0.0-1.0-762.0-0.0","0","0","48643","","null","","","null","84","","","","","","","","","","","","","","","",""
"","ITI","","html-keyboard-response","543","1801912","0.0-1.0-765.0","0","0","48643","","null","","","null","84","","","","","","","","","","","","","","","NaN",""
"","S1","","html-keyboard-response","544","1802167","0.0-1.0-767.0","0","0","48643","","null","","","null","85","","","","","","","","","","","","","","","",""
"","ISI","","html-keyboard-response","545","1803177","0.0-1.0-768.0","0","0","48643","","null","","","null","85","NaN","","","","","","","","","","","","","","",""
"","S2","","html-keyboard-response","546","1803421","0.0-1.0-769.0","0","0","48643","","242","","","75","85","","k","2","85","training","adjacent","DC","4","3","N.jpg","R.jpg","1","0","0","",""
"","feedback","","html-keyboard-response","547","1804435","0.0-1.0-771.0-0.0","0","0","48643","","null","","","null","85","","","","","","","","","","","","","","","",""
"","time_out","","html-keyboard-response","548","1806443","0.0-1.0-773.0-0.0","0","0","48643","","null","","","null","85","","","","","","","","","","","","","","","",""
"","ITI","","html-keyboard-response","549","1807457","0.0-1.0-774.0","0","0","48643","","null","","","null","85","","","","","","","","","","","","","","","NaN",""
"","S1","","html-keyboard-response","550","1807711","0.0-1.0-776.0","0","0","48643","","null","","","null","86","","","","","","","","","","","","","","","",""
"","ISI","","html-keyboard-response","551","1808727","0.0-1.0-777.0","0","0","48643","","null","","","null","86","NaN","","","","","","","","","","","","","","",""
"","S2","","html-keyboard-response","552","1808957","0.0-1.0-778.0","0","0","48643","","228","","","68","86","","d","2","86","training","adjacent","BA","2","1","L.jpg","Q.jpg","0","0","1","",""
"","feedback","","html-keyboard-response","553","1809973","0.0-1.0-780.0-0.0","0","0","48643","","null","","","null","86","","","","","","","","","","","","","","","",""
"","ITI","","html-keyboard-response","554","1810991","0.0-1.0-783.0","0","0","48643","","null","","","null","86","","","","","","","","","","","","","","","NaN",""
"","S1","","html-keyboard-response","555","1811246","0.0-1.0-785.0","0","0","48643","","null","","","null","87","","","","","","","","","","","","","","","",""
"","ISI","","html-keyboard-response","556","1812259","0.0-1.0-786.0","0","0","48643","","null","","","null","87","NaN","","","","","","","","","","","","","","",""
"","S2","","html-keyboard-response","557","1812513","0.0-1.0-787.0","0","0","48643","","null","","","null","87","","NaN","","","","","","","","","","","","","",""
"","response","","html-keyboard-response","558","1812548","0.0-1.0-788.0-0.0","0","0","48643","","34","","","68","87","","","2","87","training","adjacent","DE","4","5","N.jpg","P.jpg","0","1","0","",""
"","feedback","","html-keyboard-response","559","1813557","0.0-1.0-789.0-0.0","0","0","48643","","null","","","null","87","","","","","","","","","","","","","","","",""
"","time_out","","html-keyboard-response","560","1815569","0.0-1.0-791.0-0.0","0","0","48643","","null","","","null","87","","","","","","","","","","","","","","","",""
"","ITI","","html-keyboard-response","561","1816578","0.0-1.0-792.0","0","0","48643","","null","","","null","87","","","","","","","","","","","","","","","NaN",""
"","S1","","html-keyboard-response","562","1816831","0.0-1.0-794.0","0","0","48643","","null","","","null","88","","","","","","","","","","","","","","","",""
"","ISI","","html-keyboard-response","563","1817846","0.0-1.0-795.0","0","0","48643","","null","","","null","88","NaN","","","","","","","","","","","","","","",""
"","S2","","html-keyboard-response","564","1818069","0.0-1.0-796.0","0","0","48643","","221","","","68","88","","d","2","88","training","adjacent","EF","5","6","P.jpg","M.jpg","0","1","0","",""
"","feedback","","html-keyboard-response","565","1819075","0.0-1.0-798.0-0.0","0","0","48643","","null","","","null","88","","","","","","","","","","","","","","","",""
"","time_out","","html-keyboard-response","566","1821082","0.0-1.0-800.0-0.0","0","0","48643","","null","","","null","88","","","","","","","","","","","","","","","",""
"","ITI","","html-keyboard-response","567","1822097","0.0-1.0-801.0","0","0","48643","","null","","","null","88","","","","","","","","","","","","","","","NaN",""
"","S1","","html-keyboard-response","568","1822350","0.0-1.0-803.0","0","0","48643","","null","","","null","89","","","","","","","","","","","","","","","",""
"","ISI","","html-keyboard-response","569","1823367","0.0-1.0-804.0","0","0","48643","","null","","","null","89","NaN","","","","","","","","","","","","","","",""
"","S2","","html-keyboard-response","570","1823621","0.0-1.0-805.0","0","0","48643","","null","","","null","89","","NaN","","","","","","","","","","","","","",""
"","response","","html-keyboard-response","571","1823629","0.0-1.0-806.0-0.0","0","0","48643","","6","","","75","89","","","2","89","training","adjacent","ED","5","4","P.jpg","N.jpg","1","0","0","",""
"","feedback","","html-keyboard-response","572","1824634","0.0-1.0-807.0-0.0","0","0","48643","","null","","","null","89","","","","","","","","","","","","","","","",""
"","time_out","","html-keyboard-response","573","1826643","0.0-1.0-809.0-0.0","0","0","48643","","null","","","null","89","","","","","","","","","","","","","","","",""
"","ITI","","html-keyboard-response","574","1827654","0.0-1.0-810.0","0","0","48643","","null","","","null","89","","","","","","","","","","","","","","","NaN",""
"","S1","","html-keyboard-response","575","1827911","0.0-1.0-812.0","0","0","48643","","null","","","null","90","","","","","","","","","","","","","","","",""
"","ISI","","html-keyboard-response","576","1828925","0.0-1.0-813.0","0","0","48643","","null","","","null","90","NaN","","","","","","","","","","","","","","",""
"","S2","","html-keyboard-response","577","1829172","0.0-1.0-814.0","0","0","48643","","245","","","68","90","","d","2","90","training","adjacent","FG","6","7","M.jpg","O.jpg","0","1","0","",""
"","feedback","","html-keyboard-response","578","1830180","0.0-1.0-816.0-0.0","0","0","48643","","null","","","null","90","","","","","","","","","","","","","","","",""
"","time_out","","html-keyboard-response","579","1832193","0.0-1.0-818.0-0.0","0","0","48643","","null","","","null","90","","","","","","","","","","","","","","","",""
