"success","ttype","start_time","trial_type","trial_index","time_elapsed","internal_node_id","warning","missed_checkup","PID","view_history","rt","responses","repeat_instructions","key_press","index","keypress_isi","keypress_S2","block","trial_num","phase","group_type","pair_type","S1_stim","S2_stim","S1_img","S2_img","S1_chosen","S1_higher","accuracy","keypress_iti","total_bonus_tally"
"true","full_screen","d03082023hr2026","fullscreen","0","17752","0.0-0.0","0","0","54645","","","","","","","","","","","","","","","","","","","","","",""
"","instructions","","instructions","1","48534","0.0-1.0-0.0-0.0","0","0","54645","[{""page_index"":0,""viewing_time"":3971},{""page_index"":1,""viewing_time"":12110},{""page_index"":2,""viewing_time"":13185},{""page_index"":3,""viewing_time"":1512}]","30778","","","","","","","","","","","","","","","","","","","",""
"","comprehension_check","","survey-multi-choice","2","72319","0.0-1.0-0.0-1.0","0","0","54645","","23781","{""Q0"":""True"",""Q1"":""D"",""Q2"":""Once the second image appears and while the screen 'MAKE A CHOICE' is shown"",""Q3"":""Green mark"",""Q4"":""either D or K""}","1","","","","","","","","","","","","","","","","","",""
"","missed_instruction_checkup","","html-keyboard-response","3","75814","0.0-1.0-0.0-2.0-0.0","0","1","54645","","3492","","","32","","","","","","","","","","","","","","","","",""
"","instructions","","instructions","4","94677","0.0-1.0-0.1-0.1","0","0","54645","[{""page_index"":0,""viewing_time"":4565},{""page_index"":1,""viewing_time"":11553},{""page_index"":2,""viewing_time"":1816},{""page_index"":3,""viewing_time"":927}]","18861","","","","","","","","","","","","","","","","","","","",""
"","comprehension_check","","survey-multi-choice","5","106934","0.0-1.0-0.1-1.1","0","0","54645","","12253","{""Q0"":""True"",""Q1"":""K"",""Q2"":""Once the second image appears and while the screen 'MAKE A CHOICE' is shown"",""Q3"":""Green mark"",""Q4"":""either D or K""}","0","","","","","","","","","","","","","","","","","",""
"","start_exp","","html-keyboard-response","6","110021","0.0-1.0-1.0","0","0","54645","","3084","","","32","","","","","","","","","","","","","","","","",""
"","S1","","html-keyboard-response","7","110290","0.0-1.0-2.0","0","0","54645","","null","","","null","0","","","","","","","","","","","","","","","",""
"","ISI","","html-keyboard-response","8","110446","0.0-1.0-3.0","0","0","54645","","null","","","null","0","NaN","","","","","","","","","","","","","","",""
"","S2","","html-keyboard-response","9","110711","0.0-1.0-4.0","0","0","54645","","null","","","null","0","","NaN","","","","","","","","","","","","","",""
"","response","","html-keyboard-response","10","111621","0.0-1.0-5.0-0.0","0","0","54645","","908","","","68","0","","","1","0","training","adjacent","CD","3","4","O.jpg","N.jpg","0","1","0","",""
"","feedback","","html-keyboard-response","11","112637","0.0-1.0-6.0-0.0","0","0","54645","","null","","","null","0","","","","","","","","","","","","","","","",""
"","time_out","","html-keyboard-response","12","114643","0.0-1.0-8.0-0.0","0","0","54645","","null","","","null","0","","","","","","","","","","","","","","","",""
"","ITI","","html-keyboard-response","13","115655","0.0-1.0-9.0","0","0","54645","","73","","","75","0","","","","","","","","","","","","","","","k",""
"","S1","","html-keyboard-response","14","115916","0.0-1.0-11.0","0","0","54645","","null","","","null","1","","","","","","","","","","","","","","","",""
"","ISI","","html-keyboard-response","15","116070","0.0-1.0-12.0","0","0","54645","","120","","","75","1","k","","","","","","","","","","","","","","",""
"","S2","","html-keyboard-response","16","116327","0.0-1.0-13.0","0","0","54645","","null","","","null","1","","NaN","","","","","","","","","","","","","",""
"","response","","html-keyboard-response","17","116741","0.0-1.0-14.0-0.0","0","0","54645","","413","","","75","1","","","1","1","training","adjacent","DC","4","3","N.jpg","O.jpg","1","0","0","",""
"","feedback","","html-keyboard-response","18","117755","0.0-1.0-15.0-0.0","0","0","54645","","null","","","null","1","","","","","","","","","","","","","","","",""
"","time_out","","html-keyboard-response","19","119769","0.0-1.0-17.0-0.0","0","0","54645","","null","","","null","1","","","","","","","","","","","","","","","",""
"","ITI","","html-keyboard-response","20","120777","0.0-1.0-18.0","0","0","54645","","null","","","null","1","","","","","","","","","","","","","","","NaN",""
"","S1","","html-keyboard-response","21","121042","0.0-1.0-20.0","0","0","54645","","null","","","null","2","","","","","","","","","","","","","","","",""
"","ISI","","html-keyboard-response","22","121196","0.0-1.0-21.0","0","0","54645","","null","","","null","2","NaN","","","","","","","","","","","","","","",""
"","S2","","html-keyboard-response","23","121462","0.0-1.0-22.0","0","0","54645","","null","","","null","2","","NaN","","","","","","","","","","","","","",""
"","response","","html-keyboard-response","24","121783","0.0-1.0-23.0-0.0","0","0","54645","","318","","","68","2","","","1","2","training","adjacent","BC","2","3","M.jpg","O.jpg","0","1","0","",""
"","feedback","","html-keyboard-response","25","122787","0.0-1.0-24.0-0.0","0","0","54645","","null","","","null","2","","","","","","","","","","","","","","","",""
"","time_out","","html-keyboard-response","26","124791","0.0-1.0-26.0-0.0","0","0","54645","","null","","","null","2","","","","","","","","","","","","","","","",""
"","ITI","","html-keyboard-response","27","125810","0.0-1.0-27.0","0","0","54645","","333","","","75","2","","","","","","","","","","","","","","","k",""
"","S1","","html-keyboard-response","28","126076","0.0-1.0-29.0","0","0","54645","","null","","","null","3","","","","","","","","","","","","","","","",""
"","ISI","","html-keyboard-response","29","126235","0.0-1.0-30.0","0","0","54645","","136","","","75","3","k","","","","","","","","","","","","","","",""
"","S2","","html-keyboard-response","30","126488","0.0-1.0-31.0","0","0","54645","","null","","","null","3","","NaN","","","","","","","","","","","","","",""
"","response","","html-keyboard-response","31","126541","0.0-1.0-32.0-0.0","0","0","54645","","52","","","75","3","","","1","3","training","adjacent","EF","5","6","R.jpg","L.jpg","1","1","1","",""
"","feedback","","html-keyboard-response","32","127559","0.0-1.0-33.0-0.0","0","0","54645","","null","","","null","3","","","","","","","","","","","","","","","",""
"","ITI","","html-keyboard-response","33","128570","0.0-1.0-36.0","0","0","54645","","669","","","75","3","","","","","","","","","","","","","","","k",""
"","S1","","html-keyboard-response","34","128834","0.0-1.0-38.0","0","0","54645","","null","","","null","4","","","","","","","","","","","","","","","",""
"","ISI","","html-keyboard-response","35","128990","0.0-1.0-39.0","0","0","54645","","null","","","null","4","NaN","","","","","","","","","","","","","","",""
"","S2","","html-keyboard-response","36","129190","0.0-1.0-40.0","0","0","54645","","198","","","75","4","","k","1","4","training","adjacent","FG","6","7","L.jpg","P.jpg","1","1","1","",""
"","feedback","","html-keyboard-response","37","130205","0.0-1.0-42.0-0.0","0","0","54645","","null","","","null","4","","","","","","","","","","","","","","","",""
"","ITI","","html-keyboard-response","38","131213","0.0-1.0-45.0","0","0","54645","","0","","","75","4","","","","","","","","","","","","","","","k",""
"","S1","","html-keyboard-response","39","131476","0.0-1.0-47.0","0","0","54645","","null","","","null","5","","","","","","","","","","","","","","","",""
"","ISI","","html-keyboard-response","40","131630","0.0-1.0-48.0","0","0","54645","","127","","","75","5","k","","","","","","","","","","","","","","",""
"","S2","","html-keyboard-response","41","131893","0.0-1.0-49.0","0","0","54645","","null","","","null","5","","NaN","","","","","","","","","","","","","",""
"","response","","html-keyboard-response","42","132413","0.0-1.0-50.0-0.0","0","0","54645","","518","","","75","5","","","1","5","training","adjacent","FG","6","7","L.jpg","P.jpg","1","1","1","",""
"","feedback","","html-keyboard-response","43","133420","0.0-1.0-51.0-0.0","0","0","54645","","null","","","null","5","","","","","","","","","","","","","","","",""
"","ITI","","html-keyboard-response","44","134429","0.0-1.0-54.0","0","0","54645","","111","","","75","5","","","","","","","","","","","","","","","k",""
"","S1","","html-keyboard-response","45","135459","0.0-1.0-56.0","0","0","54645","","null","","","null","6","","","","","","","","","","","","","","","",""
"","ISI","","html-keyboard-response","46","136472","0.0-1.0-57.0","0","0","54645","","null","","","null","6","NaN","","","","","","","","","","","","","","",""
"","S2","","html-keyboard-response","47","137484","0.0-1.0-58.0","0","0","54645","","null","","","null","6","","NaN","","","","","","","","","","","","","",""
"","response","","html-keyboard-response","48","139505","0.0-1.0-59.0-0.0","0","0","54645","","null","","","null","6","","","1","6","training","adjacent","DE","4","5","N.jpg","R.jpg","NaN","1","0","",""
"","too_slow_prompt","","html-keyboard-response","49","140515","0.0-1.0-61.0-0.0","1","0","54645","","null","","","null","","","","","","","","","","","","","","","","",""
"","time_out","","html-keyboard-response","50","142524","0.0-1.0-62.0-0.0","0","0","54645","","null","","","null","6","","","","","","","","","","","","","","","",""
"","ITI","","html-keyboard-response","51","143538","0.0-1.0-63.0","0","0","54645","","1007","","","75","6","","","","","","","","","","","","","","","k",""
"","S1","","html-keyboard-response","52","143801","0.0-1.0-65.0","0","0","54645","","null","","","null","7","","","","","","","","","","","","","","","",""
"","ISI","","html-keyboard-response","53","143958","0.0-1.0-66.0","0","0","54645","","null","","","null","7","NaN","","","","","","","","","","","","","","",""
"","S2","","html-keyboard-response","54","143965","0.0-1.0-67.0","0","0","54645","","6","","","75","7","","k","1","7","training","adjacent","GF","7","6","P.jpg","L.jpg","1","0","0","",""
"","feedback","","html-keyboard-response","55","144969","0.0-1.0-69.0-0.0","0","0","54645","","null","","","null","7","","","","","","","","","","","","","","","",""
"","time_out","","html-keyboard-response","56","146976","0.0-1.0-71.0-0.0","0","0","54645","","null","","","null","7","","","","","","","","","","","","","","","",""
"","ITI","","html-keyboard-response","57","147992","0.0-1.0-72.0","0","0","54645","","355","","","68","7","","","","","","","","","","","","","","","d",""
"","S1","","html-keyboard-response","58","148255","0.0-1.0-74.0","0","0","54645","","null","","","null","8","","","","","","","","","","","","","","","",""
"","ISI","","html-keyboard-response","59","148412","0.0-1.0-75.0","0","0","54645","","null","","","null","8","NaN","","","","","","","","","","","","","","",""
"","S2","","html-keyboard-response","60","148445","0.0-1.0-76.0","0","0","54645","","30","","","68","8","","d","1","8","training","adjacent","BC","2","3","M.jpg","O.jpg","0","1","0","",""
"","feedback","","html-keyboard-response","61","149454","0.0-1.0-78.0-0.0","0","0","54645","","null","","","null","8","","","","","","","","","","","","","","","",""
"","time_out","","html-keyboard-response","62","151456","0.0-1.0-80.0-0.0","0","0","54645","","null","","","null","8","","","","","","","","","","","","","","","",""
"","ITI","","html-keyboard-response","63","152464","0.0-1.0-81.0","0","0","54645","","null","","","null","8","","","","","","","","","","","","","","","NaN",""
"","S1","","html-keyboard-response","64","152728","0.0-1.0-83.0","0","0","54645","","null","","","null","9","","","","","","","","","","","","","","","",""
"","ISI","","html-keyboard-response","65","152884","0.0-1.0-84.0","0","0","54645","","null","","","null","9","NaN","","","","","","","","","","","","","","",""
"","S2","","html-keyboard-response","66","153150","0.0-1.0-85.0","0","0","54645","","null","","","null","9","","NaN","","","","","","","","","","","","","",""
"","response","","html-keyboard-response","67","153406","0.0-1.0-86.0-0.0","0","0","54645","","254","","","68","9","","","1","9","training","adjacent","EF","5","6","R.jpg","L.jpg","0","1","0","",""
"","feedback","","html-keyboard-response","68","154408","0.0-1.0-87.0-0.0","0","0","54645","","null","","","null","9","","","","","","","","","","","","","","","",""
"","time_out","","html-keyboard-response","69","156421","0.0-1.0-89.0-0.0","0","0","54645","","null","","","null","9","","","","","","","","","","","","","","","",""
"","ITI","","html-keyboard-response","70","157434","0.0-1.0-90.0","0","0","54645","","527","","","75","9","","","","","","","","","","","","","","","k",""
"","S1","","html-keyboard-response","71","157697","0.0-1.0-92.0","0","0","54645","","null","","","null","10","","","","","","","","","","","","","","","",""
"","ISI","","html-keyboard-response","72","157851","0.0-1.0-93.0","0","0","54645","","138","","","75","10","k","","","","","","","","","","","","","","",""
"","S2","","html-keyboard-response","73","158114","0.0-1.0-94.0","0","0","54645","","null","","","null","10","","NaN","","","","","","","","","","","","","",""
"","response","","html-keyboard-response","74","158166","0.0-1.0-95.0-0.0","0","0","54645","","50","","","75","10","","","1","10","training","adjacent","DE","4","5","N.jpg","R.jpg","1","1","1","",""
"","feedback","","html-keyboard-response","75","159171","0.0-1.0-96.0-0.0","0","0","54645","","null","","","null","10","","","","","","","","","","","","","","","",""
"","ITI","","html-keyboard-response","76","160184","0.0-1.0-99.0","0","0","54645","","177","","","75","10","","","","","","","","","","","","","","","k",""
"","S1","","html-keyboard-response","77","160447","0.0-1.0-101.0","0","0","54645","","null","","","null","11","","","","","","","","","","","","","","","",""
"","ISI","","html-keyboard-response","78","160602","0.0-1.0-102.0","0","0","54645","","null","","","null","11","NaN","","","","","","","","","","","","","","",""
"","S2","","html-keyboard-response","79","160605","0.0-1.0-103.0","0","0","54645","","1","","","75","11","","k","1","11","training","adjacent","ED","5","4","R.jpg","N.jpg","1","0","0","",""
"","feedback","","html-keyboard-response","80","161609","0.0-1.0-105.0-0.0","0","0","54645","","null","","","null","11","","","","","","","","","","","","","","","",""
"","time_out","","html-keyboard-response","81","163616","0.0-1.0-107.0-0.0","0","0","54645","","null","","","null","11","","","","","","","","","","","","","","","",""
"","ITI","","html-keyboard-response","82","164625","0.0-1.0-108.0","0","0","54645","","106","","","75","11","","","","","","","","","","","","","","","k",""
"","S1","","html-keyboard-response","83","164888","0.0-1.0-110.0","0","0","54645","","null","","","null","12","","","","","","","","","","","","","","","",""
"","ISI","","html-keyboard-response","84","165045","0.0-1.0-111.0","0","0","54645","","93","","","68","12","d","","","","","","","","","","","","","","",""
"","S2","","html-keyboard-response","85","165156","0.0-1.0-112.0","0","0","54645","","110","","","75","12","","k","1","12","training","adjacent","BA","2","1","M.jpg","Q.jpg","1","0","0","",""
"","feedback","","html-keyboard-response","86","166166","0.0-1.0-114.0-0.0","0","0","54645","","null","","","null","12","","","","","","","","","","","","","","","",""
"","time_out","","html-keyboard-response","87","168184","0.0-1.0-116.0-0.0","0","0","54645","","null","","","null","12","","","","","","","","","","","","","","","",""
"","ITI","","html-keyboard-response","88","169194","0.0-1.0-117.0","0","0","54645","","171","","","68","12","","","","","","","","","","","","","","","d",""
"","S1","","html-keyboard-response","89","169459","0.0-1.0-119.0","0","0","54645","","null","","","null","13","","","","","","","","","","","","","","","",""
"","ISI","","html-keyboard-response","90","169615","0.0-1.0-120.0","0","0","54645","","null","","","null","13","NaN","","","","","","","","","","","","","","",""
"","S2","","html-keyboard-response","91","169621","0.0-1.0-121.0","0","0","54645","","5","","","68","13","","d","1","13","training","adjacent","CB","3","2","O.jpg","M.jpg","0","0","1","",""
"","feedback","","html-keyboard-response","92","170626","0.0-1.0-123.0-0.0","0","0","54645","","null","","","null","13","","","","","","","","","","","","","","","",""
"","ITI","","html-keyboard-response","93","171635","0.0-1.0-126.0","0","0","54645","","650","","","68","13","","","","","","","","","","","","","","","d",""
"","S1","","html-keyboard-response","94","171897","0.0-1.0-128.0","0","0","54645","","null","","","null","14","","","","","","","","","","","","","","","",""
"","ISI","","html-keyboard-response","95","172055","0.0-1.0-129.0","0","0","54645","","3","","","68","14","d","","","","","","","","","","","","","","",""
"","S2","","html-keyboard-response","96","172309","0.0-1.0-130.0","0","0","54645","","null","","","null","14","","NaN","","","","","","","","","","","","","",""
"","response","","html-keyboard-response","97","172324","0.0-1.0-131.0-0.0","0","0","54645","","14","","","68","14","","","1","14","training","adjacent","BC","2","3","M.jpg","O.jpg","0","1","0","",""
"","feedback","","html-keyboard-response","98","173338","0.0-1.0-132.0-0.0","0","0","54645","","null","","","null","14","","","","","","","","","","","","","","","",""
"","time_out","","html-keyboard-response","99","175341","0.0-1.0-134.0-0.0","0","0","54645","","null","","","null","14","","","","","","","","","","","","","","","",""
"","ITI","","html-keyboard-response","100","176354","0.0-1.0-135.0","0","0","54645","","127","","","68","14","","","","","","","","","","","","","","","d",""
"","S1","","html-keyboard-response","101","176621","0.0-1.0-137.0","0","0","54645","","null","","","null","15","","","","","","","","","","","","","","","",""
"","ISI","","html-keyboard-response","102","176774","0.0-1.0-138.0","0","0","54645","","null","","","null","15","NaN","","","","","","","","","","","","","","",""
"","S2","","html-keyboard-response","103","176901","0.0-1.0-139.0","0","0","54645","","126","","","68","15","","d","1","15","training","adjacent","FG","6","7","L.jpg","P.jpg","0","1","0","",""
"","feedback","","html-keyboard-response","104","177910","0.0-1.0-141.0-0.0","0","0","54645","","null","","","null","15","","","","","","","","","","","","","","","",""
"","time_out","","html-keyboard-response","105","179923","0.0-1.0-143.0-0.0","0","0","54645","","null","","","null","15","","","","","","","","","","","","","","","",""
"","ITI","","html-keyboard-response","106","180936","0.0-1.0-144.0","0","0","54645","","112","","","68","15","","","","","","","","","","","","","","","d",""
"","S1","","html-keyboard-response","107","181199","0.0-1.0-146.0","0","0","54645","","null","","","null","16","","","","","","","","","","","","","","","",""
"","ISI","","html-keyboard-response","108","181357","0.0-1.0-147.0","0","0","54645","","null","","","null","16","NaN","","","","","","","","","","","","","","",""
"","S2","","html-keyboard-response","109","181365","0.0-1.0-148.0","0","0","54645","","7","","","68","16","","d","1","16","training","adjacent","FE","6","5","L.jpg","R.jpg","0","0","1","",""
"","feedback","","html-keyboard-response","110","182376","0.0-1.0-150.0-0.0","0","0","54645","","null","","","null","16","","","","","","","","","","","","","","","",""
"","ITI","","html-keyboard-response","111","183391","0.0-1.0-153.0","0","0","54645","","34","","","68","16","","","","","","","","","","","","","","","d",""
"","S1","","html-keyboard-response","112","183657","0.0-1.0-155.0","0","0","54645","","null","","","null","17","","","","","","","","","","","","","","","",""
"","ISI","","html-keyboard-response","113","183811","0.0-1.0-156.0","0","0","54645","","null","","","null","17","NaN","","","","","","","","","","","","","","",""
"","S2","","html-keyboard-response","114","183927","0.0-1.0-157.0","0","0","54645","","113","","","68","17","","d","1","17","training","adjacent","AB","1","2","Q.jpg","M.jpg","0","1","0","",""
"","feedback","","html-keyboard-response","115","184934","0.0-1.0-159.0-0.0","0","0","54645","","null","","","null","17","","","","","","","","","","","","","","","",""
"","time_out","","html-keyboard-response","116","186947","0.0-1.0-161.0-0.0","0","0","54645","","null","","","null","17","","","","","","","","","","","","","","","",""
"","ITI","","html-keyboard-response","117","187954","0.0-1.0-162.0","0","0","54645","","185","","","68","17","","","","","","","","","","","","","","","d",""
"","S1","","html-keyboard-response","118","188219","0.0-1.0-164.0","0","0","54645","","null","","","null","18","","","","","","","","","","","","","","","",""
"","ISI","","html-keyboard-response","119","188373","0.0-1.0-165.0","0","0","54645","","null","","","null","18","NaN","","","","","","","","","","","","","","",""
"","S2","","html-keyboard-response","120","188502","0.0-1.0-166.0","0","0","54645","","126","","","68","18","","d","1","18","training","adjacent","GF","7","6","P.jpg","L.jpg","0","0","1","",""
"","feedback","","html-keyboard-response","121","189505","0.0-1.0-168.0-0.0","0","0","54645","","null","","","null","18","","","","","","","","","","","","","","","",""
"","ITI","","html-keyboard-response","122","190518","0.0-1.0-171.0","0","0","54645","","442","","","68","18","","","","","","","","","","","","","","","d",""
"","S1","","html-keyboard-response","123","190785","0.0-1.0-173.0","0","0","54645","","null","","","null","19","","","","","","","","","","","","","","","",""
"","ISI","","html-keyboard-response","124","190938","0.0-1.0-174.0","0","0","54645","","91","","","68","19","d","","","","","","","","","","","","","","",""
"","S2","","html-keyboard-response","125","191201","0.0-1.0-175.0","0","0","54645","","null","","","null","19","","NaN","","","","","","","","","","","","","",""
"","response","","html-keyboard-response","126","191294","0.0-1.0-176.0-0.0","0","0","54645","","91","","","68","19","","","1","19","training","adjacent","AB","1","2","Q.jpg","M.jpg","0","1","0","",""
"","feedback","","html-keyboard-response","127","192296","0.0-1.0-177.0-0.0","0","0","54645","","null","","","null","19","","","","","","","","","","","","","","","",""
"","time_out","","html-keyboard-response","128","194301","0.0-1.0-179.0-0.0","0","0","54645","","null","","","null","19","","","","","","","","","","","","","","","",""
"","ITI","","html-keyboard-response","129","195309","0.0-1.0-180.0","0","0","54645","","343","","","68","19","","","","","","","","","","","","","","","d",""
"","S1","","html-keyboard-response","130","195572","0.0-1.0-182.0","0","0","54645","","null","","","null","20","","","","","","","","","","","","","","","",""
"","ISI","","html-keyboard-response","131","195727","0.0-1.0-183.0","0","0","54645","","null","","","null","20","NaN","","","","","","","","","","","","","","",""
"","S2","","html-keyboard-response","132","195822","0.0-1.0-184.0","0","0","54645","","92","","","68","20","","d","1","20","training","adjacent","DE","4","5","N.jpg","R.jpg","0","1","0","",""
"","feedback","","html-keyboard-response","133","196831","0.0-1.0-186.0-0.0","0","0","54645","","null","","","null","20","","","","","","","","","","","","","","","",""
"","time_out","","html-keyboard-response","134","198844","0.0-1.0-188.0-0.0","0","0","54645","","null","","","null","20","","","","","","","","","","","","","","","",""
"","ITI","","html-keyboard-response","135","199858","0.0-1.0-189.0","0","0","54645","","352","","","68","20","","","","","","","","","","","","","","","d",""
"","S1","","html-keyboard-response","136","200123","0.0-1.0-191.0","0","0","54645","","null","","","null","21","","","","","","","","","","","","","","","",""
"","ISI","","html-keyboard-response","137","200280","0.0-1.0-192.0","0","0","54645","","null","","","null","21","NaN","","","","","","","","","","","","","","",""
"","S2","","html-keyboard-response","138","200429","0.0-1.0-193.0","0","0","54645","","147","","","68","21","","d","1","21","training","adjacent","FE","6","5","L.jpg","R.jpg","0","0","1","",""
"","feedback","","html-keyboard-response","139","201431","0.0-1.0-195.0-0.0","0","0","54645","","null","","","null","21","","","","","","","","","","","","","","","",""
"","ITI","","html-keyboard-response","140","202438","0.0-1.0-198.0","0","0","54645","","364","","","68","21","","","","","","","","","","","","","","","d",""
"","S1","","html-keyboard-response","141","202703","0.0-1.0-200.0","0","0","54645","","null","","","null","22","","","","","","","","","","","","","","","",""
"","ISI","","html-keyboard-response","142","202859","0.0-1.0-201.0","0","0","54645","","44","","","68","22","d","","","","","","","","","","","","","","",""
"","S2","","html-keyboard-response","143","203123","0.0-1.0-202.0","0","0","54645","","null","","","null","22","","NaN","","","","","","","","","","","","","",""
"","response","","html-keyboard-response","144","203213","0.0-1.0-203.0-0.0","0","0","54645","","89","","","68","22","","","1","22","training","adjacent","GF","7","6","P.jpg","L.jpg","0","0","1","",""
"","feedback","","html-keyboard-response","145","204218","0.0-1.0-204.0-0.0","0","0","54645","","null","","","null","22","","","","","","","","","","","","","","","",""
"","ITI","","html-keyboard-response","146","205227","0.0-1.0-207.0","0","0","54645","","297","","","68","22","","","","","","","","","","","","","","","d",""
"","S1","","html-keyboard-response","147","205495","0.0-1.0-209.0","0","0","54645","","null","","","null","23","","","","","","","","","","","","","","","",""
"","ISI","","html-keyboard-response","148","205650","0.0-1.0-210.0","0","0","54645","","null","","","null","23","NaN","","","","","","","","","","","","","","",""
"","S2","","html-keyboard-response","149","205790","0.0-1.0-211.0","0","0","54645","","138","","","68","23","","d","1","23","training","adjacent","BA","2","1","M.jpg","Q.jpg","0","0","1","",""
"","feedback","","html-keyboard-response","150","206802","0.0-1.0-213.0-0.0","0","0","54645","","null","","","null","23","","","","","","","","","","","","","","","",""
"","ITI","","html-keyboard-response","151","207815","0.0-1.0-216.0","0","0","54645","","194","","","68","23","","","","","","","","","","","","","","","d",""
"","S1","","html-keyboard-response","152","208077","0.0-1.0-218.0","0","0","54645","","null","","","null","24","","","","","","","","","","","","","","","",""
"","ISI","","html-keyboard-response","153","208236","0.0-1.0-219.0","0","0","54645","","null","","","null","24","NaN","","","","","","","","","","","","","","",""
"","S2","","html-keyboard-response","154","208357","0.0-1.0-220.0","0","0","54645","","119","","","68","24","","d","1","24","training","adjacent","CB","3","2","O.jpg","M.jpg","0","0","1","",""
"","feedback","","html-keyboard-response","155","209372","0.0-1.0-222.0-0.0","0","0","54645","","null","","","null","24","","","","","","","","","","","","","","","",""
"","ITI","","html-keyboard-response","156","210387","0.0-1.0-225.0","0","0","54645","","71","","","68","24","","","","","","","","","","","","","","","d",""
"","S1","","html-keyboard-response","157","210652","0.0-1.0-227.0","0","0","54645","","null","","","null","25","","","","","","","","","","","","","","","",""
"","ISI","","html-keyboard-response","158","210807","0.0-1.0-228.0","0","0","54645","","null","","","null","25","NaN","","","","","","","","","","","","","","",""
"","S2","","html-keyboard-response","159","210844","0.0-1.0-229.0","0","0","54645","","36","","","68","25","","d","1","25","training","adjacent","BA","2","1","M.jpg","Q.jpg","0","0","1","",""
"","feedback","","html-keyboard-response","160","211847","0.0-1.0-231.0-0.0","0","0","54645","","null","","","null","25","","","","","","","","","","","","","","","",""
"","ITI","","html-keyboard-response","161","212862","0.0-1.0-234.0","0","0","54645","","45","","","68","25","","","","","","","","","","","","","","","d",""
"","S1","","html-keyboard-response","162","213127","0.0-1.0-236.0","0","0","54645","","null","","","null","26","","","","","","","","","","","","","","","",""
"","ISI","","html-keyboard-response","163","213281","0.0-1.0-237.0","0","0","54645","","null","","","null","26","NaN","","","","","","","","","","","","","","",""
"","S2","","html-keyboard-response","164","213413","0.0-1.0-238.0","0","0","54645","","130","","","68","26","","d","1","26","training","adjacent","DC","4","3","N.jpg","O.jpg","0","0","1","",""
"","feedback","","html-keyboard-response","165","214420","0.0-1.0-240.0-0.0","0","0","54645","","null","","","null","26","","","","","","","","","","","","","","","",""
"","ITI","","html-keyboard-response","166","215430","0.0-1.0-243.0","0","0","54645","","null","","","null","26","","","","","","","","","","","","","","","NaN",""
"","S1","","html-keyboard-response","167","215697","0.0-1.0-245.0","0","0","54645","","null","","","null","27","","","","","","","","","","","","","","","",""
"","ISI","","html-keyboard-response","168","215854","0.0-1.0-246.0","0","0","54645","","98","","","68","27","d","","","","","","","","","","","","","","",""
"","S2","","html-keyboard-response","169","216117","0.0-1.0-247.0","0","0","54645","","null","","","null","27","","NaN","","","","","","","","","","","","","",""
"","response","","html-keyboard-response","170","216190","0.0-1.0-248.0-0.0","0","0","54645","","71","","","68","27","","","1","27","training","adjacent","CD","3","4","O.jpg","N.jpg","0","1","0","",""
"","feedback","","html-keyboard-response","171","217205","0.0-1.0-249.0-0.0","0","0","54645","","null","","","null","27","","","","","","","","","","","","","","","",""
"","time_out","","html-keyboard-response","172","219619","0.0-1.0-251.0-0.0","0","0","54645","","null","","","null","27","","","","","","","","","","","","","","","",""
"","ITI","","html-keyboard-response","173","220629","0.0-1.0-252.0","0","0","54645","","null","","","null","27","","","","","","","","","","","","","","","NaN",""
"","S1","","html-keyboard-response","174","221073","0.0-1.0-254.0","0","0","54645","","null","","","null","28","","","","","","","","","","","","","","","",""
"","ISI","","html-keyboard-response","175","221239","0.0-1.0-255.0","0","0","54645","","null","","","null","28","NaN","","","","","","","","","","","","","","",""
"","S2","","html-keyboard-response","176","221276","0.0-1.0-256.0","0","0","54645","","36","","","68","28","","d","1","28","training","adjacent","BA","2","1","M.jpg","Q.jpg","0","0","1","",""
"","feedback","","html-keyboard-response","177","222281","0.0-1.0-258.0-0.0","0","0","54645","","null","","","null","28","","","","","","","","","","","","","","","",""
"","ITI","","html-keyboard-response","178","223289","0.0-1.0-261.0","0","0","54645","","210","","","68","28","","","","","","","","","","","","","","","d",""
"","S1","","html-keyboard-response","179","223543","0.0-1.0-263.0","0","0","54645","","null","","","null","29","","","","","","","","","","","","","","","",""
"","ISI","","html-keyboard-response","180","223700","0.0-1.0-264.0","0","0","54645","","44","","","68","29","d","","","","","","","","","","","","","","",""
"","S2","","html-keyboard-response","181","223962","0.0-1.0-265.0","0","0","54645","","null","","","null","29","","NaN","","","","","","","","","","","","","",""
"","response","","html-keyboard-response","182","223965","0.0-1.0-266.0-0.0","0","0","54645","","1","","","68","29","","","1","29","training","adjacent","CD","3","4","O.jpg","N.jpg","0","1","0","",""
"","feedback","","html-keyboard-response","183","224971","0.0-1.0-267.0-0.0","0","0","54645","","null","","","null","29","","","","","","","","","","","","","","","",""
"","time_out","","html-keyboard-response","184","226980","0.0-1.0-269.0-0.0","0","0","54645","","null","","","null","29","","","","","","","","","","","","","","","",""
"","ITI","","html-keyboard-response","185","227998","0.0-1.0-270.0","0","0","54645","","369","","","68","29","","","","","","","","","","","","","","","d",""
"","S1","","html-keyboard-response","186","228264","0.0-1.0-272.0","0","0","54645","","null","","","null","30","","","","","","","","","","","","","","","",""
"","ISI","","html-keyboard-response","187","228420","0.0-1.0-273.0","0","0","54645","","36","","","68","30","d","","","","","","","","","","","","","","",""
"","S2","","html-keyboard-response","188","228685","0.0-1.0-274.0","0","0","54645","","null","","","null","30","","NaN","","","","","","","","","","","","","",""
"","response","","html-keyboard-response","189","228797","0.0-1.0-275.0-0.0","0","0","54645","","111","","","68","30","","","1","30","training","adjacent","EF","5","6","R.jpg","L.jpg","0","1","0","",""
"","feedback","","html-keyboard-response","190","229807","0.0-1.0-276.0-0.0","0","0","54645","","null","","","null","30","","","","","","","","","","","","","","","",""
"","time_out","","html-keyboard-response","191","231817","0.0-1.0-278.0-0.0","0","0","54645","","null","","","null","30","","","","","","","","","","","","","","","",""
"","ITI","","html-keyboard-response","192","232830","0.0-1.0-279.0","0","0","54645","","411","","","68","30","","","","","","","","","","","","","","","d",""
"","S1","","html-keyboard-response","193","233095","0.0-1.0-281.0","0","0","54645","","null","","","null","31","","","","","","","","","","","","","","","",""
"","ISI","","html-keyboard-response","194","233247","0.0-1.0-282.0","0","0","54645","","29","","","68","31","d","","","","","","","","","","","","","","",""
"","S2","","html-keyboard-response","195","233512","0.0-1.0-283.0","0","0","54645","","null","","","null","31","","NaN","","","","","","","","","","","","","",""
"","response","","html-keyboard-response","196","233558","0.0-1.0-284.0-0.0","0","0","54645","","43","","","68","31","","","1","31","training","adjacent","FG","6","7","L.jpg","P.jpg","0","1","0","",""
"","feedback","","html-keyboard-response","197","234569","0.0-1.0-285.0-0.0","0","0","54645","","null","","","null","31","","","","","","","","","","","","","","","",""
"","time_out","","html-keyboard-response","198","236575","0.0-1.0-287.0-0.0","0","0","54645","","null","","","null","31","","","","","","","","","","","","","","","",""
"","ITI","","html-keyboard-response","199","237578","0.0-1.0-288.0","0","0","54645","","null","","","null","31","","","","","","","","","","","","","","","NaN",""
"","S1","","html-keyboard-response","200","237842","0.0-1.0-290.0","0","0","54645","","null","","","null","32","","","","","","","","","","","","","","","",""
"","ISI","","html-keyboard-response","201","237997","0.0-1.0-291.0","0","0","54645","","98","","","68","32","d","","","","","","","","","","","","","","",""
"","S2","","html-keyboard-response","202","238261","0.0-1.0-292.0","0","0","54645","","null","","","null","32","","NaN","","","","","","","","","","","","","",""
"","response","","html-keyboard-response","203","238325","0.0-1.0-293.0-0.0","0","0","54645","","63","","","68","32","","","1","32","training","adjacent","CB","3","2","O.jpg","M.jpg","0","0","1","",""
"","feedback","","html-keyboard-response","204","239330","0.0-1.0-294.0-0.0","0","0","54645","","null","","","null","32","","","","","","","","","","","","","","","",""
"","ITI","","html-keyboard-response","205","240339","0.0-1.0-297.0","0","0","54645","","243","","","68","32","","","","","","","","","","","","","","","d",""
"","S1","","html-keyboard-response","206","240603","0.0-1.0-299.0","0","0","54645","","null","","","null","33","","","","","","","","","","","","","","","",""
"","ISI","","html-keyboard-response","207","240760","0.0-1.0-300.0","0","0","54645","","null","","","null","33","NaN","","","","","","","","","","","","","","",""
"","S2","","html-keyboard-response","208","241025","0.0-1.0-301.0","0","0","54645","","null","","","null","33","","NaN","","","","","","","","","","","","","",""
"","response","","html-keyboard-response","209","241437","0.0-1.0-302.0-0.0","0","0","54645","","410","","","68","33","","","1","33","training","adjacent","FE","6","5","L.jpg","R.jpg","0","0","1","",""
"","feedback","","html-keyboard-response","210","242444","0.0-1.0-303.0-0.0","0","0","54645","","null","","","null","33","","","","","","","","","","","","","","","",""
"","ITI","","html-keyboard-response","211","243456","0.0-1.0-306.0","0","0","54645","","null","","","null","33","","","","","","","","","","","","","","","NaN",""
"","S1","","html-keyboard-response","212","243720","0.0-1.0-308.0","0","0","54645","","null","","","null","34","","","","","","","","","","","","","","","",""
"","ISI","","html-keyboard-response","213","243877","0.0-1.0-309.0","0","0","54645","","null","","","null","34","NaN","","","","","","","","","","","","","","",""
"","S2","","html-keyboard-response","214","244141","0.0-1.0-310.0","0","0","54645","","null","","","null","34","","NaN","","","","","","","","","","","","","",""
"","response","","html-keyboard-response","215","244606","0.0-1.0-311.0-0.0","0","0","54645","","462","","","68","34","","","1","34","training","adjacent","CB","3","2","O.jpg","M.jpg","0","0","1","",""
"","feedback","","html-keyboard-response","216","245614","0.0-1.0-312.0-0.0","0","0","54645","","null","","","null","34","","","","","","","","","","","","","","","",""
"","ITI","","html-keyboard-response","217","246623","0.0-1.0-315.0","0","0","54645","","574","","","68","34","","","","","","","","","","","","","","","d",""
"","S1","","html-keyboard-response","218","246890","0.0-1.0-317.0","0","0","54645","","null","","","null","35","","","","","","","","","","","","","","","",""
"","ISI","","html-keyboard-response","219","247043","0.0-1.0-318.0","0","0","54645","","58","","","68","35","d","","","","","","","","","","","","","","",""
"","S2","","html-keyboard-response","220","247254","0.0-1.0-319.0","0","0","54645","","208","","","68","35","","d","1","35","training","adjacent","DC","4","3","N.jpg","O.jpg","0","0","1","",""
"","feedback","","html-keyboard-response","221","248260","0.0-1.0-321.0-0.0","0","0","54645","","null","","","null","35","","","","","","","","","","","","","","","",""
"","ITI","","html-keyboard-response","222","249273","0.0-1.0-324.0","0","0","54645","","232","","","68","35","","","","","","","","","","","","","","","d",""
"","S1","","html-keyboard-response","223","249539","0.0-1.0-326.0","0","0","54645","","null","","","null","36","","","","","","","","","","","","","","","",""
"","ISI","","html-keyboard-response","224","249691","0.0-1.0-327.0","0","0","54645","","113","","","68","36","d","","","","","","","","","","","","","","",""
"","S2","","html-keyboard-response","225","249954","0.0-1.0-328.0","0","0","54645","","null","","","null","36","","NaN","","","","","","","","","","","","","",""
"","response","","html-keyboard-response","226","249990","0.0-1.0-329.0-0.0","0","0","54645","","34","","","68","36","","","1","36","training","adjacent","FE","6","5","L.jpg","R.jpg","0","0","1","",""
"","feedback","","html-keyboard-response","227","250995","0.0-1.0-330.0-0.0","0","0","54645","","null","","","null","36","","","","","","","","","","","","","","","",""
"","ITI","","html-keyboard-response","228","252005","0.0-1.0-333.0","0","0","54645","","1001","","","68","36","","","","","","","","","","","","","","","d",""
"","S1","","html-keyboard-response","229","252269","0.0-1.0-335.0","0","0","54645","","null","","","null","37","","","","","","","","","","","","","","","",""
"","ISI","","html-keyboard-response","230","252427","0.0-1.0-336.0","0","0","54645","","55","","","68","37","d","","","","","","","","","","","","","","",""
"","S2","","html-keyboard-response","231","252690","0.0-1.0-337.0","0","0","54645","","null","","","null","37","","NaN","","","","","","","","","","","","","",""
"","response","","html-keyboard-response","232","252767","0.0-1.0-338.0-0.0","0","0","54645","","74","","","68","37","","","1","37","training","adjacent","ED","5","4","R.jpg","N.jpg","0","0","1","",""
"","feedback","","html-keyboard-response","233","253780","0.0-1.0-339.0-0.0","0","0","54645","","null","","","null","37","","","","","","","","","","","","","","","",""
"","ITI","","html-keyboard-response","234","254796","0.0-1.0-342.0","0","0","54645","","327","","","68","37","","","","","","","","","","","","","","","d",""
"","S1","","html-keyboard-response","235","255058","0.0-1.0-344.0","0","0","54645","","null","","","null","38","","","","","","","","","","","","","","","",""
"","ISI","","html-keyboard-response","236","255212","0.0-1.0-345.0","0","0","54645","","null","","","null","38","NaN","","","","","","","","","","","","","","",""
"","S2","","html-keyboard-response","237","255407","0.0-1.0-346.0","0","0","54645","","193","","","68","38","","d","1","38","training","adjacent","BC","2","3","M.jpg","O.jpg","0","1","0","",""
"","feedback","","html-keyboard-response","238","256419","0.0-1.0-348.0-0.0","0","0","54645","","null","","","null","38","","","","","","","","","","","","","","","",""
"","time_out","","html-keyboard-response","239","258422","0.0-1.0-350.0-0.0","0","0","54645","","null","","","null","38","","","","","","","","","","","","","","","",""
"","ITI","","html-keyboard-response","240","259434","0.0-1.0-351.0","0","0","54645","","61","","","68","38","","","","","","","","","","","","","","","d",""
"","S1","","html-keyboard-response","241","259699","0.0-1.0-353.0","0","0","54645","","null","","","null","39","","","","","","","","","","","","","","","",""
"","ISI","","html-keyboard-response","242","259854","0.0-1.0-354.0","0","0","54645","","null","","","null","39","NaN","","","","","","","","","","","","","","",""
"","S2","","html-keyboard-response","243","259871","0.0-1.0-355.0","0","0","54645","","14","","","68","39","","d","1","39","training","adjacent","ED","5","4","R.jpg","N.jpg","0","0","1","",""
"","feedback","","html-keyboard-response","244","260883","0.0-1.0-357.0-0.0","0","0","54645","","null","","","null","39","","","","","","","","","","","","","","","",""
"","ITI","","html-keyboard-response","245","261894","0.0-1.0-360.0","0","0","54645","","1","","","68","39","","","","","","","","","","","","","","","d",""
"","S1","","html-keyboard-response","246","262159","0.0-1.0-362.0","0","0","54645","","null","","","null","40","","","","","","","","","","","","","","","",""
"","ISI","","html-keyboard-response","247","262318","0.0-1.0-363.0","0","0","54645","","null","","","null","40","NaN","","","","","","","","","","","","","","",""
"","S2","","html-keyboard-response","248","262319","0.0-1.0-364.0","0","0","54645","","0","","","68","40","","d","1","40","training","adjacent","GF","7","6","P.jpg","L.jpg","0","0","1","",""
"","feedback","","html-keyboard-response","249","263329","0.0-1.0-366.0-0.0","0","0","54645","","null","","","null","40","","","","","","","","","","","","","","","",""
"","ITI","","html-keyboard-response","250","264339","0.0-1.0-369.0","0","0","54645","","2","","","68","40","","","","","","","","","","","","","","","d",""
"","S1","","html-keyboard-response","251","264592","0.0-1.0-371.0","0","0","54645","","null","","","null","41","","","","","","","","","","","","","","","",""
"","ISI","","html-keyboard-response","252","264746","0.0-1.0-372.0","0","0","54645","","null","","","null","41","NaN","","","","","","","","","","","","","","",""
"","S2","","html-keyboard-response","253","264797","0.0-1.0-373.0","0","0","54645","","48","","","68","41","","d","1","41","training","adjacent","AB","1","2","Q.jpg","M.jpg","0","1","0","",""
"","feedback","","html-keyboard-response","254","265803","0.0-1.0-375.0-0.0","0","0","54645","","null","","","null","41","","","","","","","","","","","","","","","",""
"","time_out","","html-keyboard-response","255","267808","0.0-1.0-377.0-0.0","0","0","54645","","null","","","null","41","","","","","","","","","","","","","","","",""
"","ITI","","html-keyboard-response","256","268818","0.0-1.0-378.0","0","0","54645","","35","","","68","41","","","","","","","","","","","","","","","d",""
"","S1","","html-keyboard-response","257","269085","0.0-1.0-380.0","0","0","54645","","null","","","null","42","","","","","","","","","","","","","","","",""
"","ISI","","html-keyboard-response","258","269241","0.0-1.0-381.0","0","0","54645","","119","","","68","42","d","","","","","","","","","","","","","","",""
"","S2","","html-keyboard-response","259","269507","0.0-1.0-382.0","0","0","54645","","null","","","null","42","","NaN","","","","","","","","","","","","","",""
"","response","","html-keyboard-response","260","269533","0.0-1.0-383.0-0.0","0","0","54645","","25","","","68","42","","","1","42","training","adjacent","ED","5","4","R.jpg","N.jpg","0","0","1","",""
"","feedback","","html-keyboard-response","261","270551","0.0-1.0-384.0-0.0","0","0","54645","","null","","","null","42","","","","","","","","","","","","","","","",""
"","ITI","","html-keyboard-response","262","271559","0.0-1.0-387.0","0","0","54645","","750","","","68","42","","","","","","","","","","","","","","","d",""
"","S1","","html-keyboard-response","263","271824","0.0-1.0-389.0","0","0","54645","","null","","","null","43","","","","","","","","","","","","","","","",""
"","ISI","","html-keyboard-response","264","271978","0.0-1.0-390.0","0","0","54645","","null","","","null","43","NaN","","","","","","","","","","","","","","",""
"","S2","","html-keyboard-response","265","272013","0.0-1.0-391.0","0","0","54645","","34","","","68","43","","d","1","43","training","adjacent","CD","3","4","O.jpg","N.jpg","0","1","0","",""
"","feedback","","html-keyboard-response","266","273026","0.0-1.0-393.0-0.0","0","0","54645","","null","","","null","43","","","","","","","","","","","","","","","",""
"","time_out","","html-keyboard-response","267","275032","0.0-1.0-395.0-0.0","0","0","54645","","null","","","null","43","","","","","","","","","","","","","","","",""
"","ITI","","html-keyboard-response","268","276038","0.0-1.0-396.0","0","0","54645","","123","","","68","43","","","","","","","","","","","","","","","d",""
"","S1","","html-keyboard-response","269","276304","0.0-1.0-398.0","0","0","54645","","null","","","null","44","","","","","","","","","","","","","","","",""
"","ISI","","html-keyboard-response","270","276462","0.0-1.0-399.0","0","0","54645","","null","","","null","44","NaN","","","","","","","","","","","","","","",""
"","S2","","html-keyboard-response","271","276485","0.0-1.0-400.0","0","0","54645","","22","","","68","44","","d","1","44","training","adjacent","DE","4","5","N.jpg","R.jpg","0","1","0","",""
"","feedback","","html-keyboard-response","272","277503","0.0-1.0-402.0-0.0","0","0","54645","","null","","","null","44","","","","","","","","","","","","","","","",""
"","time_out","","html-keyboard-response","273","279507","0.0-1.0-404.0-0.0","0","0","54645","","null","","","null","44","","","","","","","","","","","","","","","",""
"","ITI","","html-keyboard-response","274","280515","0.0-1.0-405.0","0","0","54645","","305","","","68","44","","","","","","","","","","","","","","","d",""
"","S1","","html-keyboard-response","275","280781","0.0-1.0-407.0","0","0","54645","","null","","","null","45","","","","","","","","","","","","","","","",""
"","ISI","","html-keyboard-response","276","280938","0.0-1.0-408.0","0","0","54645","","null","","","null","45","NaN","","","","","","","","","","","","","","",""
"","S2","","html-keyboard-response","277","281109","0.0-1.0-409.0","0","0","54645","","168","","","68","45","","d","1","45","training","adjacent","EF","5","6","R.jpg","L.jpg","0","1","0","",""
"","feedback","","html-keyboard-response","278","282116","0.0-1.0-411.0-0.0","0","0","54645","","null","","","null","45","","","","","","","","","","","","","","","",""
"","time_out","","html-keyboard-response","279","284130","0.0-1.0-413.0-0.0","0","0","54645","","null","","","null","45","","","","","","","","","","","","","","","",""
"","ITI","","html-keyboard-response","280","285139","0.0-1.0-414.0","0","0","54645","","null","","","null","45","","","","","","","","","","","","","","","NaN",""
"","S1","","html-keyboard-response","281","285404","0.0-1.0-416.0","0","0","54645","","null","","","null","46","","","","","","","","","","","","","","","",""
"","ISI","","html-keyboard-response","282","285559","0.0-1.0-417.0","0","0","54645","","135","","","68","46","d","","","","","","","","","","","","","","",""
"","S2","","html-keyboard-response","283","285825","0.0-1.0-418.0","0","0","54645","","null","","","null","46","","NaN","","","","","","","","","","","","","",""
"","response","","html-keyboard-response","284","285901","0.0-1.0-419.0-0.0","0","0","54645","","75","","","68","46","","","1","46","training","adjacent","AB","1","2","Q.jpg","M.jpg","0","1","0","",""
"","feedback","","html-keyboard-response","285","286915","0.0-1.0-420.0-0.0","0","0","54645","","null","","","null","46","","","","","","","","","","","","","","","",""
"","time_out","","html-keyboard-response","286","288932","0.0-1.0-422.0-0.0","0","0","54645","","null","","","null","46","","","","","","","","","","","","","","","",""
"","ITI","","html-keyboard-response","287","289945","0.0-1.0-423.0","0","0","54645","","168","","","68","46","","","","","","","","","","","","","","","d",""
"","S1","","html-keyboard-response","288","290211","0.0-1.0-425.0","0","0","54645","","null","","","null","47","","","","","","","","","","","","","","","",""
"","ISI","","html-keyboard-response","289","290365","0.0-1.0-426.0","0","0","54645","","8","","","68","47","d","","","","","","","","","","","","","","",""
"","S2","","html-keyboard-response","290","290606","0.0-1.0-427.0","0","0","54645","","238","","","68","47","","d","1","47","training","adjacent","DC","4","3","N.jpg","O.jpg","0","0","1","",""
"","feedback","","html-keyboard-response","291","291610","0.0-1.0-429.0-0.0","0","0","54645","","null","","","null","47","","","","","","","","","","","","","","","",""
"","ITI","","html-keyboard-response","292","292621","0.0-1.0-432.0","0","0","54645","","578","","","68","47","","","","","","","","","","","","","","","d",""
"","block_over","","html-keyboard-response","293","1036830","0.0-1.0-433.0-0.0","0","0","54645","","744207","","","32","47","","","","","","","","","","","","","","","",""
"","S1","","html-keyboard-response","294","1037096","0.0-1.0-434.0","0","0","54645","","null","","","null","48","","","","","","","","","","","","","","","",""
"","ISI","","html-keyboard-response","295","1037252","0.0-1.0-435.0","0","0","54645","","null","","","null","48","NaN","","","","","","","","","","","","","","",""
"","S2","","html-keyboard-response","296","1037518","0.0-1.0-436.0","0","0","54645","","null","","","null","48","","NaN","","","","","","","","","","","","","",""
"","response","","html-keyboard-response","297","1038639","0.0-1.0-437.0-0.0","0","0","54645","","1119","","","68","48","","","2","48","training","adjacent","GF","7","6","P.jpg","L.jpg","0","0","1","",""
"","feedback","","html-keyboard-response","298","1039644","0.0-1.0-438.0-0.0","0","0","54645","","null","","","null","48","","","","","","","","","","","","","","","",""
"","ITI","","html-keyboard-response","299","1040656","0.0-1.0-441.0","0","0","54645","","432","","","68","48","","","","","","","","","","","","","","","d",""
"","S1","","html-keyboard-response","300","1040920","0.0-1.0-443.0","0","0","54645","","null","","","null","49","","","","","","","","","","","","","","","",""
"","ISI","","html-keyboard-response","301","1041074","0.0-1.0-444.0","0","0","54645","","124","","","68","49","d","","","","","","","","","","","","","","",""
"","S2","","html-keyboard-response","302","1041337","0.0-1.0-445.0","0","0","54645","","null","","","null","49","","NaN","","","","","","","","","","","","","",""
"","response","","html-keyboard-response","303","1041582","0.0-1.0-446.0-0.0","0","0","54645","","243","","","68","49","","","2","49","training","adjacent","DE","4","5","N.jpg","R.jpg","0","1","0","",""
"","feedback","","html-keyboard-response","304","1042596","0.0-1.0-447.0-0.0","0","0","54645","","null","","","null","49","","","","","","","","","","","","","","","",""
"","time_out","","html-keyboard-response","305","1044599","0.0-1.0-449.0-0.0","0","0","54645","","null","","","null","49","","","","","","","","","","","","","","","",""
"","ITI","","html-keyboard-response","306","1045614","0.0-1.0-450.0","0","0","54645","","158","","","68","49","","","","","","","","","","","","","","","d",""
"","S1","","html-keyboard-response","307","1045878","0.0-1.0-452.0","0","0","54645","","null","","","null","50","","","","","","","","","","","","","","","",""
"","ISI","","html-keyboard-response","308","1046033","0.0-1.0-453.0","0","0","54645","","null","","","null","50","NaN","","","","","","","","","","","","","","",""
"","S2","","html-keyboard-response","309","1046191","0.0-1.0-454.0","0","0","54645","","156","","","68","50","","d","2","50","training","adjacent","FG","6","7","L.jpg","P.jpg","0","1","0","",""
"","feedback","","html-keyboard-response","310","1047202","0.0-1.0-456.0-0.0","0","0","54645","","null","","","null","50","","","","","","","","","","","","","","","",""
"","time_out","","html-keyboard-response","311","1049211","0.0-1.0-458.0-0.0","0","0","54645","","null","","","null","50","","","","","","","","","","","","","","","",""
"","ITI","","html-keyboard-response","312","1050225","0.0-1.0-459.0","0","0","54645","","26","","","68","50","","","","","","","","","","","","","","","d",""
"","S1","","html-keyboard-response","313","1050492","0.0-1.0-461.0","0","0","54645","","null","","","null","51","","","","","","","","","","","","","","","",""
"","ISI","","html-keyboard-response","314","1050647","0.0-1.0-462.0","0","0","54645","","1","","","68","51","d","","","","","","","","","","","","","","",""
"","S2","","html-keyboard-response","315","1050911","0.0-1.0-463.0","0","0","54645","","null","","","null","51","","NaN","","","","","","","","","","","","","",""
"","response","","html-keyboard-response","316","1051078","0.0-1.0-464.0-0.0","0","0","54645","","166","","","68","51","","","2","51","training","adjacent","BC","2","3","M.jpg","O.jpg","0","1","0","",""
"","feedback","","html-keyboard-response","317","1052081","0.0-1.0-465.0-0.0","0","0","54645","","null","","","null","51","","","","","","","","","","","","","","","",""
"","time_out","","html-keyboard-response","318","1054088","0.0-1.0-467.0-0.0","0","0","54645","","null","","","null","51","","","","","","","","","","","","","","","",""
"","ITI","","html-keyboard-response","319","1055101","0.0-1.0-468.0","0","0","54645","","13","","","68","51","","","","","","","","","","","","","","","d",""
"","S1","","html-keyboard-response","320","1055368","0.0-1.0-470.0","0","0","54645","","null","","","null","52","","","","","","","","","","","","","","","",""
"","ISI","","html-keyboard-response","321","1055523","0.0-1.0-471.0","0","0","54645","","101","","","68","52","d","","","","","","","","","","","","","","",""
"","S2","","html-keyboard-response","322","1055788","0.0-1.0-472.0","0","0","54645","","null","","","null","52","","NaN","","","","","","","","","","","","","",""
"","response","","html-keyboard-response","323","1055830","0.0-1.0-473.0-0.0","0","0","54645","","40","","","68","52","","","2","52","training","adjacent","AB","1","2","Q.jpg","M.jpg","0","1","0","",""
"","feedback","","html-keyboard-response","324","1056840","0.0-1.0-474.0-0.0","0","0","54645","","null","","","null","52","","","","","","","","","","","","","","","",""
"","time_out","","html-keyboard-response","325","1058846","0.0-1.0-476.0-0.0","0","0","54645","","null","","","null","52","","","","","","","","","","","","","","","",""
"","ITI","","html-keyboard-response","326","1059858","0.0-1.0-477.0","0","0","54645","","263","","","68","52","","","","","","","","","","","","","","","d",""
"","S1","","html-keyboard-response","327","1060121","0.0-1.0-479.0","0","0","54645","","null","","","null","53","","","","","","","","","","","","","","","",""
"","ISI","","html-keyboard-response","328","1060278","0.0-1.0-480.0","0","0","54645","","null","","","null","53","NaN","","","","","","","","","","","","","","",""
"","S2","","html-keyboard-response","329","1060382","0.0-1.0-481.0","0","0","54645","","103","","","68","53","","d","2","53","training","adjacent","EF","5","6","R.jpg","L.jpg","0","1","0","",""
"","feedback","","html-keyboard-response","330","1061385","0.0-1.0-483.0-0.0","0","0","54645","","null","","","null","53","","","","","","","","","","","","","","","",""
"","time_out","","html-keyboard-response","331","1063396","0.0-1.0-485.0-0.0","0","0","54645","","null","","","null","53","","","","","","","","","","","","","","","",""
"","ITI","","html-keyboard-response","332","1064407","0.0-1.0-486.0","0","0","54645","","null","","","null","53","","","","","","","","","","","","","","","NaN",""
"","S1","","html-keyboard-response","333","1064672","0.0-1.0-488.0","0","0","54645","","null","","","null","54","","","","","","","","","","","","","","","",""
"","ISI","","html-keyboard-response","334","1064828","0.0-1.0-489.0","0","0","54645","","null","","","null","54","NaN","","","","","","","","","","","","","","",""
"","S2","","html-keyboard-response","335","1065096","0.0-1.0-490.0","0","0","54645","","null","","","null","54","","NaN","","","","","","","","","","","","","",""
"","response","","html-keyboard-response","336","1065367","0.0-1.0-491.0-0.0","0","0","54645","","269","","","68","54","","","2","54","training","adjacent","CB","3","2","O.jpg","M.jpg","0","0","1","",""
"","feedback","","html-keyboard-response","337","1066370","0.0-1.0-492.0-0.0","0","0","54645","","null","","","null","54","","","","","","","","","","","","","","","",""
"","ITI","","html-keyboard-response","338","1067381","0.0-1.0-495.0","0","0","54645","","null","","","null","54","","","","","","","","","","","","","","","NaN",""
"","S1","","html-keyboard-response","339","1067642","0.0-1.0-497.0","0","0","54645","","null","","","null","55","","","","","","","","","","","","","","","",""
"","ISI","","html-keyboard-response","340","1067800","0.0-1.0-498.0","0","0","54645","","null","","","null","55","NaN","","","","","","","","","","","","","","",""
"","S2","","html-keyboard-response","341","1068065","0.0-1.0-499.0","0","0","54645","","null","","","null","55","","NaN","","","","","","","","","","","","","",""
"","response","","html-keyboard-response","342","1068327","0.0-1.0-500.0-0.0","0","0","54645","","260","","","68","55","","","2","55","training","adjacent","FE","6","5","L.jpg","R.jpg","0","0","1","",""
"","feedback","","html-keyboard-response","343","1069329","0.0-1.0-501.0-0.0","0","0","54645","","null","","","null","55","","","","","","","","","","","","","","","",""
"","ITI","","html-keyboard-response","344","1070343","0.0-1.0-504.0","0","0","54645","","null","","","null","55","","","","","","","","","","","","","","","NaN",""
"","S1","","html-keyboard-response","345","1070605","0.0-1.0-506.0","0","0","54645","","null","","","null","56","","","","","","","","","","","","","","","",""
"","ISI","","html-keyboard-response","346","1070763","0.0-1.0-507.0","0","0","54645","","null","","","null","56","NaN","","","","","","","","","","","","","","",""
"","S2","","html-keyboard-response","347","1071026","0.0-1.0-508.0","0","0","54645","","null","","","null","56","","NaN","","","","","","","","","","","","","",""
"","response","","html-keyboard-response","348","1071310","0.0-1.0-509.0-0.0","0","0","54645","","283","","","68","56","","","2","56","training","adjacent","FG","6","7","L.jpg","P.jpg","0","1","0","",""
"","feedback","","html-keyboard-response","349","1072318","0.0-1.0-510.0-0.0","0","0","54645","","null","","","null","56","","","","","","","","","","","","","","","",""
"","time_out","","html-keyboard-response","350","1074333","0.0-1.0-512.0-0.0","0","0","54645","","null","","","null","56","","","","","","","","","","","","","","","",""
"","ITI","","html-keyboard-response","351","1075343","0.0-1.0-513.0","0","0","54645","","null","","","null","56","","","","","","","","","","","","","","","NaN",""
"","S1","","html-keyboard-response","352","1075609","0.0-1.0-515.0","0","0","54645","","null","","","null","57","","","","","","","","","","","","","","","",""
"","ISI","","html-keyboard-response","353","1075764","0.0-1.0-516.0","0","0","54645","","100","","","68","57","d","","","","","","","","","","","","","","",""
"","S2","","html-keyboard-response","354","1076026","0.0-1.0-517.0","0","0","54645","","null","","","null","57","","NaN","","","","","","","","","","","","","",""
"","response","","html-keyboard-response","355","1076198","0.0-1.0-518.0-0.0","0","0","54645","","170","","","68","57","","","2","57","training","adjacent","BC","2","3","M.jpg","O.jpg","0","1","0","",""
"","feedback","","html-keyboard-response","356","1077207","0.0-1.0-519.0-0.0","0","0","54645","","null","","","null","57","","","","","","","","","","","","","","","",""
"","time_out","","html-keyboard-response","357","1079214","0.0-1.0-521.0-0.0","0","0","54645","","null","","","null","57","","","","","","","","","","","","","","","",""
"","ITI","","html-keyboard-response","358","1080227","0.0-1.0-522.0","0","0","54645","","null","","","null","57","","","","","","","","","","","","","","","NaN",""
"","S1","","html-keyboard-response","359","1080490","0.0-1.0-524.0","0","0","54645","","null","","","null","58","","","","","","","","","","","","","","","",""
"","ISI","","html-keyboard-response","360","1080649","0.0-1.0-525.0","0","0","54645","","null","","","null","58","NaN","","","","","","","","","","","","","","",""
"","S2","","html-keyboard-response","361","1080914","0.0-1.0-526.0","0","0","54645","","null","","","null","58","","NaN","","","","","","","","","","","","","",""
"","response","","html-keyboard-response","362","1081071","0.0-1.0-527.0-0.0","0","0","54645","","155","","","68","58","","","2","58","training","adjacent","GF","7","6","P.jpg","L.jpg","0","0","1","",""
"","feedback","","html-keyboard-response","363","1082077","0.0-1.0-528.0-0.0","0","0","54645","","null","","","null","58","","","","","","","","","","","","","","","",""
"","ITI","","html-keyboard-response","364","1083094","0.0-1.0-531.0","0","0","54645","","null","","","null","58","","","","","","","","","","","","","","","NaN",""
"","S1","","html-keyboard-response","365","1083358","0.0-1.0-533.0","0","0","54645","","null","","","null","59","","","","","","","","","","","","","","","",""
"","ISI","","html-keyboard-response","366","1083512","0.0-1.0-534.0","0","0","54645","","null","","","null","59","NaN","","","","","","","","","","","","","","",""
"","S2","","html-keyboard-response","367","1083778","0.0-1.0-535.0","0","0","54645","","null","","","null","59","","NaN","","","","","","","","","","","","","",""
"","response","","html-keyboard-response","368","1083958","0.0-1.0-536.0-0.0","0","0","54645","","178","","","68","59","","","2","59","training","adjacent","AB","1","2","Q.jpg","M.jpg","0","1","0","",""
"","feedback","","html-keyboard-response","369","1084974","0.0-1.0-537.0-0.0","0","0","54645","","null","","","null","59","","","","","","","","","","","","","","","",""
"","time_out","","html-keyboard-response","370","1086984","0.0-1.0-539.0-0.0","0","0","54645","","null","","","null","59","","","","","","","","","","","","","","","",""
"","ITI","","html-keyboard-response","371","1087992","0.0-1.0-540.0","0","0","54645","","null","","","null","59","","","","","","","","","","","","","","","NaN",""
"","S1","","html-keyboard-response","372","1088255","0.0-1.0-542.0","0","0","54645","","null","","","null","60","","","","","","","","","","","","","","","",""
"","ISI","","html-keyboard-response","373","1088408","0.0-1.0-543.0","0","0","54645","","14","","","68","60","d","","","","","","","","","","","","","","",""
"","S2","","html-keyboard-response","374","1088673","0.0-1.0-544.0","0","0","54645","","null","","","null","60","","NaN","","","","","","","","","","","","","",""
"","response","","html-keyboard-response","375","1088775","0.0-1.0-545.0-0.0","0","0","54645","","100","","","68","60","","","2","60","training","adjacent","AB","1","2","Q.jpg","M.jpg","0","1","0","",""
"","feedback","","html-keyboard-response","376","1089791","0.0-1.0-546.0-0.0","0","0","54645","","null","","","null","60","","","","","","","","","","","","","","","",""
"","time_out","","html-keyboard-response","377","1091803","0.0-1.0-548.0-0.0","0","0","54645","","null","","","null","60","","","","","","","","","","","","","","","",""
"","ITI","","html-keyboard-response","378","1092811","0.0-1.0-549.0","0","0","54645","","850","","","68","60","","","","","","","","","","","","","","","d",""
"","S1","","html-keyboard-response","379","1093077","0.0-1.0-551.0","0","0","54645","","null","","","null","61","","","","","","","","","","","","","","","",""
"","ISI","","html-keyboard-response","380","1093233","0.0-1.0-552.0","0","0","54645","","null","","","null","61","NaN","","","","","","","","","","","","","","",""
"","S2","","html-keyboard-response","381","1093498","0.0-1.0-553.0","0","0","54645","","null","","","null","61","","NaN","","","","","","","","","","","","","",""
"","response","","html-keyboard-response","382","1093768","0.0-1.0-554.0-0.0","0","0","54645","","267","","","68","61","","","2","61","training","adjacent","DC","4","3","N.jpg","O.jpg","0","0","1","",""
"","feedback","","html-keyboard-response","383","1094771","0.0-1.0-555.0-0.0","0","0","54645","","null","","","null","61","","","","","","","","","","","","","","","",""
"","ITI","","html-keyboard-response","384","1095783","0.0-1.0-558.0","0","0","54645","","null","","","null","61","","","","","","","","","","","","","","","NaN",""
"","S1","","html-keyboard-response","385","1096047","0.0-1.0-560.0","0","0","54645","","null","","","null","62","","","","","","","","","","","","","","","",""
"","ISI","","html-keyboard-response","386","1096200","0.0-1.0-561.0","0","0","54645","","null","","","null","62","NaN","","","","","","","","","","","","","","",""
"","S2","","html-keyboard-response","387","1096467","0.0-1.0-562.0","0","0","54645","","null","","","null","62","","NaN","","","","","","","","","","","","","",""
"","response","","html-keyboard-response","388","1096527","0.0-1.0-563.0-0.0","0","0","54645","","58","","","68","62","","","2","62","training","adjacent","DC","4","3","N.jpg","O.jpg","0","0","1","",""
"","feedback","","html-keyboard-response","389","1097538","0.0-1.0-564.0-0.0","0","0","54645","","null","","","null","62","","","","","","","","","","","","","","","",""
"","ITI","","html-keyboard-response","390","1098554","0.0-1.0-567.0","0","0","54645","","null","","","null","62","","","","","","","","","","","","","","","NaN",""
"","S1","","html-keyboard-response","391","1098817","0.0-1.0-569.0","0","0","54645","","null","","","null","63","","","","","","","","","","","","","","","",""
"","ISI","","html-keyboard-response","392","1098971","0.0-1.0-570.0","0","0","54645","","null","","","null","63","NaN","","","","","","","","","","","","","","",""
"","S2","","html-keyboard-response","393","1099237","0.0-1.0-571.0","0","0","54645","","null","","","null","63","","NaN","","","","","","","","","","","","","",""
"","response","","html-keyboard-response","394","1099423","0.0-1.0-572.0-0.0","0","0","54645","","183","","","68","63","","","2","63","training","adjacent","FE","6","5","L.jpg","R.jpg","0","0","1","",""
"","feedback","","html-keyboard-response","395","1100431","0.0-1.0-573.0-0.0","0","0","54645","","null","","","null","63","","","","","","","","","","","","","","","",""
"","ITI","","html-keyboard-response","396","1101434","0.0-1.0-576.0","0","0","54645","","null","","","null","63","","","","","","","","","","","","","","","NaN",""
"","S1","","html-keyboard-response","397","1101698","0.0-1.0-578.0","0","0","54645","","null","","","null","64","","","","","","","","","","","","","","","",""
"","ISI","","html-keyboard-response","398","1101853","0.0-1.0-579.0","0","0","54645","","null","","","null","64","NaN","","","","","","","","","","","","","","",""
"","S2","","html-keyboard-response","399","1102118","0.0-1.0-580.0","0","0","54645","","null","","","null","64","","NaN","","","","","","","","","","","","","",""
"","response","","html-keyboard-response","400","1102359","0.0-1.0-581.0-0.0","0","0","54645","","239","","","68","64","","","2","64","training","adjacent","EF","5","6","R.jpg","L.jpg","0","1","0","",""
"","feedback","","html-keyboard-response","401","1103365","0.0-1.0-582.0-0.0","0","0","54645","","null","","","null","64","","","","","","","","","","","","","","","",""
"","time_out","","html-keyboard-response","402","1105380","0.0-1.0-584.0-0.0","0","0","54645","","null","","","null","64","","","","","","","","","","","","","","","",""
"","ITI","","html-keyboard-response","403","1106392","0.0-1.0-585.0","0","0","54645","","null","","","null","64","","","","","","","","","","","","","","","NaN",""
"","S1","","html-keyboard-response","404","1106658","0.0-1.0-587.0","0","0","54645","","null","","","null","65","","","","","","","","","","","","","","","",""
"","ISI","","html-keyboard-response","405","1106813","0.0-1.0-588.0","0","0","54645","","147","","","68","65","d","","","","","","","","","","","","","","",""
"","S2","","html-keyboard-response","406","1107081","0.0-1.0-589.0","0","0","54645","","null","","","null","65","","NaN","","","","","","","","","","","","","",""
"","response","","html-keyboard-response","407","1107271","0.0-1.0-590.0-0.0","0","0","54645","","188","","","68","65","","","2","65","training","adjacent","BA","2","1","M.jpg","Q.jpg","0","0","1","",""
"","feedback","","html-keyboard-response","408","1108276","0.0-1.0-591.0-0.0","0","0","54645","","null","","","null","65","","","","","","","","","","","","","","","",""
"","ITI","","html-keyboard-response","409","1109292","0.0-1.0-594.0","0","0","54645","","993","","","68","65","","","","","","","","","","","","","","","d",""
"","S1","","html-keyboard-response","410","1109557","0.0-1.0-596.0","0","0","54645","","null","","","null","66","","","","","","","","","","","","","","","",""
"","ISI","","html-keyboard-response","411","1109713","0.0-1.0-597.0","0","0","54645","","null","","","null","66","NaN","","","","","","","","","","","","","","",""
"","S2","","html-keyboard-response","412","1109767","0.0-1.0-598.0","0","0","54645","","52","","","68","66","","d","2","66","training","adjacent","CB","3","2","O.jpg","M.jpg","0","0","1","",""
"","feedback","","html-keyboard-response","413","1110770","0.0-1.0-600.0-0.0","0","0","54645","","null","","","null","66","","","","","","","","","","","","","","","",""
"","ITI","","html-keyboard-response","414","1111782","0.0-1.0-603.0","0","0","54645","","null","","","null","66","","","","","","","","","","","","","","","NaN",""
"","S1","","html-keyboard-response","415","1112046","0.0-1.0-605.0","0","0","54645","","null","","","null","67","","","","","","","","","","","","","","","",""
"","ISI","","html-keyboard-response","416","1112199","0.0-1.0-606.0","0","0","54645","","null","","","null","67","NaN","","","","","","","","","","","","","","",""
"","S2","","html-keyboard-response","417","1112463","0.0-1.0-607.0","0","0","54645","","null","","","null","67","","NaN","","","","","","","","","","","","","",""
"","response","","html-keyboard-response","418","1112677","0.0-1.0-608.0-0.0","0","0","54645","","214","","","68","67","","","2","67","training","adjacent","DC","4","3","N.jpg","O.jpg","0","0","1","",""
"","feedback","","html-keyboard-response","419","1113691","0.0-1.0-609.0-0.0","0","0","54645","","null","","","null","67","","","","","","","","","","","","","","","",""
"","ITI","","html-keyboard-response","420","1114703","0.0-1.0-612.0","0","0","54645","","null","","","null","67","","","","","","","","","","","","","","","NaN",""
"","S1","","html-keyboard-response","421","1114968","0.0-1.0-614.0","0","0","54645","","null","","","null","68","","","","","","","","","","","","","","","",""
"","ISI","","html-keyboard-response","422","1115124","0.0-1.0-615.0","0","0","54645","","null","","","null","68","NaN","","","","","","","","","","","","","","",""
"","S2","","html-keyboard-response","423","1115388","0.0-1.0-616.0","0","0","54645","","null","","","null","68","","NaN","","","","","","","","","","","","","",""
"","response","","html-keyboard-response","424","1115823","0.0-1.0-617.0-0.0","0","0","54645","","433","","","68","68","","","2","68","training","adjacent","FG","6","7","L.jpg","P.jpg","0","1","0","",""
"","feedback","","html-keyboard-response","425","1116835","0.0-1.0-618.0-0.0","0","0","54645","","null","","","null","68","","","","","","","","","","","","","","","",""
"","time_out","","html-keyboard-response","426","1118851","0.0-1.0-620.0-0.0","0","0","54645","","null","","","null","68","","","","","","","","","","","","","","","",""
"","ITI","","html-keyboard-response","427","1119865","0.0-1.0-621.0","0","0","54645","","null","","","null","68","","","","","","","","","","","","","","","NaN",""
"","S1","","html-keyboard-response","428","1120130","0.0-1.0-623.0","0","0","54645","","null","","","null","69","","","","","","","","","","","","","","","",""
"","ISI","","html-keyboard-response","429","1120287","0.0-1.0-624.0","0","0","54645","","null","","","null","69","NaN","","","","","","","","","","","","","","",""
"","S2","","html-keyboard-response","430","1120406","0.0-1.0-625.0","0","0","54645","","116","","","68","69","","d","2","69","training","adjacent","BA","2","1","M.jpg","Q.jpg","0","0","1","",""
"","feedback","","html-keyboard-response","431","1121421","0.0-1.0-627.0-0.0","0","0","54645","","null","","","null","69","","","","","","","","","","","","","","","",""
"","ITI","","html-keyboard-response","432","1122426","0.0-1.0-630.0","0","0","54645","","865","","","68","69","","","","","","","","","","","","","","","d",""
"","S1","","html-keyboard-response","433","1122691","0.0-1.0-632.0","0","0","54645","","null","","","null","70","","","","","","","","","","","","","","","",""
"","ISI","","html-keyboard-response","434","1122845","0.0-1.0-633.0","0","0","54645","","144","","","68","70","d","","","","","","","","","","","","","","",""
"","S2","","html-keyboard-response","435","1123108","0.0-1.0-634.0","0","0","54645","","null","","","null","70","","NaN","","","","","","","","","","","","","",""
"","response","","html-keyboard-response","436","1123310","0.0-1.0-635.0-0.0","0","0","54645","","201","","","68","70","","","2","70","training","adjacent","CD","3","4","O.jpg","N.jpg","0","1","0","",""
"","feedback","","html-keyboard-response","437","1124324","0.0-1.0-636.0-0.0","0","0","54645","","null","","","null","70","","","","","","","","","","","","","","","",""
"","time_out","","html-keyboard-response","438","1126337","0.0-1.0-638.0-0.0","0","0","54645","","null","","","null","70","","","","","","","","","","","","","","","",""
"","ITI","","html-keyboard-response","439","1127351","0.0-1.0-639.0","0","0","54645","","348","","","68","70","","","","","","","","","","","","","","","d",""
"","S1","","html-keyboard-response","440","1127603","0.0-1.0-641.0","0","0","54645","","null","","","null","71","","","","","","","","","","","","","","","",""
"","ISI","","html-keyboard-response","441","1127760","0.0-1.0-642.0","0","0","54645","","90","","","68","71","d","","","","","","","","","","","","","","",""
"","S2","","html-keyboard-response","442","1128025","0.0-1.0-643.0","0","0","54645","","null","","","null","71","","NaN","","","","","","","","","","","","","",""
"","response","","html-keyboard-response","443","1128168","0.0-1.0-644.0-0.0","0","0","54645","","140","","","68","71","","","2","71","training","adjacent","DE","4","5","N.jpg","R.jpg","0","1","0","",""
"","feedback","","html-keyboard-response","444","1129174","0.0-1.0-645.0-0.0","0","0","54645","","null","","","null","71","","","","","","","","","","","","","","","",""
"","time_out","","html-keyboard-response","445","1131189","0.0-1.0-647.0-0.0","0","0","54645","","null","","","null","71","","","","","","","","","","","","","","","",""
"","ITI","","html-keyboard-response","446","1132201","0.0-1.0-648.0","0","0","54645","","320","","","68","71","","","","","","","","","","","","","","","d",""
"","S1","","html-keyboard-response","447","1132463","0.0-1.0-650.0","0","0","54645","","null","","","null","72","","","","","","","","","","","","","","","",""
"","ISI","","html-keyboard-response","448","1132622","0.0-1.0-651.0","0","0","54645","","null","","","null","72","NaN","","","","","","","","","","","","","","",""
"","S2","","html-keyboard-response","449","1132742","0.0-1.0-652.0","0","0","54645","","119","","","68","72","","d","2","72","training","adjacent","BC","2","3","M.jpg","O.jpg","0","1","0","",""
"","feedback","","html-keyboard-response","450","1133756","0.0-1.0-654.0-0.0","0","0","54645","","null","","","null","72","","","","","","","","","","","","","","","",""
"","time_out","","html-keyboard-response","451","1135761","0.0-1.0-656.0-0.0","0","0","54645","","null","","","null","72","","","","","","","","","","","","","","","",""
"","ITI","","html-keyboard-response","452","1136771","0.0-1.0-657.0","0","0","54645","","283","","","68","72","","","","","","","","","","","","","","","d",""
"","S1","","html-keyboard-response","453","1137035","0.0-1.0-659.0","0","0","54645","","null","","","null","73","","","","","","","","","","","","","","","",""
"","ISI","","html-keyboard-response","454","1137192","0.0-1.0-660.0","0","0","54645","","130","","","68","73","d","","","","","","","","","","","","","","",""
"","S2","","html-keyboard-response","455","1137456","0.0-1.0-661.0","0","0","54645","","null","","","null","73","","NaN","","","","","","","","","","","","","",""
"","response","","html-keyboard-response","456","1137622","0.0-1.0-662.0-0.0","0","0","54645","","164","","","68","73","","","2","73","training","adjacent","BC","2","3","M.jpg","O.jpg","0","1","0","",""
"","feedback","","html-keyboard-response","457","1138632","0.0-1.0-663.0-0.0","0","0","54645","","null","","","null","73","","","","","","","","","","","","","","","",""
"","time_out","","html-keyboard-response","458","1140644","0.0-1.0-665.0-0.0","0","0","54645","","null","","","null","73","","","","","","","","","","","","","","","",""
"","ITI","","html-keyboard-response","459","1141657","0.0-1.0-666.0","0","0","54645","","49","","","68","73","","","","","","","","","","","","","","","d",""
"","S1","","html-keyboard-response","460","1141921","0.0-1.0-668.0","0","0","54645","","null","","","null","74","","","","","","","","","","","","","","","",""
"","ISI","","html-keyboard-response","461","1142078","0.0-1.0-669.0","0","0","54645","","null","","","null","74","NaN","","","","","","","","","","","","","","",""
"","S2","","html-keyboard-response","462","1142184","0.0-1.0-670.0","0","0","54645","","104","","","68","74","","d","2","74","training","adjacent","EF","5","6","R.jpg","L.jpg","0","1","0","",""
"","feedback","","html-keyboard-response","463","1143186","0.0-1.0-672.0-0.0","0","0","54645","","null","","","null","74","","","","","","","","","","","","","","","",""
"","time_out","","html-keyboard-response","464","1145199","0.0-1.0-674.0-0.0","0","0","54645","","null","","","null","74","","","","","","","","","","","","","","","",""
"","ITI","","html-keyboard-response","465","1146205","0.0-1.0-675.0","0","0","54645","","null","","","null","74","","","","","","","","","","","","","","","NaN",""
"","S1","","html-keyboard-response","466","1146470","0.0-1.0-677.0","0","0","54645","","null","","","null","75","","","","","","","","","","","","","","","",""
"","ISI","","html-keyboard-response","467","1146628","0.0-1.0-678.0","0","0","54645","","null","","","null","75","NaN","","","","","","","","","","","","","","",""
"","S2","","html-keyboard-response","468","1146735","0.0-1.0-679.0","0","0","54645","","105","","","68","75","","d","2","75","training","adjacent","BA","2","1","M.jpg","Q.jpg","0","0","1","",""
"","feedback","","html-keyboard-response","469","1147744","0.0-1.0-681.0-0.0","0","0","54645","","null","","","null","75","","","","","","","","","","","","","","","",""
"","ITI","","html-keyboard-response","470","1148752","0.0-1.0-684.0","0","0","54645","","null","","","null","75","","","","","","","","","","","","","","","NaN",""
"","S1","","html-keyboard-response","471","1149018","0.0-1.0-686.0","0","0","54645","","null","","","null","76","","","","","","","","","","","","","","","",""
"","ISI","","html-keyboard-response","472","1149173","0.0-1.0-687.0","0","0","54645","","null","","","null","76","NaN","","","","","","","","","","","","","","",""
"","S2","","html-keyboard-response","473","1149334","0.0-1.0-688.0","0","0","54645","","160","","","68","76","","d","2","76","training","adjacent","ED","5","4","R.jpg","N.jpg","0","0","1","",""
"","feedback","","html-keyboard-response","474","1150340","0.0-1.0-690.0-0.0","0","0","54645","","null","","","null","76","","","","","","","","","","","","","","","",""
"","ITI","","html-keyboard-response","475","1151351","0.0-1.0-693.0","0","0","54645","","null","","","null","76","","","","","","","","","","","","","","","NaN",""
"","S1","","html-keyboard-response","476","1151616","0.0-1.0-695.0","0","0","54645","","null","","","null","77","","","","","","","","","","","","","","","",""
"","ISI","","html-keyboard-response","477","1151770","0.0-1.0-696.0","0","0","54645","","5","","","68","77","d","","","","","","","","","","","","","","",""
"","S2","","html-keyboard-response","478","1152037","0.0-1.0-697.0","0","0","54645","","null","","","null","77","","NaN","","","","","","","","","","","","","",""
"","response","","html-keyboard-response","479","1152040","0.0-1.0-698.0-0.0","0","0","54645","","1","","","68","77","","","2","77","training","adjacent","ED","5","4","R.jpg","N.jpg","0","0","1","",""
"","feedback","","html-keyboard-response","480","1153047","0.0-1.0-699.0-0.0","0","0","54645","","null","","","null","77","","","","","","","","","","","","","","","",""
"","ITI","","html-keyboard-response","481","1154059","0.0-1.0-702.0","0","0","54645","","null","","","null","77","","","","","","","","","","","","","","","NaN",""
"","S1","","html-keyboard-response","482","1154320","0.0-1.0-704.0","0","0","54645","","null","","","null","78","","","","","","","","","","","","","","","",""
"","ISI","","html-keyboard-response","483","1154476","0.0-1.0-705.0","0","0","54645","","null","","","null","78","NaN","","","","","","","","","","","","","","",""
"","S2","","html-keyboard-response","484","1154738","0.0-1.0-706.0","0","0","54645","","null","","","null","78","","NaN","","","","","","","","","","","","","",""
"","response","","html-keyboard-response","485","1154919","0.0-1.0-707.0-0.0","0","0","54645","","178","","","68","78","","","2","78","training","adjacent","AB","1","2","Q.jpg","M.jpg","0","1","0","",""
"","feedback","","html-keyboard-response","486","1155927","0.0-1.0-708.0-0.0","0","0","54645","","null","","","null","78","","","","","","","","","","","","","","","",""
"","time_out","","html-keyboard-response","487","1157935","0.0-1.0-710.0-0.0","0","0","54645","","null","","","null","78","","","","","","","","","","","","","","","",""
"","ITI","","html-keyboard-response","488","1158943","0.0-1.0-711.0","0","0","54645","","422","","","68","78","","","","","","","","","","","","","","","d",""
"","S1","","html-keyboard-response","489","1159208","0.0-1.0-713.0","0","0","54645","","null","","","null","79","","","","","","","","","","","","","","","",""
"","ISI","","html-keyboard-response","490","1159365","0.0-1.0-714.0","0","0","54645","","149","","","68","79","d","","","","","","","","","","","","","","",""
"","S2","","html-keyboard-response","491","1159618","0.0-1.0-715.0","0","0","54645","","null","","","null","79","","NaN","","","","","","","","","","","","","",""
"","response","","html-keyboard-response","492","1159838","0.0-1.0-716.0-0.0","0","0","54645","","219","","","68","79","","","2","79","training","adjacent","CB","3","2","O.jpg","M.jpg","0","0","1","",""
"","feedback","","html-keyboard-response","493","1160849","0.0-1.0-717.0-0.0","0","0","54645","","null","","","null","79","","","","","","","","","","","","","","","",""
"","ITI","","html-keyboard-response","494","1161864","0.0-1.0-720.0","0","0","54645","","972","","","68","79","","","","","","","","","","","","","","","d",""
"","S1","","html-keyboard-response","495","1162128","0.0-1.0-722.0","0","0","54645","","null","","","null","80","","","","","","","","","","","","","","","",""
"","ISI","","html-keyboard-response","496","1162284","0.0-1.0-723.0","0","0","54645","","null","","","null","80","NaN","","","","","","","","","","","","","","",""
"","S2","","html-keyboard-response","497","1162303","0.0-1.0-724.0","0","0","54645","","17","","","68","80","","d","2","80","training","adjacent","FE","6","5","L.jpg","R.jpg","0","0","1","",""
"","feedback","","html-keyboard-response","498","1163310","0.0-1.0-726.0-0.0","0","0","54645","","null","","","null","80","","","","","","","","","","","","","","","",""
"","ITI","","html-keyboard-response","499","1164322","0.0-1.0-729.0","0","0","54645","","832","","","68","80","","","","","","","","","","","","","","","d",""
"","S1","","html-keyboard-response","500","1164585","0.0-1.0-731.0","0","0","54645","","null","","","null","81","","","","","","","","","","","","","","","",""
"","ISI","","html-keyboard-response","501","1164739","0.0-1.0-732.0","0","0","54645","","91","","","68","81","d","","","","","","","","","","","","","","",""
"","S2","","html-keyboard-response","502","1165002","0.0-1.0-733.0","0","0","54645","","null","","","null","81","","NaN","","","","","","","","","","","","","",""
"","response","","html-keyboard-response","503","1165487","0.0-1.0-734.0-0.0","0","0","54645","","483","","","68","81","","","2","81","training","adjacent","CD","3","4","O.jpg","N.jpg","0","1","0","",""
"","feedback","","html-keyboard-response","504","1166502","0.0-1.0-735.0-0.0","0","0","54645","","null","","","null","81","","","","","","","","","","","","","","","",""
"","time_out","","html-keyboard-response","505","1168512","0.0-1.0-737.0-0.0","0","0","54645","","null","","","null","81","","","","","","","","","","","","","","","",""
"","ITI","","html-keyboard-response","506","1169523","0.0-1.0-738.0","0","0","54645","","669","","","68","81","","","","","","","","","","","","","","","d",""
"","S1","","html-keyboard-response","507","1169790","0.0-1.0-740.0","0","0","54645","","null","","","null","82","","","","","","","","","","","","","","","",""
"","ISI","","html-keyboard-response","508","1169942","0.0-1.0-741.0","0","0","54645","","null","","","null","82","NaN","","","","","","","","","","","","","","",""
"","S2","","html-keyboard-response","509","1169999","0.0-1.0-742.0","0","0","54645","","54","","","68","82","","d","2","82","training","adjacent","DE","4","5","N.jpg","R.jpg","0","1","0","",""
"","feedback","","html-keyboard-response","510","1171016","0.0-1.0-744.0-0.0","0","0","54645","","null","","","null","82","","","","","","","","","","","","","","","",""
"","time_out","","html-keyboard-response","511","1173027","0.0-1.0-746.0-0.0","0","0","54645","","null","","","null","82","","","","","","","","","","","","","","","",""
"","ITI","","html-keyboard-response","512","1174034","0.0-1.0-747.0","0","0","54645","","386","","","68","82","","","","","","","","","","","","","","","d",""
"","S1","","html-keyboard-response","513","1174298","0.0-1.0-749.0","0","0","54645","","null","","","null","83","","","","","","","","","","","","","","","",""
"","ISI","","html-keyboard-response","514","1174456","0.0-1.0-750.0","0","0","54645","","null","","","null","83","NaN","","","","","","","","","","","","","","",""
"","S2","","html-keyboard-response","515","1174495","0.0-1.0-751.0","0","0","54645","","36","","","68","83","","d","2","83","training","adjacent","DC","4","3","N.jpg","O.jpg","0","0","1","",""
"","feedback","","html-keyboard-response","516","1175499","0.0-1.0-753.0-0.0","0","0","54645","","null","","","null","83","","","","","","","","","","","","","","","",""
"","ITI","","html-keyboard-response","517","1176512","0.0-1.0-756.0","0","0","54645","","null","","","null","83","","","","","","","","","","","","","","","NaN",""
"","S1","","html-keyboard-response","518","1176776","0.0-1.0-758.0","0","0","54645","","null","","","null","84","","","","","","","","","","","","","","","",""
"","ISI","","html-keyboard-response","519","1176934","0.0-1.0-759.0","0","0","54645","","117","","","68","84","d","","","","","","","","","","","","","","",""
"","S2","","html-keyboard-response","520","1177198","0.0-1.0-760.0","0","0","54645","","null","","","null","84","","NaN","","","","","","","","","","","","","",""
"","response","","html-keyboard-response","521","1177310","0.0-1.0-761.0-0.0","0","0","54645","","111","","","68","84","","","2","84","training","adjacent","DE","4","5","N.jpg","R.jpg","0","1","0","",""
"","feedback","","html-keyboard-response","522","1178328","0.0-1.0-762.0-0.0","0","0","54645","","null","","","null","84","","","","","","","","","","","","","","","",""
"","time_out","","html-keyboard-response","523","1180342","0.0-1.0-764.0-0.0","0","0","54645","","null","","","null","84","","","","","","","","","","","","","","","",""
"","ITI","","html-keyboard-response","524","1181352","0.0-1.0-765.0","0","0","54645","","751","","","68","84","","","","","","","","","","","","","","","d",""
"","S1","","html-keyboard-response","525","1181615","0.0-1.0-767.0","0","0","54645","","null","","","null","85","","","","","","","","","","","","","","","",""
"","ISI","","html-keyboard-response","526","1181771","0.0-1.0-768.0","0","0","54645","","29","","","68","85","d","","","","","","","","","","","","","","",""
"","S2","","html-keyboard-response","527","1182037","0.0-1.0-769.0","0","0","54645","","null","","","null","85","","NaN","","","","","","","","","","","","","",""
"","response","","html-keyboard-response","528","1182192","0.0-1.0-770.0-0.0","0","0","54645","","153","","","68","85","","","2","85","training","adjacent","FE","6","5","L.jpg","R.jpg","0","0","1","",""
"","feedback","","html-keyboard-response","529","1183203","0.0-1.0-771.0-0.0","0","0","54645","","null","","","null","85","","","","","","","","","","","","","","","",""
"","ITI","","html-keyboard-response","530","1184217","0.0-1.0-774.0","0","0","54645","","714","","","68","85","","","","","","","","","","","","","","","d",""
"","S1","","html-keyboard-response","531","1184482","0.0-1.0-776.0","0","0","54645","","null","","","null","86","","","","","","","","","","","","","","","",""
"","ISI","","html-keyboard-response","532","1184636","0.0-1.0-777.0","0","0","54645","","null","","","null","86","NaN","","","","","","","","","","","","","","",""
"","S2","","html-keyboard-response","533","1184902","0.0-1.0-778.0","0","0","54645","","null","","","null","86","","NaN","","","","","","","","","","","","","",""
"","response","","html-keyboard-response","534","1184950","0.0-1.0-779.0-0.0","0","0","54645","","47","","","68","86","","","2","86","training","adjacent","ED","5","4","R.jpg","N.jpg","0","0","1","",""
"","feedback","","html-keyboard-response","535","1185962","0.0-1.0-780.0-0.0","0","0","54645","","null","","","null","86","","","","","","","","","","","","","","","",""
"","ITI","","html-keyboard-response","536","1186971","0.0-1.0-783.0","0","0","54645","","275","","","68","86","","","","","","","","","","","","","","","d",""
"","S1","","html-keyboard-response","537","1187235","0.0-1.0-785.0","0","0","54645","","null","","","null","87","","","","","","","","","","","","","","","",""
"","ISI","","html-keyboard-response","538","1187391","0.0-1.0-786.0","0","0","54645","","null","","","null","87","NaN","","","","","","","","","","","","","","",""
"","S2","","html-keyboard-response","539","1187654","0.0-1.0-787.0","0","0","54645","","null","","","null","87","","NaN","","","","","","","","","","","","","",""
"","response","","html-keyboard-response","540","1187783","0.0-1.0-788.0-0.0","0","0","54645","","127","","","68","87","","","2","87","training","adjacent","BA","2","1","M.jpg","Q.jpg","0","0","1","",""
"","feedback","","html-keyboard-response","541","1188792","0.0-1.0-789.0-0.0","0","0","54645","","null","","","null","87","","","","","","","","","","","","","","","",""
"","ITI","","html-keyboard-response","542","1189809","0.0-1.0-792.0","0","0","54645","","293","","","68","87","","","","","","","","","","","","","","","d",""
"","S1","","html-keyboard-response","543","1190073","0.0-1.0-794.0","0","0","54645","","null","","","null","88","","","","","","","","","","","","","","","",""
"","ISI","","html-keyboard-response","544","1190231","0.0-1.0-795.0","0","0","54645","","null","","","null","88","NaN","","","","","","","","","","","","","","",""
"","S2","","html-keyboard-response","545","1190496","0.0-1.0-796.0","0","0","54645","","null","","","null","88","","NaN","","","","","","","","","","","","","",""
"","response","","html-keyboard-response","546","1191046","0.0-1.0-797.0-0.0","0","0","54645","","549","","","68","88","","","2","88","training","adjacent","CB","3","2","O.jpg","M.jpg","0","0","1","",""
"","feedback","","html-keyboard-response","547","1192055","0.0-1.0-798.0-0.0","0","0","54645","","null","","","null","88","","","","","","","","","","","","","","","",""
"","ITI","","html-keyboard-response","548","1193064","0.0-1.0-801.0","0","0","54645","","null","","","null","88","","","","","","","","","","","","","","","NaN",""
"","S1","","html-keyboard-response","549","1193330","0.0-1.0-803.0","0","0","54645","","null","","","null","89","","","","","","","","","","","","","","","",""
"","ISI","","html-keyboard-response","550","1193487","0.0-1.0-804.0","0","0","54645","","null","","","null","89","NaN","","","","","","","","","","","","","","",""
"","S2","","html-keyboard-response","551","1193754","0.0-1.0-805.0","0","0","54645","","null","","","null","89","","NaN","","","","","","","","","","","","","",""
"","response","","html-keyboard-response","552","1193919","0.0-1.0-806.0-0.0","0","0","54645","","163","","","68","89","","","2","89","training","adjacent","GF","7","6","P.jpg","L.jpg","0","0","1","",""
"","feedback","","html-keyboard-response","553","1194935","0.0-1.0-807.0-0.0","0","0","54645","","null","","","null","89","","","","","","","","","","","","","","","",""
"","ITI","","html-keyboard-response","554","1195946","0.0-1.0-810.0","0","0","54645","","null","","","null","89","","","","","","","","","","","","","","","NaN",""
"","S1","","html-keyboard-response","555","1196211","0.0-1.0-812.0","0","0","54645","","null","","","null","90","","","","","","","","","","","","","","","",""
"","ISI","","html-keyboard-response","556","1196365","0.0-1.0-813.0","0","0","54645","","null","","","null","90","NaN","","","","","","","","","","","","","","",""
"","S2","","html-keyboard-response","557","1196495","0.0-1.0-814.0","0","0","54645","","127","","","68","90","","d","2","90","training","adjacent","FG","6","7","L.jpg","P.jpg","0","1","0","",""
"","feedback","","html-keyboard-response","558","1197498","0.0-1.0-816.0-0.0","0","0","54645","","null","","","null","90","","","","","","","","","","","","","","","",""
"","time_out","","html-keyboard-response","559","1199504","0.0-1.0-818.0-0.0","0","0","54645","","null","","","null","90","","","","","","","","","","","","","","","",""
"","ITI","","html-keyboard-response","560","1200518","0.0-1.0-819.0","0","0","54645","","null","","","null","90","","","","","","","","","","","","","","","NaN",""
"","S1","","html-keyboard-response","561","1200782","0.0-1.0-821.0","0","0","54645","","null","","","null","91","","","","","","","","","","","","","","","",""
"","ISI","","html-keyboard-response","562","1200937","0.0-1.0-822.0","0","0","54645","","23","","","68","91","d","","","","","","","","","","","","","","",""
"","S2","","html-keyboard-response","563","1201204","0.0-1.0-823.0","0","0","54645","","null","","","null","91","","NaN","","","","","","","","","","","","","",""
"","response","","html-keyboard-response","564","1201303","0.0-1.0-824.0-0.0","0","0","54645","","98","","","68","91","","","2","91","training","adjacent","EF","5","6","R.jpg","L.jpg","0","1","0","",""
"","feedback","","html-keyboard-response","565","1202309","0.0-1.0-825.0-0.0","0","0","54645","","null","","","null","91","","","","","","","","","","","","","","","",""
"","time_out","","html-keyboard-response","566","1204311","0.0-1.0-827.0-0.0","0","0","54645","","null","","","null","91","","","","","","","","","","","","","","","",""
"","ITI","","html-keyboard-response","567","1205324","0.0-1.0-828.0","0","0","54645","","null","","","null","91","","","","","","","","","","","","","","","NaN",""
"","S1","","html-keyboard-response","568","1205588","0.0-1.0-830.0","0","0","54645","","null","","","null","92","","","","","","","","","","","","","","","",""
"","ISI","","html-keyboard-response","569","1205744","0.0-1.0-831.0","0","0","54645","","25","","","68","92","d","","","","","","","","","","","","","","",""
"","S2","","html-keyboard-response","570","1206010","0.0-1.0-832.0","0","0","54645","","null","","","null","92","","NaN","","","","","","","","","","","","","",""
"","response","","html-keyboard-response","571","1206087","0.0-1.0-833.0-0.0","0","0","54645","","75","","","68","92","","","2","92","training","adjacent","GF","7","6","P.jpg","L.jpg","0","0","1","",""
"","feedback","","html-keyboard-response","572","1207103","0.0-1.0-834.0-0.0","0","0","54645","","null","","","null","92","","","","","","","","","","","","","","","",""
"","ITI","","html-keyboard-response","573","1208110","0.0-1.0-837.0","0","0","54645","","null","","","null","92","","","","","","","","","","","","","","","NaN",""
"","S1","","html-keyboard-response","574","1208373","0.0-1.0-839.0","0","0","54645","","null","","","null","93","","","","","","","","","","","","","","","",""
"","ISI","","html-keyboard-response","575","1208526","0.0-1.0-840.0","0","0","54645","","null","","","null","93","NaN","","","","","","","","","","","","","","",""
"","S2","","html-keyboard-response","576","1208552","0.0-1.0-841.0","0","0","54645","","23","","","68","93","","d","2","93","training","adjacent","CD","3","4","O.jpg","N.jpg","0","1","0","",""
"","feedback","","html-keyboard-response","577","1209559","0.0-1.0-843.0-0.0","0","0","54645","","null","","","null","93","","","","","","","","","","","","","","","",""
"","time_out","","html-keyboard-response","578","1211567","0.0-1.0-845.0-0.0","0","0","54645","","null","","","null","93","","","","","","","","","","","","","","","",""
"","ITI","","html-keyboard-response","579","1212583","0.0-1.0-846.0","0","0","54645","","null","","","null","93","","","","","","","","","","","","","","","NaN",""
"","S1","","html-keyboard-response","580","1212848","0.0-1.0-848.0","0","0","54645","","null","","","null","94","","","","","","","","","","","","","","","",""
"","ISI","","html-keyboard-response","581","1213002","0.0-1.0-849.0","0","0","54645","","null","","","null","94","NaN","","","","","","","","","","","","","","",""
"","S2","","html-keyboard-response","582","1213175","0.0-1.0-850.0","0","0","54645","","170","","","68","94","","d","2","94","training","adjacent","ED","5","4","R.jpg","N.jpg","0","0","1","",""
