"success","ttype","start_time","trial_type","trial_index","time_elapsed","internal_node_id","warning","missed_checkup","PID","view_history","rt","responses","repeat_instructions","key_press","index","keypress_isi","keypress_S2","block","trial_num","phase","group_type","pair_type","S1_stim","S2_stim","S1_img","S2_img","S1_chosen","S1_higher","accuracy","keypress_iti","total_bonus_tally"
"true","full_screen","d03042023hr0435","fullscreen","0","11991","0.0-0.0","0","0","11652","","","","","","","","","","","","","","","","","","","","","",""
"","instructions","","instructions","1","271177","0.0-1.0-0.0-0.0","0","0","11652","[{""page_index"":0,""viewing_time"":22883},{""page_index"":1,""viewing_time"":137343},{""page_index"":2,""viewing_time"":97121},{""page_index"":3,""viewing_time"":1833}]","259182","","","","","","","","","","","","","","","","","","","",""
"","comprehension_check","","survey-multi-choice","2","296504","0.0-1.0-0.0-1.0","0","0","11652","","25316","{""Q0"":""True"",""Q1"":""D"",""Q2"":""Once the second image appears and while the screen 'MAKE A CHOICE' is shown"",""Q3"":""Green mark"",""Q4"":""either D or K""}","0","","","","","","","","","","","","","","","","","",""
"","start_exp","","html-keyboard-response","3","299878","0.0-1.0-1.0","0","0","11652","","3364","","","32","","","","","","","","","","","","","","","","",""
"","S1","","html-keyboard-response","4","300133","0.0-1.0-2.0","0","0","11652","","null","","","null","0","","","","","","","","","","","","","","","",""
"","ISI","","html-keyboard-response","5","300637","0.0-1.0-3.0","0","0","11652","","null","","","null","0","NaN","","","","","","","","","","","","","","",""
"","S2","","html-keyboard-response","6","300898","0.0-1.0-4.0","0","0","11652","","null","","","null","0","","NaN","","","","","","","","","","","","","",""
"","response","","html-keyboard-response","7","301275","0.0-1.0-5.0-0.0","0","0","11652","","373","","","75","0","","","1","0","training","adjacent","ED","5","4","Q.jpg","R.jpg","0","0","1","",""
"","feedback","","html-keyboard-response","8","302287","0.0-1.0-6.0-0.0","0","0","11652","","null","","","null","0","","","","","","","","","","","","","","","",""
"","ITI","","html-keyboard-response","9","303296","0.0-1.0-9.0","0","0","11652","","null","","","null","0","","","","","","","","","","","","","","","NaN",""
"","S1","","html-keyboard-response","10","303552","0.0-1.0-11.0","0","0","11652","","null","","","null","1","","","","","","","","","","","","","","","",""
"","ISI","","html-keyboard-response","11","304059","0.0-1.0-12.0","0","0","11652","","null","","","null","1","NaN","","","","","","","","","","","","","","",""
"","S2","","html-keyboard-response","12","304317","0.0-1.0-13.0","0","0","11652","","null","","","null","1","","NaN","","","","","","","","","","","","","",""
"","response","","html-keyboard-response","13","304520","0.0-1.0-14.0-0.0","0","0","11652","","200","","","68","1","","","1","1","training","adjacent","FG","6","7","O.jpg","P.jpg","1","1","1","",""
"","feedback","","html-keyboard-response","14","305527","0.0-1.0-15.0-0.0","0","0","11652","","null","","","null","1","","","","","","","","","","","","","","","",""
"","ITI","","html-keyboard-response","15","306533","0.0-1.0-18.0","0","0","11652","","null","","","null","1","","","","","","","","","","","","","","","NaN",""
"","S1","","html-keyboard-response","16","306792","0.0-1.0-20.0","0","0","11652","","null","","","null","2","","","","","","","","","","","","","","","",""
"","ISI","","html-keyboard-response","17","307297","0.0-1.0-21.0","0","0","11652","","null","","","null","2","NaN","","","","","","","","","","","","","","",""
"","S2","","html-keyboard-response","18","307556","0.0-1.0-22.0","0","0","11652","","null","","","null","2","","NaN","","","","","","","","","","","","","",""
"","response","","html-keyboard-response","19","307679","0.0-1.0-23.0-0.0","0","0","11652","","119","","","75","2","","","1","2","training","adjacent","CB","3","2","N.jpg","M.jpg","0","0","1","",""
"","feedback","","html-keyboard-response","20","308683","0.0-1.0-24.0-0.0","0","0","11652","","null","","","null","2","","","","","","","","","","","","","","","",""
"","ITI","","html-keyboard-response","21","309691","0.0-1.0-27.0","0","0","11652","","null","","","null","2","","","","","","","","","","","","","","","NaN",""
"","S1","","html-keyboard-response","22","309949","0.0-1.0-29.0","0","0","11652","","null","","","null","3","","","","","","","","","","","","","","","",""
"","ISI","","html-keyboard-response","23","310455","0.0-1.0-30.0","0","0","11652","","null","","","null","3","NaN","","","","","","","","","","","","","","",""
"","S2","","html-keyboard-response","24","310713","0.0-1.0-31.0","0","0","11652","","null","","","null","3","","NaN","","","","","","","","","","","","","",""
"","response","","html-keyboard-response","25","310793","0.0-1.0-32.0-0.0","0","0","11652","","77","","","68","3","","","1","3","training","adjacent","EF","5","6","Q.jpg","O.jpg","1","1","1","",""
"","feedback","","html-keyboard-response","26","311805","0.0-1.0-33.0-0.0","0","0","11652","","null","","","null","3","","","","","","","","","","","","","","","",""
"","ITI","","html-keyboard-response","27","312816","0.0-1.0-36.0","0","0","11652","","null","","","null","3","","","","","","","","","","","","","","","NaN",""
"","S1","","html-keyboard-response","28","313073","0.0-1.0-38.0","0","0","11652","","null","","","null","4","","","","","","","","","","","","","","","",""
"","ISI","","html-keyboard-response","29","313583","0.0-1.0-39.0","0","0","11652","","null","","","null","4","NaN","","","","","","","","","","","","","","",""
"","S2","","html-keyboard-response","30","313842","0.0-1.0-40.0","0","0","11652","","null","","","null","4","","NaN","","","","","","","","","","","","","",""
"","response","","html-keyboard-response","31","314027","0.0-1.0-41.0-0.0","0","0","11652","","181","","","68","4","","","1","4","training","adjacent","CD","3","4","N.jpg","R.jpg","1","1","1","",""
"","feedback","","html-keyboard-response","32","315030","0.0-1.0-42.0-0.0","0","0","11652","","null","","","null","4","","","","","","","","","","","","","","","",""
"","ITI","","html-keyboard-response","33","316038","0.0-1.0-45.0","0","0","11652","","null","","","null","4","","","","","","","","","","","","","","","NaN",""
"","S1","","html-keyboard-response","34","316303","0.0-1.0-47.0","0","0","11652","","null","","","null","5","","","","","","","","","","","","","","","",""
"","ISI","","html-keyboard-response","35","316809","0.0-1.0-48.0","0","0","11652","","null","","","null","5","NaN","","","","","","","","","","","","","","",""
"","S2","","html-keyboard-response","36","317067","0.0-1.0-49.0","0","0","11652","","null","","","null","5","","NaN","","","","","","","","","","","","","",""
"","response","","html-keyboard-response","37","317175","0.0-1.0-50.0-0.0","0","0","11652","","105","","","68","5","","","1","5","training","adjacent","AB","1","2","L.jpg","M.jpg","1","1","1","",""
"","feedback","","html-keyboard-response","38","318180","0.0-1.0-51.0-0.0","0","0","11652","","null","","","null","5","","","","","","","","","","","","","","","",""
"","ITI","","html-keyboard-response","39","319188","0.0-1.0-54.0","0","0","11652","","null","","","null","5","","","","","","","","","","","","","","","NaN",""
"","S1","","html-keyboard-response","40","319443","0.0-1.0-56.0","0","0","11652","","null","","","null","6","","","","","","","","","","","","","","","",""
"","ISI","","html-keyboard-response","41","319947","0.0-1.0-57.0","0","0","11652","","null","","","null","6","NaN","","","","","","","","","","","","","","",""
"","S2","","html-keyboard-response","42","320206","0.0-1.0-58.0","0","0","11652","","null","","","null","6","","NaN","","","","","","","","","","","","","",""
"","response","","html-keyboard-response","43","320260","0.0-1.0-59.0-0.0","0","0","11652","","51","","","75","6","","","1","6","training","adjacent","FE","6","5","O.jpg","Q.jpg","0","0","1","",""
"","feedback","","html-keyboard-response","44","321273","0.0-1.0-60.0-0.0","0","0","11652","","null","","","null","6","","","","","","","","","","","","","","","",""
"","ITI","","html-keyboard-response","45","322281","0.0-1.0-63.0","0","0","11652","","null","","","null","6","","","","","","","","","","","","","","","NaN",""
"","S1","","html-keyboard-response","46","322538","0.0-1.0-65.0","0","0","11652","","null","","","null","7","","","","","","","","","","","","","","","",""
"","ISI","","html-keyboard-response","47","323044","0.0-1.0-66.0","0","0","11652","","null","","","null","7","NaN","","","","","","","","","","","","","","",""
"","S2","","html-keyboard-response","48","323300","0.0-1.0-67.0","0","0","11652","","null","","","null","7","","NaN","","","","","","","","","","","","","",""
"","response","","html-keyboard-response","49","323349","0.0-1.0-68.0-0.0","0","0","11652","","45","","","68","7","","","1","7","training","adjacent","BC","2","3","M.jpg","N.jpg","1","1","1","",""
"","feedback","","html-keyboard-response","50","324357","0.0-1.0-69.0-0.0","0","0","11652","","null","","","null","7","","","","","","","","","","","","","","","",""
"","ITI","","html-keyboard-response","51","325363","0.0-1.0-72.0","0","0","11652","","null","","","null","7","","","","","","","","","","","","","","","NaN",""
"","S1","","html-keyboard-response","52","325618","0.0-1.0-74.0","0","0","11652","","null","","","null","8","","","","","","","","","","","","","","","",""
"","ISI","","html-keyboard-response","53","326126","0.0-1.0-75.0","0","0","11652","","null","","","null","8","NaN","","","","","","","","","","","","","","",""
"","S2","","html-keyboard-response","54","326383","0.0-1.0-76.0","0","0","11652","","null","","","null","8","","NaN","","","","","","","","","","","","","",""
"","response","","html-keyboard-response","55","326469","0.0-1.0-77.0-0.0","0","0","11652","","83","","","68","8","","","1","8","training","adjacent","FG","6","7","O.jpg","P.jpg","1","1","1","",""
"","feedback","","html-keyboard-response","56","327480","0.0-1.0-78.0-0.0","0","0","11652","","null","","","null","8","","","","","","","","","","","","","","","",""
"","ITI","","html-keyboard-response","57","328489","0.0-1.0-81.0","0","0","11652","","null","","","null","8","","","","","","","","","","","","","","","NaN",""
"","S1","","html-keyboard-response","58","328752","0.0-1.0-83.0","0","0","11652","","null","","","null","9","","","","","","","","","","","","","","","",""
"","ISI","","html-keyboard-response","59","329258","0.0-1.0-84.0","0","0","11652","","null","","","null","9","NaN","","","","","","","","","","","","","","",""
"","S2","","html-keyboard-response","60","329501","0.0-1.0-85.0","0","0","11652","","238","","","75","9","","k","1","9","training","adjacent","ED","5","4","Q.jpg","R.jpg","0","0","1","",""
"","feedback","","html-keyboard-response","61","330510","0.0-1.0-87.0-0.0","0","0","11652","","null","","","null","9","","","","","","","","","","","","","","","",""
"","ITI","","html-keyboard-response","62","331529","0.0-1.0-90.0","0","0","11652","","null","","","null","9","","","","","","","","","","","","","","","NaN",""
"","S1","","html-keyboard-response","63","331787","0.0-1.0-92.0","0","0","11652","","null","","","null","10","","","","","","","","","","","","","","","",""
"","ISI","","html-keyboard-response","64","332293","0.0-1.0-93.0","0","0","11652","","null","","","null","10","NaN","","","","","","","","","","","","","","",""
"","S2","","html-keyboard-response","65","332515","0.0-1.0-94.0","0","0","11652","","218","","","68","10","","d","1","10","training","adjacent","DC","4","3","R.jpg","N.jpg","1","0","0","",""
"","feedback","","html-keyboard-response","66","333527","0.0-1.0-96.0-0.0","0","0","11652","","null","","","null","10","","","","","","","","","","","","","","","",""
"","time_out","","html-keyboard-response","67","335538","0.0-1.0-98.0-0.0","0","0","11652","","null","","","null","10","","","","","","","","","","","","","","","",""
"","ITI","","html-keyboard-response","68","336545","0.0-1.0-99.0","0","0","11652","","null","","","null","10","","","","","","","","","","","","","","","NaN",""
"","S1","","html-keyboard-response","69","336802","0.0-1.0-101.0","0","0","11652","","null","","","null","11","","","","","","","","","","","","","","","",""
"","ISI","","html-keyboard-response","70","337311","0.0-1.0-102.0","0","0","11652","","null","","","null","11","NaN","","","","","","","","","","","","","","",""
"","S2","","html-keyboard-response","71","337565","0.0-1.0-103.0","0","0","11652","","250","","","75","11","","k","1","11","training","adjacent","CB","3","2","N.jpg","M.jpg","0","0","1","",""
"","feedback","","html-keyboard-response","72","338570","0.0-1.0-105.0-0.0","0","0","11652","","null","","","null","11","","","","","","","","","","","","","","","",""
"","ITI","","html-keyboard-response","73","339574","0.0-1.0-108.0","0","0","11652","","null","","","null","11","","","","","","","","","","","","","","","NaN",""
"","S1","","html-keyboard-response","74","339833","0.0-1.0-110.0","0","0","11652","","null","","","null","12","","","","","","","","","","","","","","","",""
"","ISI","","html-keyboard-response","75","340339","0.0-1.0-111.0","0","0","11652","","null","","","null","12","NaN","","","","","","","","","","","","","","",""
"","S2","","html-keyboard-response","76","340601","0.0-1.0-112.0","0","0","11652","","null","","","null","12","","NaN","","","","","","","","","","","","","",""
"","response","","html-keyboard-response","77","340717","0.0-1.0-113.0-0.0","0","0","11652","","112","","","75","12","","","1","12","training","adjacent","CD","3","4","N.jpg","R.jpg","0","1","0","",""
"","feedback","","html-keyboard-response","78","341723","0.0-1.0-114.0-0.0","0","0","11652","","null","","","null","12","","","","","","","","","","","","","","","",""
"","time_out","","html-keyboard-response","79","343731","0.0-1.0-116.0-0.0","0","0","11652","","null","","","null","12","","","","","","","","","","","","","","","",""
"","ITI","","html-keyboard-response","80","344735","0.0-1.0-117.0","0","0","11652","","null","","","null","12","","","","","","","","","","","","","","","NaN",""
"","S1","","html-keyboard-response","81","344992","0.0-1.0-119.0","0","0","11652","","null","","","null","13","","","","","","","","","","","","","","","",""
"","ISI","","html-keyboard-response","82","345498","0.0-1.0-120.0","0","0","11652","","null","","","null","13","NaN","","","","","","","","","","","","","","",""
"","S2","","html-keyboard-response","83","345757","0.0-1.0-121.0","0","0","11652","","256","","","75","13","","k","1","13","training","adjacent","FE","6","5","O.jpg","Q.jpg","0","0","1","",""
"","feedback","","html-keyboard-response","84","346762","0.0-1.0-123.0-0.0","0","0","11652","","null","","","null","13","","","","","","","","","","","","","","","",""
"","ITI","","html-keyboard-response","85","347777","0.0-1.0-126.0","0","0","11652","","null","","","null","13","","","","","","","","","","","","","","","NaN",""
"","S1","","html-keyboard-response","86","348035","0.0-1.0-128.0","0","0","11652","","null","","","null","14","","","","","","","","","","","","","","","",""
"","ISI","","html-keyboard-response","87","348540","0.0-1.0-129.0","0","0","11652","","null","","","null","14","NaN","","","","","","","","","","","","","","",""
"","S2","","html-keyboard-response","88","348799","0.0-1.0-130.0","0","0","11652","","null","","","null","14","","NaN","","","","","","","","","","","","","",""
"","response","","html-keyboard-response","89","348872","0.0-1.0-131.0-0.0","0","0","11652","","69","","","68","14","","","1","14","training","adjacent","CB","3","2","N.jpg","M.jpg","1","0","0","",""
"","feedback","","html-keyboard-response","90","349878","0.0-1.0-132.0-0.0","0","0","11652","","null","","","null","14","","","","","","","","","","","","","","","",""
"","time_out","","html-keyboard-response","91","351888","0.0-1.0-134.0-0.0","0","0","11652","","null","","","null","14","","","","","","","","","","","","","","","",""
"","ITI","","html-keyboard-response","92","352891","0.0-1.0-135.0","0","0","11652","","null","","","null","14","","","","","","","","","","","","","","","NaN",""
"","S1","","html-keyboard-response","93","353150","0.0-1.0-137.0","0","0","11652","","null","","","null","15","","","","","","","","","","","","","","","",""
"","ISI","","html-keyboard-response","94","353656","0.0-1.0-138.0","0","0","11652","","null","","","null","15","NaN","","","","","","","","","","","","","","",""
"","S2","","html-keyboard-response","95","353915","0.0-1.0-139.0","0","0","11652","","null","","","null","15","","NaN","","","","","","","","","","","","","",""
"","response","","html-keyboard-response","96","353943","0.0-1.0-140.0-0.0","0","0","11652","","25","","","68","15","","","1","15","training","adjacent","DE","4","5","R.jpg","Q.jpg","1","1","1","",""
"","feedback","","html-keyboard-response","97","354949","0.0-1.0-141.0-0.0","0","0","11652","","null","","","null","15","","","","","","","","","","","","","","","",""
"","ITI","","html-keyboard-response","98","355960","0.0-1.0-144.0","0","0","11652","","null","","","null","15","","","","","","","","","","","","","","","NaN",""
"","S1","","html-keyboard-response","99","356218","0.0-1.0-146.0","0","0","11652","","null","","","null","16","","","","","","","","","","","","","","","",""
"","ISI","","html-keyboard-response","100","356722","0.0-1.0-147.0","0","0","11652","","null","","","null","16","NaN","","","","","","","","","","","","","","",""
"","S2","","html-keyboard-response","101","356866","0.0-1.0-148.0","0","0","11652","","140","","","75","16","","k","1","16","training","adjacent","EF","5","6","Q.jpg","O.jpg","0","1","0","",""
"","feedback","","html-keyboard-response","102","357875","0.0-1.0-150.0-0.0","0","0","11652","","null","","","null","16","","","","","","","","","","","","","","","",""
"","time_out","","html-keyboard-response","103","359881","0.0-1.0-152.0-0.0","0","0","11652","","null","","","null","16","","","","","","","","","","","","","","","",""
"","ITI","","html-keyboard-response","104","360890","0.0-1.0-153.0","0","0","11652","","null","","","null","16","","","","","","","","","","","","","","","NaN",""
"","S1","","html-keyboard-response","105","361146","0.0-1.0-155.0","0","0","11652","","null","","","null","17","","","","","","","","","","","","","","","",""
"","ISI","","html-keyboard-response","106","361651","0.0-1.0-156.0","0","0","11652","","null","","","null","17","NaN","","","","","","","","","","","","","","",""
"","S2","","html-keyboard-response","107","361909","0.0-1.0-157.0","0","0","11652","","null","","","null","17","","NaN","","","","","","","","","","","","","",""
"","response","","html-keyboard-response","108","361913","0.0-1.0-158.0-0.0","0","0","11652","","1","","","68","17","","","1","17","training","adjacent","EF","5","6","Q.jpg","O.jpg","1","1","1","",""
"","feedback","","html-keyboard-response","109","362920","0.0-1.0-159.0-0.0","0","0","11652","","null","","","null","17","","","","","","","","","","","","","","","",""
"","ITI","","html-keyboard-response","110","363925","0.0-1.0-162.0","0","0","11652","","null","","","null","17","","","","","","","","","","","","","","","NaN",""
"","S1","","html-keyboard-response","111","364184","0.0-1.0-164.0","0","0","11652","","null","","","null","18","","","","","","","","","","","","","","","",""
"","ISI","","html-keyboard-response","112","364688","0.0-1.0-165.0","0","0","11652","","null","","","null","18","NaN","","","","","","","","","","","","","","",""
"","S2","","html-keyboard-response","113","364944","0.0-1.0-166.0","0","0","11652","","null","","","null","18","","NaN","","","","","","","","","","","","","",""
"","response","","html-keyboard-response","114","364953","0.0-1.0-167.0-0.0","0","0","11652","","5","","","68","18","","","1","18","training","adjacent","DC","4","3","R.jpg","N.jpg","1","0","0","",""
"","feedback","","html-keyboard-response","115","365960","0.0-1.0-168.0-0.0","0","0","11652","","null","","","null","18","","","","","","","","","","","","","","","",""
"","time_out","","html-keyboard-response","116","367964","0.0-1.0-170.0-0.0","0","0","11652","","null","","","null","18","","","","","","","","","","","","","","","",""
"","ITI","","html-keyboard-response","117","368970","0.0-1.0-171.0","0","0","11652","","null","","","null","18","","","","","","","","","","","","","","","NaN",""
"","S1","","html-keyboard-response","118","369226","0.0-1.0-173.0","0","0","11652","","null","","","null","19","","","","","","","","","","","","","","","",""
"","ISI","","html-keyboard-response","119","369735","0.0-1.0-174.0","0","0","11652","","null","","","null","19","NaN","","","","","","","","","","","","","","",""
"","S2","","html-keyboard-response","120","369994","0.0-1.0-175.0","0","0","11652","","null","","","null","19","","NaN","","","","","","","","","","","","","",""
"","response","","html-keyboard-response","121","370021","0.0-1.0-176.0-0.0","0","0","11652","","23","","","75","19","","","1","19","training","adjacent","BC","2","3","M.jpg","N.jpg","0","1","0","",""
"","feedback","","html-keyboard-response","122","371029","0.0-1.0-177.0-0.0","0","0","11652","","null","","","null","19","","","","","","","","","","","","","","","",""
"","time_out","","html-keyboard-response","123","373034","0.0-1.0-179.0-0.0","0","0","11652","","null","","","null","19","","","","","","","","","","","","","","","",""
"","ITI","","html-keyboard-response","124","374041","0.0-1.0-180.0","0","0","11652","","null","","","null","19","","","","","","","","","","","","","","","NaN",""
"","S1","","html-keyboard-response","125","374297","0.0-1.0-182.0","0","0","11652","","null","","","null","20","","","","","","","","","","","","","","","",""
"","ISI","","html-keyboard-response","126","374801","0.0-1.0-183.0","0","0","11652","","null","","","null","20","NaN","","","","","","","","","","","","","","",""
"","S2","","html-keyboard-response","127","375057","0.0-1.0-184.0","0","0","11652","","null","","","null","20","","NaN","","","","","","","","","","","","","",""
"","response","","html-keyboard-response","128","375071","0.0-1.0-185.0-0.0","0","0","11652","","10","","","75","20","","","1","20","training","adjacent","ED","5","4","Q.jpg","R.jpg","0","0","1","",""
"","feedback","","html-keyboard-response","129","376081","0.0-1.0-186.0-0.0","0","0","11652","","null","","","null","20","","","","","","","","","","","","","","","",""
"","ITI","","html-keyboard-response","130","377087","0.0-1.0-189.0","0","0","11652","","null","","","null","20","","","","","","","","","","","","","","","NaN",""
"","S1","","html-keyboard-response","131","377342","0.0-1.0-191.0","0","0","11652","","null","","","null","21","","","","","","","","","","","","","","","",""
"","ISI","","html-keyboard-response","132","377850","0.0-1.0-192.0","0","0","11652","","null","","","null","21","NaN","","","","","","","","","","","","","","",""
"","S2","","html-keyboard-response","133","378061","0.0-1.0-193.0","0","0","11652","","208","","","68","21","","d","1","21","training","adjacent","DE","4","5","R.jpg","Q.jpg","1","1","1","",""
"","feedback","","html-keyboard-response","134","379069","0.0-1.0-195.0-0.0","0","0","11652","","null","","","null","21","","","","","","","","","","","","","","","",""
"","ITI","","html-keyboard-response","135","380076","0.0-1.0-198.0","0","0","11652","","null","","","null","21","","","","","","","","","","","","","","","NaN",""
"","S1","","html-keyboard-response","136","380332","0.0-1.0-200.0","0","0","11652","","null","","","null","22","","","","","","","","","","","","","","","",""
"","ISI","","html-keyboard-response","137","380836","0.0-1.0-201.0","0","0","11652","","null","","","null","22","NaN","","","","","","","","","","","","","","",""
"","S2","","html-keyboard-response","138","381095","0.0-1.0-202.0","0","0","11652","","null","","","null","22","","NaN","","","","","","","","","","","","","",""
"","response","","html-keyboard-response","139","381098","0.0-1.0-203.0-0.0","0","0","11652","","0","","","75","22","","","1","22","training","adjacent","FE","6","5","O.jpg","Q.jpg","0","0","1","",""
"","feedback","","html-keyboard-response","140","382101","0.0-1.0-204.0-0.0","0","0","11652","","null","","","null","22","","","","","","","","","","","","","","","",""
"","ITI","","html-keyboard-response","141","383117","0.0-1.0-207.0","0","0","11652","","null","","","null","22","","","","","","","","","","","","","","","NaN",""
"","S1","","html-keyboard-response","142","383377","0.0-1.0-209.0","0","0","11652","","null","","","null","23","","","","","","","","","","","","","","","",""
"","ISI","","html-keyboard-response","143","383886","0.0-1.0-210.0","0","0","11652","","null","","","null","23","NaN","","","","","","","","","","","","","","",""
"","S2","","html-keyboard-response","144","384120","0.0-1.0-211.0","0","0","11652","","230","","","68","23","","d","1","23","training","adjacent","GF","7","6","P.jpg","O.jpg","1","0","0","",""
"","feedback","","html-keyboard-response","145","385128","0.0-1.0-213.0-0.0","0","0","11652","","null","","","null","23","","","","","","","","","","","","","","","",""
"","time_out","","html-keyboard-response","146","387135","0.0-1.0-215.0-0.0","0","0","11652","","null","","","null","23","","","","","","","","","","","","","","","",""
"","ITI","","html-keyboard-response","147","388142","0.0-1.0-216.0","0","0","11652","","null","","","null","23","","","","","","","","","","","","","","","NaN",""
"","S1","","html-keyboard-response","148","388401","0.0-1.0-218.0","0","0","11652","","null","","","null","24","","","","","","","","","","","","","","","",""
"","ISI","","html-keyboard-response","149","388907","0.0-1.0-219.0","0","0","11652","","null","","","null","24","NaN","","","","","","","","","","","","","","",""
"","S2","","html-keyboard-response","150","389155","0.0-1.0-220.0","0","0","11652","","244","","","68","24","","d","1","24","training","adjacent","DC","4","3","R.jpg","N.jpg","1","0","0","",""
"","feedback","","html-keyboard-response","151","390166","0.0-1.0-222.0-0.0","0","0","11652","","null","","","null","24","","","","","","","","","","","","","","","",""
"","time_out","","html-keyboard-response","152","392175","0.0-1.0-224.0-0.0","0","0","11652","","null","","","null","24","","","","","","","","","","","","","","","",""
"","ITI","","html-keyboard-response","153","393184","0.0-1.0-225.0","0","0","11652","","null","","","null","24","","","","","","","","","","","","","","","NaN",""
"","S1","","html-keyboard-response","154","393448","0.0-1.0-227.0","0","0","11652","","null","","","null","25","","","","","","","","","","","","","","","",""
"","ISI","","html-keyboard-response","155","393954","0.0-1.0-228.0","0","0","11652","","null","","","null","25","NaN","","","","","","","","","","","","","","",""
"","S2","","html-keyboard-response","156","394212","0.0-1.0-229.0","0","0","11652","","null","","","null","25","","NaN","","","","","","","","","","","","","",""
"","response","","html-keyboard-response","157","394223","0.0-1.0-230.0-0.0","0","0","11652","","8","","","75","25","","","1","25","training","adjacent","AB","1","2","L.jpg","M.jpg","0","1","0","",""
"","feedback","","html-keyboard-response","158","395228","0.0-1.0-231.0-0.0","0","0","11652","","null","","","null","25","","","","","","","","","","","","","","","",""
"","time_out","","html-keyboard-response","159","397236","0.0-1.0-233.0-0.0","0","0","11652","","null","","","null","25","","","","","","","","","","","","","","","",""
"","ITI","","html-keyboard-response","160","398241","0.0-1.0-234.0","0","0","11652","","null","","","null","25","","","","","","","","","","","","","","","NaN",""
"","S1","","html-keyboard-response","161","398499","0.0-1.0-236.0","0","0","11652","","null","","","null","26","","","","","","","","","","","","","","","",""
"","ISI","","html-keyboard-response","162","399004","0.0-1.0-237.0","0","0","11652","","null","","","null","26","NaN","","","","","","","","","","","","","","",""
"","S2","","html-keyboard-response","163","399235","0.0-1.0-238.0","0","0","11652","","227","","","68","26","","d","1","26","training","adjacent","AB","1","2","L.jpg","M.jpg","1","1","1","",""
"","feedback","","html-keyboard-response","164","400243","0.0-1.0-240.0-0.0","0","0","11652","","null","","","null","26","","","","","","","","","","","","","","","",""
"","ITI","","html-keyboard-response","165","401261","0.0-1.0-243.0","0","0","11652","","null","","","null","26","","","","","","","","","","","","","","","NaN",""
"","S1","","html-keyboard-response","166","401519","0.0-1.0-245.0","0","0","11652","","null","","","null","27","","","","","","","","","","","","","","","",""
"","ISI","","html-keyboard-response","167","402027","0.0-1.0-246.0","0","0","11652","","null","","","null","27","NaN","","","","","","","","","","","","","","",""
"","S2","","html-keyboard-response","168","402257","0.0-1.0-247.0","0","0","11652","","225","","","68","27","","d","1","27","training","adjacent","DE","4","5","R.jpg","Q.jpg","1","1","1","",""
"","feedback","","html-keyboard-response","169","403268","0.0-1.0-249.0-0.0","0","0","11652","","null","","","null","27","","","","","","","","","","","","","","","",""
"","ITI","","html-keyboard-response","170","404277","0.0-1.0-252.0","0","0","11652","","null","","","null","27","","","","","","","","","","","","","","","NaN",""
"","S1","","html-keyboard-response","171","404532","0.0-1.0-254.0","0","0","11652","","null","","","null","28","","","","","","","","","","","","","","","",""
"","ISI","","html-keyboard-response","172","405037","0.0-1.0-255.0","0","0","11652","","null","","","null","28","NaN","","","","","","","","","","","","","","",""
"","S2","","html-keyboard-response","173","405250","0.0-1.0-256.0","0","0","11652","","208","","","68","28","","d","1","28","training","adjacent","DC","4","3","R.jpg","N.jpg","1","0","0","",""
"","feedback","","html-keyboard-response","174","406257","0.0-1.0-258.0-0.0","0","0","11652","","null","","","null","28","","","","","","","","","","","","","","","",""
"","time_out","","html-keyboard-response","175","408260","0.0-1.0-260.0-0.0","0","0","11652","","null","","","null","28","","","","","","","","","","","","","","","",""
"","ITI","","html-keyboard-response","176","409268","0.0-1.0-261.0","0","0","11652","","null","","","null","28","","","","","","","","","","","","","","","NaN",""
"","S1","","html-keyboard-response","177","409521","0.0-1.0-263.0","0","0","11652","","null","","","null","29","","","","","","","","","","","","","","","",""
"","ISI","","html-keyboard-response","178","410027","0.0-1.0-264.0","0","0","11652","","null","","","null","29","NaN","","","","","","","","","","","","","","",""
"","S2","","html-keyboard-response","179","410283","0.0-1.0-265.0","0","0","11652","","null","","","null","29","","NaN","","","","","","","","","","","","","",""
"","response","","html-keyboard-response","180","410313","0.0-1.0-266.0-0.0","0","0","11652","","28","","","68","29","","","1","29","training","adjacent","ED","5","4","Q.jpg","R.jpg","1","0","0","",""
"","feedback","","html-keyboard-response","181","411318","0.0-1.0-267.0-0.0","0","0","11652","","null","","","null","29","","","","","","","","","","","","","","","",""
"","time_out","","html-keyboard-response","182","413325","0.0-1.0-269.0-0.0","0","0","11652","","null","","","null","29","","","","","","","","","","","","","","","",""
"","ITI","","html-keyboard-response","183","414335","0.0-1.0-270.0","0","0","11652","","null","","","null","29","","","","","","","","","","","","","","","NaN",""
"","S1","","html-keyboard-response","184","414591","0.0-1.0-272.0","0","0","11652","","null","","","null","30","","","","","","","","","","","","","","","",""
"","ISI","","html-keyboard-response","185","415098","0.0-1.0-273.0","0","0","11652","","null","","","null","30","NaN","","","","","","","","","","","","","","",""
"","S2","","html-keyboard-response","186","415303","0.0-1.0-274.0","0","0","11652","","202","","","75","30","","k","1","30","training","adjacent","BA","2","1","M.jpg","L.jpg","0","0","1","",""
"","feedback","","html-keyboard-response","187","416309","0.0-1.0-276.0-0.0","0","0","11652","","null","","","null","30","","","","","","","","","","","","","","","",""
"","ITI","","html-keyboard-response","188","417317","0.0-1.0-279.0","0","0","11652","","null","","","null","30","","","","","","","","","","","","","","","NaN",""
"","S1","","html-keyboard-response","189","417574","0.0-1.0-281.0","0","0","11652","","null","","","null","31","","","","","","","","","","","","","","","",""
"","ISI","","html-keyboard-response","190","418079","0.0-1.0-282.0","0","0","11652","","null","","","null","31","NaN","","","","","","","","","","","","","","",""
"","S2","","html-keyboard-response","191","418159","0.0-1.0-283.0","0","0","11652","","76","","","68","31","","d","1","31","training","adjacent","BA","2","1","M.jpg","L.jpg","1","0","0","",""
"","feedback","","html-keyboard-response","192","419167","0.0-1.0-285.0-0.0","0","0","11652","","null","","","null","31","","","","","","","","","","","","","","","",""
"","time_out","","html-keyboard-response","193","421178","0.0-1.0-287.0-0.0","0","0","11652","","null","","","null","31","","","","","","","","","","","","","","","",""
"","ITI","","html-keyboard-response","194","422186","0.0-1.0-288.0","0","0","11652","","null","","","null","31","","","","","","","","","","","","","","","NaN",""
"","S1","","html-keyboard-response","195","422445","0.0-1.0-290.0","0","0","11652","","null","","","null","32","","","","","","","","","","","","","","","",""
"","ISI","","html-keyboard-response","196","422951","0.0-1.0-291.0","0","0","11652","","null","","","null","32","NaN","","","","","","","","","","","","","","",""
"","S2","","html-keyboard-response","197","423208","0.0-1.0-292.0","0","0","11652","","null","","","null","32","","NaN","","","","","","","","","","","","","",""
"","response","","html-keyboard-response","198","423230","0.0-1.0-293.0-0.0","0","0","11652","","19","","","75","32","","","1","32","training","adjacent","BC","2","3","M.jpg","N.jpg","0","1","0","",""
"","feedback","","html-keyboard-response","199","424238","0.0-1.0-294.0-0.0","0","0","11652","","null","","","null","32","","","","","","","","","","","","","","","",""
"","time_out","","html-keyboard-response","200","426245","0.0-1.0-296.0-0.0","0","0","11652","","null","","","null","32","","","","","","","","","","","","","","","",""
"","ITI","","html-keyboard-response","201","427250","0.0-1.0-297.0","0","0","11652","","null","","","null","32","","","","","","","","","","","","","","","NaN",""
"","S1","","html-keyboard-response","202","427506","0.0-1.0-299.0","0","0","11652","","null","","","null","33","","","","","","","","","","","","","","","",""
"","ISI","","html-keyboard-response","203","428012","0.0-1.0-300.0","0","0","11652","","null","","","null","33","NaN","","","","","","","","","","","","","","",""
"","S2","","html-keyboard-response","204","428267","0.0-1.0-301.0","0","0","11652","","251","","","68","33","","d","1","33","training","adjacent","CD","3","4","N.jpg","R.jpg","1","1","1","",""
"","feedback","","html-keyboard-response","205","429272","0.0-1.0-303.0-0.0","0","0","11652","","null","","","null","33","","","","","","","","","","","","","","","",""
"","ITI","","html-keyboard-response","206","430278","0.0-1.0-306.0","0","0","11652","","null","","","null","33","","","","","","","","","","","","","","","NaN",""
"","S1","","html-keyboard-response","207","430536","0.0-1.0-308.0","0","0","11652","","null","","","null","34","","","","","","","","","","","","","","","",""
"","ISI","","html-keyboard-response","208","431044","0.0-1.0-309.0","0","0","11652","","null","","","null","34","NaN","","","","","","","","","","","","","","",""
"","S2","","html-keyboard-response","209","431301","0.0-1.0-310.0","0","0","11652","","null","","","null","34","","NaN","","","","","","","","","","","","","",""
"","response","","html-keyboard-response","210","431426","0.0-1.0-311.0-0.0","0","0","11652","","120","","","75","34","","","1","34","training","adjacent","BA","2","1","M.jpg","L.jpg","0","0","1","",""
"","feedback","","html-keyboard-response","211","432438","0.0-1.0-312.0-0.0","0","0","11652","","null","","","null","34","","","","","","","","","","","","","","","",""
"","ITI","","html-keyboard-response","212","433449","0.0-1.0-315.0","0","0","11652","","null","","","null","34","","","","","","","","","","","","","","","NaN",""
"","S1","","html-keyboard-response","213","433704","0.0-1.0-317.0","0","0","11652","","null","","","null","35","","","","","","","","","","","","","","","",""
"","ISI","","html-keyboard-response","214","434211","0.0-1.0-318.0","0","0","11652","","null","","","null","35","NaN","","","","","","","","","","","","","","",""
"","S2","","html-keyboard-response","215","434469","0.0-1.0-319.0","0","0","11652","","null","","","null","35","","NaN","","","","","","","","","","","","","",""
"","response","","html-keyboard-response","216","434725","0.0-1.0-320.0-0.0","0","0","11652","","253","","","68","35","","","1","35","training","adjacent","BA","2","1","M.jpg","L.jpg","1","0","0","",""
"","feedback","","html-keyboard-response","217","435736","0.0-1.0-321.0-0.0","0","0","11652","","null","","","null","35","","","","","","","","","","","","","","","",""
"","time_out","","html-keyboard-response","218","437739","0.0-1.0-323.0-0.0","0","0","11652","","null","","","null","35","","","","","","","","","","","","","","","",""
"","ITI","","html-keyboard-response","219","438749","0.0-1.0-324.0","0","0","11652","","null","","","null","35","","","","","","","","","","","","","","","NaN",""
"","S1","","html-keyboard-response","220","439006","0.0-1.0-326.0","0","0","11652","","null","","","null","36","","","","","","","","","","","","","","","",""
"","ISI","","html-keyboard-response","221","439516","0.0-1.0-327.0","0","0","11652","","null","","","null","36","NaN","","","","","","","","","","","","","","",""
"","S2","","html-keyboard-response","222","439783","0.0-1.0-328.0","0","0","11652","","null","","","null","36","","NaN","","","","","","","","","","","","","",""
"","response","","html-keyboard-response","223","440078","0.0-1.0-329.0-0.0","0","0","11652","","292","","","75","36","","","1","36","training","adjacent","FE","6","5","O.jpg","Q.jpg","0","0","1","",""
"","feedback","","html-keyboard-response","224","441085","0.0-1.0-330.0-0.0","0","0","11652","","null","","","null","36","","","","","","","","","","","","","","","",""
"","ITI","","html-keyboard-response","225","442096","0.0-1.0-333.0","0","0","11652","","null","","","null","36","","","","","","","","","","","","","","","NaN",""
"","S1","","html-keyboard-response","226","442351","0.0-1.0-335.0","0","0","11652","","null","","","null","37","","","","","","","","","","","","","","","",""
"","ISI","","html-keyboard-response","227","442858","0.0-1.0-336.0","0","0","11652","","null","","","null","37","NaN","","","","","","","","","","","","","","",""
"","S2","","html-keyboard-response","228","443115","0.0-1.0-337.0","0","0","11652","","null","","","null","37","","NaN","","","","","","","","","","","","","",""
"","response","","html-keyboard-response","229","443411","0.0-1.0-338.0-0.0","0","0","11652","","293","","","75","37","","","1","37","training","adjacent","GF","7","6","P.jpg","O.jpg","0","0","1","",""
"","feedback","","html-keyboard-response","230","444420","0.0-1.0-339.0-0.0","0","0","11652","","null","","","null","37","","","","","","","","","","","","","","","",""
"","ITI","","html-keyboard-response","231","445437","0.0-1.0-342.0","0","0","11652","","null","","","null","37","","","","","","","","","","","","","","","NaN",""
"","S1","","html-keyboard-response","232","445697","0.0-1.0-344.0","0","0","11652","","null","","","null","38","","","","","","","","","","","","","","","",""
"","ISI","","html-keyboard-response","233","446207","0.0-1.0-345.0","0","0","11652","","null","","","null","38","NaN","","","","","","","","","","","","","","",""
"","S2","","html-keyboard-response","234","446460","0.0-1.0-346.0","0","0","11652","","249","","","68","38","","d","1","38","training","adjacent","GF","7","6","P.jpg","O.jpg","1","0","0","",""
"","feedback","","html-keyboard-response","235","447471","0.0-1.0-348.0-0.0","0","0","11652","","null","","","null","38","","","","","","","","","","","","","","","",""
"","time_out","","html-keyboard-response","236","449478","0.0-1.0-350.0-0.0","0","0","11652","","null","","","null","38","","","","","","","","","","","","","","","",""
"","ITI","","html-keyboard-response","237","450481","0.0-1.0-351.0","0","0","11652","","null","","","null","38","","","","","","","","","","","","","","","NaN",""
"","S1","","html-keyboard-response","238","450736","0.0-1.0-353.0","0","0","11652","","null","","","null","39","","","","","","","","","","","","","","","",""
"","ISI","","html-keyboard-response","239","451246","0.0-1.0-354.0","0","0","11652","","null","","","null","39","NaN","","","","","","","","","","","","","","",""
"","S2","","html-keyboard-response","240","451513","0.0-1.0-355.0","0","0","11652","","null","","","null","39","","NaN","","","","","","","","","","","","","",""
"","response","","html-keyboard-response","241","451570","0.0-1.0-356.0-0.0","0","0","11652","","53","","","68","39","","","1","39","training","adjacent","FG","6","7","O.jpg","P.jpg","1","1","1","",""
"","feedback","","html-keyboard-response","242","452576","0.0-1.0-357.0-0.0","0","0","11652","","null","","","null","39","","","","","","","","","","","","","","","",""
"","ITI","","html-keyboard-response","243","453586","0.0-1.0-360.0","0","0","11652","","null","","","null","39","","","","","","","","","","","","","","","NaN",""
"","S1","","html-keyboard-response","244","453843","0.0-1.0-362.0","0","0","11652","","null","","","null","40","","","","","","","","","","","","","","","",""
"","ISI","","html-keyboard-response","245","454349","0.0-1.0-363.0","0","0","11652","","null","","","null","40","NaN","","","","","","","","","","","","","","",""
"","S2","","html-keyboard-response","246","454603","0.0-1.0-364.0","0","0","11652","","null","","","null","40","","NaN","","","","","","","","","","","","","",""
"","response","","html-keyboard-response","247","454716","0.0-1.0-365.0-0.0","0","0","11652","","108","","","75","40","","","1","40","training","adjacent","CB","3","2","N.jpg","M.jpg","0","0","1","",""
"","feedback","","html-keyboard-response","248","455725","0.0-1.0-366.0-0.0","0","0","11652","","null","","","null","40","","","","","","","","","","","","","","","",""
"","ITI","","html-keyboard-response","249","456729","0.0-1.0-369.0","0","0","11652","","null","","","null","40","","","","","","","","","","","","","","","NaN",""
"","S1","","html-keyboard-response","250","456987","0.0-1.0-371.0","0","0","11652","","null","","","null","41","","","","","","","","","","","","","","","",""
"","ISI","","html-keyboard-response","251","457494","0.0-1.0-372.0","0","0","11652","","null","","","null","41","NaN","","","","","","","","","","","","","","",""
"","S2","","html-keyboard-response","252","457751","0.0-1.0-373.0","0","0","11652","","null","","","null","41","","NaN","","","","","","","","","","","","","",""
"","response","","html-keyboard-response","253","457852","0.0-1.0-374.0-0.0","0","0","11652","","97","","","68","41","","","1","41","training","adjacent","BC","2","3","M.jpg","N.jpg","1","1","1","",""
"","feedback","","html-keyboard-response","254","458858","0.0-1.0-375.0-0.0","0","0","11652","","null","","","null","41","","","","","","","","","","","","","","","",""
"","ITI","","html-keyboard-response","255","459865","0.0-1.0-378.0","0","0","11652","","null","","","null","41","","","","","","","","","","","","","","","NaN",""
"","S1","","html-keyboard-response","256","460122","0.0-1.0-380.0","0","0","11652","","null","","","null","42","","","","","","","","","","","","","","","",""
"","ISI","","html-keyboard-response","257","460628","0.0-1.0-381.0","0","0","11652","","null","","","null","42","NaN","","","","","","","","","","","","","","",""
"","S2","","html-keyboard-response","258","460888","0.0-1.0-382.0","0","0","11652","","null","","","null","42","","NaN","","","","","","","","","","","","","",""
"","response","","html-keyboard-response","259","460964","0.0-1.0-383.0-0.0","0","0","11652","","73","","","75","42","","","1","42","training","adjacent","AB","1","2","L.jpg","M.jpg","0","1","0","",""
"","feedback","","html-keyboard-response","260","461975","0.0-1.0-384.0-0.0","0","0","11652","","null","","","null","42","","","","","","","","","","","","","","","",""
"","time_out","","html-keyboard-response","261","463980","0.0-1.0-386.0-0.0","0","0","11652","","null","","","null","42","","","","","","","","","","","","","","","",""
"","ITI","","html-keyboard-response","262","464989","0.0-1.0-387.0","0","0","11652","","null","","","null","42","","","","","","","","","","","","","","","NaN",""
"","S1","","html-keyboard-response","263","465246","0.0-1.0-389.0","0","0","11652","","null","","","null","43","","","","","","","","","","","","","","","",""
"","ISI","","html-keyboard-response","264","465754","0.0-1.0-390.0","0","0","11652","","null","","","null","43","NaN","","","","","","","","","","","","","","",""
"","S2","","html-keyboard-response","265","466014","0.0-1.0-391.0","0","0","11652","","null","","","null","43","","NaN","","","","","","","","","","","","","",""
"","response","","html-keyboard-response","266","466124","0.0-1.0-392.0-0.0","0","0","11652","","107","","","68","43","","","1","43","training","adjacent","EF","5","6","Q.jpg","O.jpg","1","1","1","",""
"","feedback","","html-keyboard-response","267","467133","0.0-1.0-393.0-0.0","0","0","11652","","null","","","null","43","","","","","","","","","","","","","","","",""
"","ITI","","html-keyboard-response","268","468139","0.0-1.0-396.0","0","0","11652","","null","","","null","43","","","","","","","","","","","","","","","NaN",""
"","S1","","html-keyboard-response","269","468397","0.0-1.0-398.0","0","0","11652","","null","","","null","44","","","","","","","","","","","","","","","",""
"","ISI","","html-keyboard-response","270","468903","0.0-1.0-399.0","0","0","11652","","null","","","null","44","NaN","","","","","","","","","","","","","","",""
"","S2","","html-keyboard-response","271","469161","0.0-1.0-400.0","0","0","11652","","null","","","null","44","","NaN","","","","","","","","","","","","","",""
"","response","","html-keyboard-response","272","469471","0.0-1.0-401.0-0.0","0","0","11652","","306","","","75","44","","","1","44","training","adjacent","DE","4","5","R.jpg","Q.jpg","0","1","0","",""
"","feedback","","html-keyboard-response","273","470476","0.0-1.0-402.0-0.0","0","0","11652","","null","","","null","44","","","","","","","","","","","","","","","",""
"","time_out","","html-keyboard-response","274","472479","0.0-1.0-404.0-0.0","0","0","11652","","null","","","null","44","","","","","","","","","","","","","","","",""
"","ITI","","html-keyboard-response","275","473482","0.0-1.0-405.0","0","0","11652","","null","","","null","44","","","","","","","","","","","","","","","NaN",""
"","S1","","html-keyboard-response","276","473738","0.0-1.0-407.0","0","0","11652","","null","","","null","45","","","","","","","","","","","","","","","",""
"","ISI","","html-keyboard-response","277","474245","0.0-1.0-408.0","0","0","11652","","null","","","null","45","NaN","","","","","","","","","","","","","","",""
"","S2","","html-keyboard-response","278","474502","0.0-1.0-409.0","0","0","11652","","null","","","null","45","","NaN","","","","","","","","","","","","","",""
"","response","","html-keyboard-response","279","474701","0.0-1.0-410.0-0.0","0","0","11652","","195","","","68","45","","","1","45","training","adjacent","GF","7","6","P.jpg","O.jpg","1","0","0","",""
"","feedback","","html-keyboard-response","280","475713","0.0-1.0-411.0-0.0","0","0","11652","","null","","","null","45","","","","","","","","","","","","","","","",""
"","time_out","","html-keyboard-response","281","477720","0.0-1.0-413.0-0.0","0","0","11652","","null","","","null","45","","","","","","","","","","","","","","","",""
"","ITI","","html-keyboard-response","282","478729","0.0-1.0-414.0","0","0","11652","","null","","","null","45","","","","","","","","","","","","","","","NaN",""
"","S1","","html-keyboard-response","283","478986","0.0-1.0-416.0","0","0","11652","","null","","","null","46","","","","","","","","","","","","","","","",""
"","ISI","","html-keyboard-response","284","479493","0.0-1.0-417.0","0","0","11652","","null","","","null","46","NaN","","","","","","","","","","","","","","",""
"","S2","","html-keyboard-response","285","479736","0.0-1.0-418.0","0","0","11652","","238","","","68","46","","d","1","46","training","adjacent","FG","6","7","O.jpg","P.jpg","1","1","1","",""
"","feedback","","html-keyboard-response","286","480748","0.0-1.0-420.0-0.0","0","0","11652","","null","","","null","46","","","","","","","","","","","","","","","",""
"","ITI","","html-keyboard-response","287","481756","0.0-1.0-423.0","0","0","11652","","null","","","null","46","","","","","","","","","","","","","","","NaN",""
"","S1","","html-keyboard-response","288","482011","0.0-1.0-425.0","0","0","11652","","null","","","null","47","","","","","","","","","","","","","","","",""
"","ISI","","html-keyboard-response","289","482521","0.0-1.0-426.0","0","0","11652","","null","","","null","47","NaN","","","","","","","","","","","","","","",""
"","S2","","html-keyboard-response","290","482776","0.0-1.0-427.0","0","0","11652","","null","","","null","47","","NaN","","","","","","","","","","","","","",""
"","response","","html-keyboard-response","291","482792","0.0-1.0-428.0-0.0","0","0","11652","","12","","","75","47","","","1","47","training","adjacent","CD","3","4","N.jpg","R.jpg","0","1","0","",""
"","feedback","","html-keyboard-response","292","483799","0.0-1.0-429.0-0.0","0","0","11652","","null","","","null","47","","","","","","","","","","","","","","","",""
"","time_out","","html-keyboard-response","293","485806","0.0-1.0-431.0-0.0","0","0","11652","","null","","","null","47","","","","","","","","","","","","","","","",""
"","ITI","","html-keyboard-response","294","486817","0.0-1.0-432.0","0","0","11652","","null","","","null","47","","","","","","","","","","","","","","","NaN",""
"","block_over","","html-keyboard-response","295","538614","0.0-1.0-433.0-0.0","0","0","11652","","51790","","","32","47","","","","","","","","","","","","","","","",""
"","S1","","html-keyboard-response","296","538875","0.0-1.0-434.0","0","0","11652","","null","","","null","48","","","","","","","","","","","","","","","",""
"","ISI","","html-keyboard-response","297","539380","0.0-1.0-435.0","0","0","11652","","null","","","null","48","NaN","","","","","","","","","","","","","","",""
"","S2","","html-keyboard-response","298","539640","0.0-1.0-436.0","0","0","11652","","null","","","null","48","","NaN","","","","","","","","","","","","","",""
"","response","","html-keyboard-response","299","539751","0.0-1.0-437.0-0.0","0","0","11652","","109","","","75","48","","","2","48","training","adjacent","GF","7","6","P.jpg","O.jpg","0","0","1","",""
"","feedback","","html-keyboard-response","300","540764","0.0-1.0-438.0-0.0","0","0","11652","","null","","","null","48","","","","","","","","","","","","","","","",""
"","ITI","","html-keyboard-response","301","541768","0.0-1.0-441.0","0","0","11652","","null","","","null","48","","","","","","","","","","","","","","","NaN",""
"","S1","","html-keyboard-response","302","542025","0.0-1.0-443.0","0","0","11652","","null","","","null","49","","","","","","","","","","","","","","","",""
"","ISI","","html-keyboard-response","303","542535","0.0-1.0-444.0","0","0","11652","","null","","","null","49","NaN","","","","","","","","","","","","","","",""
"","S2","","html-keyboard-response","304","542795","0.0-1.0-445.0","0","0","11652","","null","","","null","49","","NaN","","","","","","","","","","","","","",""
"","response","","html-keyboard-response","305","542835","0.0-1.0-446.0-0.0","0","0","11652","","35","","","68","49","","","2","49","training","adjacent","FE","6","5","O.jpg","Q.jpg","1","0","0","",""
"","feedback","","html-keyboard-response","306","543847","0.0-1.0-447.0-0.0","0","0","11652","","null","","","null","49","","","","","","","","","","","","","","","",""
"","time_out","","html-keyboard-response","307","545857","0.0-1.0-449.0-0.0","0","0","11652","","null","","","null","49","","","","","","","","","","","","","","","",""
"","ITI","","html-keyboard-response","308","546866","0.0-1.0-450.0","0","0","11652","","null","","","null","49","","","","","","","","","","","","","","","NaN",""
"","S1","","html-keyboard-response","309","547124","0.0-1.0-452.0","0","0","11652","","null","","","null","50","","","","","","","","","","","","","","","",""
"","ISI","","html-keyboard-response","310","547627","0.0-1.0-453.0","0","0","11652","","null","","","null","50","NaN","","","","","","","","","","","","","","",""
"","S2","","html-keyboard-response","311","547885","0.0-1.0-454.0","0","0","11652","","null","","","null","50","","NaN","","","","","","","","","","","","","",""
"","response","","html-keyboard-response","312","547921","0.0-1.0-455.0-0.0","0","0","11652","","32","","","68","50","","","2","50","training","adjacent","DE","4","5","R.jpg","Q.jpg","1","1","1","",""
"","feedback","","html-keyboard-response","313","548927","0.0-1.0-456.0-0.0","0","0","11652","","null","","","null","50","","","","","","","","","","","","","","","",""
"","ITI","","html-keyboard-response","314","549938","0.0-1.0-459.0","0","0","11652","","null","","","null","50","","","","","","","","","","","","","","","NaN",""
"","S1","","html-keyboard-response","315","550196","0.0-1.0-461.0","0","0","11652","","null","","","null","51","","","","","","","","","","","","","","","",""
"","ISI","","html-keyboard-response","316","550707","0.0-1.0-462.0","0","0","11652","","null","","","null","51","NaN","","","","","","","","","","","","","","",""
"","S2","","html-keyboard-response","317","550966","0.0-1.0-463.0","0","0","11652","","null","","","null","51","","NaN","","","","","","","","","","","","","",""
"","response","","html-keyboard-response","318","551034","0.0-1.0-464.0-0.0","0","0","11652","","64","","","68","51","","","2","51","training","adjacent","CD","3","4","N.jpg","R.jpg","1","1","1","",""
"","feedback","","html-keyboard-response","319","552039","0.0-1.0-465.0-0.0","0","0","11652","","null","","","null","51","","","","","","","","","","","","","","","",""
"","ITI","","html-keyboard-response","320","553044","0.0-1.0-468.0","0","0","11652","","null","","","null","51","","","","","","","","","","","","","","","NaN",""
"","S1","","html-keyboard-response","321","553302","0.0-1.0-470.0","0","0","11652","","null","","","null","52","","","","","","","","","","","","","","","",""
"","ISI","","html-keyboard-response","322","553808","0.0-1.0-471.0","0","0","11652","","null","","","null","52","NaN","","","","","","","","","","","","","","",""
"","S2","","html-keyboard-response","323","554065","0.0-1.0-472.0","0","0","11652","","null","","","null","52","","NaN","","","","","","","","","","","","","",""
"","response","","html-keyboard-response","324","554092","0.0-1.0-473.0-0.0","0","0","11652","","24","","","68","52","","","2","52","training","adjacent","CD","3","4","N.jpg","R.jpg","1","1","1","",""
"","feedback","","html-keyboard-response","325","555104","0.0-1.0-474.0-0.0","0","0","11652","","null","","","null","52","","","","","","","","","","","","","","","",""
"","ITI","","html-keyboard-response","326","556109","0.0-1.0-477.0","0","0","11652","","null","","","null","52","","","","","","","","","","","","","","","NaN",""
"","S1","","html-keyboard-response","327","556365","0.0-1.0-479.0","0","0","11652","","null","","","null","53","","","","","","","","","","","","","","","",""
"","ISI","","html-keyboard-response","328","556874","0.0-1.0-480.0","0","0","11652","","null","","","null","53","NaN","","","","","","","","","","","","","","",""
"","S2","","html-keyboard-response","329","557019","0.0-1.0-481.0","0","0","11652","","141","","","75","53","","k","2","53","training","adjacent","ED","5","4","Q.jpg","R.jpg","0","0","1","",""
"","feedback","","html-keyboard-response","330","558028","0.0-1.0-483.0-0.0","0","0","11652","","null","","","null","53","","","","","","","","","","","","","","","",""
"","ITI","","html-keyboard-response","331","559031","0.0-1.0-486.0","0","0","11652","","null","","","null","53","","","","","","","","","","","","","","","NaN",""
"","S1","","html-keyboard-response","332","559289","0.0-1.0-488.0","0","0","11652","","null","","","null","54","","","","","","","","","","","","","","","",""
"","ISI","","html-keyboard-response","333","559799","0.0-1.0-489.0","0","0","11652","","null","","","null","54","NaN","","","","","","","","","","","","","","",""
"","S2","","html-keyboard-response","334","560055","0.0-1.0-490.0","0","0","11652","","null","","","null","54","","NaN","","","","","","","","","","","","","",""
"","response","","html-keyboard-response","335","560116","0.0-1.0-491.0-0.0","0","0","11652","","57","","","75","54","","","2","54","training","adjacent","FG","6","7","O.jpg","P.jpg","0","1","0","",""
"","feedback","","html-keyboard-response","336","561124","0.0-1.0-492.0-0.0","0","0","11652","","null","","","null","54","","","","","","","","","","","","","","","",""
"","time_out","","html-keyboard-response","337","563132","0.0-1.0-494.0-0.0","0","0","11652","","null","","","null","54","","","","","","","","","","","","","","","",""
"","ITI","","html-keyboard-response","338","564139","0.0-1.0-495.0","0","0","11652","","null","","","null","54","","","","","","","","","","","","","","","NaN",""
"","S1","","html-keyboard-response","339","564395","0.0-1.0-497.0","0","0","11652","","null","","","null","55","","","","","","","","","","","","","","","",""
"","ISI","","html-keyboard-response","340","564902","0.0-1.0-498.0","0","0","11652","","null","","","null","55","NaN","","","","","","","","","","","","","","",""
"","S2","","html-keyboard-response","341","565160","0.0-1.0-499.0","0","0","11652","","null","","","null","55","","NaN","","","","","","","","","","","","","",""
"","response","","html-keyboard-response","342","565287","0.0-1.0-500.0-0.0","0","0","11652","","125","","","75","55","","","2","55","training","adjacent","BC","2","3","M.jpg","N.jpg","0","1","0","",""
"","feedback","","html-keyboard-response","343","566290","0.0-1.0-501.0-0.0","0","0","11652","","null","","","null","55","","","","","","","","","","","","","","","",""
"","time_out","","html-keyboard-response","344","568294","0.0-1.0-503.0-0.0","0","0","11652","","null","","","null","55","","","","","","","","","","","","","","","",""
"","ITI","","html-keyboard-response","345","569304","0.0-1.0-504.0","0","0","11652","","null","","","null","55","","","","","","","","","","","","","","","NaN",""
"","S1","","html-keyboard-response","346","569563","0.0-1.0-506.0","0","0","11652","","null","","","null","56","","","","","","","","","","","","","","","",""
"","ISI","","html-keyboard-response","347","570070","0.0-1.0-507.0","0","0","11652","","null","","","null","56","NaN","","","","","","","","","","","","","","",""
"","S2","","html-keyboard-response","348","570325","0.0-1.0-508.0","0","0","11652","","null","","","null","56","","NaN","","","","","","","","","","","","","",""
"","response","","html-keyboard-response","349","570469","0.0-1.0-509.0-0.0","0","0","11652","","140","","","75","56","","","2","56","training","adjacent","BA","2","1","M.jpg","L.jpg","0","0","1","",""
"","feedback","","html-keyboard-response","350","571472","0.0-1.0-510.0-0.0","0","0","11652","","null","","","null","56","","","","","","","","","","","","","","","",""
"","ITI","","html-keyboard-response","351","572483","0.0-1.0-513.0","0","0","11652","","null","","","null","56","","","","","","","","","","","","","","","NaN",""
"","S1","","html-keyboard-response","352","572740","0.0-1.0-515.0","0","0","11652","","null","","","null","57","","","","","","","","","","","","","","","",""
"","ISI","","html-keyboard-response","353","573249","0.0-1.0-516.0","0","0","11652","","null","","","null","57","NaN","","","","","","","","","","","","","","",""
"","S2","","html-keyboard-response","354","573504","0.0-1.0-517.0","0","0","11652","","null","","","null","57","","NaN","","","","","","","","","","","","","",""
"","response","","html-keyboard-response","355","573655","0.0-1.0-518.0-0.0","0","0","11652","","147","","","68","57","","","2","57","training","adjacent","CB","3","2","N.jpg","M.jpg","1","0","0","",""
"","feedback","","html-keyboard-response","356","574666","0.0-1.0-519.0-0.0","0","0","11652","","null","","","null","57","","","","","","","","","","","","","","","",""
"","time_out","","html-keyboard-response","357","576675","0.0-1.0-521.0-0.0","0","0","11652","","null","","","null","57","","","","","","","","","","","","","","","",""
"","ITI","","html-keyboard-response","358","577682","0.0-1.0-522.0","0","0","11652","","null","","","null","57","","","","","","","","","","","","","","","NaN",""
"","S1","","html-keyboard-response","359","577937","0.0-1.0-524.0","0","0","11652","","null","","","null","58","","","","","","","","","","","","","","","",""
"","ISI","","html-keyboard-response","360","578440","0.0-1.0-525.0","0","0","11652","","null","","","null","58","NaN","","","","","","","","","","","","","","",""
"","S2","","html-keyboard-response","361","578700","0.0-1.0-526.0","0","0","11652","","null","","","null","58","","NaN","","","","","","","","","","","","","",""
"","response","","html-keyboard-response","362","578779","0.0-1.0-527.0-0.0","0","0","11652","","76","","","75","58","","","2","58","training","adjacent","FG","6","7","O.jpg","P.jpg","0","1","0","",""
"","feedback","","html-keyboard-response","363","579786","0.0-1.0-528.0-0.0","0","0","11652","","null","","","null","58","","","","","","","","","","","","","","","",""
"","time_out","","html-keyboard-response","364","581794","0.0-1.0-530.0-0.0","0","0","11652","","null","","","null","58","","","","","","","","","","","","","","","",""
"","ITI","","html-keyboard-response","365","582799","0.0-1.0-531.0","0","0","11652","","null","","","null","58","","","","","","","","","","","","","","","NaN",""
"","S1","","html-keyboard-response","366","583056","0.0-1.0-533.0","0","0","11652","","null","","","null","59","","","","","","","","","","","","","","","",""
"","ISI","","html-keyboard-response","367","583561","0.0-1.0-534.0","0","0","11652","","null","","","null","59","NaN","","","","","","","","","","","","","","",""
"","S2","","html-keyboard-response","368","583820","0.0-1.0-535.0","0","0","11652","","null","","","null","59","","NaN","","","","","","","","","","","","","",""
"","response","","html-keyboard-response","369","583828","0.0-1.0-536.0-0.0","0","0","11652","","4","","","75","59","","","2","59","training","adjacent","GF","7","6","P.jpg","O.jpg","0","0","1","",""
"","feedback","","html-keyboard-response","370","584839","0.0-1.0-537.0-0.0","0","0","11652","","null","","","null","59","","","","","","","","","","","","","","","",""
"","ITI","","html-keyboard-response","371","585846","0.0-1.0-540.0","0","0","11652","","null","","","null","59","","","","","","","","","","","","","","","NaN",""
"","S1","","html-keyboard-response","372","586103","0.0-1.0-542.0","0","0","11652","","null","","","null","60","","","","","","","","","","","","","","","",""
"","ISI","","html-keyboard-response","373","586610","0.0-1.0-543.0","0","0","11652","","null","","","null","60","NaN","","","","","","","","","","","","","","",""
"","S2","","html-keyboard-response","374","586869","0.0-1.0-544.0","0","0","11652","","null","","","null","60","","NaN","","","","","","","","","","","","","",""
"","response","","html-keyboard-response","375","586942","0.0-1.0-545.0-0.0","0","0","11652","","70","","","68","60","","","2","60","training","adjacent","DC","4","3","R.jpg","N.jpg","1","0","0","",""
"","feedback","","html-keyboard-response","376","587950","0.0-1.0-546.0-0.0","0","0","11652","","null","","","null","60","","","","","","","","","","","","","","","",""
"","time_out","","html-keyboard-response","377","589956","0.0-1.0-548.0-0.0","0","0","11652","","null","","","null","60","","","","","","","","","","","","","","","",""
"","ITI","","html-keyboard-response","378","590960","0.0-1.0-549.0","0","0","11652","","null","","","null","60","","","","","","","","","","","","","","","NaN",""
"","S1","","html-keyboard-response","379","591216","0.0-1.0-551.0","0","0","11652","","null","","","null","61","","","","","","","","","","","","","","","",""
"","ISI","","html-keyboard-response","380","591723","0.0-1.0-552.0","0","0","11652","","null","","","null","61","NaN","","","","","","","","","","","","","","",""
"","S2","","html-keyboard-response","381","591982","0.0-1.0-553.0","0","0","11652","","null","","","null","61","","NaN","","","","","","","","","","","","","",""
"","response","","html-keyboard-response","382","592049","0.0-1.0-554.0-0.0","0","0","11652","","63","","","75","61","","","2","61","training","adjacent","CB","3","2","N.jpg","M.jpg","0","0","1","",""
"","feedback","","html-keyboard-response","383","593054","0.0-1.0-555.0-0.0","0","0","11652","","null","","","null","61","","","","","","","","","","","","","","","",""
"","ITI","","html-keyboard-response","384","594060","0.0-1.0-558.0","0","0","11652","","null","","","null","61","","","","","","","","","","","","","","","NaN",""
"","S1","","html-keyboard-response","385","594314","0.0-1.0-560.0","0","0","11652","","null","","","null","62","","","","","","","","","","","","","","","",""
"","ISI","","html-keyboard-response","386","594820","0.0-1.0-561.0","0","0","11652","","null","","","null","62","NaN","","","","","","","","","","","","","","",""
"","S2","","html-keyboard-response","387","595081","0.0-1.0-562.0","0","0","11652","","null","","","null","62","","NaN","","","","","","","","","","","","","",""
"","response","","html-keyboard-response","388","595204","0.0-1.0-563.0-0.0","0","0","11652","","118","","","75","62","","","2","62","training","adjacent","GF","7","6","P.jpg","O.jpg","0","0","1","",""
"","feedback","","html-keyboard-response","389","596213","0.0-1.0-564.0-0.0","0","0","11652","","null","","","null","62","","","","","","","","","","","","","","","",""
"","ITI","","html-keyboard-response","390","597223","0.0-1.0-567.0","0","0","11652","","null","","","null","62","","","","","","","","","","","","","","","NaN",""
"","S1","","html-keyboard-response","391","597476","0.0-1.0-569.0","0","0","11652","","null","","","null","63","","","","","","","","","","","","","","","",""
"","ISI","","html-keyboard-response","392","597982","0.0-1.0-570.0","0","0","11652","","null","","","null","63","NaN","","","","","","","","","","","","","","",""
"","S2","","html-keyboard-response","393","598239","0.0-1.0-571.0","0","0","11652","","null","","","null","63","","NaN","","","","","","","","","","","","","",""
"","response","","html-keyboard-response","394","598251","0.0-1.0-572.0-0.0","0","0","11652","","9","","","68","63","","","2","63","training","adjacent","BC","2","3","M.jpg","N.jpg","1","1","1","",""
"","feedback","","html-keyboard-response","395","599256","0.0-1.0-573.0-0.0","0","0","11652","","null","","","null","63","","","","","","","","","","","","","","","",""
"","ITI","","html-keyboard-response","396","600262","0.0-1.0-576.0","0","0","11652","","null","","","null","63","","","","","","","","","","","","","","","NaN",""
"","S1","","html-keyboard-response","397","600520","0.0-1.0-578.0","0","0","11652","","null","","","null","64","","","","","","","","","","","","","","","",""
"","ISI","","html-keyboard-response","398","601028","0.0-1.0-579.0","0","0","11652","","null","","","null","64","NaN","","","","","","","","","","","","","","",""
"","S2","","html-keyboard-response","399","601287","0.0-1.0-580.0","0","0","11652","","null","","","null","64","","NaN","","","","","","","","","","","","","",""
"","response","","html-keyboard-response","400","601362","0.0-1.0-581.0-0.0","0","0","11652","","71","","","75","64","","","2","64","training","adjacent","CB","3","2","N.jpg","M.jpg","0","0","1","",""
"","feedback","","html-keyboard-response","401","602367","0.0-1.0-582.0-0.0","0","0","11652","","null","","","null","64","","","","","","","","","","","","","","","",""
"","ITI","","html-keyboard-response","402","603372","0.0-1.0-585.0","0","0","11652","","null","","","null","64","","","","","","","","","","","","","","","NaN",""
"","S1","","html-keyboard-response","403","603631","0.0-1.0-587.0","0","0","11652","","null","","","null","65","","","","","","","","","","","","","","","",""
"","ISI","","html-keyboard-response","404","604140","0.0-1.0-588.0","0","0","11652","","null","","","null","65","NaN","","","","","","","","","","","","","","",""
"","S2","","html-keyboard-response","405","604406","0.0-1.0-589.0","0","0","11652","","null","","","null","65","","NaN","","","","","","","","","","","","","",""
"","response","","html-keyboard-response","406","604446","0.0-1.0-590.0-0.0","0","0","11652","","36","","","75","65","","","2","65","training","adjacent","ED","5","4","Q.jpg","R.jpg","0","0","1","",""
"","feedback","","html-keyboard-response","407","605455","0.0-1.0-591.0-0.0","0","0","11652","","null","","","null","65","","","","","","","","","","","","","","","",""
"","ITI","","html-keyboard-response","408","606463","0.0-1.0-594.0","0","0","11652","","null","","","null","65","","","","","","","","","","","","","","","NaN",""
"","S1","","html-keyboard-response","409","606730","0.0-1.0-596.0","0","0","11652","","null","","","null","66","","","","","","","","","","","","","","","",""
"","ISI","","html-keyboard-response","410","607234","0.0-1.0-597.0","0","0","11652","","null","","","null","66","NaN","","","","","","","","","","","","","","",""
"","S2","","html-keyboard-response","411","607491","0.0-1.0-598.0","0","0","11652","","null","","","null","66","","NaN","","","","","","","","","","","","","",""
"","response","","html-keyboard-response","412","607523","0.0-1.0-599.0-0.0","0","0","11652","","28","","","68","66","","","2","66","training","adjacent","FE","6","5","O.jpg","Q.jpg","1","0","0","",""
"","feedback","","html-keyboard-response","413","608534","0.0-1.0-600.0-0.0","0","0","11652","","null","","","null","66","","","","","","","","","","","","","","","",""
"","time_out","","html-keyboard-response","414","610542","0.0-1.0-602.0-0.0","0","0","11652","","null","","","null","66","","","","","","","","","","","","","","","",""
"","ITI","","html-keyboard-response","415","611546","0.0-1.0-603.0","0","0","11652","","null","","","null","66","","","","","","","","","","","","","","","NaN",""
"","S1","","html-keyboard-response","416","611803","0.0-1.0-605.0","0","0","11652","","null","","","null","67","","","","","","","","","","","","","","","",""
"","ISI","","html-keyboard-response","417","612311","0.0-1.0-606.0","0","0","11652","","null","","","null","67","NaN","","","","","","","","","","","","","","",""
"","S2","","html-keyboard-response","418","612574","0.0-1.0-607.0","0","0","11652","","null","","","null","67","","NaN","","","","","","","","","","","","","",""
"","response","","html-keyboard-response","419","612577","0.0-1.0-608.0-0.0","0","0","11652","","0","","","75","67","","","2","67","training","adjacent","AB","1","2","L.jpg","M.jpg","0","1","0","",""
"","feedback","","html-keyboard-response","420","613583","0.0-1.0-609.0-0.0","0","0","11652","","null","","","null","67","","","","","","","","","","","","","","","",""
"","time_out","","html-keyboard-response","421","615592","0.0-1.0-611.0-0.0","0","0","11652","","null","","","null","67","","","","","","","","","","","","","","","",""
"","ITI","","html-keyboard-response","422","616604","0.0-1.0-612.0","0","0","11652","","null","","","null","67","","","","","","","","","","","","","","","NaN",""
"","S1","","html-keyboard-response","423","616863","0.0-1.0-614.0","0","0","11652","","null","","","null","68","","","","","","","","","","","","","","","",""
"","ISI","","html-keyboard-response","424","617366","0.0-1.0-615.0","0","0","11652","","null","","","null","68","NaN","","","","","","","","","","","","","","",""
"","S2","","html-keyboard-response","425","617623","0.0-1.0-616.0","0","0","11652","","null","","","null","68","","NaN","","","","","","","","","","","","","",""
"","response","","html-keyboard-response","426","617693","0.0-1.0-617.0-0.0","0","0","11652","","67","","","68","68","","","2","68","training","adjacent","FE","6","5","O.jpg","Q.jpg","1","0","0","",""
"","feedback","","html-keyboard-response","427","618698","0.0-1.0-618.0-0.0","0","0","11652","","null","","","null","68","","","","","","","","","","","","","","","",""
"","time_out","","html-keyboard-response","428","620702","0.0-1.0-620.0-0.0","0","0","11652","","null","","","null","68","","","","","","","","","","","","","","","",""
"","ITI","","html-keyboard-response","429","621710","0.0-1.0-621.0","0","0","11652","","null","","","null","68","","","","","","","","","","","","","","","NaN",""
"","S1","","html-keyboard-response","430","621967","0.0-1.0-623.0","0","0","11652","","null","","","null","69","","","","","","","","","","","","","","","",""
"","ISI","","html-keyboard-response","431","622473","0.0-1.0-624.0","0","0","11652","","null","","","null","69","NaN","","","","","","","","","","","","","","",""
"","S2","","html-keyboard-response","432","622730","0.0-1.0-625.0","0","0","11652","","null","","","null","69","","NaN","","","","","","","","","","","","","",""
"","response","","html-keyboard-response","433","622734","0.0-1.0-626.0-0.0","0","0","11652","","1","","","75","69","","","2","69","training","adjacent","GF","7","6","P.jpg","O.jpg","0","0","1","",""
"","feedback","","html-keyboard-response","434","623741","0.0-1.0-627.0-0.0","0","0","11652","","null","","","null","69","","","","","","","","","","","","","","","",""
"","ITI","","html-keyboard-response","435","624746","0.0-1.0-630.0","0","0","11652","","null","","","null","69","","","","","","","","","","","","","","","NaN",""
"","S1","","html-keyboard-response","436","625004","0.0-1.0-632.0","0","0","11652","","null","","","null","70","","","","","","","","","","","","","","","",""
"","ISI","","html-keyboard-response","437","625511","0.0-1.0-633.0","0","0","11652","","null","","","null","70","NaN","","","","","","","","","","","","","","",""
"","S2","","html-keyboard-response","438","625768","0.0-1.0-634.0","0","0","11652","","null","","","null","70","","NaN","","","","","","","","","","","","","",""
"","response","","html-keyboard-response","439","625774","0.0-1.0-635.0-0.0","0","0","11652","","2","","","68","70","","","2","70","training","adjacent","CB","3","2","N.jpg","M.jpg","1","0","0","",""
"","feedback","","html-keyboard-response","440","626780","0.0-1.0-636.0-0.0","0","0","11652","","null","","","null","70","","","","","","","","","","","","","","","",""
"","time_out","","html-keyboard-response","441","628791","0.0-1.0-638.0-0.0","0","0","11652","","null","","","null","70","","","","","","","","","","","","","","","",""
"","ITI","","html-keyboard-response","442","629797","0.0-1.0-639.0","0","0","11652","","null","","","null","70","","","","","","","","","","","","","","","NaN",""
"","S1","","html-keyboard-response","443","630056","0.0-1.0-641.0","0","0","11652","","null","","","null","71","","","","","","","","","","","","","","","",""
"","ISI","","html-keyboard-response","444","630565","0.0-1.0-642.0","0","0","11652","","null","","","null","71","NaN","","","","","","","","","","","","","","",""
"","S2","","html-keyboard-response","445","630822","0.0-1.0-643.0","0","0","11652","","null","","","null","71","","NaN","","","","","","","","","","","","","",""
"","response","","html-keyboard-response","446","630871","0.0-1.0-644.0-0.0","0","0","11652","","45","","","75","71","","","2","71","training","adjacent","FG","6","7","O.jpg","P.jpg","0","1","0","",""
"","feedback","","html-keyboard-response","447","631880","0.0-1.0-645.0-0.0","0","0","11652","","null","","","null","71","","","","","","","","","","","","","","","",""
"","time_out","","html-keyboard-response","448","633886","0.0-1.0-647.0-0.0","0","0","11652","","null","","","null","71","","","","","","","","","","","","","","","",""
"","ITI","","html-keyboard-response","449","634894","0.0-1.0-648.0","0","0","11652","","null","","","null","71","","","","","","","","","","","","","","","NaN",""
"","S1","","html-keyboard-response","450","635149","0.0-1.0-650.0","0","0","11652","","null","","","null","72","","","","","","","","","","","","","","","",""
"","ISI","","html-keyboard-response","451","635654","0.0-1.0-651.0","0","0","11652","","null","","","null","72","NaN","","","","","","","","","","","","","","",""
"","S2","","html-keyboard-response","452","635919","0.0-1.0-652.0","0","0","11652","","null","","","null","72","","NaN","","","","","","","","","","","","","",""
"","response","","html-keyboard-response","453","635924","0.0-1.0-653.0-0.0","0","0","11652","","1","","","75","72","","","2","72","training","adjacent","DC","4","3","R.jpg","N.jpg","0","0","1","",""
"","feedback","","html-keyboard-response","454","636933","0.0-1.0-654.0-0.0","0","0","11652","","null","","","null","72","","","","","","","","","","","","","","","",""
"","ITI","","html-keyboard-response","455","637936","0.0-1.0-657.0","0","0","11652","","null","","","null","72","","","","","","","","","","","","","","","NaN",""
"","S1","","html-keyboard-response","456","638190","0.0-1.0-659.0","0","0","11652","","null","","","null","73","","","","","","","","","","","","","","","",""
"","ISI","","html-keyboard-response","457","638700","0.0-1.0-660.0","0","0","11652","","null","","","null","73","NaN","","","","","","","","","","","","","","",""
"","S2","","html-keyboard-response","458","638901","0.0-1.0-661.0","0","0","11652","","197","","","68","73","","d","2","73","training","adjacent","BC","2","3","M.jpg","N.jpg","1","1","1","",""
"","feedback","","html-keyboard-response","459","639905","0.0-1.0-663.0-0.0","0","0","11652","","null","","","null","73","","","","","","","","","","","","","","","",""
"","ITI","","html-keyboard-response","460","640911","0.0-1.0-666.0","0","0","11652","","null","","","null","73","","","","","","","","","","","","","","","NaN",""
"","S1","","html-keyboard-response","461","641168","0.0-1.0-668.0","0","0","11652","","null","","","null","74","","","","","","","","","","","","","","","",""
"","ISI","","html-keyboard-response","462","641672","0.0-1.0-669.0","0","0","11652","","null","","","null","74","NaN","","","","","","","","","","","","","","",""
"","S2","","html-keyboard-response","463","641934","0.0-1.0-670.0","0","0","11652","","null","","","null","74","","NaN","","","","","","","","","","","","","",""
"","response","","html-keyboard-response","464","641953","0.0-1.0-671.0-0.0","0","0","11652","","15","","","75","74","","","2","74","training","adjacent","DC","4","3","R.jpg","N.jpg","0","0","1","",""
"","feedback","","html-keyboard-response","465","642965","0.0-1.0-672.0-0.0","0","0","11652","","null","","","null","74","","","","","","","","","","","","","","","",""
"","ITI","","html-keyboard-response","466","643971","0.0-1.0-675.0","0","0","11652","","null","","","null","74","","","","","","","","","","","","","","","NaN",""
"","S1","","html-keyboard-response","467","644228","0.0-1.0-677.0","0","0","11652","","null","","","null","75","","","","","","","","","","","","","","","",""
"","ISI","","html-keyboard-response","468","644733","0.0-1.0-678.0","0","0","11652","","null","","","null","75","NaN","","","","","","","","","","","","","","",""
"","S2","","html-keyboard-response","469","644976","0.0-1.0-679.0","0","0","11652","","239","","","68","75","","d","2","75","training","adjacent","DE","4","5","R.jpg","Q.jpg","1","1","1","",""
"","feedback","","html-keyboard-response","470","645981","0.0-1.0-681.0-0.0","0","0","11652","","null","","","null","75","","","","","","","","","","","","","","","",""
"","ITI","","html-keyboard-response","471","646987","0.0-1.0-684.0","0","0","11652","","null","","","null","75","","","","","","","","","","","","","","","NaN",""
"","S1","","html-keyboard-response","472","647243","0.0-1.0-686.0","0","0","11652","","null","","","null","76","","","","","","","","","","","","","","","",""
"","ISI","","html-keyboard-response","473","647755","0.0-1.0-687.0","0","0","11652","","null","","","null","76","NaN","","","","","","","","","","","","","","",""
"","S2","","html-keyboard-response","474","648012","0.0-1.0-688.0","0","0","11652","","null","","","null","76","","NaN","","","","","","","","","","","","","",""
"","response","","html-keyboard-response","475","648131","0.0-1.0-689.0-0.0","0","0","11652","","116","","","75","76","","","2","76","training","adjacent","FE","6","5","O.jpg","Q.jpg","0","0","1","",""
"","feedback","","html-keyboard-response","476","649137","0.0-1.0-690.0-0.0","0","0","11652","","null","","","null","76","","","","","","","","","","","","","","","",""
"","ITI","","html-keyboard-response","477","650142","0.0-1.0-693.0","0","0","11652","","null","","","null","76","","","","","","","","","","","","","","","NaN",""
"","S1","","html-keyboard-response","478","650399","0.0-1.0-695.0","0","0","11652","","null","","","null","77","","","","","","","","","","","","","","","",""
"","ISI","","html-keyboard-response","479","650906","0.0-1.0-696.0","0","0","11652","","null","","","null","77","NaN","","","","","","","","","","","","","","",""
"","S2","","html-keyboard-response","480","651163","0.0-1.0-697.0","0","0","11652","","null","","","null","77","","NaN","","","","","","","","","","","","","",""
"","response","","html-keyboard-response","481","651271","0.0-1.0-698.0-0.0","0","0","11652","","106","","","75","77","","","2","77","training","adjacent","CD","3","4","N.jpg","R.jpg","0","1","0","",""
"","feedback","","html-keyboard-response","482","652281","0.0-1.0-699.0-0.0","0","0","11652","","null","","","null","77","","","","","","","","","","","","","","","",""
"","time_out","","html-keyboard-response","483","654290","0.0-1.0-701.0-0.0","0","0","11652","","null","","","null","77","","","","","","","","","","","","","","","",""
"","ITI","","html-keyboard-response","484","655294","0.0-1.0-702.0","0","0","11652","","null","","","null","77","","","","","","","","","","","","","","","NaN",""
"","S1","","html-keyboard-response","485","655550","0.0-1.0-704.0","0","0","11652","","null","","","null","78","","","","","","","","","","","","","","","",""
"","ISI","","html-keyboard-response","486","656058","0.0-1.0-705.0","0","0","11652","","null","","","null","78","NaN","","","","","","","","","","","","","","",""
"","S2","","html-keyboard-response","487","656314","0.0-1.0-706.0","0","0","11652","","null","","","null","78","","NaN","","","","","","","","","","","","","",""
"","response","","html-keyboard-response","488","656331","0.0-1.0-707.0-0.0","0","0","11652","","14","","","68","78","","","2","78","training","adjacent","ED","5","4","Q.jpg","R.jpg","1","0","0","",""
"","feedback","","html-keyboard-response","489","657341","0.0-1.0-708.0-0.0","0","0","11652","","null","","","null","78","","","","","","","","","","","","","","","",""
"","time_out","","html-keyboard-response","490","659349","0.0-1.0-710.0-0.0","0","0","11652","","null","","","null","78","","","","","","","","","","","","","","","",""
"","ITI","","html-keyboard-response","491","660355","0.0-1.0-711.0","0","0","11652","","null","","","null","78","","","","","","","","","","","","","","","NaN",""
"","S1","","html-keyboard-response","492","660611","0.0-1.0-713.0","0","0","11652","","null","","","null","79","","","","","","","","","","","","","","","",""
"","ISI","","html-keyboard-response","493","661120","0.0-1.0-714.0","0","0","11652","","null","","","null","79","NaN","","","","","","","","","","","","","","",""
"","S2","","html-keyboard-response","494","661333","0.0-1.0-715.0","0","0","11652","","209","","","75","79","","k","2","79","training","adjacent","EF","5","6","Q.jpg","O.jpg","0","1","0","",""
"","feedback","","html-keyboard-response","495","662337","0.0-1.0-717.0-0.0","0","0","11652","","null","","","null","79","","","","","","","","","","","","","","","",""
"","time_out","","html-keyboard-response","496","664343","0.0-1.0-719.0-0.0","0","0","11652","","null","","","null","79","","","","","","","","","","","","","","","",""
"","ITI","","html-keyboard-response","497","665346","0.0-1.0-720.0","0","0","11652","","null","","","null","79","","","","","","","","","","","","","","","NaN",""
"","S1","","html-keyboard-response","498","665600","0.0-1.0-722.0","0","0","11652","","null","","","null","80","","","","","","","","","","","","","","","",""
"","ISI","","html-keyboard-response","499","666105","0.0-1.0-723.0","0","0","11652","","null","","","null","80","NaN","","","","","","","","","","","","","","",""
"","S2","","html-keyboard-response","500","666367","0.0-1.0-724.0","0","0","11652","","256","","","68","80","","d","2","80","training","adjacent","DC","4","3","R.jpg","N.jpg","1","0","0","",""
"","feedback","","html-keyboard-response","501","667376","0.0-1.0-726.0-0.0","0","0","11652","","null","","","null","80","","","","","","","","","","","","","","","",""
"","time_out","","html-keyboard-response","502","669382","0.0-1.0-728.0-0.0","0","0","11652","","null","","","null","80","","","","","","","","","","","","","","","",""
"","ITI","","html-keyboard-response","503","670388","0.0-1.0-729.0","0","0","11652","","null","","","null","80","","","","","","","","","","","","","","","NaN",""
"","S1","","html-keyboard-response","504","670647","0.0-1.0-731.0","0","0","11652","","null","","","null","81","","","","","","","","","","","","","","","",""
"","ISI","","html-keyboard-response","505","671155","0.0-1.0-732.0","0","0","11652","","null","","","null","81","NaN","","","","","","","","","","","","","","",""
"","S2","","html-keyboard-response","506","671337","0.0-1.0-733.0","0","0","11652","","177","","","75","81","","k","2","81","training","adjacent","ED","5","4","Q.jpg","R.jpg","0","0","1","",""
"","feedback","","html-keyboard-response","507","672347","0.0-1.0-735.0-0.0","0","0","11652","","null","","","null","81","","","","","","","","","","","","","","","",""
"","ITI","","html-keyboard-response","508","673352","0.0-1.0-738.0","0","0","11652","","null","","","null","81","","","","","","","","","","","","","","","NaN",""
"","S1","","html-keyboard-response","509","673610","0.0-1.0-740.0","0","0","11652","","null","","","null","82","","","","","","","","","","","","","","","",""
"","ISI","","html-keyboard-response","510","674116","0.0-1.0-741.0","0","0","11652","","null","","","null","82","NaN","","","","","","","","","","","","","","",""
"","S2","","html-keyboard-response","511","674373","0.0-1.0-742.0","0","0","11652","","null","","","null","82","","NaN","","","","","","","","","","","","","",""
"","response","","html-keyboard-response","512","674383","0.0-1.0-743.0-0.0","0","0","11652","","8","","","75","82","","","2","82","training","adjacent","BA","2","1","M.jpg","L.jpg","0","0","1","",""
"","feedback","","html-keyboard-response","513","675390","0.0-1.0-744.0-0.0","0","0","11652","","null","","","null","82","","","","","","","","","","","","","","","",""
"","ITI","","html-keyboard-response","514","676409","0.0-1.0-747.0","0","0","11652","","null","","","null","82","","","","","","","","","","","","","","","NaN",""
"","S1","","html-keyboard-response","515","676665","0.0-1.0-749.0","0","0","11652","","null","","","null","83","","","","","","","","","","","","","","","",""
"","ISI","","html-keyboard-response","516","677169","0.0-1.0-750.0","0","0","11652","","null","","","null","83","NaN","","","","","","","","","","","","","","",""
"","S2","","html-keyboard-response","517","677431","0.0-1.0-751.0","0","0","11652","","null","","","null","83","","NaN","","","","","","","","","","","","","",""
"","response","","html-keyboard-response","518","677534","0.0-1.0-752.0-0.0","0","0","11652","","100","","","68","83","","","2","83","training","adjacent","FG","6","7","O.jpg","P.jpg","1","1","1","",""
"","feedback","","html-keyboard-response","519","678541","0.0-1.0-753.0-0.0","0","0","11652","","null","","","null","83","","","","","","","","","","","","","","","",""
"","ITI","","html-keyboard-response","520","679560","0.0-1.0-756.0","0","0","11652","","null","","","null","83","","","","","","","","","","","","","","","NaN",""
"","S1","","html-keyboard-response","521","679815","0.0-1.0-758.0","0","0","11652","","null","","","null","84","","","","","","","","","","","","","","","",""
"","ISI","","html-keyboard-response","522","680330","0.0-1.0-759.0","0","0","11652","","null","","","null","84","NaN","","","","","","","","","","","","","","",""
"","S2","","html-keyboard-response","523","680442","0.0-1.0-760.0","0","0","11652","","108","","","75","84","","k","2","84","training","adjacent","AB","1","2","L.jpg","M.jpg","0","1","0","",""
"","feedback","","html-keyboard-response","524","681448","0.0-1.0-762.0-0.0","0","0","11652","","null","","","null","84","","","","","","","","","","","","","","","",""
"","time_out","","html-keyboard-response","525","683455","0.0-1.0-764.0-0.0","0","0","11652","","null","","","null","84","","","","","","","","","","","","","","","",""
"","ITI","","html-keyboard-response","526","684466","0.0-1.0-765.0","0","0","11652","","null","","","null","84","","","","","","","","","","","","","","","NaN",""
"","S1","","html-keyboard-response","527","684722","0.0-1.0-767.0","0","0","11652","","null","","","null","85","","","","","","","","","","","","","","","",""
"","ISI","","html-keyboard-response","528","685228","0.0-1.0-768.0","0","0","11652","","null","","","null","85","NaN","","","","","","","","","","","","","","",""
"","S2","","html-keyboard-response","529","685378","0.0-1.0-769.0","0","0","11652","","145","","","68","85","","d","2","85","training","adjacent","BA","2","1","M.jpg","L.jpg","1","0","0","",""
"","feedback","","html-keyboard-response","530","686392","0.0-1.0-771.0-0.0","0","0","11652","","null","","","null","85","","","","","","","","","","","","","","","",""
"","time_out","","html-keyboard-response","531","688401","0.0-1.0-773.0-0.0","0","0","11652","","null","","","null","85","","","","","","","","","","","","","","","",""
"","ITI","","html-keyboard-response","532","689410","0.0-1.0-774.0","0","0","11652","","null","","","null","85","","","","","","","","","","","","","","","NaN",""
"","S1","","html-keyboard-response","533","689669","0.0-1.0-776.0","0","0","11652","","null","","","null","86","","","","","","","","","","","","","","","",""
"","ISI","","html-keyboard-response","534","690177","0.0-1.0-777.0","0","0","11652","","null","","","null","86","NaN","","","","","","","","","","","","","","",""
"","S2","","html-keyboard-response","535","690247","0.0-1.0-778.0","0","0","11652","","66","","","75","86","","k","2","86","training","adjacent","BA","2","1","M.jpg","L.jpg","0","0","1","",""
"","feedback","","html-keyboard-response","536","691257","0.0-1.0-780.0-0.0","0","0","11652","","null","","","null","86","","","","","","","","","","","","","","","",""
"","ITI","","html-keyboard-response","537","692262","0.0-1.0-783.0","0","0","11652","","null","","","null","86","","","","","","","","","","","","","","","NaN",""
"","S1","","html-keyboard-response","538","692518","0.0-1.0-785.0","0","0","11652","","null","","","null","87","","","","","","","","","","","","","","","",""
"","ISI","","html-keyboard-response","539","693029","0.0-1.0-786.0","0","0","11652","","null","","","null","87","NaN","","","","","","","","","","","","","","",""
"","S2","","html-keyboard-response","540","693284","0.0-1.0-787.0","0","0","11652","","null","","","null","87","","NaN","","","","","","","","","","","","","",""
"","response","","html-keyboard-response","541","693573","0.0-1.0-788.0-0.0","0","0","11652","","284","","","68","87","","","2","87","training","adjacent","AB","1","2","L.jpg","M.jpg","1","1","1","",""
"","feedback","","html-keyboard-response","542","694579","0.0-1.0-789.0-0.0","0","0","11652","","null","","","null","87","","","","","","","","","","","","","","","",""
"","ITI","","html-keyboard-response","543","695590","0.0-1.0-792.0","0","0","11652","","null","","","null","87","","","","","","","","","","","","","","","NaN",""
"","S1","","html-keyboard-response","544","695847","0.0-1.0-794.0","0","0","11652","","null","","","null","88","","","","","","","","","","","","","","","",""
"","ISI","","html-keyboard-response","545","696352","0.0-1.0-795.0","0","0","11652","","null","","","null","88","NaN","","","","","","","","","","","","","","",""
"","S2","","html-keyboard-response","546","696607","0.0-1.0-796.0","0","0","11652","","null","","","null","88","","NaN","","","","","","","","","","","","","",""
"","response","","html-keyboard-response","547","696648","0.0-1.0-797.0-0.0","0","0","11652","","38","","","75","88","","","2","88","training","adjacent","AB","1","2","L.jpg","M.jpg","0","1","0","",""
"","feedback","","html-keyboard-response","548","697653","0.0-1.0-798.0-0.0","0","0","11652","","null","","","null","88","","","","","","","","","","","","","","","",""
"","time_out","","html-keyboard-response","549","699664","0.0-1.0-800.0-0.0","0","0","11652","","null","","","null","88","","","","","","","","","","","","","","","",""
"","ITI","","html-keyboard-response","550","700669","0.0-1.0-801.0","0","0","11652","","null","","","null","88","","","","","","","","","","","","","","","NaN",""
"","S1","","html-keyboard-response","551","700927","0.0-1.0-803.0","0","0","11652","","null","","","null","89","","","","","","","","","","","","","","","",""
"","ISI","","html-keyboard-response","552","701436","0.0-1.0-804.0","0","0","11652","","null","","","null","89","NaN","","","","","","","","","","","","","","",""
"","S2","","html-keyboard-response","553","701695","0.0-1.0-805.0","0","0","11652","","null","","","null","89","","NaN","","","","","","","","","","","","","",""
"","response","","html-keyboard-response","554","701725","0.0-1.0-806.0-0.0","0","0","11652","","26","","","68","89","","","2","89","training","adjacent","DE","4","5","R.jpg","Q.jpg","1","1","1","",""
"","feedback","","html-keyboard-response","555","702735","0.0-1.0-807.0-0.0","0","0","11652","","null","","","null","89","","","","","","","","","","","","","","","",""
"","ITI","","html-keyboard-response","556","703746","0.0-1.0-810.0","0","0","11652","","null","","","null","89","","","","","","","","","","","","","","","NaN",""
"","S1","","html-keyboard-response","557","704005","0.0-1.0-812.0","0","0","11652","","null","","","null","90","","","","","","","","","","","","","","","",""
"","ISI","","html-keyboard-response","558","704509","0.0-1.0-813.0","0","0","11652","","null","","","null","90","NaN","","","","","","","","","","","","","","",""
"","S2","","html-keyboard-response","559","704766","0.0-1.0-814.0","0","0","11652","","null","","","null","90","","NaN","","","","","","","","","","","","","",""
"","response","","html-keyboard-response","560","704886","0.0-1.0-815.0-0.0","0","0","11652","","115","","","75","90","","","2","90","training","adjacent","EF","5","6","Q.jpg","O.jpg","0","1","0","",""
"","feedback","","html-keyboard-response","561","705894","0.0-1.0-816.0-0.0","0","0","11652","","null","","","null","90","","","","","","","","","","","","","","","",""
"","time_out","","html-keyboard-response","562","707901","0.0-1.0-818.0-0.0","0","0","11652","","null","","","null","90","","","","","","","","","","","","","","","",""
"","ITI","","html-keyboard-response","563","708910","0.0-1.0-819.0","0","0","11652","","null","","","null","90","","","","","","","","","","","","","","","NaN",""
"","S1","","html-keyboard-response","564","709167","0.0-1.0-821.0","0","0","11652","","null","","","null","91","","","","","","","","","","","","","","","",""
"","ISI","","html-keyboard-response","565","709674","0.0-1.0-822.0","0","0","11652","","null","","","null","91","NaN","","","","","","","","","","","","","","",""
"","S2","","html-keyboard-response","566","709885","0.0-1.0-823.0","0","0","11652","","208","","","68","91","","d","2","91","training","adjacent","CD","3","4","N.jpg","R.jpg","1","1","1","",""
"","feedback","","html-keyboard-response","567","710895","0.0-1.0-825.0-0.0","0","0","11652","","null","","","null","91","","","","","","","","","","","","","","","",""
"","ITI","","html-keyboard-response","568","711901","0.0-1.0-828.0","0","0","11652","","null","","","null","91","","","","","","","","","","","","","","","NaN",""
"","S1","","html-keyboard-response","569","712162","0.0-1.0-830.0","0","0","11652","","null","","","null","92","","","","","","","","","","","","","","","",""
"","ISI","","html-keyboard-response","570","712668","0.0-1.0-831.0","0","0","11652","","null","","","null","92","NaN","","","","","","","","","","","","","","",""
"","S2","","html-keyboard-response","571","712926","0.0-1.0-832.0","0","0","11652","","null","","","null","92","","NaN","","","","","","","","","","","","","",""
"","response","","html-keyboard-response","572","712931","0.0-1.0-833.0-0.0","0","0","11652","","1","","","75","92","","","2","92","training","adjacent","EF","5","6","Q.jpg","O.jpg","0","1","0","",""
"","feedback","","html-keyboard-response","573","713942","0.0-1.0-834.0-0.0","0","0","11652","","null","","","null","92","","","","","","","","","","","","","","","",""
"","time_out","","html-keyboard-response","574","715952","0.0-1.0-836.0-0.0","0","0","11652","","null","","","null","92","","","","","","","","","","","","","","","",""
"","ITI","","html-keyboard-response","575","716960","0.0-1.0-837.0","0","0","11652","","null","","","null","92","","","","","","","","","","","","","","","NaN",""
"","S1","","html-keyboard-response","576","717214","0.0-1.0-839.0","0","0","11652","","null","","","null","93","","","","","","","","","","","","","","","",""
"","ISI","","html-keyboard-response","577","717718","0.0-1.0-840.0","0","0","11652","","null","","","null","93","NaN","","","","","","","","","","","","","","",""
"","S2","","html-keyboard-response","578","717954","0.0-1.0-841.0","0","0","11652","","231","","","68","93","","d","2","93","training","adjacent","BC","2","3","M.jpg","N.jpg","1","1","1","",""
"","feedback","","html-keyboard-response","579","718962","0.0-1.0-843.0-0.0","0","0","11652","","null","","","null","93","","","","","","","","","","","","","","","",""
"","ITI","","html-keyboard-response","580","719968","0.0-1.0-846.0","0","0","11652","","null","","","null","93","","","","","","","","","","","","","","","NaN",""
"","S1","","html-keyboard-response","581","720225","0.0-1.0-848.0","0","0","11652","","null","","","null","94","","","","","","","","","","","","","","","",""
"","ISI","","html-keyboard-response","582","720732","0.0-1.0-849.0","0","0","11652","","null","","","null","94","NaN","","","","","","","","","","","","","","",""
"","S2","","html-keyboard-response","583","720985","0.0-1.0-850.0","0","0","11652","","248","","","75","94","","k","2","94","training","adjacent","EF","5","6","Q.jpg","O.jpg","0","1","0","",""
