"success","ttype","start_time","trial_type","trial_index","time_elapsed","internal_node_id","warning","missed_checkup","PID","view_history","rt","responses","repeat_instructions","key_press","index","keypress_isi","keypress_S2","block","trial_num","phase","group_type","pair_type","S1_stim","S2_stim","S1_img","S2_img","S1_chosen","S1_higher","accuracy","keypress_iti","total_bonus_tally"
"true","full_screen","d04062023hr2043","fullscreen","0","2693","0.0-0.0","0","0","25759","","","","","","","","","","","","","","","","","","","","","",""
"","instructions","","instructions","1","23968","0.0-1.0-0.0-0.0","0","0","25759","[{""page_index"":0,""viewing_time"":3089},{""page_index"":1,""viewing_time"":7296},{""page_index"":2,""viewing_time"":9717},{""page_index"":3,""viewing_time"":1165}]","21268","","","","","","","","","","","","","","","","","","","",""
"","comprehension_check","","survey-multi-choice","2","42400","0.0-1.0-0.0-1.0","0","0","25759","","18411","{""Q0"":""True"",""Q1"":""K"",""Q2"":""Once the second image appears and while the screen 'MAKE A CHOICE' is shown"",""Q3"":""Green mark"",""Q4"":""either D or K""}","0","","","","","","","","","","","","","","","","","",""
"","start_exp","","html-keyboard-response","3","44769","0.0-1.0-1.0","0","0","25759","","2366","","","32","","","","","","","","","","","","","","","","",""
"","S1","","html-keyboard-response","4","44922","0.0-1.0-2.0","0","0","25759","","null","","","null","0","","","","","","","","","","","","","","","",""
"","ISI","","html-keyboard-response","5","46923","0.0-1.0-3.0","0","0","25759","","null","","","null","0","NaN","","","","","","","","","","","","","","",""
"","S2","","html-keyboard-response","6","47077","0.0-1.0-4.0","0","0","25759","","null","","","null","0","","NaN","","","","","","","","","","","","","",""
"","response","","html-keyboard-response","7","47786","0.0-1.0-5.0-0.0","0","0","25759","","708","","","75","0","","","1","0","training","adjacent","CB","3","2","L.jpg","R.jpg","1","0","0","",""
"","feedback","","html-keyboard-response","8","48788","0.0-1.0-6.0-0.0","0","0","25759","","null","","","null","0","","","","","","","","","","","","","","","",""
"","time_out","","html-keyboard-response","9","50791","0.0-1.0-8.0-0.0","0","0","25759","","null","","","null","0","","","","","","","","","","","","","","","",""
"","ITI","","html-keyboard-response","10","51793","0.0-1.0-9.0","0","0","25759","","null","","","null","0","","","","","","","","","","","","","","","NaN",""
"","S1","","html-keyboard-response","11","51947","0.0-1.0-11.0","0","0","25759","","null","","","null","1","","","","","","","","","","","","","","","",""
"","ISI","","html-keyboard-response","12","53949","0.0-1.0-12.0","0","0","25759","","null","","","null","1","NaN","","","","","","","","","","","","","","",""
"","S2","","html-keyboard-response","13","54103","0.0-1.0-13.0","0","0","25759","","null","","","null","1","","NaN","","","","","","","","","","","","","",""
"","response","","html-keyboard-response","14","55091","0.0-1.0-14.0-0.0","0","0","25759","","987","","","75","1","","","1","1","training","adjacent","DC","4","3","M.jpg","L.jpg","1","0","0","",""
"","feedback","","html-keyboard-response","15","56093","0.0-1.0-15.0-0.0","0","0","25759","","null","","","null","1","","","","","","","","","","","","","","","",""
"","time_out","","html-keyboard-response","16","58096","0.0-1.0-17.0-0.0","0","0","25759","","null","","","null","1","","","","","","","","","","","","","","","",""
"","ITI","","html-keyboard-response","17","59098","0.0-1.0-18.0","0","0","25759","","null","","","null","1","","","","","","","","","","","","","","","NaN",""
"","S1","","html-keyboard-response","18","59251","0.0-1.0-20.0","0","0","25759","","null","","","null","2","","","","","","","","","","","","","","","",""
"","ISI","","html-keyboard-response","19","61253","0.0-1.0-21.0","0","0","25759","","null","","","null","2","NaN","","","","","","","","","","","","","","",""
"","S2","","html-keyboard-response","20","61405","0.0-1.0-22.0","0","0","25759","","null","","","null","2","","NaN","","","","","","","","","","","","","",""
"","response","","html-keyboard-response","21","62335","0.0-1.0-23.0-0.0","0","0","25759","","928","","","68","2","","","1","2","training","adjacent","ED","5","4","P.jpg","M.jpg","0","0","1","",""
"","feedback","","html-keyboard-response","22","63338","0.0-1.0-24.0-0.0","0","0","25759","","null","","","null","2","","","","","","","","","","","","","","","",""
"","ITI","","html-keyboard-response","23","64340","0.0-1.0-27.0","0","0","25759","","null","","","null","2","","","","","","","","","","","","","","","NaN",""
"","S1","","html-keyboard-response","24","64493","0.0-1.0-29.0","0","0","25759","","null","","","null","3","","","","","","","","","","","","","","","",""
"","ISI","","html-keyboard-response","25","66494","0.0-1.0-30.0","0","0","25759","","null","","","null","3","NaN","","","","","","","","","","","","","","",""
"","S2","","html-keyboard-response","26","66647","0.0-1.0-31.0","0","0","25759","","null","","","null","3","","NaN","","","","","","","","","","","","","",""
"","response","","html-keyboard-response","27","67912","0.0-1.0-32.0-0.0","0","0","25759","","1264","","","68","3","","","1","3","training","adjacent","BC","2","3","R.jpg","L.jpg","0","1","0","",""
"","feedback","","html-keyboard-response","28","68916","0.0-1.0-33.0-0.0","0","0","25759","","null","","","null","3","","","","","","","","","","","","","","","",""
"","time_out","","html-keyboard-response","29","70917","0.0-1.0-35.0-0.0","0","0","25759","","null","","","null","3","","","","","","","","","","","","","","","",""
"","ITI","","html-keyboard-response","30","71919","0.0-1.0-36.0","0","0","25759","","null","","","null","3","","","","","","","","","","","","","","","NaN",""
"","S1","","html-keyboard-response","31","72073","0.0-1.0-38.0","0","0","25759","","null","","","null","4","","","","","","","","","","","","","","","",""
"","ISI","","html-keyboard-response","32","74075","0.0-1.0-39.0","0","0","25759","","null","","","null","4","NaN","","","","","","","","","","","","","","",""
"","S2","","html-keyboard-response","33","74228","0.0-1.0-40.0","0","0","25759","","null","","","null","4","","NaN","","","","","","","","","","","","","",""
"","response","","html-keyboard-response","34","74970","0.0-1.0-41.0-0.0","0","0","25759","","740","","","68","4","","","1","4","training","adjacent","EF","5","6","P.jpg","O.jpg","0","1","0","",""
"","feedback","","html-keyboard-response","35","75972","0.0-1.0-42.0-0.0","0","0","25759","","null","","","null","4","","","","","","","","","","","","","","","",""
"","time_out","","html-keyboard-response","36","77980","0.0-1.0-44.0-0.0","0","0","25759","","null","","","null","4","","","","","","","","","","","","","","","",""
"","ITI","","html-keyboard-response","37","78984","0.0-1.0-45.0","0","0","25759","","null","","","null","4","","","","","","","","","","","","","","","NaN",""
"","S1","","html-keyboard-response","38","79136","0.0-1.0-47.0","0","0","25759","","null","","","null","5","","","","","","","","","","","","","","","",""
"","ISI","","html-keyboard-response","39","81139","0.0-1.0-48.0","0","0","25759","","null","","","null","5","NaN","","","","","","","","","","","","","","",""
"","S2","","html-keyboard-response","40","81292","0.0-1.0-49.0","0","0","25759","","null","","","null","5","","NaN","","","","","","","","","","","","","",""
"","response","","html-keyboard-response","41","82758","0.0-1.0-50.0-0.0","0","0","25759","","1465","","","75","5","","","1","5","training","adjacent","DC","4","3","M.jpg","L.jpg","1","0","0","",""
"","feedback","","html-keyboard-response","42","83761","0.0-1.0-51.0-0.0","0","0","25759","","null","","","null","5","","","","","","","","","","","","","","","",""
"","time_out","","html-keyboard-response","43","85764","0.0-1.0-53.0-0.0","0","0","25759","","null","","","null","5","","","","","","","","","","","","","","","",""
"","ITI","","html-keyboard-response","44","86767","0.0-1.0-54.0","0","0","25759","","null","","","null","5","","","","","","","","","","","","","","","NaN",""
"","S1","","html-keyboard-response","45","86920","0.0-1.0-56.0","0","0","25759","","null","","","null","6","","","","","","","","","","","","","","","",""
"","ISI","","html-keyboard-response","46","88922","0.0-1.0-57.0","0","0","25759","","null","","","null","6","NaN","","","","","","","","","","","","","","",""
"","S2","","html-keyboard-response","47","89075","0.0-1.0-58.0","0","0","25759","","null","","","null","6","","NaN","","","","","","","","","","","","","",""
"","response","","html-keyboard-response","48","90025","0.0-1.0-59.0-0.0","0","0","25759","","949","","","68","6","","","1","6","training","adjacent","DC","4","3","M.jpg","L.jpg","0","0","1","",""
"","feedback","","html-keyboard-response","49","91036","0.0-1.0-60.0-0.0","0","0","25759","","null","","","null","6","","","","","","","","","","","","","","","",""
"","ITI","","html-keyboard-response","50","92038","0.0-1.0-63.0","0","0","25759","","null","","","null","6","","","","","","","","","","","","","","","NaN",""
"","S1","","html-keyboard-response","51","92191","0.0-1.0-65.0","0","0","25759","","null","","","null","7","","","","","","","","","","","","","","","",""
"","ISI","","html-keyboard-response","52","94193","0.0-1.0-66.0","0","0","25759","","null","","","null","7","NaN","","","","","","","","","","","","","","",""
"","S2","","html-keyboard-response","53","94346","0.0-1.0-67.0","0","0","25759","","null","","","null","7","","NaN","","","","","","","","","","","","","",""
"","response","","html-keyboard-response","54","96069","0.0-1.0-68.0-0.0","0","0","25759","","1722","","","68","7","","","1","7","training","adjacent","ED","5","4","P.jpg","M.jpg","0","0","1","",""
"","feedback","","html-keyboard-response","55","97072","0.0-1.0-69.0-0.0","0","0","25759","","null","","","null","7","","","","","","","","","","","","","","","",""
"","ITI","","html-keyboard-response","56","98075","0.0-1.0-72.0","0","0","25759","","null","","","null","7","","","","","","","","","","","","","","","NaN",""
"","S1","","html-keyboard-response","57","98227","0.0-1.0-74.0","0","0","25759","","null","","","null","8","","","","","","","","","","","","","","","",""
"","ISI","","html-keyboard-response","58","100230","0.0-1.0-75.0","0","0","25759","","null","","","null","8","NaN","","","","","","","","","","","","","","",""
"","S2","","html-keyboard-response","59","100384","0.0-1.0-76.0","0","0","25759","","null","","","null","8","","NaN","","","","","","","","","","","","","",""
"","response","","html-keyboard-response","60","100922","0.0-1.0-77.0-0.0","0","0","25759","","537","","","75","8","","","1","8","training","adjacent","DE","4","5","M.jpg","P.jpg","1","1","1","",""
"","feedback","","html-keyboard-response","61","101924","0.0-1.0-78.0-0.0","0","0","25759","","null","","","null","8","","","","","","","","","","","","","","","",""
"","ITI","","html-keyboard-response","62","102928","0.0-1.0-81.0","0","0","25759","","null","","","null","8","","","","","","","","","","","","","","","NaN",""
"","S1","","html-keyboard-response","63","103080","0.0-1.0-83.0","0","0","25759","","null","","","null","9","","","","","","","","","","","","","","","",""
"","ISI","","html-keyboard-response","64","105083","0.0-1.0-84.0","0","0","25759","","null","","","null","9","NaN","","","","","","","","","","","","","","",""
"","S2","","html-keyboard-response","65","105236","0.0-1.0-85.0","0","0","25759","","null","","","null","9","","NaN","","","","","","","","","","","","","",""
"","response","","html-keyboard-response","66","107064","0.0-1.0-86.0-0.0","0","0","25759","","1827","","","75","9","","","1","9","training","adjacent","EF","5","6","P.jpg","O.jpg","1","1","1","",""
"","feedback","","html-keyboard-response","67","108066","0.0-1.0-87.0-0.0","0","0","25759","","null","","","null","9","","","","","","","","","","","","","","","",""
"","ITI","","html-keyboard-response","68","109068","0.0-1.0-90.0","0","0","25759","","null","","","null","9","","","","","","","","","","","","","","","NaN",""
"","S1","","html-keyboard-response","69","109221","0.0-1.0-92.0","0","0","25759","","null","","","null","10","","","","","","","","","","","","","","","",""
"","ISI","","html-keyboard-response","70","111223","0.0-1.0-93.0","0","0","25759","","null","","","null","10","NaN","","","","","","","","","","","","","","",""
"","S2","","html-keyboard-response","71","111377","0.0-1.0-94.0","0","0","25759","","null","","","null","10","","NaN","","","","","","","","","","","","","",""
"","response","","html-keyboard-response","72","112582","0.0-1.0-95.0-0.0","0","0","25759","","1204","","","68","10","","","1","10","training","adjacent","AB","1","2","Q.jpg","R.jpg","0","1","0","",""
"","feedback","","html-keyboard-response","73","113584","0.0-1.0-96.0-0.0","0","0","25759","","null","","","null","10","","","","","","","","","","","","","","","",""
"","time_out","","html-keyboard-response","74","115586","0.0-1.0-98.0-0.0","0","0","25759","","null","","","null","10","","","","","","","","","","","","","","","",""
"","ITI","","html-keyboard-response","75","116588","0.0-1.0-99.0","0","0","25759","","null","","","null","10","","","","","","","","","","","","","","","NaN",""
"","S1","","html-keyboard-response","76","116742","0.0-1.0-101.0","0","0","25759","","null","","","null","11","","","","","","","","","","","","","","","",""
"","ISI","","html-keyboard-response","77","118744","0.0-1.0-102.0","0","0","25759","","null","","","null","11","NaN","","","","","","","","","","","","","","",""
"","S2","","html-keyboard-response","78","118898","0.0-1.0-103.0","0","0","25759","","null","","","null","11","","NaN","","","","","","","","","","","","","",""
"","response","","html-keyboard-response","79","120336","0.0-1.0-104.0-0.0","0","0","25759","","1437","","","68","11","","","1","11","training","adjacent","DC","4","3","M.jpg","L.jpg","0","0","1","",""
"","feedback","","html-keyboard-response","80","121339","0.0-1.0-105.0-0.0","0","0","25759","","null","","","null","11","","","","","","","","","","","","","","","",""
"","ITI","","html-keyboard-response","81","122340","0.0-1.0-108.0","0","0","25759","","null","","","null","11","","","","","","","","","","","","","","","NaN",""
"","S1","","html-keyboard-response","82","122493","0.0-1.0-110.0","0","0","25759","","null","","","null","12","","","","","","","","","","","","","","","",""
"","ISI","","html-keyboard-response","83","124496","0.0-1.0-111.0","0","0","25759","","null","","","null","12","NaN","","","","","","","","","","","","","","",""
"","S2","","html-keyboard-response","84","124648","0.0-1.0-112.0","0","0","25759","","null","","","null","12","","NaN","","","","","","","","","","","","","",""
"","response","","html-keyboard-response","85","125473","0.0-1.0-113.0-0.0","0","0","25759","","823","","","75","12","","","1","12","training","adjacent","DE","4","5","M.jpg","P.jpg","1","1","1","",""
"","feedback","","html-keyboard-response","86","126477","0.0-1.0-114.0-0.0","0","0","25759","","null","","","null","12","","","","","","","","","","","","","","","",""
"","ITI","","html-keyboard-response","87","127479","0.0-1.0-117.0","0","0","25759","","null","","","null","12","","","","","","","","","","","","","","","NaN",""
"","S1","","html-keyboard-response","88","127631","0.0-1.0-119.0","0","0","25759","","null","","","null","13","","","","","","","","","","","","","","","",""
"","ISI","","html-keyboard-response","89","129634","0.0-1.0-120.0","0","0","25759","","null","","","null","13","NaN","","","","","","","","","","","","","","",""
"","S2","","html-keyboard-response","90","129787","0.0-1.0-121.0","0","0","25759","","null","","","null","13","","NaN","","","","","","","","","","","","","",""
"","response","","html-keyboard-response","91","130705","0.0-1.0-122.0-0.0","0","0","25759","","917","","","68","13","","","1","13","training","adjacent","AB","1","2","Q.jpg","R.jpg","0","1","0","",""
"","feedback","","html-keyboard-response","92","131707","0.0-1.0-123.0-0.0","0","0","25759","","null","","","null","13","","","","","","","","","","","","","","","",""
"","time_out","","html-keyboard-response","93","133710","0.0-1.0-125.0-0.0","0","0","25759","","null","","","null","13","","","","","","","","","","","","","","","",""
"","ITI","","html-keyboard-response","94","134713","0.0-1.0-126.0","0","0","25759","","null","","","null","13","","","","","","","","","","","","","","","NaN",""
"","S1","","html-keyboard-response","95","134865","0.0-1.0-128.0","0","0","25759","","null","","","null","14","","","","","","","","","","","","","","","",""
"","ISI","","html-keyboard-response","96","136867","0.0-1.0-129.0","0","0","25759","","null","","","null","14","NaN","","","","","","","","","","","","","","",""
"","S2","","html-keyboard-response","97","137021","0.0-1.0-130.0","0","0","25759","","null","","","null","14","","NaN","","","","","","","","","","","","","",""
"","response","","html-keyboard-response","98","137722","0.0-1.0-131.0-0.0","0","0","25759","","699","","","68","14","","","1","14","training","adjacent","FG","6","7","O.jpg","N.jpg","0","1","0","",""
"","feedback","","html-keyboard-response","99","138725","0.0-1.0-132.0-0.0","0","0","25759","","null","","","null","14","","","","","","","","","","","","","","","",""
"","time_out","","html-keyboard-response","100","140727","0.0-1.0-134.0-0.0","0","0","25759","","null","","","null","14","","","","","","","","","","","","","","","",""
"","ITI","","html-keyboard-response","101","141730","0.0-1.0-135.0","0","0","25759","","null","","","null","14","","","","","","","","","","","","","","","NaN",""
"","S1","","html-keyboard-response","102","141882","0.0-1.0-137.0","0","0","25759","","null","","","null","15","","","","","","","","","","","","","","","",""
"","ISI","","html-keyboard-response","103","143884","0.0-1.0-138.0","0","0","25759","","null","","","null","15","NaN","","","","","","","","","","","","","","",""
"","S2","","html-keyboard-response","104","144037","0.0-1.0-139.0","0","0","25759","","null","","","null","15","","NaN","","","","","","","","","","","","","",""
"","response","","html-keyboard-response","105","144792","0.0-1.0-140.0-0.0","0","0","25759","","754","","","75","15","","","1","15","training","adjacent","EF","5","6","P.jpg","O.jpg","1","1","1","",""
"","feedback","","html-keyboard-response","106","145795","0.0-1.0-141.0-0.0","0","0","25759","","null","","","null","15","","","","","","","","","","","","","","","",""
"","ITI","","html-keyboard-response","107","146797","0.0-1.0-144.0","0","0","25759","","null","","","null","15","","","","","","","","","","","","","","","NaN",""
"","S1","","html-keyboard-response","108","146949","0.0-1.0-146.0","0","0","25759","","null","","","null","16","","","","","","","","","","","","","","","",""
"","ISI","","html-keyboard-response","109","148952","0.0-1.0-147.0","0","0","25759","","null","","","null","16","NaN","","","","","","","","","","","","","","",""
"","S2","","html-keyboard-response","110","149104","0.0-1.0-148.0","0","0","25759","","null","","","null","16","","NaN","","","","","","","","","","","","","",""
"","response","","html-keyboard-response","111","149605","0.0-1.0-149.0-0.0","0","0","25759","","499","","","75","16","","","1","16","training","adjacent","AB","1","2","Q.jpg","R.jpg","1","1","1","",""
"","feedback","","html-keyboard-response","112","150610","0.0-1.0-150.0-0.0","0","0","25759","","null","","","null","16","","","","","","","","","","","","","","","",""
"","ITI","","html-keyboard-response","113","151613","0.0-1.0-153.0","0","0","25759","","null","","","null","16","","","","","","","","","","","","","","","NaN",""
"","S1","","html-keyboard-response","114","151766","0.0-1.0-155.0","0","0","25759","","null","","","null","17","","","","","","","","","","","","","","","",""
"","ISI","","html-keyboard-response","115","153769","0.0-1.0-156.0","0","0","25759","","null","","","null","17","NaN","","","","","","","","","","","","","","",""
"","S2","","html-keyboard-response","116","153921","0.0-1.0-157.0","0","0","25759","","null","","","null","17","","NaN","","","","","","","","","","","","","",""
"","response","","html-keyboard-response","117","155074","0.0-1.0-158.0-0.0","0","0","25759","","1151","","","68","17","","","1","17","training","adjacent","CB","3","2","L.jpg","R.jpg","0","0","1","",""
"","feedback","","html-keyboard-response","118","156077","0.0-1.0-159.0-0.0","0","0","25759","","null","","","null","17","","","","","","","","","","","","","","","",""
"","ITI","","html-keyboard-response","119","157079","0.0-1.0-162.0","0","0","25759","","null","","","null","17","","","","","","","","","","","","","","","NaN",""
"","S1","","html-keyboard-response","120","157232","0.0-1.0-164.0","0","0","25759","","null","","","null","18","","","","","","","","","","","","","","","",""
"","ISI","","html-keyboard-response","121","159234","0.0-1.0-165.0","0","0","25759","","null","","","null","18","NaN","","","","","","","","","","","","","","",""
"","S2","","html-keyboard-response","122","159395","0.0-1.0-166.0","0","0","25759","","null","","","null","18","","NaN","","","","","","","","","","","","","",""
"","response","","html-keyboard-response","123","159889","0.0-1.0-167.0-0.0","0","0","25759","","493","","","75","18","","","1","18","training","adjacent","EF","5","6","P.jpg","O.jpg","1","1","1","",""
"","feedback","","html-keyboard-response","124","160892","0.0-1.0-168.0-0.0","0","0","25759","","null","","","null","18","","","","","","","","","","","","","","","",""
"","ITI","","html-keyboard-response","125","161894","0.0-1.0-171.0","0","0","25759","","null","","","null","18","","","","","","","","","","","","","","","NaN",""
"","S1","","html-keyboard-response","126","162047","0.0-1.0-173.0","0","0","25759","","null","","","null","19","","","","","","","","","","","","","","","",""
"","ISI","","html-keyboard-response","127","164050","0.0-1.0-174.0","0","0","25759","","null","","","null","19","NaN","","","","","","","","","","","","","","",""
"","S2","","html-keyboard-response","128","164204","0.0-1.0-175.0","0","0","25759","","null","","","null","19","","NaN","","","","","","","","","","","","","",""
"","response","","html-keyboard-response","129","165602","0.0-1.0-176.0-0.0","0","0","25759","","1397","","","75","19","","","1","19","training","adjacent","BA","2","1","R.jpg","Q.jpg","1","0","0","",""
"","feedback","","html-keyboard-response","130","166604","0.0-1.0-177.0-0.0","0","0","25759","","null","","","null","19","","","","","","","","","","","","","","","",""
"","time_out","","html-keyboard-response","131","168607","0.0-1.0-179.0-0.0","0","0","25759","","null","","","null","19","","","","","","","","","","","","","","","",""
"","ITI","","html-keyboard-response","132","169609","0.0-1.0-180.0","0","0","25759","","null","","","null","19","","","","","","","","","","","","","","","NaN",""
"","S1","","html-keyboard-response","133","169762","0.0-1.0-182.0","0","0","25759","","null","","","null","20","","","","","","","","","","","","","","","",""
"","ISI","","html-keyboard-response","134","171764","0.0-1.0-183.0","0","0","25759","","null","","","null","20","NaN","","","","","","","","","","","","","","",""
"","S2","","html-keyboard-response","135","171917","0.0-1.0-184.0","0","0","25759","","null","","","null","20","","NaN","","","","","","","","","","","","","",""
"","response","","html-keyboard-response","136","172787","0.0-1.0-185.0-0.0","0","0","25759","","868","","","68","20","","","1","20","training","adjacent","FE","6","5","O.jpg","P.jpg","0","0","1","",""
"","feedback","","html-keyboard-response","137","173790","0.0-1.0-186.0-0.0","0","0","25759","","null","","","null","20","","","","","","","","","","","","","","","",""
"","ITI","","html-keyboard-response","138","174792","0.0-1.0-189.0","0","0","25759","","null","","","null","20","","","","","","","","","","","","","","","NaN",""
"","S1","","html-keyboard-response","139","174945","0.0-1.0-191.0","0","0","25759","","null","","","null","21","","","","","","","","","","","","","","","",""
"","ISI","","html-keyboard-response","140","176947","0.0-1.0-192.0","0","0","25759","","null","","","null","21","NaN","","","","","","","","","","","","","","",""
"","S2","","html-keyboard-response","141","177099","0.0-1.0-193.0","0","0","25759","","null","","","null","21","","NaN","","","","","","","","","","","","","",""
"","response","","html-keyboard-response","142","177349","0.0-1.0-194.0-0.0","0","0","25759","","248","","","68","21","","","1","21","training","adjacent","FG","6","7","O.jpg","N.jpg","0","1","0","",""
"","feedback","","html-keyboard-response","143","178352","0.0-1.0-195.0-0.0","0","0","25759","","null","","","null","21","","","","","","","","","","","","","","","",""
"","time_out","","html-keyboard-response","144","180354","0.0-1.0-197.0-0.0","0","0","25759","","null","","","null","21","","","","","","","","","","","","","","","",""
"","ITI","","html-keyboard-response","145","181357","0.0-1.0-198.0","0","0","25759","","null","","","null","21","","","","","","","","","","","","","","","NaN",""
"","S1","","html-keyboard-response","146","181509","0.0-1.0-200.0","0","0","25759","","null","","","null","22","","","","","","","","","","","","","","","",""
"","ISI","","html-keyboard-response","147","183511","0.0-1.0-201.0","0","0","25759","","null","","","null","22","NaN","","","","","","","","","","","","","","",""
"","S2","","html-keyboard-response","148","183664","0.0-1.0-202.0","0","0","25759","","null","","","null","22","","NaN","","","","","","","","","","","","","",""
"","response","","html-keyboard-response","149","184301","0.0-1.0-203.0-0.0","0","0","25759","","636","","","75","22","","","1","22","training","adjacent","CD","3","4","L.jpg","M.jpg","1","1","1","",""
"","feedback","","html-keyboard-response","150","185304","0.0-1.0-204.0-0.0","0","0","25759","","null","","","null","22","","","","","","","","","","","","","","","",""
"","ITI","","html-keyboard-response","151","186306","0.0-1.0-207.0","0","0","25759","","null","","","null","22","","","","","","","","","","","","","","","NaN",""
"","S1","","html-keyboard-response","152","186459","0.0-1.0-209.0","0","0","25759","","null","","","null","23","","","","","","","","","","","","","","","",""
"","ISI","","html-keyboard-response","153","188461","0.0-1.0-210.0","0","0","25759","","null","","","null","23","NaN","","","","","","","","","","","","","","",""
"","S2","","html-keyboard-response","154","188614","0.0-1.0-211.0","0","0","25759","","null","","","null","23","","NaN","","","","","","","","","","","","","",""
"","response","","html-keyboard-response","155","190186","0.0-1.0-212.0-0.0","0","0","25759","","1570","","","68","23","","","1","23","training","adjacent","CB","3","2","L.jpg","R.jpg","0","0","1","",""
"","feedback","","html-keyboard-response","156","191189","0.0-1.0-213.0-0.0","0","0","25759","","null","","","null","23","","","","","","","","","","","","","","","",""
"","ITI","","html-keyboard-response","157","192191","0.0-1.0-216.0","0","0","25759","","null","","","null","23","","","","","","","","","","","","","","","NaN",""
"","S1","","html-keyboard-response","158","192343","0.0-1.0-218.0","0","0","25759","","null","","","null","24","","","","","","","","","","","","","","","",""
"","ISI","","html-keyboard-response","159","194345","0.0-1.0-219.0","0","0","25759","","null","","","null","24","NaN","","","","","","","","","","","","","","",""
"","S2","","html-keyboard-response","160","194499","0.0-1.0-220.0","0","0","25759","","null","","","null","24","","NaN","","","","","","","","","","","","","",""
"","response","","html-keyboard-response","161","195779","0.0-1.0-221.0-0.0","0","0","25759","","1279","","","75","24","","","1","24","training","adjacent","FG","6","7","O.jpg","N.jpg","1","1","1","",""
"","feedback","","html-keyboard-response","162","196782","0.0-1.0-222.0-0.0","0","0","25759","","null","","","null","24","","","","","","","","","","","","","","","",""
"","ITI","","html-keyboard-response","163","197785","0.0-1.0-225.0","0","0","25759","","null","","","null","24","","","","","","","","","","","","","","","NaN",""
"","S1","","html-keyboard-response","164","197937","0.0-1.0-227.0","0","0","25759","","null","","","null","25","","","","","","","","","","","","","","","",""
"","ISI","","html-keyboard-response","165","199940","0.0-1.0-228.0","0","0","25759","","null","","","null","25","NaN","","","","","","","","","","","","","","",""
"","S2","","html-keyboard-response","166","200094","0.0-1.0-229.0","0","0","25759","","null","","","null","25","","NaN","","","","","","","","","","","","","",""
"","response","","html-keyboard-response","167","200620","0.0-1.0-230.0-0.0","0","0","25759","","525","","","75","25","","","1","25","training","adjacent","BC","2","3","R.jpg","L.jpg","1","1","1","",""
"","feedback","","html-keyboard-response","168","201624","0.0-1.0-231.0-0.0","0","0","25759","","null","","","null","25","","","","","","","","","","","","","","","",""
"","ITI","","html-keyboard-response","169","202626","0.0-1.0-234.0","0","0","25759","","null","","","null","25","","","","","","","","","","","","","","","NaN",""
"","S1","","html-keyboard-response","170","202780","0.0-1.0-236.0","0","0","25759","","null","","","null","26","","","","","","","","","","","","","","","",""
"","ISI","","html-keyboard-response","171","204782","0.0-1.0-237.0","0","0","25759","","null","","","null","26","NaN","","","","","","","","","","","","","","",""
"","S2","","html-keyboard-response","172","204936","0.0-1.0-238.0","0","0","25759","","null","","","null","26","","NaN","","","","","","","","","","","","","",""
"","response","","html-keyboard-response","173","205539","0.0-1.0-239.0-0.0","0","0","25759","","602","","","68","26","","","1","26","training","adjacent","CB","3","2","L.jpg","R.jpg","0","0","1","",""
"","feedback","","html-keyboard-response","174","206541","0.0-1.0-240.0-0.0","0","0","25759","","null","","","null","26","","","","","","","","","","","","","","","",""
"","ITI","","html-keyboard-response","175","207543","0.0-1.0-243.0","0","0","25759","","null","","","null","26","","","","","","","","","","","","","","","NaN",""
"","S1","","html-keyboard-response","176","207696","0.0-1.0-245.0","0","0","25759","","null","","","null","27","","","","","","","","","","","","","","","",""
"","ISI","","html-keyboard-response","177","209699","0.0-1.0-246.0","0","0","25759","","null","","","null","27","NaN","","","","","","","","","","","","","","",""
"","S2","","html-keyboard-response","178","209851","0.0-1.0-247.0","0","0","25759","","null","","","null","27","","NaN","","","","","","","","","","","","","",""
"","response","","html-keyboard-response","179","210414","0.0-1.0-248.0-0.0","0","0","25759","","562","","","68","27","","","1","27","training","adjacent","BA","2","1","R.jpg","Q.jpg","0","0","1","",""
"","feedback","","html-keyboard-response","180","211417","0.0-1.0-249.0-0.0","0","0","25759","","null","","","null","27","","","","","","","","","","","","","","","",""
"","ITI","","html-keyboard-response","181","212419","0.0-1.0-252.0","0","0","25759","","null","","","null","27","","","","","","","","","","","","","","","NaN",""
"","S1","","html-keyboard-response","182","212572","0.0-1.0-254.0","0","0","25759","","null","","","null","28","","","","","","","","","","","","","","","",""
"","ISI","","html-keyboard-response","183","214575","0.0-1.0-255.0","0","0","25759","","null","","","null","28","NaN","","","","","","","","","","","","","","",""
"","S2","","html-keyboard-response","184","214727","0.0-1.0-256.0","0","0","25759","","null","","","null","28","","NaN","","","","","","","","","","","","","",""
"","response","","html-keyboard-response","185","215712","0.0-1.0-257.0-0.0","0","0","25759","","984","","","68","28","","","1","28","training","adjacent","GF","7","6","N.jpg","O.jpg","0","0","1","",""
"","feedback","","html-keyboard-response","186","216715","0.0-1.0-258.0-0.0","0","0","25759","","null","","","null","28","","","","","","","","","","","","","","","",""
"","ITI","","html-keyboard-response","187","217719","0.0-1.0-261.0","0","0","25759","","null","","","null","28","","","","","","","","","","","","","","","NaN",""
"","S1","","html-keyboard-response","188","217871","0.0-1.0-263.0","0","0","25759","","null","","","null","29","","","","","","","","","","","","","","","",""
"","ISI","","html-keyboard-response","189","219873","0.0-1.0-264.0","0","0","25759","","null","","","null","29","NaN","","","","","","","","","","","","","","",""
"","S2","","html-keyboard-response","190","220026","0.0-1.0-265.0","0","0","25759","","null","","","null","29","","NaN","","","","","","","","","","","","","",""
"","response","","html-keyboard-response","191","220655","0.0-1.0-266.0-0.0","0","0","25759","","627","","","75","29","","","1","29","training","adjacent","CD","3","4","L.jpg","M.jpg","1","1","1","",""
"","feedback","","html-keyboard-response","192","221658","0.0-1.0-267.0-0.0","0","0","25759","","null","","","null","29","","","","","","","","","","","","","","","",""
"","ITI","","html-keyboard-response","193","222660","0.0-1.0-270.0","0","0","25759","","null","","","null","29","","","","","","","","","","","","","","","NaN",""
"","S1","","html-keyboard-response","194","222812","0.0-1.0-272.0","0","0","25759","","null","","","null","30","","","","","","","","","","","","","","","",""
"","ISI","","html-keyboard-response","195","224815","0.0-1.0-273.0","0","0","25759","","null","","","null","30","NaN","","","","","","","","","","","","","","",""
"","S2","","html-keyboard-response","196","224968","0.0-1.0-274.0","0","0","25759","","null","","","null","30","","NaN","","","","","","","","","","","","","",""
"","response","","html-keyboard-response","197","225560","0.0-1.0-275.0-0.0","0","0","25759","","591","","","75","30","","","1","30","training","adjacent","CD","3","4","L.jpg","M.jpg","1","1","1","",""
"","feedback","","html-keyboard-response","198","226562","0.0-1.0-276.0-0.0","0","0","25759","","null","","","null","30","","","","","","","","","","","","","","","",""
"","ITI","","html-keyboard-response","199","227565","0.0-1.0-279.0","0","0","25759","","null","","","null","30","","","","","","","","","","","","","","","NaN",""
"","S1","","html-keyboard-response","200","227717","0.0-1.0-281.0","0","0","25759","","null","","","null","31","","","","","","","","","","","","","","","",""
"","ISI","","html-keyboard-response","201","229720","0.0-1.0-282.0","0","0","25759","","null","","","null","31","NaN","","","","","","","","","","","","","","",""
"","S2","","html-keyboard-response","202","229873","0.0-1.0-283.0","0","0","25759","","null","","","null","31","","NaN","","","","","","","","","","","","","",""
"","response","","html-keyboard-response","203","230592","0.0-1.0-284.0-0.0","0","0","25759","","718","","","68","31","","","1","31","training","adjacent","BA","2","1","R.jpg","Q.jpg","0","0","1","",""
"","feedback","","html-keyboard-response","204","231595","0.0-1.0-285.0-0.0","0","0","25759","","null","","","null","31","","","","","","","","","","","","","","","",""
"","ITI","","html-keyboard-response","205","232597","0.0-1.0-288.0","0","0","25759","","null","","","null","31","","","","","","","","","","","","","","","NaN",""
"","S1","","html-keyboard-response","206","232750","0.0-1.0-290.0","0","0","25759","","null","","","null","32","","","","","","","","","","","","","","","",""
"","ISI","","html-keyboard-response","207","234753","0.0-1.0-291.0","0","0","25759","","null","","","null","32","NaN","","","","","","","","","","","","","","",""
"","S2","","html-keyboard-response","208","234906","0.0-1.0-292.0","0","0","25759","","null","","","null","32","","NaN","","","","","","","","","","","","","",""
"","response","","html-keyboard-response","209","235518","0.0-1.0-293.0-0.0","0","0","25759","","610","","","75","32","","","1","32","training","adjacent","DE","4","5","M.jpg","P.jpg","1","1","1","",""
"","feedback","","html-keyboard-response","210","236521","0.0-1.0-294.0-0.0","0","0","25759","","null","","","null","32","","","","","","","","","","","","","","","",""
"","ITI","","html-keyboard-response","211","237524","0.0-1.0-297.0","0","0","25759","","null","","","null","32","","","","","","","","","","","","","","","NaN",""
"","S1","","html-keyboard-response","212","237677","0.0-1.0-299.0","0","0","25759","","null","","","null","33","","","","","","","","","","","","","","","",""
"","ISI","","html-keyboard-response","213","239680","0.0-1.0-300.0","0","0","25759","","null","","","null","33","NaN","","","","","","","","","","","","","","",""
"","S2","","html-keyboard-response","214","239832","0.0-1.0-301.0","0","0","25759","","null","","","null","33","","NaN","","","","","","","","","","","","","",""
"","response","","html-keyboard-response","215","240098","0.0-1.0-302.0-0.0","0","0","25759","","264","","","75","33","","","1","33","training","adjacent","AB","1","2","Q.jpg","R.jpg","1","1","1","",""
"","feedback","","html-keyboard-response","216","241100","0.0-1.0-303.0-0.0","0","0","25759","","null","","","null","33","","","","","","","","","","","","","","","",""
"","ITI","","html-keyboard-response","217","242103","0.0-1.0-306.0","0","0","25759","","null","","","null","33","","","","","","","","","","","","","","","NaN",""
"","S1","","html-keyboard-response","218","242256","0.0-1.0-308.0","0","0","25759","","null","","","null","34","","","","","","","","","","","","","","","",""
"","ISI","","html-keyboard-response","219","244257","0.0-1.0-309.0","0","0","25759","","null","","","null","34","NaN","","","","","","","","","","","","","","",""
"","S2","","html-keyboard-response","220","244410","0.0-1.0-310.0","0","0","25759","","null","","","null","34","","NaN","","","","","","","","","","","","","",""
"","response","","html-keyboard-response","221","244867","0.0-1.0-311.0-0.0","0","0","25759","","455","","","68","34","","","1","34","training","adjacent","GF","7","6","N.jpg","O.jpg","0","0","1","",""
"","feedback","","html-keyboard-response","222","245870","0.0-1.0-312.0-0.0","0","0","25759","","null","","","null","34","","","","","","","","","","","","","","","",""
"","ITI","","html-keyboard-response","223","246872","0.0-1.0-315.0","0","0","25759","","null","","","null","34","","","","","","","","","","","","","","","NaN",""
"","S1","","html-keyboard-response","224","247025","0.0-1.0-317.0","0","0","25759","","null","","","null","35","","","","","","","","","","","","","","","",""
"","ISI","","html-keyboard-response","225","249027","0.0-1.0-318.0","0","0","25759","","null","","","null","35","NaN","","","","","","","","","","","","","","",""
"","S2","","html-keyboard-response","226","249180","0.0-1.0-319.0","0","0","25759","","null","","","null","35","","NaN","","","","","","","","","","","","","",""
"","response","","html-keyboard-response","227","250305","0.0-1.0-320.0-0.0","0","0","25759","","1124","","","68","35","","","1","35","training","adjacent","FE","6","5","O.jpg","P.jpg","0","0","1","",""
"","feedback","","html-keyboard-response","228","251308","0.0-1.0-321.0-0.0","0","0","25759","","null","","","null","35","","","","","","","","","","","","","","","",""
"","ITI","","html-keyboard-response","229","252311","0.0-1.0-324.0","0","0","25759","","null","","","null","35","","","","","","","","","","","","","","","NaN",""
"","S1","","html-keyboard-response","230","252463","0.0-1.0-326.0","0","0","25759","","null","","","null","36","","","","","","","","","","","","","","","",""
"","ISI","","html-keyboard-response","231","254467","0.0-1.0-327.0","0","0","25759","","null","","","null","36","NaN","","","","","","","","","","","","","","",""
"","S2","","html-keyboard-response","232","254619","0.0-1.0-328.0","0","0","25759","","null","","","null","36","","NaN","","","","","","","","","","","","","",""
"","response","","html-keyboard-response","233","255090","0.0-1.0-329.0-0.0","0","0","25759","","469","","","68","36","","","1","36","training","adjacent","BA","2","1","R.jpg","Q.jpg","0","0","1","",""
"","feedback","","html-keyboard-response","234","256093","0.0-1.0-330.0-0.0","0","0","25759","","null","","","null","36","","","","","","","","","","","","","","","",""
"","ITI","","html-keyboard-response","235","257096","0.0-1.0-333.0","0","0","25759","","null","","","null","36","","","","","","","","","","","","","","","NaN",""
"","S1","","html-keyboard-response","236","257249","0.0-1.0-335.0","0","0","25759","","null","","","null","37","","","","","","","","","","","","","","","",""
"","ISI","","html-keyboard-response","237","259250","0.0-1.0-336.0","0","0","25759","","null","","","null","37","NaN","","","","","","","","","","","","","","",""
"","S2","","html-keyboard-response","238","259403","0.0-1.0-337.0","0","0","25759","","null","","","null","37","","NaN","","","","","","","","","","","","","",""
"","response","","html-keyboard-response","239","260319","0.0-1.0-338.0-0.0","0","0","25759","","916","","","75","37","","","1","37","training","adjacent","FG","6","7","O.jpg","N.jpg","1","1","1","",""
"","feedback","","html-keyboard-response","240","261323","0.0-1.0-339.0-0.0","0","0","25759","","null","","","null","37","","","","","","","","","","","","","","","",""
"","ITI","","html-keyboard-response","241","262338","0.0-1.0-342.0","0","0","25759","","null","","","null","37","","","","","","","","","","","","","","","NaN",""
"","S1","","html-keyboard-response","242","262490","0.0-1.0-344.0","0","0","25759","","null","","","null","38","","","","","","","","","","","","","","","",""
"","ISI","","html-keyboard-response","243","264492","0.0-1.0-345.0","0","0","25759","","null","","","null","38","NaN","","","","","","","","","","","","","","",""
"","S2","","html-keyboard-response","244","264645","0.0-1.0-346.0","0","0","25759","","null","","","null","38","","NaN","","","","","","","","","","","","","",""
"","response","","html-keyboard-response","245","265160","0.0-1.0-347.0-0.0","0","0","25759","","514","","","75","38","","","1","38","training","adjacent","DE","4","5","M.jpg","P.jpg","1","1","1","",""
"","feedback","","html-keyboard-response","246","266162","0.0-1.0-348.0-0.0","0","0","25759","","null","","","null","38","","","","","","","","","","","","","","","",""
"","ITI","","html-keyboard-response","247","267165","0.0-1.0-351.0","0","0","25759","","null","","","null","38","","","","","","","","","","","","","","","NaN",""
"","S1","","html-keyboard-response","248","267317","0.0-1.0-353.0","0","0","25759","","null","","","null","39","","","","","","","","","","","","","","","",""
"","ISI","","html-keyboard-response","249","269320","0.0-1.0-354.0","0","0","25759","","null","","","null","39","NaN","","","","","","","","","","","","","","",""
"","S2","","html-keyboard-response","250","269473","0.0-1.0-355.0","0","0","25759","","null","","","null","39","","NaN","","","","","","","","","","","","","",""
"","response","","html-keyboard-response","251","270317","0.0-1.0-356.0-0.0","0","0","25759","","843","","","68","39","","","1","39","training","adjacent","ED","5","4","P.jpg","M.jpg","0","0","1","",""
"","feedback","","html-keyboard-response","252","271320","0.0-1.0-357.0-0.0","0","0","25759","","null","","","null","39","","","","","","","","","","","","","","","",""
"","ITI","","html-keyboard-response","253","272323","0.0-1.0-360.0","0","0","25759","","null","","","null","39","","","","","","","","","","","","","","","NaN",""
"","S1","","html-keyboard-response","254","272475","0.0-1.0-362.0","0","0","25759","","null","","","null","40","","","","","","","","","","","","","","","",""
"","ISI","","html-keyboard-response","255","274478","0.0-1.0-363.0","0","0","25759","","null","","","null","40","NaN","","","","","","","","","","","","","","",""
"","S2","","html-keyboard-response","256","274631","0.0-1.0-364.0","0","0","25759","","null","","","null","40","","NaN","","","","","","","","","","","","","",""
"","response","","html-keyboard-response","257","275913","0.0-1.0-365.0-0.0","0","0","25759","","1281","","","75","40","","","1","40","training","adjacent","BC","2","3","R.jpg","L.jpg","1","1","1","",""
"","feedback","","html-keyboard-response","258","276915","0.0-1.0-366.0-0.0","0","0","25759","","null","","","null","40","","","","","","","","","","","","","","","",""
"","ITI","","html-keyboard-response","259","277919","0.0-1.0-369.0","0","0","25759","","null","","","null","40","","","","","","","","","","","","","","","NaN",""
"","S1","","html-keyboard-response","260","278071","0.0-1.0-371.0","0","0","25759","","null","","","null","41","","","","","","","","","","","","","","","",""
"","ISI","","html-keyboard-response","261","280075","0.0-1.0-372.0","0","0","25759","","null","","","null","41","NaN","","","","","","","","","","","","","","",""
"","S2","","html-keyboard-response","262","280228","0.0-1.0-373.0","0","0","25759","","null","","","null","41","","NaN","","","","","","","","","","","","","",""
"","response","","html-keyboard-response","263","281288","0.0-1.0-374.0-0.0","0","0","25759","","1059","","","75","41","","","1","41","training","adjacent","CD","3","4","L.jpg","M.jpg","1","1","1","",""
"","feedback","","html-keyboard-response","264","282290","0.0-1.0-375.0-0.0","0","0","25759","","null","","","null","41","","","","","","","","","","","","","","","",""
"","ITI","","html-keyboard-response","265","283293","0.0-1.0-378.0","0","0","25759","","null","","","null","41","","","","","","","","","","","","","","","NaN",""
"","S1","","html-keyboard-response","266","283446","0.0-1.0-380.0","0","0","25759","","null","","","null","42","","","","","","","","","","","","","","","",""
"","ISI","","html-keyboard-response","267","285449","0.0-1.0-381.0","0","0","25759","","null","","","null","42","NaN","","","","","","","","","","","","","","",""
"","S2","","html-keyboard-response","268","285602","0.0-1.0-382.0","0","0","25759","","null","","","null","42","","NaN","","","","","","","","","","","","","",""
"","response","","html-keyboard-response","269","286536","0.0-1.0-383.0-0.0","0","0","25759","","932","","","68","42","","","1","42","training","adjacent","GF","7","6","N.jpg","O.jpg","0","0","1","",""
"","feedback","","html-keyboard-response","270","287538","0.0-1.0-384.0-0.0","0","0","25759","","null","","","null","42","","","","","","","","","","","","","","","",""
"","ITI","","html-keyboard-response","271","288540","0.0-1.0-387.0","0","0","25759","","null","","","null","42","","","","","","","","","","","","","","","NaN",""
"","S1","","html-keyboard-response","272","288694","0.0-1.0-389.0","0","0","25759","","null","","","null","43","","","","","","","","","","","","","","","",""
"","ISI","","html-keyboard-response","273","290697","0.0-1.0-390.0","0","0","25759","","null","","","null","43","NaN","","","","","","","","","","","","","","",""
"","S2","","html-keyboard-response","274","290850","0.0-1.0-391.0","0","0","25759","","null","","","null","43","","NaN","","","","","","","","","","","","","",""
"","response","","html-keyboard-response","275","292119","0.0-1.0-392.0-0.0","0","0","25759","","1268","","","68","43","","","1","43","training","adjacent","FE","6","5","O.jpg","P.jpg","0","0","1","",""
"","feedback","","html-keyboard-response","276","293121","0.0-1.0-393.0-0.0","0","0","25759","","null","","","null","43","","","","","","","","","","","","","","","",""
"","ITI","","html-keyboard-response","277","294123","0.0-1.0-396.0","0","0","25759","","null","","","null","43","","","","","","","","","","","","","","","NaN",""
"","S1","","html-keyboard-response","278","294276","0.0-1.0-398.0","0","0","25759","","null","","","null","44","","","","","","","","","","","","","","","",""
"","ISI","","html-keyboard-response","279","296278","0.0-1.0-399.0","0","0","25759","","null","","","null","44","NaN","","","","","","","","","","","","","","",""
"","S2","","html-keyboard-response","280","296430","0.0-1.0-400.0","0","0","25759","","null","","","null","44","","NaN","","","","","","","","","","","","","",""
"","response","","html-keyboard-response","281","296982","0.0-1.0-401.0-0.0","0","0","25759","","550","","","75","44","","","1","44","training","adjacent","BC","2","3","R.jpg","L.jpg","1","1","1","",""
"","feedback","","html-keyboard-response","282","297984","0.0-1.0-402.0-0.0","0","0","25759","","null","","","null","44","","","","","","","","","","","","","","","",""
"","ITI","","html-keyboard-response","283","298986","0.0-1.0-405.0","0","0","25759","","null","","","null","44","","","","","","","","","","","","","","","NaN",""
"","S1","","html-keyboard-response","284","299139","0.0-1.0-407.0","0","0","25759","","null","","","null","45","","","","","","","","","","","","","","","",""
"","ISI","","html-keyboard-response","285","301142","0.0-1.0-408.0","0","0","25759","","null","","","null","45","NaN","","","","","","","","","","","","","","",""
"","S2","","html-keyboard-response","286","301295","0.0-1.0-409.0","0","0","25759","","null","","","null","45","","NaN","","","","","","","","","","","","","",""
"","response","","html-keyboard-response","287","301926","0.0-1.0-410.0-0.0","0","0","25759","","630","","","68","45","","","1","45","training","adjacent","GF","7","6","N.jpg","O.jpg","0","0","1","",""
"","feedback","","html-keyboard-response","288","302929","0.0-1.0-411.0-0.0","0","0","25759","","null","","","null","45","","","","","","","","","","","","","","","",""
"","ITI","","html-keyboard-response","289","303931","0.0-1.0-414.0","0","0","25759","","null","","","null","45","","","","","","","","","","","","","","","NaN",""
"","S1","","html-keyboard-response","290","304084","0.0-1.0-416.0","0","0","25759","","null","","","null","46","","","","","","","","","","","","","","","",""
"","ISI","","html-keyboard-response","291","306092","0.0-1.0-417.0","0","0","25759","","null","","","null","46","NaN","","","","","","","","","","","","","","",""
"","S2","","html-keyboard-response","292","306244","0.0-1.0-418.0","0","0","25759","","null","","","null","46","","NaN","","","","","","","","","","","","","",""
"","response","","html-keyboard-response","293","306799","0.0-1.0-419.0-0.0","0","0","25759","","553","","","68","46","","","1","46","training","adjacent","ED","5","4","P.jpg","M.jpg","0","0","1","",""
"","feedback","","html-keyboard-response","294","307803","0.0-1.0-420.0-0.0","0","0","25759","","null","","","null","46","","","","","","","","","","","","","","","",""
"","ITI","","html-keyboard-response","295","308806","0.0-1.0-423.0","0","0","25759","","null","","","null","46","","","","","","","","","","","","","","","NaN",""
"","S1","","html-keyboard-response","296","308959","0.0-1.0-425.0","0","0","25759","","null","","","null","47","","","","","","","","","","","","","","","",""
"","ISI","","html-keyboard-response","297","310962","0.0-1.0-426.0","0","0","25759","","null","","","null","47","NaN","","","","","","","","","","","","","","",""
"","S2","","html-keyboard-response","298","311115","0.0-1.0-427.0","0","0","25759","","null","","","null","47","","NaN","","","","","","","","","","","","","",""
"","response","","html-keyboard-response","299","312196","0.0-1.0-428.0-0.0","0","0","25759","","1080","","","68","47","","","1","47","training","adjacent","FE","6","5","O.jpg","P.jpg","0","0","1","",""
"","feedback","","html-keyboard-response","300","313199","0.0-1.0-429.0-0.0","0","0","25759","","null","","","null","47","","","","","","","","","","","","","","","",""
"","ITI","","html-keyboard-response","301","314201","0.0-1.0-432.0","0","0","25759","","null","","","null","47","","","","","","","","","","","","","","","NaN",""
"","block_over","","html-keyboard-response","302","316812","0.0-1.0-433.0-0.0","0","0","25759","","2609","","","32","47","","","","","","","","","","","","","","","",""
"","S1","","html-keyboard-response","303","316964","0.0-1.0-434.0","0","0","25759","","null","","","null","48","","","","","","","","","","","","","","","",""
"","ISI","","html-keyboard-response","304","318966","0.0-1.0-435.0","0","0","25759","","null","","","null","48","NaN","","","","","","","","","","","","","","",""
"","S2","","html-keyboard-response","305","319119","0.0-1.0-436.0","0","0","25759","","null","","","null","48","","NaN","","","","","","","","","","","","","",""
"","response","","html-keyboard-response","306","320970","0.0-1.0-437.0-0.0","0","0","25759","","1850","","","75","48","","","2","48","training","adjacent","FE","6","5","O.jpg","P.jpg","1","0","0","",""
"","feedback","","html-keyboard-response","307","321972","0.0-1.0-438.0-0.0","0","0","25759","","null","","","null","48","","","","","","","","","","","","","","","",""
"","time_out","","html-keyboard-response","308","323975","0.0-1.0-440.0-0.0","0","0","25759","","null","","","null","48","","","","","","","","","","","","","","","",""
"","ITI","","html-keyboard-response","309","324977","0.0-1.0-441.0","0","0","25759","","null","","","null","48","","","","","","","","","","","","","","","NaN",""
"","S1","","html-keyboard-response","310","325130","0.0-1.0-443.0","0","0","25759","","null","","","null","49","","","","","","","","","","","","","","","",""
"","ISI","","html-keyboard-response","311","327133","0.0-1.0-444.0","0","0","25759","","null","","","null","49","NaN","","","","","","","","","","","","","","",""
"","S2","","html-keyboard-response","312","327285","0.0-1.0-445.0","0","0","25759","","null","","","null","49","","NaN","","","","","","","","","","","","","",""
"","response","","html-keyboard-response","313","327844","0.0-1.0-446.0-0.0","0","0","25759","","557","","","68","49","","","2","49","training","adjacent","CB","3","2","L.jpg","R.jpg","0","0","1","",""
"","feedback","","html-keyboard-response","314","328848","0.0-1.0-447.0-0.0","0","0","25759","","null","","","null","49","","","","","","","","","","","","","","","",""
"","ITI","","html-keyboard-response","315","329851","0.0-1.0-450.0","0","0","25759","","null","","","null","49","","","","","","","","","","","","","","","NaN",""
"","S1","","html-keyboard-response","316","330005","0.0-1.0-452.0","0","0","25759","","null","","","null","50","","","","","","","","","","","","","","","",""
"","ISI","","html-keyboard-response","317","332008","0.0-1.0-453.0","0","0","25759","","null","","","null","50","NaN","","","","","","","","","","","","","","",""
"","S2","","html-keyboard-response","318","332160","0.0-1.0-454.0","0","0","25759","","null","","","null","50","","NaN","","","","","","","","","","","","","",""
"","response","","html-keyboard-response","319","332366","0.0-1.0-455.0-0.0","0","0","25759","","206","","","75","50","","","2","50","training","adjacent","AB","1","2","Q.jpg","R.jpg","1","1","1","",""
"","feedback","","html-keyboard-response","320","333369","0.0-1.0-456.0-0.0","0","0","25759","","null","","","null","50","","","","","","","","","","","","","","","",""
"","ITI","","html-keyboard-response","321","334371","0.0-1.0-459.0","0","0","25759","","null","","","null","50","","","","","","","","","","","","","","","NaN",""
"","S1","","html-keyboard-response","322","334524","0.0-1.0-461.0","0","0","25759","","null","","","null","51","","","","","","","","","","","","","","","",""
"","ISI","","html-keyboard-response","323","336526","0.0-1.0-462.0","0","0","25759","","null","","","null","51","NaN","","","","","","","","","","","","","","",""
"","S2","","html-keyboard-response","324","336679","0.0-1.0-463.0","0","0","25759","","null","","","null","51","","NaN","","","","","","","","","","","","","",""
"","response","","html-keyboard-response","325","337165","0.0-1.0-464.0-0.0","0","0","25759","","485","","","75","51","","","2","51","training","adjacent","CD","3","4","L.jpg","M.jpg","1","1","1","",""
"","feedback","","html-keyboard-response","326","338167","0.0-1.0-465.0-0.0","0","0","25759","","null","","","null","51","","","","","","","","","","","","","","","",""
"","ITI","","html-keyboard-response","327","339169","0.0-1.0-468.0","0","0","25759","","null","","","null","51","","","","","","","","","","","","","","","NaN",""
"","S1","","html-keyboard-response","328","339322","0.0-1.0-470.0","0","0","25759","","null","","","null","52","","","","","","","","","","","","","","","",""
"","ISI","","html-keyboard-response","329","341323","0.0-1.0-471.0","0","0","25759","","null","","","null","52","NaN","","","","","","","","","","","","","","",""
"","S2","","html-keyboard-response","330","341475","0.0-1.0-472.0","0","0","25759","","null","","","null","52","","NaN","","","","","","","","","","","","","",""
"","response","","html-keyboard-response","331","342140","0.0-1.0-473.0-0.0","0","0","25759","","663","","","75","52","","","2","52","training","adjacent","CD","3","4","L.jpg","M.jpg","1","1","1","",""
"","feedback","","html-keyboard-response","332","343142","0.0-1.0-474.0-0.0","0","0","25759","","null","","","null","52","","","","","","","","","","","","","","","",""
"","ITI","","html-keyboard-response","333","344145","0.0-1.0-477.0","0","0","25759","","null","","","null","52","","","","","","","","","","","","","","","NaN",""
"","S1","","html-keyboard-response","334","344297","0.0-1.0-479.0","0","0","25759","","null","","","null","53","","","","","","","","","","","","","","","",""
"","ISI","","html-keyboard-response","335","346300","0.0-1.0-480.0","0","0","25759","","null","","","null","53","NaN","","","","","","","","","","","","","","",""
"","S2","","html-keyboard-response","336","346452","0.0-1.0-481.0","0","0","25759","","null","","","null","53","","NaN","","","","","","","","","","","","","",""
"","response","","html-keyboard-response","337","347535","0.0-1.0-482.0-0.0","0","0","25759","","1081","","","75","53","","","2","53","training","adjacent","DE","4","5","M.jpg","P.jpg","1","1","1","",""
"","feedback","","html-keyboard-response","338","348538","0.0-1.0-483.0-0.0","0","0","25759","","null","","","null","53","","","","","","","","","","","","","","","",""
"","ITI","","html-keyboard-response","339","349540","0.0-1.0-486.0","0","0","25759","","null","","","null","53","","","","","","","","","","","","","","","NaN",""
"","S1","","html-keyboard-response","340","349693","0.0-1.0-488.0","0","0","25759","","null","","","null","54","","","","","","","","","","","","","","","",""
"","ISI","","html-keyboard-response","341","351696","0.0-1.0-489.0","0","0","25759","","null","","","null","54","NaN","","","","","","","","","","","","","","",""
"","S2","","html-keyboard-response","342","351849","0.0-1.0-490.0","0","0","25759","","null","","","null","54","","NaN","","","","","","","","","","","","","",""
"","response","","html-keyboard-response","343","352320","0.0-1.0-491.0-0.0","0","0","25759","","471","","","68","54","","","2","54","training","adjacent","BA","2","1","R.jpg","Q.jpg","0","0","1","",""
"","feedback","","html-keyboard-response","344","353323","0.0-1.0-492.0-0.0","0","0","25759","","null","","","null","54","","","","","","","","","","","","","","","",""
"","ITI","","html-keyboard-response","345","354326","0.0-1.0-495.0","0","0","25759","","null","","","null","54","","","","","","","","","","","","","","","NaN",""
"","S1","","html-keyboard-response","346","354479","0.0-1.0-497.0","0","0","25759","","null","","","null","55","","","","","","","","","","","","","","","",""
"","ISI","","html-keyboard-response","347","356481","0.0-1.0-498.0","0","0","25759","","null","","","null","55","NaN","","","","","","","","","","","","","","",""
"","S2","","html-keyboard-response","348","356634","0.0-1.0-499.0","0","0","25759","","null","","","null","55","","NaN","","","","","","","","","","","","","",""
"","response","","html-keyboard-response","349","357742","0.0-1.0-500.0-0.0","0","0","25759","","1107","","","75","55","","","2","55","training","adjacent","CD","3","4","L.jpg","M.jpg","1","1","1","",""
"","feedback","","html-keyboard-response","350","358745","0.0-1.0-501.0-0.0","0","0","25759","","null","","","null","55","","","","","","","","","","","","","","","",""
"","ITI","","html-keyboard-response","351","359748","0.0-1.0-504.0","0","0","25759","","null","","","null","55","","","","","","","","","","","","","","","NaN",""
"","S1","","html-keyboard-response","352","359900","0.0-1.0-506.0","0","0","25759","","null","","","null","56","","","","","","","","","","","","","","","",""
"","ISI","","html-keyboard-response","353","361903","0.0-1.0-507.0","0","0","25759","","null","","","null","56","NaN","","","","","","","","","","","","","","",""
"","S2","","html-keyboard-response","354","362055","0.0-1.0-508.0","0","0","25759","","null","","","null","56","","NaN","","","","","","","","","","","","","",""
"","response","","html-keyboard-response","355","363066","0.0-1.0-509.0-0.0","0","0","25759","","1009","","","68","56","","","2","56","training","adjacent","BA","2","1","R.jpg","Q.jpg","0","0","1","",""
"","feedback","","html-keyboard-response","356","364069","0.0-1.0-510.0-0.0","0","0","25759","","null","","","null","56","","","","","","","","","","","","","","","",""
"","ITI","","html-keyboard-response","357","365072","0.0-1.0-513.0","0","0","25759","","null","","","null","56","","","","","","","","","","","","","","","NaN",""
"","S1","","html-keyboard-response","358","365226","0.0-1.0-515.0","0","0","25759","","null","","","null","57","","","","","","","","","","","","","","","",""
"","ISI","","html-keyboard-response","359","367228","0.0-1.0-516.0","0","0","25759","","null","","","null","57","NaN","","","","","","","","","","","","","","",""
"","S2","","html-keyboard-response","360","367380","0.0-1.0-517.0","0","0","25759","","null","","","null","57","","NaN","","","","","","","","","","","","","",""
"","response","","html-keyboard-response","361","368758","0.0-1.0-518.0-0.0","0","0","25759","","1377","","","75","57","","","2","57","training","adjacent","AB","1","2","Q.jpg","R.jpg","1","1","1","",""
"","feedback","","html-keyboard-response","362","369761","0.0-1.0-519.0-0.0","0","0","25759","","null","","","null","57","","","","","","","","","","","","","","","",""
"","ITI","","html-keyboard-response","363","370764","0.0-1.0-522.0","0","0","25759","","null","","","null","57","","","","","","","","","","","","","","","NaN",""
"","S1","","html-keyboard-response","364","370922","0.0-1.0-524.0","0","0","25759","","null","","","null","58","","","","","","","","","","","","","","","",""
"","ISI","","html-keyboard-response","365","372925","0.0-1.0-525.0","0","0","25759","","null","","","null","58","NaN","","","","","","","","","","","","","","",""
"","S2","","html-keyboard-response","366","373083","0.0-1.0-526.0","0","0","25759","","null","","","null","58","","NaN","","","","","","","","","","","","","",""
"","response","","html-keyboard-response","367","373765","0.0-1.0-527.0-0.0","0","0","25759","","681","","","68","58","","","2","58","training","adjacent","EF","5","6","P.jpg","O.jpg","0","1","0","",""
"","feedback","","html-keyboard-response","368","374768","0.0-1.0-528.0-0.0","0","0","25759","","null","","","null","58","","","","","","","","","","","","","","","",""
"","time_out","","html-keyboard-response","369","376770","0.0-1.0-530.0-0.0","0","0","25759","","null","","","null","58","","","","","","","","","","","","","","","",""
"","ITI","","html-keyboard-response","370","377773","0.0-1.0-531.0","0","0","25759","","null","","","null","58","","","","","","","","","","","","","","","NaN",""
"","S1","","html-keyboard-response","371","377940","0.0-1.0-533.0","0","0","25759","","null","","","null","59","","","","","","","","","","","","","","","",""
"","ISI","","html-keyboard-response","372","379943","0.0-1.0-534.0","0","0","25759","","null","","","null","59","NaN","","","","","","","","","","","","","","",""
"","S2","","html-keyboard-response","373","380097","0.0-1.0-535.0","0","0","25759","","null","","","null","59","","NaN","","","","","","","","","","","","","",""
"","response","","html-keyboard-response","374","381098","0.0-1.0-536.0-0.0","0","0","25759","","1000","","","75","59","","","2","59","training","adjacent","BC","2","3","R.jpg","L.jpg","1","1","1","",""
"","feedback","","html-keyboard-response","375","382101","0.0-1.0-537.0-0.0","0","0","25759","","null","","","null","59","","","","","","","","","","","","","","","",""
"","ITI","","html-keyboard-response","376","383103","0.0-1.0-540.0","0","0","25759","","null","","","null","59","","","","","","","","","","","","","","","NaN",""
"","S1","","html-keyboard-response","377","383256","0.0-1.0-542.0","0","0","25759","","null","","","null","60","","","","","","","","","","","","","","","",""
"","ISI","","html-keyboard-response","378","385258","0.0-1.0-543.0","0","0","25759","","null","","","null","60","NaN","","","","","","","","","","","","","","",""
"","S2","","html-keyboard-response","379","385411","0.0-1.0-544.0","0","0","25759","","null","","","null","60","","NaN","","","","","","","","","","","","","",""
"","response","","html-keyboard-response","380","386086","0.0-1.0-545.0-0.0","0","0","25759","","673","","","68","60","","","2","60","training","adjacent","DC","4","3","M.jpg","L.jpg","0","0","1","",""
"","feedback","","html-keyboard-response","381","387089","0.0-1.0-546.0-0.0","0","0","25759","","null","","","null","60","","","","","","","","","","","","","","","",""
"","ITI","","html-keyboard-response","382","388093","0.0-1.0-549.0","0","0","25759","","null","","","null","60","","","","","","","","","","","","","","","NaN",""
"","S1","","html-keyboard-response","383","388246","0.0-1.0-551.0","0","0","25759","","null","","","null","61","","","","","","","","","","","","","","","",""
"","ISI","","html-keyboard-response","384","390250","0.0-1.0-552.0","0","0","25759","","null","","","null","61","NaN","","","","","","","","","","","","","","",""
"","S2","","html-keyboard-response","385","390403","0.0-1.0-553.0","0","0","25759","","null","","","null","61","","NaN","","","","","","","","","","","","","",""
"","response","","html-keyboard-response","386","390994","0.0-1.0-554.0-0.0","0","0","25759","","589","","","75","61","","","2","61","training","adjacent","EF","5","6","P.jpg","O.jpg","1","1","1","",""
"","feedback","","html-keyboard-response","387","391997","0.0-1.0-555.0-0.0","0","0","25759","","null","","","null","61","","","","","","","","","","","","","","","",""
"","ITI","","html-keyboard-response","388","392999","0.0-1.0-558.0","0","0","25759","","null","","","null","61","","","","","","","","","","","","","","","NaN",""
"","S1","","html-keyboard-response","389","393152","0.0-1.0-560.0","0","0","25759","","null","","","null","62","","","","","","","","","","","","","","","",""
"","ISI","","html-keyboard-response","390","395154","0.0-1.0-561.0","0","0","25759","","null","","","null","62","NaN","","","","","","","","","","","","","","",""
"","S2","","html-keyboard-response","391","395308","0.0-1.0-562.0","0","0","25759","","null","","","null","62","","NaN","","","","","","","","","","","","","",""
"","response","","html-keyboard-response","392","396381","0.0-1.0-563.0-0.0","0","0","25759","","1071","","","75","62","","","2","62","training","adjacent","DE","4","5","M.jpg","P.jpg","1","1","1","",""
"","feedback","","html-keyboard-response","393","397384","0.0-1.0-564.0-0.0","0","0","25759","","null","","","null","62","","","","","","","","","","","","","","","",""
"","ITI","","html-keyboard-response","394","398386","0.0-1.0-567.0","0","0","25759","","null","","","null","62","","","","","","","","","","","","","","","NaN",""
"","S1","","html-keyboard-response","395","398539","0.0-1.0-569.0","0","0","25759","","null","","","null","63","","","","","","","","","","","","","","","",""
"","ISI","","html-keyboard-response","396","400542","0.0-1.0-570.0","0","0","25759","","null","","","null","63","NaN","","","","","","","","","","","","","","",""
"","S2","","html-keyboard-response","397","400694","0.0-1.0-571.0","0","0","25759","","null","","","null","63","","NaN","","","","","","","","","","","","","",""
"","response","","html-keyboard-response","398","401134","0.0-1.0-572.0-0.0","0","0","25759","","438","","","68","63","","","2","63","training","adjacent","GF","7","6","N.jpg","O.jpg","0","0","1","",""
"","feedback","","html-keyboard-response","399","402136","0.0-1.0-573.0-0.0","0","0","25759","","null","","","null","63","","","","","","","","","","","","","","","",""
"","ITI","","html-keyboard-response","400","403139","0.0-1.0-576.0","0","0","25759","","null","","","null","63","","","","","","","","","","","","","","","NaN",""
"","S1","","html-keyboard-response","401","403291","0.0-1.0-578.0","0","0","25759","","null","","","null","64","","","","","","","","","","","","","","","",""
"","ISI","","html-keyboard-response","402","405293","0.0-1.0-579.0","0","0","25759","","null","","","null","64","NaN","","","","","","","","","","","","","","",""
"","S2","","html-keyboard-response","403","405446","0.0-1.0-580.0","0","0","25759","","null","","","null","64","","NaN","","","","","","","","","","","","","",""
"","response","","html-keyboard-response","404","405893","0.0-1.0-581.0-0.0","0","0","25759","","445","","","75","64","","","2","64","training","adjacent","BC","2","3","R.jpg","L.jpg","1","1","1","",""
"","feedback","","html-keyboard-response","405","406896","0.0-1.0-582.0-0.0","0","0","25759","","null","","","null","64","","","","","","","","","","","","","","","",""
"","ITI","","html-keyboard-response","406","407898","0.0-1.0-585.0","0","0","25759","","null","","","null","64","","","","","","","","","","","","","","","NaN",""
"","S1","","html-keyboard-response","407","408051","0.0-1.0-587.0","0","0","25759","","null","","","null","65","","","","","","","","","","","","","","","",""
"","ISI","","html-keyboard-response","408","410052","0.0-1.0-588.0","0","0","25759","","null","","","null","65","NaN","","","","","","","","","","","","","","",""
"","S2","","html-keyboard-response","409","410205","0.0-1.0-589.0","0","0","25759","","null","","","null","65","","NaN","","","","","","","","","","","","","",""
"","response","","html-keyboard-response","410","410778","0.0-1.0-590.0-0.0","0","0","25759","","572","","","68","65","","","2","65","training","adjacent","BA","2","1","R.jpg","Q.jpg","0","0","1","",""
"","feedback","","html-keyboard-response","411","411781","0.0-1.0-591.0-0.0","0","0","25759","","null","","","null","65","","","","","","","","","","","","","","","",""
"","ITI","","html-keyboard-response","412","412783","0.0-1.0-594.0","0","0","25759","","null","","","null","65","","","","","","","","","","","","","","","NaN",""
"","S1","","html-keyboard-response","413","412936","0.0-1.0-596.0","0","0","25759","","null","","","null","66","","","","","","","","","","","","","","","",""
"","ISI","","html-keyboard-response","414","414938","0.0-1.0-597.0","0","0","25759","","null","","","null","66","NaN","","","","","","","","","","","","","","",""
"","S2","","html-keyboard-response","415","415092","0.0-1.0-598.0","0","0","25759","","null","","","null","66","","NaN","","","","","","","","","","","","","",""
"","response","","html-keyboard-response","416","416653","0.0-1.0-599.0-0.0","0","0","25759","","1560","","","68","66","","","2","66","training","adjacent","FE","6","5","O.jpg","P.jpg","0","0","1","",""
"","feedback","","html-keyboard-response","417","417655","0.0-1.0-600.0-0.0","0","0","25759","","null","","","null","66","","","","","","","","","","","","","","","",""
"","ITI","","html-keyboard-response","418","418658","0.0-1.0-603.0","0","0","25759","","null","","","null","66","","","","","","","","","","","","","","","NaN",""
"","S1","","html-keyboard-response","419","418810","0.0-1.0-605.0","0","0","25759","","null","","","null","67","","","","","","","","","","","","","","","",""
"","ISI","","html-keyboard-response","420","420813","0.0-1.0-606.0","0","0","25759","","null","","","null","67","NaN","","","","","","","","","","","","","","",""
"","S2","","html-keyboard-response","421","420966","0.0-1.0-607.0","0","0","25759","","null","","","null","67","","NaN","","","","","","","","","","","","","",""
"","response","","html-keyboard-response","422","421711","0.0-1.0-608.0-0.0","0","0","25759","","744","","","68","67","","","2","67","training","adjacent","FE","6","5","O.jpg","P.jpg","0","0","1","",""
"","feedback","","html-keyboard-response","423","422714","0.0-1.0-609.0-0.0","0","0","25759","","null","","","null","67","","","","","","","","","","","","","","","",""
"","ITI","","html-keyboard-response","424","423717","0.0-1.0-612.0","0","0","25759","","null","","","null","67","","","","","","","","","","","","","","","NaN",""
"","S1","","html-keyboard-response","425","423870","0.0-1.0-614.0","0","0","25759","","null","","","null","68","","","","","","","","","","","","","","","",""
"","ISI","","html-keyboard-response","426","425872","0.0-1.0-615.0","0","0","25759","","null","","","null","68","NaN","","","","","","","","","","","","","","",""
"","S2","","html-keyboard-response","427","426026","0.0-1.0-616.0","0","0","25759","","null","","","null","68","","NaN","","","","","","","","","","","","","",""
"","response","","html-keyboard-response","428","427100","0.0-1.0-617.0-0.0","0","0","25759","","1073","","","75","68","","","2","68","training","adjacent","BC","2","3","R.jpg","L.jpg","1","1","1","",""
"","feedback","","html-keyboard-response","429","428102","0.0-1.0-618.0-0.0","0","0","25759","","null","","","null","68","","","","","","","","","","","","","","","",""
"","ITI","","html-keyboard-response","430","429104","0.0-1.0-621.0","0","0","25759","","null","","","null","68","","","","","","","","","","","","","","","NaN",""
"","S1","","html-keyboard-response","431","429257","0.0-1.0-623.0","0","0","25759","","null","","","null","69","","","","","","","","","","","","","","","",""
"","ISI","","html-keyboard-response","432","431259","0.0-1.0-624.0","0","0","25759","","null","","","null","69","NaN","","","","","","","","","","","","","","",""
"","S2","","html-keyboard-response","433","431412","0.0-1.0-625.0","0","0","25759","","null","","","null","69","","NaN","","","","","","","","","","","","","",""
"","response","","html-keyboard-response","434","431643","0.0-1.0-626.0-0.0","0","0","25759","","230","","","68","69","","","2","69","training","adjacent","GF","7","6","N.jpg","O.jpg","0","0","1","",""
"","feedback","","html-keyboard-response","435","432646","0.0-1.0-627.0-0.0","0","0","25759","","null","","","null","69","","","","","","","","","","","","","","","",""
"","ITI","","html-keyboard-response","436","433648","0.0-1.0-630.0","0","0","25759","","null","","","null","69","","","","","","","","","","","","","","","NaN",""
"","S1","","html-keyboard-response","437","433801","0.0-1.0-632.0","0","0","25759","","null","","","null","70","","","","","","","","","","","","","","","",""
"","ISI","","html-keyboard-response","438","435804","0.0-1.0-633.0","0","0","25759","","null","","","null","70","NaN","","","","","","","","","","","","","","",""
"","S2","","html-keyboard-response","439","435956","0.0-1.0-634.0","0","0","25759","","null","","","null","70","","NaN","","","","","","","","","","","","","",""
"","response","","html-keyboard-response","440","437186","0.0-1.0-635.0-0.0","0","0","25759","","1229","","","75","70","","","2","70","training","adjacent","CD","3","4","L.jpg","M.jpg","1","1","1","",""
"","feedback","","html-keyboard-response","441","438189","0.0-1.0-636.0-0.0","0","0","25759","","null","","","null","70","","","","","","","","","","","","","","","",""
"","ITI","","html-keyboard-response","442","439192","0.0-1.0-639.0","0","0","25759","","null","","","null","70","","","","","","","","","","","","","","","NaN",""
"","S1","","html-keyboard-response","443","439344","0.0-1.0-641.0","0","0","25759","","null","","","null","71","","","","","","","","","","","","","","","",""
"","ISI","","html-keyboard-response","444","441347","0.0-1.0-642.0","0","0","25759","","null","","","null","71","NaN","","","","","","","","","","","","","","",""
"","S2","","html-keyboard-response","445","441500","0.0-1.0-643.0","0","0","25759","","null","","","null","71","","NaN","","","","","","","","","","","","","",""
"","response","","html-keyboard-response","446","441943","0.0-1.0-644.0-0.0","0","0","25759","","442","","","68","71","","","2","71","training","adjacent","ED","5","4","P.jpg","M.jpg","0","0","1","",""
"","feedback","","html-keyboard-response","447","442946","0.0-1.0-645.0-0.0","0","0","25759","","null","","","null","71","","","","","","","","","","","","","","","",""
"","ITI","","html-keyboard-response","448","443950","0.0-1.0-648.0","0","0","25759","","null","","","null","71","","","","","","","","","","","","","","","NaN",""
"","S1","","html-keyboard-response","449","444104","0.0-1.0-650.0","0","0","25759","","null","","","null","72","","","","","","","","","","","","","","","",""
"","ISI","","html-keyboard-response","450","446107","0.0-1.0-651.0","0","0","25759","","null","","","null","72","NaN","","","","","","","","","","","","","","",""
"","S2","","html-keyboard-response","451","446259","0.0-1.0-652.0","0","0","25759","","null","","","null","72","","NaN","","","","","","","","","","","","","",""
"","response","","html-keyboard-response","452","446817","0.0-1.0-653.0-0.0","0","0","25759","","557","","","68","72","","","2","72","training","adjacent","CB","3","2","L.jpg","R.jpg","0","0","1","",""
"","feedback","","html-keyboard-response","453","447819","0.0-1.0-654.0-0.0","0","0","25759","","null","","","null","72","","","","","","","","","","","","","","","",""
"","ITI","","html-keyboard-response","454","448821","0.0-1.0-657.0","0","0","25759","","null","","","null","72","","","","","","","","","","","","","","","NaN",""
"","S1","","html-keyboard-response","455","448975","0.0-1.0-659.0","0","0","25759","","null","","","null","73","","","","","","","","","","","","","","","",""
"","ISI","","html-keyboard-response","456","450977","0.0-1.0-660.0","0","0","25759","","null","","","null","73","NaN","","","","","","","","","","","","","","",""
"","S2","","html-keyboard-response","457","451131","0.0-1.0-661.0","0","0","25759","","null","","","null","73","","NaN","","","","","","","","","","","","","",""
"","response","","html-keyboard-response","458","451692","0.0-1.0-662.0-0.0","0","0","25759","","560","","","68","73","","","2","73","training","adjacent","ED","5","4","P.jpg","M.jpg","0","0","1","",""
"","feedback","","html-keyboard-response","459","452694","0.0-1.0-663.0-0.0","0","0","25759","","null","","","null","73","","","","","","","","","","","","","","","",""
"","ITI","","html-keyboard-response","460","453695","0.0-1.0-666.0","0","0","25759","","null","","","null","73","","","","","","","","","","","","","","","NaN",""
"","S1","","html-keyboard-response","461","453848","0.0-1.0-668.0","0","0","25759","","null","","","null","74","","","","","","","","","","","","","","","",""
"","ISI","","html-keyboard-response","462","455851","0.0-1.0-669.0","0","0","25759","","null","","","null","74","NaN","","","","","","","","","","","","","","",""
"","S2","","html-keyboard-response","463","456003","0.0-1.0-670.0","0","0","25759","","null","","","null","74","","NaN","","","","","","","","","","","","","",""
"","response","","html-keyboard-response","464","456088","0.0-1.0-671.0-0.0","0","0","25759","","83","","","68","74","","","2","74","training","adjacent","GF","7","6","N.jpg","O.jpg","0","0","1","",""
"","feedback","","html-keyboard-response","465","457091","0.0-1.0-672.0-0.0","0","0","25759","","null","","","null","74","","","","","","","","","","","","","","","",""
"","ITI","","html-keyboard-response","466","458095","0.0-1.0-675.0","0","0","25759","","null","","","null","74","","","","","","","","","","","","","","","NaN",""
"","S1","","html-keyboard-response","467","458248","0.0-1.0-677.0","0","0","25759","","null","","","null","75","","","","","","","","","","","","","","","",""
"","ISI","","html-keyboard-response","468","460250","0.0-1.0-678.0","0","0","25759","","null","","","null","75","NaN","","","","","","","","","","","","","","",""
"","S2","","html-keyboard-response","469","460404","0.0-1.0-679.0","0","0","25759","","null","","","null","75","","NaN","","","","","","","","","","","","","",""
"","response","","html-keyboard-response","470","460912","0.0-1.0-680.0-0.0","0","0","25759","","507","","","75","75","","","2","75","training","adjacent","FG","6","7","O.jpg","N.jpg","1","1","1","",""
"","feedback","","html-keyboard-response","471","461914","0.0-1.0-681.0-0.0","0","0","25759","","null","","","null","75","","","","","","","","","","","","","","","",""
"","ITI","","html-keyboard-response","472","462917","0.0-1.0-684.0","0","0","25759","","null","","","null","75","","","","","","","","","","","","","","","NaN",""
"","S1","","html-keyboard-response","473","463070","0.0-1.0-686.0","0","0","25759","","null","","","null","76","","","","","","","","","","","","","","","",""
"","ISI","","html-keyboard-response","474","465073","0.0-1.0-687.0","0","0","25759","","null","","","null","76","NaN","","","","","","","","","","","","","","",""
"","S2","","html-keyboard-response","475","465226","0.0-1.0-688.0","0","0","25759","","null","","","null","76","","NaN","","","","","","","","","","","","","",""
"","response","","html-keyboard-response","476","466450","0.0-1.0-689.0-0.0","0","0","25759","","1222","","","75","76","","","2","76","training","adjacent","DE","4","5","M.jpg","P.jpg","1","1","1","",""
"","feedback","","html-keyboard-response","477","467457","0.0-1.0-690.0-0.0","0","0","25759","","null","","","null","76","","","","","","","","","","","","","","","",""
"","ITI","","html-keyboard-response","478","468459","0.0-1.0-693.0","0","0","25759","","null","","","null","76","","","","","","","","","","","","","","","NaN",""
"","S1","","html-keyboard-response","479","468613","0.0-1.0-695.0","0","0","25759","","null","","","null","77","","","","","","","","","","","","","","","",""
"","ISI","","html-keyboard-response","480","470615","0.0-1.0-696.0","0","0","25759","","null","","","null","77","NaN","","","","","","","","","","","","","","",""
"","S2","","html-keyboard-response","481","470768","0.0-1.0-697.0","0","0","25759","","null","","","null","77","","NaN","","","","","","","","","","","","","",""
"","response","","html-keyboard-response","482","471798","0.0-1.0-698.0-0.0","0","0","25759","","1028","","","68","77","","","2","77","training","adjacent","BA","2","1","R.jpg","Q.jpg","0","0","1","",""
"","feedback","","html-keyboard-response","483","472801","0.0-1.0-699.0-0.0","0","0","25759","","null","","","null","77","","","","","","","","","","","","","","","",""
"","ITI","","html-keyboard-response","484","473803","0.0-1.0-702.0","0","0","25759","","null","","","null","77","","","","","","","","","","","","","","","NaN",""
"","S1","","html-keyboard-response","485","473962","0.0-1.0-704.0","0","0","25759","","null","","","null","78","","","","","","","","","","","","","","","",""
"","ISI","","html-keyboard-response","486","475965","0.0-1.0-705.0","0","0","25759","","null","","","null","78","NaN","","","","","","","","","","","","","","",""
"","S2","","html-keyboard-response","487","476123","0.0-1.0-706.0","0","0","25759","","null","","","null","78","","NaN","","","","","","","","","","","","","",""
"","response","","html-keyboard-response","488","476936","0.0-1.0-707.0-0.0","0","0","25759","","811","","","68","78","","","2","78","training","adjacent","CB","3","2","L.jpg","R.jpg","0","0","1","",""
"","feedback","","html-keyboard-response","489","477940","0.0-1.0-708.0-0.0","0","0","25759","","null","","","null","78","","","","","","","","","","","","","","","",""
"","ITI","","html-keyboard-response","490","478942","0.0-1.0-711.0","0","0","25759","","null","","","null","78","","","","","","","","","","","","","","","NaN",""
"","S1","","html-keyboard-response","491","479095","0.0-1.0-713.0","0","0","25759","","null","","","null","79","","","","","","","","","","","","","","","",""
"","ISI","","html-keyboard-response","492","481098","0.0-1.0-714.0","0","0","25759","","null","","","null","79","NaN","","","","","","","","","","","","","","",""
"","S2","","html-keyboard-response","493","481250","0.0-1.0-715.0","0","0","25759","","null","","","null","79","","NaN","","","","","","","","","","","","","",""
"","response","","html-keyboard-response","494","482080","0.0-1.0-716.0-0.0","0","0","25759","","828","","","68","79","","","2","79","training","adjacent","ED","5","4","P.jpg","M.jpg","0","0","1","",""
"","feedback","","html-keyboard-response","495","483081","0.0-1.0-717.0-0.0","0","0","25759","","null","","","null","79","","","","","","","","","","","","","","","",""
"","ITI","","html-keyboard-response","496","484084","0.0-1.0-720.0","0","0","25759","","null","","","null","79","","","","","","","","","","","","","","","NaN",""
"","S1","","html-keyboard-response","497","484237","0.0-1.0-722.0","0","0","25759","","null","","","null","80","","","","","","","","","","","","","","","",""
"","ISI","","html-keyboard-response","498","486239","0.0-1.0-723.0","0","0","25759","","null","","","null","80","NaN","","","","","","","","","","","","","","",""
"","S2","","html-keyboard-response","499","486392","0.0-1.0-724.0","0","0","25759","","null","","","null","80","","NaN","","","","","","","","","","","","","",""
"","response","","html-keyboard-response","500","486499","0.0-1.0-725.0-0.0","0","0","25759","","106","","","75","80","","","2","80","training","adjacent","AB","1","2","Q.jpg","R.jpg","1","1","1","",""
"","feedback","","html-keyboard-response","501","487502","0.0-1.0-726.0-0.0","0","0","25759","","null","","","null","80","","","","","","","","","","","","","","","",""
"","ITI","","html-keyboard-response","502","488504","0.0-1.0-729.0","0","0","25759","","null","","","null","80","","","","","","","","","","","","","","","NaN",""
"","S1","","html-keyboard-response","503","488657","0.0-1.0-731.0","0","0","25759","","null","","","null","81","","","","","","","","","","","","","","","",""
"","ISI","","html-keyboard-response","504","490660","0.0-1.0-732.0","0","0","25759","","null","","","null","81","NaN","","","","","","","","","","","","","","",""
"","S2","","html-keyboard-response","505","490812","0.0-1.0-733.0","0","0","25759","","null","","","null","81","","NaN","","","","","","","","","","","","","",""
"","response","","html-keyboard-response","506","491872","0.0-1.0-734.0-0.0","0","0","25759","","1058","","","68","81","","","2","81","training","adjacent","FG","6","7","O.jpg","N.jpg","0","1","0","",""
"","feedback","","html-keyboard-response","507","492875","0.0-1.0-735.0-0.0","0","0","25759","","null","","","null","81","","","","","","","","","","","","","","","",""
"","time_out","","html-keyboard-response","508","494877","0.0-1.0-737.0-0.0","0","0","25759","","null","","","null","81","","","","","","","","","","","","","","","",""
"","ITI","","html-keyboard-response","509","495881","0.0-1.0-738.0","0","0","25759","","null","","","null","81","","","","","","","","","","","","","","","NaN",""
"","S1","","html-keyboard-response","510","496033","0.0-1.0-740.0","0","0","25759","","null","","","null","82","","","","","","","","","","","","","","","",""
"","ISI","","html-keyboard-response","511","498036","0.0-1.0-741.0","0","0","25759","","null","","","null","82","NaN","","","","","","","","","","","","","","",""
"","S2","","html-keyboard-response","512","498188","0.0-1.0-742.0","0","0","25759","","null","","","null","82","","NaN","","","","","","","","","","","","","",""
"","response","","html-keyboard-response","513","499320","0.0-1.0-743.0-0.0","0","0","25759","","1130","","","68","82","","","2","82","training","adjacent","DC","4","3","M.jpg","L.jpg","0","0","1","",""
"","feedback","","html-keyboard-response","514","500323","0.0-1.0-744.0-0.0","0","0","25759","","null","","","null","82","","","","","","","","","","","","","","","",""
"","ITI","","html-keyboard-response","515","501325","0.0-1.0-747.0","0","0","25759","","null","","","null","82","","","","","","","","","","","","","","","NaN",""
"","S1","","html-keyboard-response","516","501478","0.0-1.0-749.0","0","0","25759","","null","","","null","83","","","","","","","","","","","","","","","",""
"","ISI","","html-keyboard-response","517","503481","0.0-1.0-750.0","0","0","25759","","null","","","null","83","NaN","","","","","","","","","","","","","","",""
"","S2","","html-keyboard-response","518","503634","0.0-1.0-751.0","0","0","25759","","null","","","null","83","","NaN","","","","","","","","","","","","","",""
"","response","","html-keyboard-response","519","504713","0.0-1.0-752.0-0.0","0","0","25759","","1078","","","75","83","","","2","83","training","adjacent","FG","6","7","O.jpg","N.jpg","1","1","1","",""
"","feedback","","html-keyboard-response","520","505716","0.0-1.0-753.0-0.0","0","0","25759","","null","","","null","83","","","","","","","","","","","","","","","",""
"","ITI","","html-keyboard-response","521","506719","0.0-1.0-756.0","0","0","25759","","null","","","null","83","","","","","","","","","","","","","","","NaN",""
"","S1","","html-keyboard-response","522","506873","0.0-1.0-758.0","0","0","25759","","null","","","null","84","","","","","","","","","","","","","","","",""
"","ISI","","html-keyboard-response","523","508875","0.0-1.0-759.0","0","0","25759","","null","","","null","84","NaN","","","","","","","","","","","","","","",""
"","S2","","html-keyboard-response","524","509027","0.0-1.0-760.0","0","0","25759","","null","","","null","84","","NaN","","","","","","","","","","","","","",""
"","response","","html-keyboard-response","525","509507","0.0-1.0-761.0-0.0","0","0","25759","","478","","","75","84","","","2","84","training","adjacent","DE","4","5","M.jpg","P.jpg","1","1","1","",""
"","feedback","","html-keyboard-response","526","510510","0.0-1.0-762.0-0.0","0","0","25759","","null","","","null","84","","","","","","","","","","","","","","","",""
"","ITI","","html-keyboard-response","527","511512","0.0-1.0-765.0","0","0","25759","","null","","","null","84","","","","","","","","","","","","","","","NaN",""
"","S1","","html-keyboard-response","528","511665","0.0-1.0-767.0","0","0","25759","","null","","","null","85","","","","","","","","","","","","","","","",""
"","ISI","","html-keyboard-response","529","513667","0.0-1.0-768.0","0","0","25759","","null","","","null","85","NaN","","","","","","","","","","","","","","",""
"","S2","","html-keyboard-response","530","513820","0.0-1.0-769.0","0","0","25759","","null","","","null","85","","NaN","","","","","","","","","","","","","",""
"","response","","html-keyboard-response","531","514076","0.0-1.0-770.0-0.0","0","0","25759","","255","","","75","85","","","2","85","training","adjacent","BC","2","3","R.jpg","L.jpg","1","1","1","",""
"","feedback","","html-keyboard-response","532","515079","0.0-1.0-771.0-0.0","0","0","25759","","null","","","null","85","","","","","","","","","","","","","","","",""
"","ITI","","html-keyboard-response","533","516082","0.0-1.0-774.0","0","0","25759","","null","","","null","85","","","","","","","","","","","","","","","NaN",""
"","S1","","html-keyboard-response","534","516236","0.0-1.0-776.0","0","0","25759","","null","","","null","86","","","","","","","","","","","","","","","",""
"","ISI","","html-keyboard-response","535","518238","0.0-1.0-777.0","0","0","25759","","null","","","null","86","NaN","","","","","","","","","","","","","","",""
"","S2","","html-keyboard-response","536","518390","0.0-1.0-778.0","0","0","25759","","null","","","null","86","","NaN","","","","","","","","","","","","","",""
"","response","","html-keyboard-response","537","519136","0.0-1.0-779.0-0.0","0","0","25759","","744","","","75","86","","","2","86","training","adjacent","EF","5","6","P.jpg","O.jpg","1","1","1","",""
"","feedback","","html-keyboard-response","538","520139","0.0-1.0-780.0-0.0","0","0","25759","","null","","","null","86","","","","","","","","","","","","","","","",""
"","ITI","","html-keyboard-response","539","521142","0.0-1.0-783.0","0","0","25759","","null","","","null","86","","","","","","","","","","","","","","","NaN",""
"","S1","","html-keyboard-response","540","521296","0.0-1.0-785.0","0","0","25759","","null","","","null","87","","","","","","","","","","","","","","","",""
"","ISI","","html-keyboard-response","541","523298","0.0-1.0-786.0","0","0","25759","","null","","","null","87","NaN","","","","","","","","","","","","","","",""
"","S2","","html-keyboard-response","542","523452","0.0-1.0-787.0","0","0","25759","","null","","","null","87","","NaN","","","","","","","","","","","","","",""
"","response","","html-keyboard-response","543","523942","0.0-1.0-788.0-0.0","0","0","25759","","489","","","68","87","","","2","87","training","adjacent","FE","6","5","O.jpg","P.jpg","0","0","1","",""
"","feedback","","html-keyboard-response","544","524945","0.0-1.0-789.0-0.0","0","0","25759","","null","","","null","87","","","","","","","","","","","","","","","",""
"","ITI","","html-keyboard-response","545","525947","0.0-1.0-792.0","0","0","25759","","null","","","null","87","","","","","","","","","","","","","","","NaN",""
"","S1","","html-keyboard-response","546","526100","0.0-1.0-794.0","0","0","25759","","null","","","null","88","","","","","","","","","","","","","","","",""
"","ISI","","html-keyboard-response","547","528103","0.0-1.0-795.0","0","0","25759","","null","","","null","88","NaN","","","","","","","","","","","","","","",""
"","S2","","html-keyboard-response","548","528256","0.0-1.0-796.0","0","0","25759","","null","","","null","88","","NaN","","","","","","","","","","","","","",""
"","response","","html-keyboard-response","549","529766","0.0-1.0-797.0-0.0","0","0","25759","","1509","","","68","88","","","2","88","training","adjacent","DC","4","3","M.jpg","L.jpg","0","0","1","",""
"","feedback","","html-keyboard-response","550","530769","0.0-1.0-798.0-0.0","0","0","25759","","null","","","null","88","","","","","","","","","","","","","","","",""
"","ITI","","html-keyboard-response","551","531772","0.0-1.0-801.0","0","0","25759","","null","","","null","88","","","","","","","","","","","","","","","NaN",""
"","S1","","html-keyboard-response","552","531925","0.0-1.0-803.0","0","0","25759","","null","","","null","89","","","","","","","","","","","","","","","",""
"","ISI","","html-keyboard-response","553","533927","0.0-1.0-804.0","0","0","25759","","null","","","null","89","NaN","","","","","","","","","","","","","","",""
"","S2","","html-keyboard-response","554","534080","0.0-1.0-805.0","0","0","25759","","null","","","null","89","","NaN","","","","","","","","","","","","","",""
"","response","","html-keyboard-response","555","534516","0.0-1.0-806.0-0.0","0","0","25759","","435","","","68","89","","","2","89","training","adjacent","ED","5","4","P.jpg","M.jpg","0","0","1","",""
"","feedback","","html-keyboard-response","556","535519","0.0-1.0-807.0-0.0","0","0","25759","","null","","","null","89","","","","","","","","","","","","","","","",""
"","ITI","","html-keyboard-response","557","536521","0.0-1.0-810.0","0","0","25759","","null","","","null","89","","","","","","","","","","","","","","","NaN",""
"","S1","","html-keyboard-response","558","536674","0.0-1.0-812.0","0","0","25759","","null","","","null","90","","","","","","","","","","","","","","","",""
"","ISI","","html-keyboard-response","559","538676","0.0-1.0-813.0","0","0","25759","","null","","","null","90","NaN","","","","","","","","","","","","","","",""
"","S2","","html-keyboard-response","560","538829","0.0-1.0-814.0","0","0","25759","","null","","","null","90","","NaN","","","","","","","","","","","","","",""
"","response","","html-keyboard-response","561","539541","0.0-1.0-815.0-0.0","0","0","25759","","711","","","68","90","","","2","90","training","adjacent","DC","4","3","M.jpg","L.jpg","0","0","1","",""
"","feedback","","html-keyboard-response","562","540544","0.0-1.0-816.0-0.0","0","0","25759","","null","","","null","90","","","","","","","","","","","","","","","",""
"","ITI","","html-keyboard-response","563","541547","0.0-1.0-819.0","0","0","25759","","null","","","null","90","","","","","","","","","","","","","","","NaN",""
"","S1","","html-keyboard-response","564","541700","0.0-1.0-821.0","0","0","25759","","null","","","null","91","","","","","","","","","","","","","","","",""
"","ISI","","html-keyboard-response","565","543703","0.0-1.0-822.0","0","0","25759","","null","","","null","91","NaN","","","","","","","","","","","","","","",""
"","S2","","html-keyboard-response","566","543855","0.0-1.0-823.0","0","0","25759","","null","","","null","91","","NaN","","","","","","","","","","","","","",""
"","response","","html-keyboard-response","567","544808","0.0-1.0-824.0-0.0","0","0","25759","","951","","","68","91","","","2","91","training","adjacent","CB","3","2","L.jpg","R.jpg","0","0","1","",""
"","feedback","","html-keyboard-response","568","545811","0.0-1.0-825.0-0.0","0","0","25759","","null","","","null","91","","","","","","","","","","","","","","","",""
"","ITI","","html-keyboard-response","569","546814","0.0-1.0-828.0","0","0","25759","","null","","","null","91","","","","","","","","","","","","","","","NaN",""
"","S1","","html-keyboard-response","570","546966","0.0-1.0-830.0","0","0","25759","","null","","","null","92","","","","","","","","","","","","","","","",""
"","ISI","","html-keyboard-response","571","548968","0.0-1.0-831.0","0","0","25759","","null","","","null","92","NaN","","","","","","","","","","","","","","",""
"","S2","","html-keyboard-response","572","549122","0.0-1.0-832.0","0","0","25759","","null","","","null","92","","NaN","","","","","","","","","","","","","",""
"","response","","html-keyboard-response","573","550364","0.0-1.0-833.0-0.0","0","0","25759","","1241","","","75","92","","","2","92","training","adjacent","FG","6","7","O.jpg","N.jpg","1","1","1","",""
"","feedback","","html-keyboard-response","574","551366","0.0-1.0-834.0-0.0","0","0","25759","","null","","","null","92","","","","","","","","","","","","","","","",""
"","ITI","","html-keyboard-response","575","552369","0.0-1.0-837.0","0","0","25759","","null","","","null","92","","","","","","","","","","","","","","","NaN",""
"","S1","","html-keyboard-response","576","552523","0.0-1.0-839.0","0","0","25759","","null","","","null","93","","","","","","","","","","","","","","","",""
"","ISI","","html-keyboard-response","577","554525","0.0-1.0-840.0","0","0","25759","","null","","","null","93","NaN","","","","","","","","","","","","","","",""
"","S2","","html-keyboard-response","578","554678","0.0-1.0-841.0","0","0","25759","","null","","","null","93","","NaN","","","","","","","","","","","","","",""
"","response","","html-keyboard-response","579","555449","0.0-1.0-842.0-0.0","0","0","25759","","770","","","75","93","","","2","93","training","adjacent","EF","5","6","P.jpg","O.jpg","1","1","1","",""
"","feedback","","html-keyboard-response","580","556451","0.0-1.0-843.0-0.0","0","0","25759","","null","","","null","93","","","","","","","","","","","","","","","",""
"","ITI","","html-keyboard-response","581","557454","0.0-1.0-846.0","0","0","25759","","null","","","null","93","","","","","","","","","","","","","","","NaN",""
"","S1","","html-keyboard-response","582","557607","0.0-1.0-848.0","0","0","25759","","null","","","null","94","","","","","","","","","","","","","","","",""
