"success","ttype","start_time","trial_type","trial_index","time_elapsed","internal_node_id","warning","missed_checkup","PID","view_history","rt","responses","repeat_instructions","key_press","index","keypress_isi","keypress_S2","block","trial_num","phase","group_type","pair_type","S1_stim","S2_stim","S1_img","S2_img","S1_chosen","S1_higher","accuracy","keypress_iti","total_bonus_tally"
"true","full_screen","d04132023hr1356","fullscreen","0","2767","0.0-0.0","0","0","46975","","","","","","","","","","","","","","","","","","","","","",""
"","instructions","","instructions","1","35791","0.0-1.0-0.0-0.0","0","0","46975","[{""page_index"":0,""viewing_time"":6649},{""page_index"":1,""viewing_time"":16732},{""page_index"":2,""viewing_time"":6100},{""page_index"":3,""viewing_time"":3540}]","33022","","","","","","","","","","","","","","","","","","","",""
"","comprehension_check","","survey-multi-choice","2","82813","0.0-1.0-0.0-1.0","0","0","46975","","47017","{""Q0"":""True"",""Q1"":""D"",""Q2"":""Once the second image appears and while the screen 'MAKE A CHOICE' is shown"",""Q3"":""Green mark"",""Q4"":""either D or K""}","1","","","","","","","","","","","","","","","","","",""
"","missed_instruction_checkup","","html-keyboard-response","3","85476","0.0-1.0-0.0-2.0-0.0","0","1","46975","","2658","","","32","","","","","","","","","","","","","","","","",""
"","instructions","","instructions","4","118554","0.0-1.0-0.1-0.1","0","0","46975","[{""page_index"":0,""viewing_time"":5381},{""page_index"":1,""viewing_time"":14670},{""page_index"":2,""viewing_time"":10971},{""page_index"":3,""viewing_time"":2051}]","33073","","","","","","","","","","","","","","","","","","","",""
"","comprehension_check","","survey-multi-choice","5","139103","0.0-1.0-0.1-1.1","0","0","46975","","20543","{""Q0"":""True"",""Q1"":""K"",""Q2"":""Once the second image appears and while the screen 'MAKE A CHOICE' is shown"",""Q3"":""Green mark"",""Q4"":""either D or K""}","0","","","","","","","","","","","","","","","","","",""
"","start_exp","","html-keyboard-response","6","141938","0.0-1.0-1.0","0","0","46975","","2832","","","32","","","","","","","","","","","","","","","","",""
"","S1","","html-keyboard-response","7","142193","0.0-1.0-2.0","0","0","46975","","null","","","null","0","","","","","","","","","","","","","","","",""
"","ISI","","html-keyboard-response","8","143202","0.0-1.0-3.0","0","0","46975","","null","","","null","0","NaN","","","","","","","","","","","","","","",""
"","S2","","html-keyboard-response","9","143456","0.0-1.0-4.0","0","0","46975","","null","","","null","0","","NaN","","","","","","","","","","","","","",""
"","response","","html-keyboard-response","10","145001","0.0-1.0-5.0-0.0","0","0","46975","","1541","","","68","0","","","1","0","training","adjacent","DE","4","5","R.jpg","N.jpg","0","1","0","",""
"","feedback","","html-keyboard-response","11","146004","0.0-1.0-6.0-0.0","0","0","46975","","null","","","null","0","","","","","","","","","","","","","","","",""
"","time_out","","html-keyboard-response","12","148008","0.0-1.0-8.0-0.0","0","0","46975","","null","","","null","0","","","","","","","","","","","","","","","",""
"","ITI","","html-keyboard-response","13","149011","0.0-1.0-9.0","0","0","46975","","null","","","null","0","","","","","","","","","","","","","","","NaN",""
"","S1","","html-keyboard-response","14","149266","0.0-1.0-11.0","0","0","46975","","null","","","null","1","","","","","","","","","","","","","","","",""
"","ISI","","html-keyboard-response","15","150270","0.0-1.0-12.0","0","0","46975","","null","","","null","1","NaN","","","","","","","","","","","","","","",""
"","S2","","html-keyboard-response","16","150523","0.0-1.0-13.0","0","0","46975","","null","","","null","1","","NaN","","","","","","","","","","","","","",""
"","response","","html-keyboard-response","17","151448","0.0-1.0-14.0-0.0","0","0","46975","","922","","","75","1","","","1","1","training","adjacent","DC","4","3","R.jpg","Q.jpg","1","0","0","",""
"","feedback","","html-keyboard-response","18","152453","0.0-1.0-15.0-0.0","0","0","46975","","null","","","null","1","","","","","","","","","","","","","","","",""
"","time_out","","html-keyboard-response","19","154455","0.0-1.0-17.0-0.0","0","0","46975","","null","","","null","1","","","","","","","","","","","","","","","",""
"","ITI","","html-keyboard-response","20","155458","0.0-1.0-18.0","0","0","46975","","null","","","null","1","","","","","","","","","","","","","","","NaN",""
"","S1","","html-keyboard-response","21","155710","0.0-1.0-20.0","0","0","46975","","null","","","null","2","","","","","","","","","","","","","","","",""
"","ISI","","html-keyboard-response","22","156714","0.0-1.0-21.0","0","0","46975","","null","","","null","2","NaN","","","","","","","","","","","","","","",""
"","S2","","html-keyboard-response","23","156969","0.0-1.0-22.0","0","0","46975","","null","","","null","2","","NaN","","","","","","","","","","","","","",""
"","response","","html-keyboard-response","24","157593","0.0-1.0-23.0-0.0","0","0","46975","","622","","","68","2","","","1","2","training","adjacent","FG","6","7","O.jpg","P.jpg","0","1","0","",""
"","feedback","","html-keyboard-response","25","158596","0.0-1.0-24.0-0.0","0","0","46975","","null","","","null","2","","","","","","","","","","","","","","","",""
"","time_out","","html-keyboard-response","26","160598","0.0-1.0-26.0-0.0","0","0","46975","","null","","","null","2","","","","","","","","","","","","","","","",""
"","ITI","","html-keyboard-response","27","161601","0.0-1.0-27.0","0","0","46975","","null","","","null","2","","","","","","","","","","","","","","","NaN",""
"","S1","","html-keyboard-response","28","161853","0.0-1.0-29.0","0","0","46975","","null","","","null","3","","","","","","","","","","","","","","","",""
"","ISI","","html-keyboard-response","29","162856","0.0-1.0-30.0","0","0","46975","","null","","","null","3","NaN","","","","","","","","","","","","","","",""
"","S2","","html-keyboard-response","30","163109","0.0-1.0-31.0","0","0","46975","","null","","","null","3","","NaN","","","","","","","","","","","","","",""
"","response","","html-keyboard-response","31","164020","0.0-1.0-32.0-0.0","0","0","46975","","908","","","75","3","","","1","3","training","adjacent","ED","5","4","N.jpg","R.jpg","1","0","0","",""
"","feedback","","html-keyboard-response","32","165025","0.0-1.0-33.0-0.0","0","0","46975","","null","","","null","3","","","","","","","","","","","","","","","",""
"","time_out","","html-keyboard-response","33","167027","0.0-1.0-35.0-0.0","0","0","46975","","null","","","null","3","","","","","","","","","","","","","","","",""
"","ITI","","html-keyboard-response","34","168030","0.0-1.0-36.0","0","0","46975","","null","","","null","3","","","","","","","","","","","","","","","NaN",""
"","S1","","html-keyboard-response","35","168283","0.0-1.0-38.0","0","0","46975","","null","","","null","4","","","","","","","","","","","","","","","",""
"","ISI","","html-keyboard-response","36","169288","0.0-1.0-39.0","0","0","46975","","null","","","null","4","NaN","","","","","","","","","","","","","","",""
"","S2","","html-keyboard-response","37","169542","0.0-1.0-40.0","0","0","46975","","null","","","null","4","","NaN","","","","","","","","","","","","","",""
"","response","","html-keyboard-response","38","170714","0.0-1.0-41.0-0.0","0","0","46975","","1171","","","68","4","","","1","4","training","adjacent","CD","3","4","Q.jpg","R.jpg","0","1","0","",""
"","feedback","","html-keyboard-response","39","171718","0.0-1.0-42.0-0.0","0","0","46975","","null","","","null","4","","","","","","","","","","","","","","","",""
"","time_out","","html-keyboard-response","40","173719","0.0-1.0-44.0-0.0","0","0","46975","","null","","","null","4","","","","","","","","","","","","","","","",""
"","ITI","","html-keyboard-response","41","174722","0.0-1.0-45.0","0","0","46975","","null","","","null","4","","","","","","","","","","","","","","","NaN",""
"","S1","","html-keyboard-response","42","174974","0.0-1.0-47.0","0","0","46975","","null","","","null","5","","","","","","","","","","","","","","","",""
"","ISI","","html-keyboard-response","43","175977","0.0-1.0-48.0","0","0","46975","","null","","","null","5","NaN","","","","","","","","","","","","","","",""
"","S2","","html-keyboard-response","44","176230","0.0-1.0-49.0","0","0","46975","","null","","","null","5","","NaN","","","","","","","","","","","","","",""
"","response","","html-keyboard-response","45","177373","0.0-1.0-50.0-0.0","0","0","46975","","1141","","","68","5","","","1","5","training","adjacent","DE","4","5","R.jpg","N.jpg","0","1","0","",""
"","feedback","","html-keyboard-response","46","178381","0.0-1.0-51.0-0.0","0","0","46975","","null","","","null","5","","","","","","","","","","","","","","","",""
"","time_out","","html-keyboard-response","47","180384","0.0-1.0-53.0-0.0","0","0","46975","","null","","","null","5","","","","","","","","","","","","","","","",""
"","ITI","","html-keyboard-response","48","181388","0.0-1.0-54.0","0","0","46975","","null","","","null","5","","","","","","","","","","","","","","","NaN",""
"","S1","","html-keyboard-response","49","181644","0.0-1.0-56.0","0","0","46975","","null","","","null","6","","","","","","","","","","","","","","","",""
"","ISI","","html-keyboard-response","50","182649","0.0-1.0-57.0","0","0","46975","","null","","","null","6","NaN","","","","","","","","","","","","","","",""
"","S2","","html-keyboard-response","51","182903","0.0-1.0-58.0","0","0","46975","","null","","","null","6","","NaN","","","","","","","","","","","","","",""
"","response","","html-keyboard-response","52","183415","0.0-1.0-59.0-0.0","0","0","46975","","510","","","75","6","","","1","6","training","adjacent","EF","5","6","N.jpg","O.jpg","1","1","1","",""
"","feedback","","html-keyboard-response","53","184422","0.0-1.0-60.0-0.0","0","0","46975","","null","","","null","6","","","","","","","","","","","","","","","",""
"","ITI","","html-keyboard-response","54","185425","0.0-1.0-63.0","0","0","46975","","null","","","null","6","","","","","","","","","","","","","","","NaN",""
"","S1","","html-keyboard-response","55","185678","0.0-1.0-65.0","0","0","46975","","null","","","null","7","","","","","","","","","","","","","","","",""
"","ISI","","html-keyboard-response","56","186682","0.0-1.0-66.0","0","0","46975","","null","","","null","7","NaN","","","","","","","","","","","","","","",""
"","S2","","html-keyboard-response","57","186936","0.0-1.0-67.0","0","0","46975","","null","","","null","7","","NaN","","","","","","","","","","","","","",""
"","response","","html-keyboard-response","58","187317","0.0-1.0-68.0-0.0","0","0","46975","","380","","","75","7","","","1","7","training","adjacent","ED","5","4","N.jpg","R.jpg","1","0","0","",""
"","feedback","","html-keyboard-response","59","188320","0.0-1.0-69.0-0.0","0","0","46975","","null","","","null","7","","","","","","","","","","","","","","","",""
"","time_out","","html-keyboard-response","60","190323","0.0-1.0-71.0-0.0","0","0","46975","","null","","","null","7","","","","","","","","","","","","","","","",""
"","ITI","","html-keyboard-response","61","191326","0.0-1.0-72.0","0","0","46975","","null","","","null","7","","","","","","","","","","","","","","","NaN",""
"","S1","","html-keyboard-response","62","191579","0.0-1.0-74.0","0","0","46975","","null","","","null","8","","","","","","","","","","","","","","","",""
"","ISI","","html-keyboard-response","63","192587","0.0-1.0-75.0","0","0","46975","","null","","","null","8","NaN","","","","","","","","","","","","","","",""
"","S2","","html-keyboard-response","64","192842","0.0-1.0-76.0","0","0","46975","","null","","","null","8","","NaN","","","","","","","","","","","","","",""
"","response","","html-keyboard-response","65","193123","0.0-1.0-77.0-0.0","0","0","46975","","280","","","75","8","","","1","8","training","adjacent","CD","3","4","Q.jpg","R.jpg","1","1","1","",""
"","feedback","","html-keyboard-response","66","194126","0.0-1.0-78.0-0.0","0","0","46975","","null","","","null","8","","","","","","","","","","","","","","","",""
"","ITI","","html-keyboard-response","67","195128","0.0-1.0-81.0","0","0","46975","","null","","","null","8","","","","","","","","","","","","","","","NaN",""
"","S1","","html-keyboard-response","68","195380","0.0-1.0-83.0","0","0","46975","","null","","","null","9","","","","","","","","","","","","","","","",""
"","ISI","","html-keyboard-response","69","196384","0.0-1.0-84.0","0","0","46975","","null","","","null","9","NaN","","","","","","","","","","","","","","",""
"","S2","","html-keyboard-response","70","196637","0.0-1.0-85.0","0","0","46975","","null","","","null","9","","NaN","","","","","","","","","","","","","",""
"","response","","html-keyboard-response","71","197164","0.0-1.0-86.0-0.0","0","0","46975","","525","","","75","9","","","1","9","training","adjacent","BC","2","3","L.jpg","Q.jpg","1","1","1","",""
"","feedback","","html-keyboard-response","72","198167","0.0-1.0-87.0-0.0","0","0","46975","","null","","","null","9","","","","","","","","","","","","","","","",""
"","ITI","","html-keyboard-response","73","199169","0.0-1.0-90.0","0","0","46975","","null","","","null","9","","","","","","","","","","","","","","","NaN",""
"","S1","","html-keyboard-response","74","199422","0.0-1.0-92.0","0","0","46975","","null","","","null","10","","","","","","","","","","","","","","","",""
"","ISI","","html-keyboard-response","75","200425","0.0-1.0-93.0","0","0","46975","","null","","","null","10","NaN","","","","","","","","","","","","","","",""
"","S2","","html-keyboard-response","76","200678","0.0-1.0-94.0","0","0","46975","","null","","","null","10","","NaN","","","","","","","","","","","","","",""
"","response","","html-keyboard-response","77","201284","0.0-1.0-95.0-0.0","0","0","46975","","604","","","68","10","","","1","10","training","adjacent","BA","2","1","L.jpg","M.jpg","0","0","1","",""
"","feedback","","html-keyboard-response","78","202288","0.0-1.0-96.0-0.0","0","0","46975","","null","","","null","10","","","","","","","","","","","","","","","",""
"","ITI","","html-keyboard-response","79","203290","0.0-1.0-99.0","0","0","46975","","null","","","null","10","","","","","","","","","","","","","","","NaN",""
"","S1","","html-keyboard-response","80","203545","0.0-1.0-101.0","0","0","46975","","null","","","null","11","","","","","","","","","","","","","","","",""
"","ISI","","html-keyboard-response","81","204549","0.0-1.0-102.0","0","0","46975","","null","","","null","11","NaN","","","","","","","","","","","","","","",""
"","S2","","html-keyboard-response","82","204803","0.0-1.0-103.0","0","0","46975","","null","","","null","11","","NaN","","","","","","","","","","","","","",""
"","response","","html-keyboard-response","83","205334","0.0-1.0-104.0-0.0","0","0","46975","","528","","","68","11","","","1","11","training","adjacent","FG","6","7","O.jpg","P.jpg","0","1","0","",""
"","feedback","","html-keyboard-response","84","206336","0.0-1.0-105.0-0.0","0","0","46975","","null","","","null","11","","","","","","","","","","","","","","","",""
"","time_out","","html-keyboard-response","85","208340","0.0-1.0-107.0-0.0","0","0","46975","","null","","","null","11","","","","","","","","","","","","","","","",""
"","ITI","","html-keyboard-response","86","209343","0.0-1.0-108.0","0","0","46975","","null","","","null","11","","","","","","","","","","","","","","","NaN",""
"","S1","","html-keyboard-response","87","209596","0.0-1.0-110.0","0","0","46975","","null","","","null","12","","","","","","","","","","","","","","","",""
"","ISI","","html-keyboard-response","88","210601","0.0-1.0-111.0","0","0","46975","","null","","","null","12","NaN","","","","","","","","","","","","","","",""
"","S2","","html-keyboard-response","89","210854","0.0-1.0-112.0","0","0","46975","","null","","","null","12","","NaN","","","","","","","","","","","","","",""
"","response","","html-keyboard-response","90","211595","0.0-1.0-113.0-0.0","0","0","46975","","739","","","68","12","","","1","12","training","adjacent","DC","4","3","R.jpg","Q.jpg","0","0","1","",""
"","feedback","","html-keyboard-response","91","212600","0.0-1.0-114.0-0.0","0","0","46975","","null","","","null","12","","","","","","","","","","","","","","","",""
"","ITI","","html-keyboard-response","92","213603","0.0-1.0-117.0","0","0","46975","","null","","","null","12","","","","","","","","","","","","","","","NaN",""
"","S1","","html-keyboard-response","93","213855","0.0-1.0-119.0","0","0","46975","","null","","","null","13","","","","","","","","","","","","","","","",""
"","ISI","","html-keyboard-response","94","214859","0.0-1.0-120.0","0","0","46975","","null","","","null","13","NaN","","","","","","","","","","","","","","",""
"","S2","","html-keyboard-response","95","215113","0.0-1.0-121.0","0","0","46975","","null","","","null","13","","NaN","","","","","","","","","","","","","",""
"","response","","html-keyboard-response","96","215921","0.0-1.0-122.0-0.0","0","0","46975","","806","","","75","13","","","1","13","training","adjacent","BA","2","1","L.jpg","M.jpg","1","0","0","",""
"","feedback","","html-keyboard-response","97","216926","0.0-1.0-123.0-0.0","0","0","46975","","null","","","null","13","","","","","","","","","","","","","","","",""
"","time_out","","html-keyboard-response","98","218929","0.0-1.0-125.0-0.0","0","0","46975","","null","","","null","13","","","","","","","","","","","","","","","",""
"","ITI","","html-keyboard-response","99","219931","0.0-1.0-126.0","0","0","46975","","null","","","null","13","","","","","","","","","","","","","","","NaN",""
"","S1","","html-keyboard-response","100","220184","0.0-1.0-128.0","0","0","46975","","null","","","null","14","","","","","","","","","","","","","","","",""
"","ISI","","html-keyboard-response","101","221187","0.0-1.0-129.0","0","0","46975","","null","","","null","14","NaN","","","","","","","","","","","","","","",""
"","S2","","html-keyboard-response","102","221439","0.0-1.0-130.0","0","0","46975","","null","","","null","14","","NaN","","","","","","","","","","","","","",""
"","response","","html-keyboard-response","103","221844","0.0-1.0-131.0-0.0","0","0","46975","","402","","","75","14","","","1","14","training","adjacent","CB","3","2","Q.jpg","L.jpg","1","0","0","",""
"","feedback","","html-keyboard-response","104","222847","0.0-1.0-132.0-0.0","0","0","46975","","null","","","null","14","","","","","","","","","","","","","","","",""
"","time_out","","html-keyboard-response","105","224850","0.0-1.0-134.0-0.0","0","0","46975","","null","","","null","14","","","","","","","","","","","","","","","",""
"","ITI","","html-keyboard-response","106","225853","0.0-1.0-135.0","0","0","46975","","null","","","null","14","","","","","","","","","","","","","","","NaN",""
"","S1","","html-keyboard-response","107","226105","0.0-1.0-137.0","0","0","46975","","null","","","null","15","","","","","","","","","","","","","","","",""
"","ISI","","html-keyboard-response","108","227115","0.0-1.0-138.0","0","0","46975","","null","","","null","15","NaN","","","","","","","","","","","","","","",""
"","S2","","html-keyboard-response","109","227367","0.0-1.0-139.0","0","0","46975","","null","","","null","15","","NaN","","","","","","","","","","","","","",""
"","response","","html-keyboard-response","110","227730","0.0-1.0-140.0-0.0","0","0","46975","","360","","","68","15","","","1","15","training","adjacent","FG","6","7","O.jpg","P.jpg","0","1","0","",""
"","feedback","","html-keyboard-response","111","228733","0.0-1.0-141.0-0.0","0","0","46975","","null","","","null","15","","","","","","","","","","","","","","","",""
"","time_out","","html-keyboard-response","112","230736","0.0-1.0-143.0-0.0","0","0","46975","","null","","","null","15","","","","","","","","","","","","","","","",""
"","ITI","","html-keyboard-response","113","231739","0.0-1.0-144.0","0","0","46975","","null","","","null","15","","","","","","","","","","","","","","","NaN",""
"","S1","","html-keyboard-response","114","231993","0.0-1.0-146.0","0","0","46975","","null","","","null","16","","","","","","","","","","","","","","","",""
"","ISI","","html-keyboard-response","115","232996","0.0-1.0-147.0","0","0","46975","","null","","","null","16","NaN","","","","","","","","","","","","","","",""
"","S2","","html-keyboard-response","116","233249","0.0-1.0-148.0","0","0","46975","","null","","","null","16","","NaN","","","","","","","","","","","","","",""
"","response","","html-keyboard-response","117","233539","0.0-1.0-149.0-0.0","0","0","46975","","287","","","75","16","","","1","16","training","adjacent","FE","6","5","O.jpg","N.jpg","1","0","0","",""
"","feedback","","html-keyboard-response","118","234542","0.0-1.0-150.0-0.0","0","0","46975","","null","","","null","16","","","","","","","","","","","","","","","",""
"","time_out","","html-keyboard-response","119","236545","0.0-1.0-152.0-0.0","0","0","46975","","null","","","null","16","","","","","","","","","","","","","","","",""
"","ITI","","html-keyboard-response","120","237547","0.0-1.0-153.0","0","0","46975","","null","","","null","16","","","","","","","","","","","","","","","NaN",""
"","S1","","html-keyboard-response","121","237805","0.0-1.0-155.0","0","0","46975","","null","","","null","17","","","","","","","","","","","","","","","",""
"","ISI","","html-keyboard-response","122","238807","0.0-1.0-156.0","0","0","46975","","null","","","null","17","NaN","","","","","","","","","","","","","","",""
"","S2","","html-keyboard-response","123","239060","0.0-1.0-157.0","0","0","46975","","null","","","null","17","","NaN","","","","","","","","","","","","","",""
"","response","","html-keyboard-response","124","239406","0.0-1.0-158.0-0.0","0","0","46975","","344","","","68","17","","","1","17","training","adjacent","BC","2","3","L.jpg","Q.jpg","0","1","0","",""
"","feedback","","html-keyboard-response","125","240412","0.0-1.0-159.0-0.0","0","0","46975","","null","","","null","17","","","","","","","","","","","","","","","",""
"","time_out","","html-keyboard-response","126","242415","0.0-1.0-161.0-0.0","0","0","46975","","null","","","null","17","","","","","","","","","","","","","","","",""
"","ITI","","html-keyboard-response","127","243418","0.0-1.0-162.0","0","0","46975","","null","","","null","17","","","","","","","","","","","","","","","NaN",""
"","S1","","html-keyboard-response","128","243671","0.0-1.0-164.0","0","0","46975","","null","","","null","18","","","","","","","","","","","","","","","",""
"","ISI","","html-keyboard-response","129","244673","0.0-1.0-165.0","0","0","46975","","null","","","null","18","NaN","","","","","","","","","","","","","","",""
"","S2","","html-keyboard-response","130","244926","0.0-1.0-166.0","0","0","46975","","null","","","null","18","","NaN","","","","","","","","","","","","","",""
"","response","","html-keyboard-response","131","245734","0.0-1.0-167.0-0.0","0","0","46975","","807","","","68","18","","","1","18","training","adjacent","DC","4","3","R.jpg","Q.jpg","0","0","1","",""
"","feedback","","html-keyboard-response","132","246736","0.0-1.0-168.0-0.0","0","0","46975","","null","","","null","18","","","","","","","","","","","","","","","",""
"","ITI","","html-keyboard-response","133","247739","0.0-1.0-171.0","0","0","46975","","null","","","null","18","","","","","","","","","","","","","","","NaN",""
"","S1","","html-keyboard-response","134","247992","0.0-1.0-173.0","0","0","46975","","null","","","null","19","","","","","","","","","","","","","","","",""
"","ISI","","html-keyboard-response","135","248995","0.0-1.0-174.0","0","0","46975","","null","","","null","19","NaN","","","","","","","","","","","","","","",""
"","S2","","html-keyboard-response","136","249247","0.0-1.0-175.0","0","0","46975","","null","","","null","19","","NaN","","","","","","","","","","","","","",""
"","response","","html-keyboard-response","137","250071","0.0-1.0-176.0-0.0","0","0","46975","","821","","","68","19","","","1","19","training","adjacent","AB","1","2","M.jpg","L.jpg","0","1","0","",""
"","feedback","","html-keyboard-response","138","251076","0.0-1.0-177.0-0.0","0","0","46975","","null","","","null","19","","","","","","","","","","","","","","","",""
"","time_out","","html-keyboard-response","139","253079","0.0-1.0-179.0-0.0","0","0","46975","","null","","","null","19","","","","","","","","","","","","","","","",""
"","ITI","","html-keyboard-response","140","254083","0.0-1.0-180.0","0","0","46975","","null","","","null","19","","","","","","","","","","","","","","","NaN",""
"","S1","","html-keyboard-response","141","254338","0.0-1.0-182.0","0","0","46975","","null","","","null","20","","","","","","","","","","","","","","","",""
"","ISI","","html-keyboard-response","142","255341","0.0-1.0-183.0","0","0","46975","","null","","","null","20","NaN","","","","","","","","","","","","","","",""
"","S2","","html-keyboard-response","143","255593","0.0-1.0-184.0","0","0","46975","","null","","","null","20","","NaN","","","","","","","","","","","","","",""
"","response","","html-keyboard-response","144","256720","0.0-1.0-185.0-0.0","0","0","46975","","1125","","","68","20","","","1","20","training","adjacent","GF","7","6","P.jpg","O.jpg","0","0","1","",""
"","feedback","","html-keyboard-response","145","257722","0.0-1.0-186.0-0.0","0","0","46975","","null","","","null","20","","","","","","","","","","","","","","","",""
"","ITI","","html-keyboard-response","146","258726","0.0-1.0-189.0","0","0","46975","","null","","","null","20","","","","","","","","","","","","","","","NaN",""
"","S1","","html-keyboard-response","147","258984","0.0-1.0-191.0","0","0","46975","","null","","","null","21","","","","","","","","","","","","","","","",""
"","ISI","","html-keyboard-response","148","259987","0.0-1.0-192.0","0","0","46975","","null","","","null","21","NaN","","","","","","","","","","","","","","",""
"","S2","","html-keyboard-response","149","260242","0.0-1.0-193.0","0","0","46975","","null","","","null","21","","NaN","","","","","","","","","","","","","",""
"","response","","html-keyboard-response","150","260395","0.0-1.0-194.0-0.0","0","0","46975","","149","","","75","21","","","1","21","training","adjacent","BC","2","3","L.jpg","Q.jpg","1","1","1","",""
"","feedback","","html-keyboard-response","151","261398","0.0-1.0-195.0-0.0","0","0","46975","","null","","","null","21","","","","","","","","","","","","","","","",""
"","ITI","","html-keyboard-response","152","262401","0.0-1.0-198.0","0","0","46975","","null","","","null","21","","","","","","","","","","","","","","","NaN",""
"","S1","","html-keyboard-response","153","262655","0.0-1.0-200.0","0","0","46975","","null","","","null","22","","","","","","","","","","","","","","","",""
"","ISI","","html-keyboard-response","154","263657","0.0-1.0-201.0","0","0","46975","","null","","","null","22","NaN","","","","","","","","","","","","","","",""
"","S2","","html-keyboard-response","155","263909","0.0-1.0-202.0","0","0","46975","","null","","","null","22","","NaN","","","","","","","","","","","","","",""
"","response","","html-keyboard-response","156","265323","0.0-1.0-203.0-0.0","0","0","46975","","1412","","","75","22","","","1","22","training","adjacent","CD","3","4","Q.jpg","R.jpg","1","1","1","",""
"","feedback","","html-keyboard-response","157","266326","0.0-1.0-204.0-0.0","0","0","46975","","null","","","null","22","","","","","","","","","","","","","","","",""
"","ITI","","html-keyboard-response","158","267329","0.0-1.0-207.0","0","0","46975","","null","","","null","22","","","","","","","","","","","","","","","NaN",""
"","S1","","html-keyboard-response","159","267581","0.0-1.0-209.0","0","0","46975","","null","","","null","23","","","","","","","","","","","","","","","",""
"","ISI","","html-keyboard-response","160","268584","0.0-1.0-210.0","0","0","46975","","null","","","null","23","NaN","","","","","","","","","","","","","","",""
"","S2","","html-keyboard-response","161","268839","0.0-1.0-211.0","0","0","46975","","null","","","null","23","","NaN","","","","","","","","","","","","","",""
"","response","","html-keyboard-response","162","269550","0.0-1.0-212.0-0.0","0","0","46975","","709","","","75","23","","","1","23","training","adjacent","DE","4","5","R.jpg","N.jpg","1","1","1","",""
"","feedback","","html-keyboard-response","163","270553","0.0-1.0-213.0-0.0","0","0","46975","","null","","","null","23","","","","","","","","","","","","","","","",""
"","ITI","","html-keyboard-response","164","271557","0.0-1.0-216.0","0","0","46975","","null","","","null","23","","","","","","","","","","","","","","","NaN",""
"","S1","","html-keyboard-response","165","271810","0.0-1.0-218.0","0","0","46975","","null","","","null","24","","","","","","","","","","","","","","","",""
"","ISI","","html-keyboard-response","166","272812","0.0-1.0-219.0","0","0","46975","","null","","","null","24","NaN","","","","","","","","","","","","","","",""
"","S2","","html-keyboard-response","167","273028","0.0-1.0-220.0","0","0","46975","","214","","","75","24","","k","1","24","training","adjacent","FE","6","5","O.jpg","N.jpg","1","0","0","",""
"","feedback","","html-keyboard-response","168","274033","0.0-1.0-222.0-0.0","0","0","46975","","null","","","null","24","","","","","","","","","","","","","","","",""
"","time_out","","html-keyboard-response","169","276035","0.0-1.0-224.0-0.0","0","0","46975","","null","","","null","24","","","","","","","","","","","","","","","",""
"","ITI","","html-keyboard-response","170","277040","0.0-1.0-225.0","0","0","46975","","null","","","null","24","","","","","","","","","","","","","","","NaN",""
"","S1","","html-keyboard-response","171","277422","0.0-1.0-227.0","0","0","46975","","null","","","null","25","","","","","","","","","","","","","","","",""
"","ISI","","html-keyboard-response","172","278425","0.0-1.0-228.0","0","0","46975","","null","","","null","25","NaN","","","","","","","","","","","","","","",""
"","S2","","html-keyboard-response","173","278681","0.0-1.0-229.0","0","0","46975","","null","","","null","25","","NaN","","","","","","","","","","","","","",""
"","response","","html-keyboard-response","174","278682","0.0-1.0-230.0-0.0","0","0","46975","","0","","","68","25","","","1","25","training","adjacent","EF","5","6","N.jpg","O.jpg","0","1","0","",""
"","feedback","","html-keyboard-response","175","279685","0.0-1.0-231.0-0.0","0","0","46975","","null","","","null","25","","","","","","","","","","","","","","","",""
"","time_out","","html-keyboard-response","176","281687","0.0-1.0-233.0-0.0","0","0","46975","","null","","","null","25","","","","","","","","","","","","","","","",""
"","ITI","","html-keyboard-response","177","282690","0.0-1.0-234.0","0","0","46975","","null","","","null","25","","","","","","","","","","","","","","","NaN",""
"","S1","","html-keyboard-response","178","282945","0.0-1.0-236.0","0","0","46975","","null","","","null","26","","","","","","","","","","","","","","","",""
"","ISI","","html-keyboard-response","179","283949","0.0-1.0-237.0","0","0","46975","","null","","","null","26","NaN","","","","","","","","","","","","","","",""
"","S2","","html-keyboard-response","180","284201","0.0-1.0-238.0","0","0","46975","","null","","","null","26","","NaN","","","","","","","","","","","","","",""
"","response","","html-keyboard-response","181","284661","0.0-1.0-239.0-0.0","0","0","46975","","457","","","75","26","","","1","26","training","adjacent","FE","6","5","O.jpg","N.jpg","1","0","0","",""
"","feedback","","html-keyboard-response","182","285665","0.0-1.0-240.0-0.0","0","0","46975","","null","","","null","26","","","","","","","","","","","","","","","",""
"","time_out","","html-keyboard-response","183","287669","0.0-1.0-242.0-0.0","0","0","46975","","null","","","null","26","","","","","","","","","","","","","","","",""
"","ITI","","html-keyboard-response","184","288671","0.0-1.0-243.0","0","0","46975","","null","","","null","26","","","","","","","","","","","","","","","NaN",""
"","S1","","html-keyboard-response","185","288923","0.0-1.0-245.0","0","0","46975","","null","","","null","27","","","","","","","","","","","","","","","",""
"","ISI","","html-keyboard-response","186","289926","0.0-1.0-246.0","0","0","46975","","null","","","null","27","NaN","","","","","","","","","","","","","","",""
"","S2","","html-keyboard-response","187","290178","0.0-1.0-247.0","0","0","46975","","null","","","null","27","","NaN","","","","","","","","","","","","","",""
"","response","","html-keyboard-response","188","290327","0.0-1.0-248.0-0.0","0","0","46975","","146","","","68","27","","","1","27","training","adjacent","GF","7","6","P.jpg","O.jpg","0","0","1","",""
"","feedback","","html-keyboard-response","189","291330","0.0-1.0-249.0-0.0","0","0","46975","","null","","","null","27","","","","","","","","","","","","","","","",""
"","ITI","","html-keyboard-response","190","292333","0.0-1.0-252.0","0","0","46975","","null","","","null","27","","","","","","","","","","","","","","","NaN",""
"","S1","","html-keyboard-response","191","292590","0.0-1.0-254.0","0","0","46975","","null","","","null","28","","","","","","","","","","","","","","","",""
"","ISI","","html-keyboard-response","192","293593","0.0-1.0-255.0","0","0","46975","","986","","","75","28","k","","","","","","","","","","","","","","",""
"","S2","","html-keyboard-response","193","293847","0.0-1.0-256.0","0","0","46975","","null","","","null","28","","NaN","","","","","","","","","","","","","",""
"","response","","html-keyboard-response","194","294264","0.0-1.0-257.0-0.0","0","0","46975","","415","","","75","28","","","1","28","training","adjacent","CB","3","2","Q.jpg","L.jpg","1","0","0","",""
"","feedback","","html-keyboard-response","195","295268","0.0-1.0-258.0-0.0","0","0","46975","","null","","","null","28","","","","","","","","","","","","","","","",""
"","time_out","","html-keyboard-response","196","297400","0.0-1.0-260.0-0.0","0","0","46975","","null","","","null","28","","","","","","","","","","","","","","","",""
"","ITI","","html-keyboard-response","197","298403","0.0-1.0-261.0","0","0","46975","","null","","","null","28","","","","","","","","","","","","","","","NaN",""
"","S1","","html-keyboard-response","198","298656","0.0-1.0-263.0","0","0","46975","","null","","","null","29","","","","","","","","","","","","","","","",""
"","ISI","","html-keyboard-response","199","299659","0.0-1.0-264.0","0","0","46975","","null","","","null","29","NaN","","","","","","","","","","","","","","",""
"","S2","","html-keyboard-response","200","299912","0.0-1.0-265.0","0","0","46975","","null","","","null","29","","NaN","","","","","","","","","","","","","",""
"","response","","html-keyboard-response","201","299945","0.0-1.0-266.0-0.0","0","0","46975","","29","","","68","29","","","1","29","training","adjacent","BC","2","3","L.jpg","Q.jpg","0","1","0","",""
"","feedback","","html-keyboard-response","202","300948","0.0-1.0-267.0-0.0","0","0","46975","","null","","","null","29","","","","","","","","","","","","","","","",""
"","time_out","","html-keyboard-response","203","302950","0.0-1.0-269.0-0.0","0","0","46975","","null","","","null","29","","","","","","","","","","","","","","","",""
"","ITI","","html-keyboard-response","204","303953","0.0-1.0-270.0","0","0","46975","","null","","","null","29","","","","","","","","","","","","","","","NaN",""
"","S1","","html-keyboard-response","205","304207","0.0-1.0-272.0","0","0","46975","","null","","","null","30","","","","","","","","","","","","","","","",""
"","ISI","","html-keyboard-response","206","305210","0.0-1.0-273.0","0","0","46975","","null","","","null","30","NaN","","","","","","","","","","","","","","",""
"","S2","","html-keyboard-response","207","305454","0.0-1.0-274.0","0","0","46975","","242","","","75","30","","k","1","30","training","adjacent","CD","3","4","Q.jpg","R.jpg","1","1","1","",""
"","feedback","","html-keyboard-response","208","306458","0.0-1.0-276.0-0.0","0","0","46975","","null","","","null","30","","","","","","","","","","","","","","","",""
"","ITI","","html-keyboard-response","209","307462","0.0-1.0-279.0","0","0","46975","","null","","","null","30","","","","","","","","","","","","","","","NaN",""
"","S1","","html-keyboard-response","210","307715","0.0-1.0-281.0","0","0","46975","","null","","","null","31","","","","","","","","","","","","","","","",""
"","ISI","","html-keyboard-response","211","308718","0.0-1.0-282.0","0","0","46975","","null","","","null","31","NaN","","","","","","","","","","","","","","",""
"","S2","","html-keyboard-response","212","308972","0.0-1.0-283.0","0","0","46975","","null","","","null","31","","NaN","","","","","","","","","","","","","",""
"","response","","html-keyboard-response","213","310725","0.0-1.0-284.0-0.0","0","0","46975","","null","","","null","31","","","1","31","training","adjacent","GF","7","6","P.jpg","O.jpg","NaN","0","0","",""
"","too_slow_prompt","","html-keyboard-response","214","311731","0.0-1.0-286.0-0.0","1","0","46975","","null","","","null","","","","","","","","","","","","","","","","",""
"","time_out","","html-keyboard-response","215","313734","0.0-1.0-287.0-0.0","0","0","46975","","null","","","null","31","","","","","","","","","","","","","","","",""
"","ITI","","html-keyboard-response","216","314738","0.0-1.0-288.0","0","0","46975","","null","","","null","31","","","","","","","","","","","","","","","NaN",""
"","S1","","html-keyboard-response","217","314990","0.0-1.0-290.0","0","0","46975","","null","","","null","32","","","","","","","","","","","","","","","",""
"","ISI","","html-keyboard-response","218","315994","0.0-1.0-291.0","0","0","46975","","null","","","null","32","NaN","","","","","","","","","","","","","","",""
"","S2","","html-keyboard-response","219","316247","0.0-1.0-292.0","0","0","46975","","null","","","null","32","","NaN","","","","","","","","","","","","","",""
"","response","","html-keyboard-response","220","316449","0.0-1.0-293.0-0.0","0","0","46975","","201","","","75","32","","","1","32","training","adjacent","CB","3","2","Q.jpg","L.jpg","1","0","0","",""
"","feedback","","html-keyboard-response","221","317453","0.0-1.0-294.0-0.0","0","0","46975","","null","","","null","32","","","","","","","","","","","","","","","",""
"","time_out","","html-keyboard-response","222","319458","0.0-1.0-296.0-0.0","0","0","46975","","null","","","null","32","","","","","","","","","","","","","","","",""
"","ITI","","html-keyboard-response","223","320460","0.0-1.0-297.0","0","0","46975","","null","","","null","32","","","","","","","","","","","","","","","NaN",""
"","S1","","html-keyboard-response","224","320713","0.0-1.0-299.0","0","0","46975","","null","","","null","33","","","","","","","","","","","","","","","",""
"","ISI","","html-keyboard-response","225","321717","0.0-1.0-300.0","0","0","46975","","null","","","null","33","NaN","","","","","","","","","","","","","","",""
"","S2","","html-keyboard-response","226","321971","0.0-1.0-301.0","0","0","46975","","null","","","null","33","","NaN","","","","","","","","","","","","","",""
"","response","","html-keyboard-response","227","322640","0.0-1.0-302.0-0.0","0","0","46975","","667","","","75","33","","","1","33","training","adjacent","EF","5","6","N.jpg","O.jpg","1","1","1","",""
"","feedback","","html-keyboard-response","228","323642","0.0-1.0-303.0-0.0","0","0","46975","","null","","","null","33","","","","","","","","","","","","","","","",""
"","ITI","","html-keyboard-response","229","324645","0.0-1.0-306.0","0","0","46975","","null","","","null","33","","","","","","","","","","","","","","","NaN",""
"","S1","","html-keyboard-response","230","324899","0.0-1.0-308.0","0","0","46975","","null","","","null","34","","","","","","","","","","","","","","","",""
"","ISI","","html-keyboard-response","231","325901","0.0-1.0-309.0","0","0","46975","","null","","","null","34","NaN","","","","","","","","","","","","","","",""
"","S2","","html-keyboard-response","232","326153","0.0-1.0-310.0","0","0","46975","","null","","","null","34","","NaN","","","","","","","","","","","","","",""
"","response","","html-keyboard-response","233","326166","0.0-1.0-311.0-0.0","0","0","46975","","11","","","68","34","","","1","34","training","adjacent","BA","2","1","L.jpg","M.jpg","0","0","1","",""
"","feedback","","html-keyboard-response","234","327169","0.0-1.0-312.0-0.0","0","0","46975","","null","","","null","34","","","","","","","","","","","","","","","",""
"","ITI","","html-keyboard-response","235","328172","0.0-1.0-315.0","0","0","46975","","null","","","null","34","","","","","","","","","","","","","","","NaN",""
"","S1","","html-keyboard-response","236","328427","0.0-1.0-317.0","0","0","46975","","null","","","null","35","","","","","","","","","","","","","","","",""
"","ISI","","html-keyboard-response","237","329431","0.0-1.0-318.0","0","0","46975","","null","","","null","35","NaN","","","","","","","","","","","","","","",""
"","S2","","html-keyboard-response","238","329683","0.0-1.0-319.0","0","0","46975","","null","","","null","35","","NaN","","","","","","","","","","","","","",""
"","response","","html-keyboard-response","239","329740","0.0-1.0-320.0-0.0","0","0","46975","","54","","","68","35","","","1","35","training","adjacent","AB","1","2","M.jpg","L.jpg","0","1","0","",""
"","feedback","","html-keyboard-response","240","330744","0.0-1.0-321.0-0.0","0","0","46975","","null","","","null","35","","","","","","","","","","","","","","","",""
"","time_out","","html-keyboard-response","241","332747","0.0-1.0-323.0-0.0","0","0","46975","","null","","","null","35","","","","","","","","","","","","","","","",""
"","ITI","","html-keyboard-response","242","333750","0.0-1.0-324.0","0","0","46975","","null","","","null","35","","","","","","","","","","","","","","","NaN",""
"","S1","","html-keyboard-response","243","334003","0.0-1.0-326.0","0","0","46975","","null","","","null","36","","","","","","","","","","","","","","","",""
"","ISI","","html-keyboard-response","244","335007","0.0-1.0-327.0","0","0","46975","","null","","","null","36","NaN","","","","","","","","","","","","","","",""
"","S2","","html-keyboard-response","245","335261","0.0-1.0-328.0","0","0","46975","","null","","","null","36","","NaN","","","","","","","","","","","","","",""
"","response","","html-keyboard-response","246","335614","0.0-1.0-329.0-0.0","0","0","46975","","351","","","75","36","","","1","36","training","adjacent","AB","1","2","M.jpg","L.jpg","1","1","1","",""
"","feedback","","html-keyboard-response","247","336618","0.0-1.0-330.0-0.0","0","0","46975","","null","","","null","36","","","","","","","","","","","","","","","",""
"","ITI","","html-keyboard-response","248","337620","0.0-1.0-333.0","0","0","46975","","null","","","null","36","","","","","","","","","","","","","","","NaN",""
"","S1","","html-keyboard-response","249","337874","0.0-1.0-335.0","0","0","46975","","null","","","null","37","","","","","","","","","","","","","","","",""
"","ISI","","html-keyboard-response","250","338876","0.0-1.0-336.0","0","0","46975","","null","","","null","37","NaN","","","","","","","","","","","","","","",""
"","S2","","html-keyboard-response","251","339129","0.0-1.0-337.0","0","0","46975","","null","","","null","37","","NaN","","","","","","","","","","","","","",""
"","response","","html-keyboard-response","252","339763","0.0-1.0-338.0-0.0","0","0","46975","","632","","","75","37","","","1","37","training","adjacent","ED","5","4","N.jpg","R.jpg","1","0","0","",""
"","feedback","","html-keyboard-response","253","340766","0.0-1.0-339.0-0.0","0","0","46975","","null","","","null","37","","","","","","","","","","","","","","","",""
"","time_out","","html-keyboard-response","254","342769","0.0-1.0-341.0-0.0","0","0","46975","","null","","","null","37","","","","","","","","","","","","","","","",""
"","ITI","","html-keyboard-response","255","343772","0.0-1.0-342.0","0","0","46975","","null","","","null","37","","","","","","","","","","","","","","","NaN",""
"","S1","","html-keyboard-response","256","344025","0.0-1.0-344.0","0","0","46975","","null","","","null","38","","","","","","","","","","","","","","","",""
"","ISI","","html-keyboard-response","257","345030","0.0-1.0-345.0","0","0","46975","","null","","","null","38","NaN","","","","","","","","","","","","","","",""
"","S2","","html-keyboard-response","258","345284","0.0-1.0-346.0","0","0","46975","","null","","","null","38","","NaN","","","","","","","","","","","","","",""
"","response","","html-keyboard-response","259","345663","0.0-1.0-347.0-0.0","0","0","46975","","376","","","75","38","","","1","38","training","adjacent","FG","6","7","O.jpg","P.jpg","1","1","1","",""
"","feedback","","html-keyboard-response","260","346665","0.0-1.0-348.0-0.0","0","0","46975","","null","","","null","38","","","","","","","","","","","","","","","",""
"","ITI","","html-keyboard-response","261","347667","0.0-1.0-351.0","0","0","46975","","null","","","null","38","","","","","","","","","","","","","","","NaN",""
"","S1","","html-keyboard-response","262","347921","0.0-1.0-353.0","0","0","46975","","null","","","null","39","","","","","","","","","","","","","","","",""
"","ISI","","html-keyboard-response","263","348923","0.0-1.0-354.0","0","0","46975","","null","","","null","39","NaN","","","","","","","","","","","","","","",""
"","S2","","html-keyboard-response","264","349177","0.0-1.0-355.0","0","0","46975","","null","","","null","39","","NaN","","","","","","","","","","","","","",""
"","response","","html-keyboard-response","265","349812","0.0-1.0-356.0-0.0","0","0","46975","","633","","","68","39","","","1","39","training","adjacent","BA","2","1","L.jpg","M.jpg","0","0","1","",""
"","feedback","","html-keyboard-response","266","350815","0.0-1.0-357.0-0.0","0","0","46975","","null","","","null","39","","","","","","","","","","","","","","","",""
"","ITI","","html-keyboard-response","267","351818","0.0-1.0-360.0","0","0","46975","","null","","","null","39","","","","","","","","","","","","","","","NaN",""
"","S1","","html-keyboard-response","268","352072","0.0-1.0-362.0","0","0","46975","","null","","","null","40","","","","","","","","","","","","","","","",""
"","ISI","","html-keyboard-response","269","353074","0.0-1.0-363.0","0","0","46975","","null","","","null","40","NaN","","","","","","","","","","","","","","",""
"","S2","","html-keyboard-response","270","353327","0.0-1.0-364.0","0","0","46975","","null","","","null","40","","NaN","","","","","","","","","","","","","",""
"","response","","html-keyboard-response","271","353901","0.0-1.0-365.0-0.0","0","0","46975","","572","","","75","40","","","1","40","training","adjacent","GF","7","6","P.jpg","O.jpg","1","0","0","",""
"","feedback","","html-keyboard-response","272","354905","0.0-1.0-366.0-0.0","0","0","46975","","null","","","null","40","","","","","","","","","","","","","","","",""
"","time_out","","html-keyboard-response","273","356908","0.0-1.0-368.0-0.0","0","0","46975","","null","","","null","40","","","","","","","","","","","","","","","",""
"","ITI","","html-keyboard-response","274","357911","0.0-1.0-369.0","0","0","46975","","null","","","null","40","","","","","","","","","","","","","","","NaN",""
"","S1","","html-keyboard-response","275","358164","0.0-1.0-371.0","0","0","46975","","null","","","null","41","","","","","","","","","","","","","","","",""
"","ISI","","html-keyboard-response","276","359167","0.0-1.0-372.0","0","0","46975","","null","","","null","41","NaN","","","","","","","","","","","","","","",""
"","S2","","html-keyboard-response","277","359421","0.0-1.0-373.0","0","0","46975","","null","","","null","41","","NaN","","","","","","","","","","","","","",""
"","response","","html-keyboard-response","278","359799","0.0-1.0-374.0-0.0","0","0","46975","","376","","","75","41","","","1","41","training","adjacent","DC","4","3","R.jpg","Q.jpg","1","0","0","",""
"","feedback","","html-keyboard-response","279","360802","0.0-1.0-375.0-0.0","0","0","46975","","null","","","null","41","","","","","","","","","","","","","","","",""
"","time_out","","html-keyboard-response","280","362804","0.0-1.0-377.0-0.0","0","0","46975","","null","","","null","41","","","","","","","","","","","","","","","",""
"","ITI","","html-keyboard-response","281","363806","0.0-1.0-378.0","0","0","46975","","null","","","null","41","","","","","","","","","","","","","","","NaN",""
"","S1","","html-keyboard-response","282","364063","0.0-1.0-380.0","0","0","46975","","null","","","null","42","","","","","","","","","","","","","","","",""
"","ISI","","html-keyboard-response","283","365066","0.0-1.0-381.0","0","0","46975","","null","","","null","42","NaN","","","","","","","","","","","","","","",""
"","S2","","html-keyboard-response","284","365319","0.0-1.0-382.0","0","0","46975","","null","","","null","42","","NaN","","","","","","","","","","","","","",""
"","response","","html-keyboard-response","285","365844","0.0-1.0-383.0-0.0","0","0","46975","","523","","","75","42","","","1","42","training","adjacent","EF","5","6","N.jpg","O.jpg","1","1","1","",""
"","feedback","","html-keyboard-response","286","366847","0.0-1.0-384.0-0.0","0","0","46975","","null","","","null","42","","","","","","","","","","","","","","","",""
"","ITI","","html-keyboard-response","287","367852","0.0-1.0-387.0","0","0","46975","","null","","","null","42","","","","","","","","","","","","","","","NaN",""
"","S1","","html-keyboard-response","288","368106","0.0-1.0-389.0","0","0","46975","","null","","","null","43","","","","","","","","","","","","","","","",""
"","ISI","","html-keyboard-response","289","369108","0.0-1.0-390.0","0","0","46975","","null","","","null","43","NaN","","","","","","","","","","","","","","",""
"","S2","","html-keyboard-response","290","369361","0.0-1.0-391.0","0","0","46975","","null","","","null","43","","NaN","","","","","","","","","","","","","",""
"","response","","html-keyboard-response","291","369566","0.0-1.0-392.0-0.0","0","0","46975","","204","","","68","43","","","1","43","training","adjacent","FE","6","5","O.jpg","N.jpg","0","0","1","",""
"","feedback","","html-keyboard-response","292","370570","0.0-1.0-393.0-0.0","0","0","46975","","null","","","null","43","","","","","","","","","","","","","","","",""
"","ITI","","html-keyboard-response","293","371572","0.0-1.0-396.0","0","0","46975","","null","","","null","43","","","","","","","","","","","","","","","NaN",""
"","S1","","html-keyboard-response","294","371825","0.0-1.0-398.0","0","0","46975","","null","","","null","44","","","","","","","","","","","","","","","",""
"","ISI","","html-keyboard-response","295","372828","0.0-1.0-399.0","0","0","46975","","null","","","null","44","NaN","","","","","","","","","","","","","","",""
"","S2","","html-keyboard-response","296","373081","0.0-1.0-400.0","0","0","46975","","null","","","null","44","","NaN","","","","","","","","","","","","","",""
"","response","","html-keyboard-response","297","373609","0.0-1.0-401.0-0.0","0","0","46975","","524","","","68","44","","","1","44","training","adjacent","CB","3","2","Q.jpg","L.jpg","0","0","1","",""
"","feedback","","html-keyboard-response","298","374612","0.0-1.0-402.0-0.0","0","0","46975","","null","","","null","44","","","","","","","","","","","","","","","",""
"","ITI","","html-keyboard-response","299","375616","0.0-1.0-405.0","0","0","46975","","null","","","null","44","","","","","","","","","","","","","","","NaN",""
"","S1","","html-keyboard-response","300","375868","0.0-1.0-407.0","0","0","46975","","null","","","null","45","","","","","","","","","","","","","","","",""
"","ISI","","html-keyboard-response","301","376870","0.0-1.0-408.0","0","0","46975","","null","","","null","45","NaN","","","","","","","","","","","","","","",""
"","S2","","html-keyboard-response","302","377124","0.0-1.0-409.0","0","0","46975","","null","","","null","45","","NaN","","","","","","","","","","","","","",""
"","response","","html-keyboard-response","303","377548","0.0-1.0-410.0-0.0","0","0","46975","","423","","","68","45","","","1","45","training","adjacent","ED","5","4","N.jpg","R.jpg","0","0","1","",""
"","feedback","","html-keyboard-response","304","378550","0.0-1.0-411.0-0.0","0","0","46975","","null","","","null","45","","","","","","","","","","","","","","","",""
"","ITI","","html-keyboard-response","305","379555","0.0-1.0-414.0","0","0","46975","","null","","","null","45","","","","","","","","","","","","","","","NaN",""
"","S1","","html-keyboard-response","306","379808","0.0-1.0-416.0","0","0","46975","","null","","","null","46","","","","","","","","","","","","","","","",""
"","ISI","","html-keyboard-response","307","380811","0.0-1.0-417.0","0","0","46975","","null","","","null","46","NaN","","","","","","","","","","","","","","",""
"","S2","","html-keyboard-response","308","381063","0.0-1.0-418.0","0","0","46975","","null","","","null","46","","NaN","","","","","","","","","","","","","",""
"","response","","html-keyboard-response","309","381712","0.0-1.0-419.0-0.0","0","0","46975","","647","","","75","46","","","1","46","training","adjacent","AB","1","2","M.jpg","L.jpg","1","1","1","",""
"","feedback","","html-keyboard-response","310","382715","0.0-1.0-420.0-0.0","0","0","46975","","null","","","null","46","","","","","","","","","","","","","","","",""
"","ITI","","html-keyboard-response","311","383717","0.0-1.0-423.0","0","0","46975","","null","","","null","46","","","","","","","","","","","","","","","NaN",""
"","S1","","html-keyboard-response","312","383969","0.0-1.0-425.0","0","0","46975","","null","","","null","47","","","","","","","","","","","","","","","",""
"","ISI","","html-keyboard-response","313","384973","0.0-1.0-426.0","0","0","46975","","null","","","null","47","NaN","","","","","","","","","","","","","","",""
"","S2","","html-keyboard-response","314","385226","0.0-1.0-427.0","0","0","46975","","null","","","null","47","","NaN","","","","","","","","","","","","","",""
"","response","","html-keyboard-response","315","385825","0.0-1.0-428.0-0.0","0","0","46975","","597","","","75","47","","","1","47","training","adjacent","DE","4","5","R.jpg","N.jpg","1","1","1","",""
"","feedback","","html-keyboard-response","316","386829","0.0-1.0-429.0-0.0","0","0","46975","","null","","","null","47","","","","","","","","","","","","","","","",""
"","ITI","","html-keyboard-response","317","387832","0.0-1.0-432.0","0","0","46975","","null","","","null","47","","","","","","","","","","","","","","","NaN",""
"","block_over","","html-keyboard-response","318","391944","0.0-1.0-433.0-0.0","0","0","46975","","4108","","","32","47","","","","","","","","","","","","","","","",""
"","S1","","html-keyboard-response","319","392199","0.0-1.0-434.0","0","0","46975","","null","","","null","48","","","","","","","","","","","","","","","",""
"","ISI","","html-keyboard-response","320","393202","0.0-1.0-435.0","0","0","46975","","null","","","null","48","NaN","","","","","","","","","","","","","","",""
"","S2","","html-keyboard-response","321","393456","0.0-1.0-436.0","0","0","46975","","null","","","null","48","","NaN","","","","","","","","","","","","","",""
"","response","","html-keyboard-response","322","395211","0.0-1.0-437.0-0.0","0","0","46975","","null","","","null","48","","","2","48","training","adjacent","EF","5","6","N.jpg","O.jpg","NaN","1","0","",""
"","too_slow_prompt","","html-keyboard-response","323","396215","0.0-1.0-439.0-0.0","1","0","46975","","null","","","null","","","","","","","","","","","","","","","","",""
"","time_out","","html-keyboard-response","324","398218","0.0-1.0-440.0-0.0","0","0","46975","","null","","","null","48","","","","","","","","","","","","","","","",""
"","ITI","","html-keyboard-response","325","399220","0.0-1.0-441.0","0","0","46975","","null","","","null","48","","","","","","","","","","","","","","","NaN",""
"","S1","","html-keyboard-response","326","399474","0.0-1.0-443.0","0","0","46975","","null","","","null","49","","","","","","","","","","","","","","","",""
"","ISI","","html-keyboard-response","327","400477","0.0-1.0-444.0","0","0","46975","","null","","","null","49","NaN","","","","","","","","","","","","","","",""
"","S2","","html-keyboard-response","328","400731","0.0-1.0-445.0","0","0","46975","","null","","","null","49","","NaN","","","","","","","","","","","","","",""
"","response","","html-keyboard-response","329","400994","0.0-1.0-446.0-0.0","0","0","46975","","261","","","75","49","","","2","49","training","adjacent","FE","6","5","O.jpg","N.jpg","1","0","0","",""
"","feedback","","html-keyboard-response","330","401997","0.0-1.0-447.0-0.0","0","0","46975","","null","","","null","49","","","","","","","","","","","","","","","",""
"","time_out","","html-keyboard-response","331","403999","0.0-1.0-449.0-0.0","0","0","46975","","null","","","null","49","","","","","","","","","","","","","","","",""
"","ITI","","html-keyboard-response","332","405003","0.0-1.0-450.0","0","0","46975","","null","","","null","49","","","","","","","","","","","","","","","NaN",""
"","S1","","html-keyboard-response","333","405256","0.0-1.0-452.0","0","0","46975","","null","","","null","50","","","","","","","","","","","","","","","",""
"","ISI","","html-keyboard-response","334","406260","0.0-1.0-453.0","0","0","46975","","null","","","null","50","NaN","","","","","","","","","","","","","","",""
"","S2","","html-keyboard-response","335","406513","0.0-1.0-454.0","0","0","46975","","null","","","null","50","","NaN","","","","","","","","","","","","","",""
"","response","","html-keyboard-response","336","406835","0.0-1.0-455.0-0.0","0","0","46975","","320","","","68","50","","","2","50","training","adjacent","DC","4","3","R.jpg","Q.jpg","0","0","1","",""
"","feedback","","html-keyboard-response","337","407839","0.0-1.0-456.0-0.0","0","0","46975","","null","","","null","50","","","","","","","","","","","","","","","",""
"","ITI","","html-keyboard-response","338","408842","0.0-1.0-459.0","0","0","46975","","null","","","null","50","","","","","","","","","","","","","","","NaN",""
"","S1","","html-keyboard-response","339","409096","0.0-1.0-461.0","0","0","46975","","null","","","null","51","","","","","","","","","","","","","","","",""
"","ISI","","html-keyboard-response","340","410099","0.0-1.0-462.0","0","0","46975","","null","","","null","51","NaN","","","","","","","","","","","","","","",""
"","S2","","html-keyboard-response","341","410354","0.0-1.0-463.0","0","0","46975","","null","","","null","51","","NaN","","","","","","","","","","","","","",""
"","response","","html-keyboard-response","342","410451","0.0-1.0-464.0-0.0","0","0","46975","","95","","","68","51","","","2","51","training","adjacent","CB","3","2","Q.jpg","L.jpg","0","0","1","",""
"","feedback","","html-keyboard-response","343","411455","0.0-1.0-465.0-0.0","0","0","46975","","null","","","null","51","","","","","","","","","","","","","","","",""
"","ITI","","html-keyboard-response","344","412458","0.0-1.0-468.0","0","0","46975","","null","","","null","51","","","","","","","","","","","","","","","NaN",""
"","S1","","html-keyboard-response","345","412711","0.0-1.0-470.0","0","0","46975","","null","","","null","52","","","","","","","","","","","","","","","",""
"","ISI","","html-keyboard-response","346","413715","0.0-1.0-471.0","0","0","46975","","null","","","null","52","NaN","","","","","","","","","","","","","","",""
"","S2","","html-keyboard-response","347","413968","0.0-1.0-472.0","0","0","46975","","null","","","null","52","","NaN","","","","","","","","","","","","","",""
"","response","","html-keyboard-response","348","414588","0.0-1.0-473.0-0.0","0","0","46975","","616","","","75","52","","","2","52","training","adjacent","DE","4","5","R.jpg","N.jpg","1","1","1","",""
"","feedback","","html-keyboard-response","349","415592","0.0-1.0-474.0-0.0","0","0","46975","","null","","","null","52","","","","","","","","","","","","","","","",""
"","ITI","","html-keyboard-response","350","416595","0.0-1.0-477.0","0","0","46975","","null","","","null","52","","","","","","","","","","","","","","","NaN",""
"","S1","","html-keyboard-response","351","416848","0.0-1.0-479.0","0","0","46975","","null","","","null","53","","","","","","","","","","","","","","","",""
"","ISI","","html-keyboard-response","352","417852","0.0-1.0-480.0","0","0","46975","","null","","","null","53","NaN","","","","","","","","","","","","","","",""
"","S2","","html-keyboard-response","353","418107","0.0-1.0-481.0","0","0","46975","","null","","","null","53","","NaN","","","","","","","","","","","","","",""
"","response","","html-keyboard-response","354","418636","0.0-1.0-482.0-0.0","0","0","46975","","526","","","68","53","","","2","53","training","adjacent","BC","2","3","L.jpg","Q.jpg","0","1","0","",""
"","feedback","","html-keyboard-response","355","419643","0.0-1.0-483.0-0.0","0","0","46975","","null","","","null","53","","","","","","","","","","","","","","","",""
"","time_out","","html-keyboard-response","356","421646","0.0-1.0-485.0-0.0","0","0","46975","","null","","","null","53","","","","","","","","","","","","","","","",""
"","ITI","","html-keyboard-response","357","422649","0.0-1.0-486.0","0","0","46975","","null","","","null","53","","","","","","","","","","","","","","","NaN",""
"","S1","","html-keyboard-response","358","422902","0.0-1.0-488.0","0","0","46975","","null","","","null","54","","","","","","","","","","","","","","","",""
"","ISI","","html-keyboard-response","359","423904","0.0-1.0-489.0","0","0","46975","","null","","","null","54","NaN","","","","","","","","","","","","","","",""
"","S2","","html-keyboard-response","360","424158","0.0-1.0-490.0","0","0","46975","","null","","","null","54","","NaN","","","","","","","","","","","","","",""
"","response","","html-keyboard-response","361","424480","0.0-1.0-491.0-0.0","0","0","46975","","320","","","75","54","","","2","54","training","adjacent","ED","5","4","N.jpg","R.jpg","1","0","0","",""
"","feedback","","html-keyboard-response","362","425484","0.0-1.0-492.0-0.0","0","0","46975","","null","","","null","54","","","","","","","","","","","","","","","",""
"","time_out","","html-keyboard-response","363","427487","0.0-1.0-494.0-0.0","0","0","46975","","null","","","null","54","","","","","","","","","","","","","","","",""
"","ITI","","html-keyboard-response","364","428489","0.0-1.0-495.0","0","0","46975","","null","","","null","54","","","","","","","","","","","","","","","NaN",""
"","S1","","html-keyboard-response","365","428742","0.0-1.0-497.0","0","0","46975","","null","","","null","55","","","","","","","","","","","","","","","",""
"","ISI","","html-keyboard-response","366","429745","0.0-1.0-498.0","0","0","46975","","null","","","null","55","NaN","","","","","","","","","","","","","","",""
"","S2","","html-keyboard-response","367","429999","0.0-1.0-499.0","0","0","46975","","null","","","null","55","","NaN","","","","","","","","","","","","","",""
"","response","","html-keyboard-response","368","430432","0.0-1.0-500.0-0.0","0","0","46975","","431","","","68","55","","","2","55","training","adjacent","EF","5","6","N.jpg","O.jpg","0","1","0","",""
"","feedback","","html-keyboard-response","369","431435","0.0-1.0-501.0-0.0","0","0","46975","","null","","","null","55","","","","","","","","","","","","","","","",""
"","time_out","","html-keyboard-response","370","433438","0.0-1.0-503.0-0.0","0","0","46975","","null","","","null","55","","","","","","","","","","","","","","","",""
"","ITI","","html-keyboard-response","371","434443","0.0-1.0-504.0","0","0","46975","","null","","","null","55","","","","","","","","","","","","","","","NaN",""
"","S1","","html-keyboard-response","372","434696","0.0-1.0-506.0","0","0","46975","","null","","","null","56","","","","","","","","","","","","","","","",""
"","ISI","","html-keyboard-response","373","435702","0.0-1.0-507.0","0","0","46975","","null","","","null","56","NaN","","","","","","","","","","","","","","",""
"","S2","","html-keyboard-response","374","435957","0.0-1.0-508.0","0","0","46975","","null","","","null","56","","NaN","","","","","","","","","","","","","",""
"","response","","html-keyboard-response","375","436413","0.0-1.0-509.0-0.0","0","0","46975","","452","","","75","56","","","2","56","training","adjacent","ED","5","4","N.jpg","R.jpg","1","0","0","",""
"","feedback","","html-keyboard-response","376","437417","0.0-1.0-510.0-0.0","0","0","46975","","null","","","null","56","","","","","","","","","","","","","","","",""
"","time_out","","html-keyboard-response","377","439419","0.0-1.0-512.0-0.0","0","0","46975","","null","","","null","56","","","","","","","","","","","","","","","",""
"","ITI","","html-keyboard-response","378","440421","0.0-1.0-513.0","0","0","46975","","null","","","null","56","","","","","","","","","","","","","","","NaN",""
"","S1","","html-keyboard-response","379","440675","0.0-1.0-515.0","0","0","46975","","null","","","null","57","","","","","","","","","","","","","","","",""
"","ISI","","html-keyboard-response","380","441679","0.0-1.0-516.0","0","0","46975","","null","","","null","57","NaN","","","","","","","","","","","","","","",""
"","S2","","html-keyboard-response","381","441932","0.0-1.0-517.0","0","0","46975","","null","","","null","57","","NaN","","","","","","","","","","","","","",""
"","response","","html-keyboard-response","382","441939","0.0-1.0-518.0-0.0","0","0","46975","","5","","","75","57","","","2","57","training","adjacent","AB","1","2","M.jpg","L.jpg","1","1","1","",""
"","feedback","","html-keyboard-response","383","442942","0.0-1.0-519.0-0.0","0","0","46975","","null","","","null","57","","","","","","","","","","","","","","","",""
"","ITI","","html-keyboard-response","384","443946","0.0-1.0-522.0","0","0","46975","","null","","","null","57","","","","","","","","","","","","","","","NaN",""
"","S1","","html-keyboard-response","385","444199","0.0-1.0-524.0","0","0","46975","","null","","","null","58","","","","","","","","","","","","","","","",""
"","ISI","","html-keyboard-response","386","445201","0.0-1.0-525.0","0","0","46975","","null","","","null","58","NaN","","","","","","","","","","","","","","",""
"","S2","","html-keyboard-response","387","445454","0.0-1.0-526.0","0","0","46975","","null","","","null","58","","NaN","","","","","","","","","","","","","",""
"","response","","html-keyboard-response","388","445729","0.0-1.0-527.0-0.0","0","0","46975","","272","","","75","58","","","2","58","training","adjacent","AB","1","2","M.jpg","L.jpg","1","1","1","",""
"","feedback","","html-keyboard-response","389","446733","0.0-1.0-528.0-0.0","0","0","46975","","null","","","null","58","","","","","","","","","","","","","","","",""
"","ITI","","html-keyboard-response","390","447736","0.0-1.0-531.0","0","0","46975","","null","","","null","58","","","","","","","","","","","","","","","NaN",""
"","S1","","html-keyboard-response","391","447989","0.0-1.0-533.0","0","0","46975","","null","","","null","59","","","","","","","","","","","","","","","",""
"","ISI","","html-keyboard-response","392","448994","0.0-1.0-534.0","0","0","46975","","null","","","null","59","NaN","","","","","","","","","","","","","","",""
"","S2","","html-keyboard-response","393","449249","0.0-1.0-535.0","0","0","46975","","null","","","null","59","","NaN","","","","","","","","","","","","","",""
"","response","","html-keyboard-response","394","449637","0.0-1.0-536.0-0.0","0","0","46975","","386","","","75","59","","","2","59","training","adjacent","FE","6","5","O.jpg","N.jpg","1","0","0","",""
"","feedback","","html-keyboard-response","395","450640","0.0-1.0-537.0-0.0","0","0","46975","","null","","","null","59","","","","","","","","","","","","","","","",""
"","time_out","","html-keyboard-response","396","452643","0.0-1.0-539.0-0.0","0","0","46975","","null","","","null","59","","","","","","","","","","","","","","","",""
"","ITI","","html-keyboard-response","397","453647","0.0-1.0-540.0","0","0","46975","","null","","","null","59","","","","","","","","","","","","","","","NaN",""
"","S1","","html-keyboard-response","398","453899","0.0-1.0-542.0","0","0","46975","","null","","","null","60","","","","","","","","","","","","","","","",""
"","ISI","","html-keyboard-response","399","454901","0.0-1.0-543.0","0","0","46975","","null","","","null","60","NaN","","","","","","","","","","","","","","",""
"","S2","","html-keyboard-response","400","455157","0.0-1.0-544.0","0","0","46975","","null","","","null","60","","NaN","","","","","","","","","","","","","",""
"","response","","html-keyboard-response","401","455528","0.0-1.0-545.0-0.0","0","0","46975","","370","","","75","60","","","2","60","training","adjacent","AB","1","2","M.jpg","L.jpg","1","1","1","",""
"","feedback","","html-keyboard-response","402","456532","0.0-1.0-546.0-0.0","0","0","46975","","null","","","null","60","","","","","","","","","","","","","","","",""
"","ITI","","html-keyboard-response","403","457535","0.0-1.0-549.0","0","0","46975","","null","","","null","60","","","","","","","","","","","","","","","NaN",""
"","S1","","html-keyboard-response","404","457787","0.0-1.0-551.0","0","0","46975","","null","","","null","61","","","","","","","","","","","","","","","",""
"","ISI","","html-keyboard-response","405","458789","0.0-1.0-552.0","0","0","46975","","227","","","68","61","d","","","","","","","","","","","","","","",""
"","S2","","html-keyboard-response","406","459042","0.0-1.0-553.0","0","0","46975","","null","","","null","61","","NaN","","","","","","","","","","","","","",""
"","response","","html-keyboard-response","407","459407","0.0-1.0-554.0-0.0","0","0","46975","","361","","","68","61","","","2","61","training","adjacent","DC","4","3","R.jpg","Q.jpg","0","0","1","",""
"","feedback","","html-keyboard-response","408","460411","0.0-1.0-555.0-0.0","0","0","46975","","null","","","null","61","","","","","","","","","","","","","","","",""
"","ITI","","html-keyboard-response","409","461414","0.0-1.0-558.0","0","0","46975","","null","","","null","61","","","","","","","","","","","","","","","NaN",""
"","S1","","html-keyboard-response","410","461667","0.0-1.0-560.0","0","0","46975","","null","","","null","62","","","","","","","","","","","","","","","",""
"","ISI","","html-keyboard-response","411","462670","0.0-1.0-561.0","0","0","46975","","null","","","null","62","NaN","","","","","","","","","","","","","","",""
"","S2","","html-keyboard-response","412","462923","0.0-1.0-562.0","0","0","46975","","null","","","null","62","","NaN","","","","","","","","","","","","","",""
"","response","","html-keyboard-response","413","462935","0.0-1.0-563.0-0.0","0","0","46975","","10","","","68","62","","","2","62","training","adjacent","BC","2","3","L.jpg","Q.jpg","0","1","0","",""
"","feedback","","html-keyboard-response","414","463938","0.0-1.0-564.0-0.0","0","0","46975","","null","","","null","62","","","","","","","","","","","","","","","",""
"","time_out","","html-keyboard-response","415","465940","0.0-1.0-566.0-0.0","0","0","46975","","null","","","null","62","","","","","","","","","","","","","","","",""
"","ITI","","html-keyboard-response","416","466944","0.0-1.0-567.0","0","0","46975","","null","","","null","62","","","","","","","","","","","","","","","NaN",""
"","S1","","html-keyboard-response","417","467197","0.0-1.0-569.0","0","0","46975","","null","","","null","63","","","","","","","","","","","","","","","",""
"","ISI","","html-keyboard-response","418","468199","0.0-1.0-570.0","0","0","46975","","null","","","null","63","NaN","","","","","","","","","","","","","","",""
"","S2","","html-keyboard-response","419","468452","0.0-1.0-571.0","0","0","46975","","null","","","null","63","","NaN","","","","","","","","","","","","","",""
"","response","","html-keyboard-response","420","468674","0.0-1.0-572.0-0.0","0","0","46975","","218","","","68","63","","","2","63","training","adjacent","CD","3","4","Q.jpg","R.jpg","0","1","0","",""
"","feedback","","html-keyboard-response","421","469679","0.0-1.0-573.0-0.0","0","0","46975","","null","","","null","63","","","","","","","","","","","","","","","",""
"","time_out","","html-keyboard-response","422","471682","0.0-1.0-575.0-0.0","0","0","46975","","null","","","null","63","","","","","","","","","","","","","","","",""
"","ITI","","html-keyboard-response","423","472689","0.0-1.0-576.0","0","0","46975","","null","","","null","63","","","","","","","","","","","","","","","NaN",""
"","S1","","html-keyboard-response","424","472941","0.0-1.0-578.0","0","0","46975","","null","","","null","64","","","","","","","","","","","","","","","",""
"","ISI","","html-keyboard-response","425","473944","0.0-1.0-579.0","0","0","46975","","null","","","null","64","NaN","","","","","","","","","","","","","","",""
"","S2","","html-keyboard-response","426","474058","0.0-1.0-580.0","0","0","46975","","111","","","75","64","","k","2","64","training","adjacent","CB","3","2","Q.jpg","L.jpg","1","0","0","",""
"","feedback","","html-keyboard-response","427","475062","0.0-1.0-582.0-0.0","0","0","46975","","null","","","null","64","","","","","","","","","","","","","","","",""
"","time_out","","html-keyboard-response","428","477065","0.0-1.0-584.0-0.0","0","0","46975","","null","","","null","64","","","","","","","","","","","","","","","",""
"","ITI","","html-keyboard-response","429","478067","0.0-1.0-585.0","0","0","46975","","null","","","null","64","","","","","","","","","","","","","","","NaN",""
"","S1","","html-keyboard-response","430","478320","0.0-1.0-587.0","0","0","46975","","null","","","null","65","","","","","","","","","","","","","","","",""
"","ISI","","html-keyboard-response","431","479323","0.0-1.0-588.0","0","0","46975","","null","","","null","65","NaN","","","","","","","","","","","","","","",""
"","S2","","html-keyboard-response","432","479575","0.0-1.0-589.0","0","0","46975","","null","","","null","65","","NaN","","","","","","","","","","","","","",""
"","response","","html-keyboard-response","433","479945","0.0-1.0-590.0-0.0","0","0","46975","","367","","","75","65","","","2","65","training","adjacent","EF","5","6","N.jpg","O.jpg","1","1","1","",""
"","feedback","","html-keyboard-response","434","480948","0.0-1.0-591.0-0.0","0","0","46975","","null","","","null","65","","","","","","","","","","","","","","","",""
"","ITI","","html-keyboard-response","435","481952","0.0-1.0-594.0","0","0","46975","","null","","","null","65","","","","","","","","","","","","","","","NaN",""
"","S1","","html-keyboard-response","436","482205","0.0-1.0-596.0","0","0","46975","","null","","","null","66","","","","","","","","","","","","","","","",""
"","ISI","","html-keyboard-response","437","483208","0.0-1.0-597.0","0","0","46975","","null","","","null","66","NaN","","","","","","","","","","","","","","",""
"","S2","","html-keyboard-response","438","483461","0.0-1.0-598.0","0","0","46975","","null","","","null","66","","NaN","","","","","","","","","","","","","",""
"","response","","html-keyboard-response","439","483814","0.0-1.0-599.0-0.0","0","0","46975","","351","","","68","66","","","2","66","training","adjacent","DE","4","5","R.jpg","N.jpg","0","1","0","",""
"","feedback","","html-keyboard-response","440","484817","0.0-1.0-600.0-0.0","0","0","46975","","null","","","null","66","","","","","","","","","","","","","","","",""
"","time_out","","html-keyboard-response","441","486820","0.0-1.0-602.0-0.0","0","0","46975","","null","","","null","66","","","","","","","","","","","","","","","",""
"","ITI","","html-keyboard-response","442","487823","0.0-1.0-603.0","0","0","46975","","null","","","null","66","","","","","","","","","","","","","","","NaN",""
"","S1","","html-keyboard-response","443","488076","0.0-1.0-605.0","0","0","46975","","null","","","null","67","","","","","","","","","","","","","","","",""
"","ISI","","html-keyboard-response","444","489079","0.0-1.0-606.0","0","0","46975","","null","","","null","67","NaN","","","","","","","","","","","","","","",""
"","S2","","html-keyboard-response","445","489335","0.0-1.0-607.0","0","0","46975","","null","","","null","67","","NaN","","","","","","","","","","","","","",""
"","response","","html-keyboard-response","446","490423","0.0-1.0-608.0-0.0","0","0","46975","","1086","","","75","67","","","2","67","training","adjacent","AB","1","2","M.jpg","L.jpg","1","1","1","",""
"","feedback","","html-keyboard-response","447","491428","0.0-1.0-609.0-0.0","0","0","46975","","null","","","null","67","","","","","","","","","","","","","","","",""
"","ITI","","html-keyboard-response","448","492430","0.0-1.0-612.0","0","0","46975","","null","","","null","67","","","","","","","","","","","","","","","NaN",""
"","S1","","html-keyboard-response","449","492683","0.0-1.0-614.0","0","0","46975","","null","","","null","68","","","","","","","","","","","","","","","",""
"","ISI","","html-keyboard-response","450","493686","0.0-1.0-615.0","0","0","46975","","null","","","null","68","NaN","","","","","","","","","","","","","","",""
"","S2","","html-keyboard-response","451","493938","0.0-1.0-616.0","0","0","46975","","null","","","null","68","","NaN","","","","","","","","","","","","","",""
"","response","","html-keyboard-response","452","494035","0.0-1.0-617.0-0.0","0","0","46975","","95","","","68","68","","","2","68","training","adjacent","GF","7","6","P.jpg","O.jpg","0","0","1","",""
"","feedback","","html-keyboard-response","453","495039","0.0-1.0-618.0-0.0","0","0","46975","","null","","","null","68","","","","","","","","","","","","","","","",""
"","ITI","","html-keyboard-response","454","496042","0.0-1.0-621.0","0","0","46975","","null","","","null","68","","","","","","","","","","","","","","","NaN",""
"","S1","","html-keyboard-response","455","496296","0.0-1.0-623.0","0","0","46975","","null","","","null","69","","","","","","","","","","","","","","","",""
"","ISI","","html-keyboard-response","456","497308","0.0-1.0-624.0","0","0","46975","","null","","","null","69","NaN","","","","","","","","","","","","","","",""
"","S2","","html-keyboard-response","457","497562","0.0-1.0-625.0","0","0","46975","","null","","","null","69","","NaN","","","","","","","","","","","","","",""
"","response","","html-keyboard-response","458","497744","0.0-1.0-626.0-0.0","0","0","46975","","181","","","68","69","","","2","69","training","adjacent","ED","5","4","N.jpg","R.jpg","0","0","1","",""
"","feedback","","html-keyboard-response","459","498748","0.0-1.0-627.0-0.0","0","0","46975","","null","","","null","69","","","","","","","","","","","","","","","",""
"","ITI","","html-keyboard-response","460","499752","0.0-1.0-630.0","0","0","46975","","null","","","null","69","","","","","","","","","","","","","","","NaN",""
"","S1","","html-keyboard-response","461","500009","0.0-1.0-632.0","0","0","46975","","null","","","null","70","","","","","","","","","","","","","","","",""
"","ISI","","html-keyboard-response","462","501012","0.0-1.0-633.0","0","0","46975","","null","","","null","70","NaN","","","","","","","","","","","","","","",""
"","S2","","html-keyboard-response","463","501265","0.0-1.0-634.0","0","0","46975","","null","","","null","70","","NaN","","","","","","","","","","","","","",""
"","response","","html-keyboard-response","464","501691","0.0-1.0-635.0-0.0","0","0","46975","","423","","","68","70","","","2","70","training","adjacent","BA","2","1","L.jpg","M.jpg","0","0","1","",""
"","feedback","","html-keyboard-response","465","502697","0.0-1.0-636.0-0.0","0","0","46975","","null","","","null","70","","","","","","","","","","","","","","","",""
"","ITI","","html-keyboard-response","466","503700","0.0-1.0-639.0","0","0","46975","","null","","","null","70","","","","","","","","","","","","","","","NaN",""
"","S1","","html-keyboard-response","467","503952","0.0-1.0-641.0","0","0","46975","","null","","","null","71","","","","","","","","","","","","","","","",""
"","ISI","","html-keyboard-response","468","504955","0.0-1.0-642.0","0","0","46975","","null","","","null","71","NaN","","","","","","","","","","","","","","",""
"","S2","","html-keyboard-response","469","505208","0.0-1.0-643.0","0","0","46975","","null","","","null","71","","NaN","","","","","","","","","","","","","",""
"","response","","html-keyboard-response","470","505527","0.0-1.0-644.0-0.0","0","0","46975","","317","","","68","71","","","2","71","training","adjacent","BA","2","1","L.jpg","M.jpg","0","0","1","",""
"","feedback","","html-keyboard-response","471","506529","0.0-1.0-645.0-0.0","0","0","46975","","null","","","null","71","","","","","","","","","","","","","","","",""
"","ITI","","html-keyboard-response","472","507534","0.0-1.0-648.0","0","0","46975","","null","","","null","71","","","","","","","","","","","","","","","NaN",""
"","S1","","html-keyboard-response","473","507787","0.0-1.0-650.0","0","0","46975","","null","","","null","72","","","","","","","","","","","","","","","",""
"","ISI","","html-keyboard-response","474","508791","0.0-1.0-651.0","0","0","46975","","null","","","null","72","NaN","","","","","","","","","","","","","","",""
"","S2","","html-keyboard-response","475","509044","0.0-1.0-652.0","0","0","46975","","null","","","null","72","","NaN","","","","","","","","","","","","","",""
"","response","","html-keyboard-response","476","509420","0.0-1.0-653.0-0.0","0","0","46975","","375","","","68","72","","","2","72","training","adjacent","CD","3","4","Q.jpg","R.jpg","0","1","0","",""
"","feedback","","html-keyboard-response","477","510425","0.0-1.0-654.0-0.0","0","0","46975","","null","","","null","72","","","","","","","","","","","","","","","",""
"","time_out","","html-keyboard-response","478","512431","0.0-1.0-656.0-0.0","0","0","46975","","null","","","null","72","","","","","","","","","","","","","","","",""
"","ITI","","html-keyboard-response","479","513434","0.0-1.0-657.0","0","0","46975","","null","","","null","72","","","","","","","","","","","","","","","NaN",""
"","S1","","html-keyboard-response","480","513688","0.0-1.0-659.0","0","0","46975","","null","","","null","73","","","","","","","","","","","","","","","",""
"","ISI","","html-keyboard-response","481","514691","0.0-1.0-660.0","0","0","46975","","null","","","null","73","NaN","","","","","","","","","","","","","","",""
"","S2","","html-keyboard-response","482","514945","0.0-1.0-661.0","0","0","46975","","null","","","null","73","","NaN","","","","","","","","","","","","","",""
"","response","","html-keyboard-response","483","515467","0.0-1.0-662.0-0.0","0","0","46975","","519","","","75","73","","","2","73","training","adjacent","FG","6","7","O.jpg","P.jpg","1","1","1","",""
"","feedback","","html-keyboard-response","484","516470","0.0-1.0-663.0-0.0","0","0","46975","","null","","","null","73","","","","","","","","","","","","","","","",""
"","ITI","","html-keyboard-response","485","517474","0.0-1.0-666.0","0","0","46975","","null","","","null","73","","","","","","","","","","","","","","","NaN",""
"","S1","","html-keyboard-response","486","517727","0.0-1.0-668.0","0","0","46975","","null","","","null","74","","","","","","","","","","","","","","","",""
"","ISI","","html-keyboard-response","487","518729","0.0-1.0-669.0","0","0","46975","","null","","","null","74","NaN","","","","","","","","","","","","","","",""
"","S2","","html-keyboard-response","488","518983","0.0-1.0-670.0","0","0","46975","","null","","","null","74","","NaN","","","","","","","","","","","","","",""
"","response","","html-keyboard-response","489","519735","0.0-1.0-671.0-0.0","0","0","46975","","750","","","75","74","","","2","74","training","adjacent","CD","3","4","Q.jpg","R.jpg","1","1","1","",""
"","feedback","","html-keyboard-response","490","520738","0.0-1.0-672.0-0.0","0","0","46975","","null","","","null","74","","","","","","","","","","","","","","","",""
"","ITI","","html-keyboard-response","491","521741","0.0-1.0-675.0","0","0","46975","","null","","","null","74","","","","","","","","","","","","","","","NaN",""
"","S1","","html-keyboard-response","492","521995","0.0-1.0-677.0","0","0","46975","","null","","","null","75","","","","","","","","","","","","","","","",""
"","ISI","","html-keyboard-response","493","522998","0.0-1.0-678.0","0","0","46975","","null","","","null","75","NaN","","","","","","","","","","","","","","",""
"","S2","","html-keyboard-response","494","523253","0.0-1.0-679.0","0","0","46975","","null","","","null","75","","NaN","","","","","","","","","","","","","",""
"","response","","html-keyboard-response","495","523729","0.0-1.0-680.0-0.0","0","0","46975","","473","","","75","75","","","2","75","training","adjacent","CD","3","4","Q.jpg","R.jpg","1","1","1","",""
"","feedback","","html-keyboard-response","496","524734","0.0-1.0-681.0-0.0","0","0","46975","","null","","","null","75","","","","","","","","","","","","","","","",""
"","ITI","","html-keyboard-response","497","525736","0.0-1.0-684.0","0","0","46975","","null","","","null","75","","","","","","","","","","","","","","","NaN",""
"","S1","","html-keyboard-response","498","525990","0.0-1.0-686.0","0","0","46975","","null","","","null","76","","","","","","","","","","","","","","","",""
"","ISI","","html-keyboard-response","499","526993","0.0-1.0-687.0","0","0","46975","","null","","","null","76","NaN","","","","","","","","","","","","","","",""
"","S2","","html-keyboard-response","500","527246","0.0-1.0-688.0","0","0","46975","","null","","","null","76","","NaN","","","","","","","","","","","","","",""
"","response","","html-keyboard-response","501","527688","0.0-1.0-689.0-0.0","0","0","46975","","438","","","75","76","","","2","76","training","adjacent","FG","6","7","O.jpg","P.jpg","1","1","1","",""
"","feedback","","html-keyboard-response","502","528692","0.0-1.0-690.0-0.0","0","0","46975","","null","","","null","76","","","","","","","","","","","","","","","",""
"","ITI","","html-keyboard-response","503","529695","0.0-1.0-693.0","0","0","46975","","null","","","null","76","","","","","","","","","","","","","","","NaN",""
"","S1","","html-keyboard-response","504","529948","0.0-1.0-695.0","0","0","46975","","null","","","null","77","","","","","","","","","","","","","","","",""
"","ISI","","html-keyboard-response","505","530952","0.0-1.0-696.0","0","0","46975","","null","","","null","77","NaN","","","","","","","","","","","","","","",""
"","S2","","html-keyboard-response","506","531206","0.0-1.0-697.0","0","0","46975","","null","","","null","77","","NaN","","","","","","","","","","","","","",""
"","response","","html-keyboard-response","507","531511","0.0-1.0-698.0-0.0","0","0","46975","","304","","","75","77","","","2","77","training","adjacent","EF","5","6","N.jpg","O.jpg","1","1","1","",""
"","feedback","","html-keyboard-response","508","532515","0.0-1.0-699.0-0.0","0","0","46975","","null","","","null","77","","","","","","","","","","","","","","","",""
"","ITI","","html-keyboard-response","509","533518","0.0-1.0-702.0","0","0","46975","","null","","","null","77","","","","","","","","","","","","","","","NaN",""
"","S1","","html-keyboard-response","510","533770","0.0-1.0-704.0","0","0","46975","","null","","","null","78","","","","","","","","","","","","","","","",""
"","ISI","","html-keyboard-response","511","534774","0.0-1.0-705.0","0","0","46975","","null","","","null","78","NaN","","","","","","","","","","","","","","",""
"","S2","","html-keyboard-response","512","535026","0.0-1.0-706.0","0","0","46975","","null","","","null","78","","NaN","","","","","","","","","","","","","",""
"","response","","html-keyboard-response","513","535317","0.0-1.0-707.0-0.0","0","0","46975","","288","","","68","78","","","2","78","training","adjacent","BA","2","1","L.jpg","M.jpg","0","0","1","",""
"","feedback","","html-keyboard-response","514","536319","0.0-1.0-708.0-0.0","0","0","46975","","null","","","null","78","","","","","","","","","","","","","","","",""
"","ITI","","html-keyboard-response","515","537322","0.0-1.0-711.0","0","0","46975","","null","","","null","78","","","","","","","","","","","","","","","NaN",""
"","S1","","html-keyboard-response","516","537575","0.0-1.0-713.0","0","0","46975","","null","","","null","79","","","","","","","","","","","","","","","",""
"","ISI","","html-keyboard-response","517","538578","0.0-1.0-714.0","0","0","46975","","null","","","null","79","NaN","","","","","","","","","","","","","","",""
"","S2","","html-keyboard-response","518","538830","0.0-1.0-715.0","0","0","46975","","null","","","null","79","","NaN","","","","","","","","","","","","","",""
"","response","","html-keyboard-response","519","538979","0.0-1.0-716.0-0.0","0","0","46975","","148","","","68","79","","","2","79","training","adjacent","FG","6","7","O.jpg","P.jpg","0","1","0","",""
"","feedback","","html-keyboard-response","520","539982","0.0-1.0-717.0-0.0","0","0","46975","","null","","","null","79","","","","","","","","","","","","","","","",""
"","time_out","","html-keyboard-response","521","541985","0.0-1.0-719.0-0.0","0","0","46975","","null","","","null","79","","","","","","","","","","","","","","","",""
"","ITI","","html-keyboard-response","522","542988","0.0-1.0-720.0","0","0","46975","","null","","","null","79","","","","","","","","","","","","","","","NaN",""
"","S1","","html-keyboard-response","523","543241","0.0-1.0-722.0","0","0","46975","","null","","","null","80","","","","","","","","","","","","","","","",""
"","ISI","","html-keyboard-response","524","544245","0.0-1.0-723.0","0","0","46975","","null","","","null","80","NaN","","","","","","","","","","","","","","",""
"","S2","","html-keyboard-response","525","544499","0.0-1.0-724.0","0","0","46975","","null","","","null","80","","NaN","","","","","","","","","","","","","",""
"","response","","html-keyboard-response","526","544801","0.0-1.0-725.0-0.0","0","0","46975","","299","","","68","80","","","2","80","training","adjacent","BA","2","1","L.jpg","M.jpg","0","0","1","",""
"","feedback","","html-keyboard-response","527","545808","0.0-1.0-726.0-0.0","0","0","46975","","null","","","null","80","","","","","","","","","","","","","","","",""
"","ITI","","html-keyboard-response","528","546812","0.0-1.0-729.0","0","0","46975","","null","","","null","80","","","","","","","","","","","","","","","NaN",""
"","S1","","html-keyboard-response","529","547065","0.0-1.0-731.0","0","0","46975","","null","","","null","81","","","","","","","","","","","","","","","",""
"","ISI","","html-keyboard-response","530","548069","0.0-1.0-732.0","0","0","46975","","null","","","null","81","NaN","","","","","","","","","","","","","","",""
"","S2","","html-keyboard-response","531","548325","0.0-1.0-733.0","0","0","46975","","null","","","null","81","","NaN","","","","","","","","","","","","","",""
"","response","","html-keyboard-response","532","548762","0.0-1.0-734.0-0.0","0","0","46975","","433","","","68","81","","","2","81","training","adjacent","DC","4","3","R.jpg","Q.jpg","0","0","1","",""
"","feedback","","html-keyboard-response","533","549767","0.0-1.0-735.0-0.0","0","0","46975","","null","","","null","81","","","","","","","","","","","","","","","",""
"","ITI","","html-keyboard-response","534","550769","0.0-1.0-738.0","0","0","46975","","null","","","null","81","","","","","","","","","","","","","","","NaN",""
"","S1","","html-keyboard-response","535","551022","0.0-1.0-740.0","0","0","46975","","null","","","null","82","","","","","","","","","","","","","","","",""
"","ISI","","html-keyboard-response","536","552024","0.0-1.0-741.0","0","0","46975","","null","","","null","82","NaN","","","","","","","","","","","","","","",""
"","S2","","html-keyboard-response","537","552276","0.0-1.0-742.0","0","0","46975","","null","","","null","82","","NaN","","","","","","","","","","","","","",""
"","response","","html-keyboard-response","538","552672","0.0-1.0-743.0-0.0","0","0","46975","","393","","","75","82","","","2","82","training","adjacent","ED","5","4","N.jpg","R.jpg","1","0","0","",""
"","feedback","","html-keyboard-response","539","553675","0.0-1.0-744.0-0.0","0","0","46975","","null","","","null","82","","","","","","","","","","","","","","","",""
"","time_out","","html-keyboard-response","540","555679","0.0-1.0-746.0-0.0","0","0","46975","","null","","","null","82","","","","","","","","","","","","","","","",""
"","ITI","","html-keyboard-response","541","556682","0.0-1.0-747.0","0","0","46975","","null","","","null","82","","","","","","","","","","","","","","","NaN",""
"","S1","","html-keyboard-response","542","556939","0.0-1.0-749.0","0","0","46975","","null","","","null","83","","","","","","","","","","","","","","","",""
"","ISI","","html-keyboard-response","543","557941","0.0-1.0-750.0","0","0","46975","","null","","","null","83","NaN","","","","","","","","","","","","","","",""
"","S2","","html-keyboard-response","544","558194","0.0-1.0-751.0","0","0","46975","","null","","","null","83","","NaN","","","","","","","","","","","","","",""
"","response","","html-keyboard-response","545","558405","0.0-1.0-752.0-0.0","0","0","46975","","209","","","75","83","","","2","83","training","adjacent","DC","4","3","R.jpg","Q.jpg","1","0","0","",""
"","feedback","","html-keyboard-response","546","559409","0.0-1.0-753.0-0.0","0","0","46975","","null","","","null","83","","","","","","","","","","","","","","","",""
"","time_out","","html-keyboard-response","547","561413","0.0-1.0-755.0-0.0","0","0","46975","","null","","","null","83","","","","","","","","","","","","","","","",""
"","ITI","","html-keyboard-response","548","562416","0.0-1.0-756.0","0","0","46975","","null","","","null","83","","","","","","","","","","","","","","","NaN",""
"","S1","","html-keyboard-response","549","562669","0.0-1.0-758.0","0","0","46975","","null","","","null","84","","","","","","","","","","","","","","","",""
"","ISI","","html-keyboard-response","550","563673","0.0-1.0-759.0","0","0","46975","","null","","","null","84","NaN","","","","","","","","","","","","","","",""
"","S2","","html-keyboard-response","551","563927","0.0-1.0-760.0","0","0","46975","","null","","","null","84","","NaN","","","","","","","","","","","","","",""
"","response","","html-keyboard-response","552","564426","0.0-1.0-761.0-0.0","0","0","46975","","495","","","68","84","","","2","84","training","adjacent","GF","7","6","P.jpg","O.jpg","0","0","1","",""
"","feedback","","html-keyboard-response","553","565433","0.0-1.0-762.0-0.0","0","0","46975","","null","","","null","84","","","","","","","","","","","","","","","",""
"","ITI","","html-keyboard-response","554","566437","0.0-1.0-765.0","0","0","46975","","null","","","null","84","","","","","","","","","","","","","","","NaN",""
"","S1","","html-keyboard-response","555","566692","0.0-1.0-767.0","0","0","46975","","null","","","null","85","","","","","","","","","","","","","","","",""
"","ISI","","html-keyboard-response","556","567696","0.0-1.0-768.0","0","0","46975","","null","","","null","85","NaN","","","","","","","","","","","","","","",""
"","S2","","html-keyboard-response","557","567951","0.0-1.0-769.0","0","0","46975","","null","","","null","85","","NaN","","","","","","","","","","","","","",""
"","response","","html-keyboard-response","558","568194","0.0-1.0-770.0-0.0","0","0","46975","","241","","","68","85","","","2","85","training","adjacent","BC","2","3","L.jpg","Q.jpg","0","1","0","",""
"","feedback","","html-keyboard-response","559","569199","0.0-1.0-771.0-0.0","0","0","46975","","null","","","null","85","","","","","","","","","","","","","","","",""
"","time_out","","html-keyboard-response","560","571201","0.0-1.0-773.0-0.0","0","0","46975","","null","","","null","85","","","","","","","","","","","","","","","",""
"","ITI","","html-keyboard-response","561","572205","0.0-1.0-774.0","0","0","46975","","null","","","null","85","","","","","","","","","","","","","","","NaN",""
"","S1","","html-keyboard-response","562","572460","0.0-1.0-776.0","0","0","46975","","null","","","null","86","","","","","","","","","","","","","","","",""
"","ISI","","html-keyboard-response","563","573465","0.0-1.0-777.0","0","0","46975","","null","","","null","86","NaN","","","","","","","","","","","","","","",""
"","S2","","html-keyboard-response","564","573718","0.0-1.0-778.0","0","0","46975","","null","","","null","86","","NaN","","","","","","","","","","","","","",""
"","response","","html-keyboard-response","565","573959","0.0-1.0-779.0-0.0","0","0","46975","","239","","","75","86","","","2","86","training","adjacent","BC","2","3","L.jpg","Q.jpg","1","1","1","",""
"","feedback","","html-keyboard-response","566","574962","0.0-1.0-780.0-0.0","0","0","46975","","null","","","null","86","","","","","","","","","","","","","","","",""
"","ITI","","html-keyboard-response","567","575964","0.0-1.0-783.0","0","0","46975","","null","","","null","86","","","","","","","","","","","","","","","NaN",""
"","S1","","html-keyboard-response","568","576218","0.0-1.0-785.0","0","0","46975","","null","","","null","87","","","","","","","","","","","","","","","",""
"","ISI","","html-keyboard-response","569","577222","0.0-1.0-786.0","0","0","46975","","null","","","null","87","NaN","","","","","","","","","","","","","","",""
"","S2","","html-keyboard-response","570","577475","0.0-1.0-787.0","0","0","46975","","null","","","null","87","","NaN","","","","","","","","","","","","","",""
"","response","","html-keyboard-response","571","577922","0.0-1.0-788.0-0.0","0","0","46975","","444","","","75","87","","","2","87","training","adjacent","FG","6","7","O.jpg","P.jpg","1","1","1","",""
"","feedback","","html-keyboard-response","572","578926","0.0-1.0-789.0-0.0","0","0","46975","","null","","","null","87","","","","","","","","","","","","","","","",""
"","ITI","","html-keyboard-response","573","579932","0.0-1.0-792.0","0","0","46975","","null","","","null","87","","","","","","","","","","","","","","","NaN",""
"","S1","","html-keyboard-response","574","580187","0.0-1.0-794.0","0","0","46975","","null","","","null","88","","","","","","","","","","","","","","","",""
"","ISI","","html-keyboard-response","575","581189","0.0-1.0-795.0","0","0","46975","","null","","","null","88","NaN","","","","","","","","","","","","","","",""
"","S2","","html-keyboard-response","576","581442","0.0-1.0-796.0","0","0","46975","","null","","","null","88","","NaN","","","","","","","","","","","","","",""
"","response","","html-keyboard-response","577","581935","0.0-1.0-797.0-0.0","0","0","46975","","492","","","75","88","","","2","88","training","adjacent","CB","3","2","Q.jpg","L.jpg","1","0","0","",""
"","feedback","","html-keyboard-response","578","582940","0.0-1.0-798.0-0.0","0","0","46975","","null","","","null","88","","","","","","","","","","","","","","","",""
"","time_out","","html-keyboard-response","579","584944","0.0-1.0-800.0-0.0","0","0","46975","","null","","","null","88","","","","","","","","","","","","","","","",""
"","ITI","","html-keyboard-response","580","585947","0.0-1.0-801.0","0","0","46975","","null","","","null","88","","","","","","","","","","","","","","","NaN",""
