"success","ttype","start_time","trial_type","trial_index","time_elapsed","internal_node_id","warning","missed_checkup","PID","view_history","rt","responses","repeat_instructions","key_press","index","keypress_isi","keypress_S2","block","trial_num","phase","group_type","pair_type","S1_stim","S2_stim","S1_img","S2_img","S1_chosen","S1_higher","accuracy","keypress_iti","total_bonus_tally"
"true","full_screen","d03032023hr1945","fullscreen","0","3226","0.0-0.0","0","0","18985","","","","","","","","","","","","","","","","","","","","","",""
"","instructions","","instructions","1","16217","0.0-1.0-0.0-0.0","0","0","18985","[{""page_index"":0,""viewing_time"":3570},{""page_index"":1,""viewing_time"":2642},{""page_index"":2,""viewing_time"":4606},{""page_index"":3,""viewing_time"":2157}]","12977","","","","","","","","","","","","","","","","","","","",""
"","comprehension_check","","survey-multi-choice","2","51623","0.0-1.0-0.0-1.0","0","0","18985","","35381","{""Q0"":""False"",""Q1"":""D"",""Q2"":""Only when the screen 'MAKE A CHOICE' is shown"",""Q3"":""Green mark"",""Q4"":""either D or K""}","1","","","","","","","","","","","","","","","","","",""
"","missed_instruction_checkup","","html-keyboard-response","3","55322","0.0-1.0-0.0-2.0-0.0","0","1","18985","","3687","","","32","","","","","","","","","","","","","","","","",""
"","instructions","","instructions","4","76569","0.0-1.0-0.1-0.1","0","0","18985","[{""page_index"":0,""viewing_time"":2094},{""page_index"":1,""viewing_time"":16820},{""page_index"":2,""viewing_time"":1400},{""page_index"":3,""viewing_time"":914}]","21229","","","","","","","","","","","","","","","","","","","",""
"","comprehension_check","","survey-multi-choice","5","93378","0.0-1.0-0.1-1.1","0","0","18985","","16776","{""Q0"":""True"",""Q1"":""D"",""Q2"":""Only when the screen 'MAKE A CHOICE' is shown"",""Q3"":""Green mark"",""Q4"":""either D or K""}","1","","","","","","","","","","","","","","","","","",""
"","missed_instruction_checkup","","html-keyboard-response","6","95880","0.0-1.0-0.1-2.1-0.1","0","1","18985","","2490","","","32","","","","","","","","","","","","","","","","",""
"","instructions","","instructions","7","162781","0.0-1.0-0.2-0.2","0","0","18985","[{""page_index"":0,""viewing_time"":45377},{""page_index"":1,""viewing_time"":11180},{""page_index"":2,""viewing_time"":8613},{""page_index"":3,""viewing_time"":1711}]","66883","","","","","","","","","","","","","","","","","","","",""
"","comprehension_check","","survey-multi-choice","8","220998","0.0-1.0-0.2-1.2","0","0","18985","","58196","{""Q0"":""True"",""Q1"":""K"",""Q2"":""Only when the screen 'MAKE A CHOICE' is shown"",""Q3"":""Green mark"",""Q4"":""either D or K""}","1","","","","","","","","","","","","","","","","","",""
"","missed_instruction_checkup","","html-keyboard-response","9","223346","0.0-1.0-0.2-2.2-0.2","0","1","18985","","2339","","","32","","","","","","","","","","","","","","","","",""
"","instructions","","instructions","10","235121","0.0-1.0-0.3-0.3","0","0","18985","[{""page_index"":0,""viewing_time"":1656},{""page_index"":1,""viewing_time"":1695},{""page_index"":2,""viewing_time"":2568},{""page_index"":3,""viewing_time"":5843}]","11764","","","","","","","","","","","","","","","","","","","",""
"","comprehension_check","","survey-multi-choice","11","257369","0.0-1.0-0.3-1.3","0","0","18985","","22221","{""Q0"":""True"",""Q1"":""K"",""Q2"":""Once the second image appears and while the screen 'MAKE A CHOICE' is shown"",""Q3"":""Green mark"",""Q4"":""either D or K""}","0","","","","","","","","","","","","","","","","","",""
"","start_exp","","html-keyboard-response","12","320490","0.0-1.0-1.0","0","0","18985","","63098","","","32","","","","","","","","","","","","","","","","",""
"","S1","","html-keyboard-response","13","320751","0.0-1.0-2.0","0","0","18985","","null","","","null","0","","","","","","","","","","","","","","","",""
"","ISI","","html-keyboard-response","14","321260","0.0-1.0-3.0","0","0","18985","","null","","","null","0","NaN","","","","","","","","","","","","","","",""
"","S2","","html-keyboard-response","15","321524","0.0-1.0-4.0","0","0","18985","","null","","","null","0","","NaN","","","","","","","","","","","","","",""
"","response","","html-keyboard-response","16","322067","0.0-1.0-5.0-0.0","0","0","18985","","534","","","68","0","","","1","0","training","adjacent","GF","7","6","Q.jpg","R.jpg","0","0","1","",""
"","feedback","","html-keyboard-response","17","323079","0.0-1.0-6.0-0.0","0","0","18985","","null","","","null","0","","","","","","","","","","","","","","","",""
"","ITI","","html-keyboard-response","18","324088","0.0-1.0-9.0","0","0","18985","","null","","","null","0","","","","","","","","","","","","","","","NaN",""
"","S1","","html-keyboard-response","19","324349","0.0-1.0-11.0","0","0","18985","","null","","","null","1","","","","","","","","","","","","","","","",""
"","ISI","","html-keyboard-response","20","324874","0.0-1.0-12.0","0","0","18985","","430","","","68","1","d","","","","","","","","","","","","","","",""
"","S2","","html-keyboard-response","21","325145","0.0-1.0-13.0","0","0","18985","","null","","","null","1","","NaN","","","","","","","","","","","","","",""
"","response","","html-keyboard-response","22","325522","0.0-1.0-14.0-0.0","0","0","18985","","368","","","68","1","","","1","1","training","adjacent","CB","3","2","P.jpg","O.jpg","0","0","1","",""
"","feedback","","html-keyboard-response","23","326532","0.0-1.0-15.0-0.0","0","0","18985","","null","","","null","1","","","","","","","","","","","","","","","",""
"","ITI","","html-keyboard-response","24","327540","0.0-1.0-18.0","0","0","18985","","null","","","null","1","","","","","","","","","","","","","","","NaN",""
"","S1","","html-keyboard-response","25","327795","0.0-1.0-20.0","0","0","18985","","null","","","null","2","","","","","","","","","","","","","","","",""
"","ISI","","html-keyboard-response","26","328302","0.0-1.0-21.0","0","0","18985","","null","","","null","2","NaN","","","","","","","","","","","","","","",""
"","S2","","html-keyboard-response","27","328375","0.0-1.0-22.0","0","0","18985","","67","","","68","2","","d","1","2","training","adjacent","AB","1","2","M.jpg","O.jpg","0","1","0","",""
"","feedback","","html-keyboard-response","28","329381","0.0-1.0-24.0-0.0","0","0","18985","","null","","","null","2","","","","","","","","","","","","","","","",""
"","time_out","","html-keyboard-response","29","331387","0.0-1.0-26.0-0.0","0","0","18985","","null","","","null","2","","","","","","","","","","","","","","","",""
"","ITI","","html-keyboard-response","30","332448","0.0-1.0-27.0","0","0","18985","","null","","","null","2","","","","","","","","","","","","","","","NaN",""
"","S1","","html-keyboard-response","31","332731","0.0-1.0-29.0","0","0","18985","","null","","","null","3","","","","","","","","","","","","","","","",""
"","ISI","","html-keyboard-response","32","333235","0.0-1.0-30.0","0","0","18985","","null","","","null","3","NaN","","","","","","","","","","","","","","",""
"","S2","","html-keyboard-response","33","333493","0.0-1.0-31.0","0","0","18985","","null","","","null","3","","NaN","","","","","","","","","","","","","",""
"","response","","html-keyboard-response","34","333806","0.0-1.0-32.0-0.0","0","0","18985","","307","","","75","3","","","1","3","training","adjacent","EF","5","6","L.jpg","R.jpg","1","1","1","",""
"","feedback","","html-keyboard-response","35","335126","0.0-1.0-33.0-0.0","0","0","18985","","null","","","null","3","","","","","","","","","","","","","","","",""
"","ITI","","html-keyboard-response","36","336155","0.0-1.0-36.0","0","0","18985","","null","","","null","3","","","","","","","","","","","","","","","NaN",""
"","S1","","html-keyboard-response","37","336414","0.0-1.0-38.0","0","0","18985","","null","","","null","4","","","","","","","","","","","","","","","",""
"","ISI","","html-keyboard-response","38","336923","0.0-1.0-39.0","0","0","18985","","null","","","null","4","NaN","","","","","","","","","","","","","","",""
"","S2","","html-keyboard-response","39","337182","0.0-1.0-40.0","0","0","18985","","null","","","null","4","","NaN","","","","","","","","","","","","","",""
"","response","","html-keyboard-response","40","337492","0.0-1.0-41.0-0.0","0","0","18985","","304","","","68","4","","","1","4","training","adjacent","FE","6","5","R.jpg","L.jpg","0","0","1","",""
"","feedback","","html-keyboard-response","41","338507","0.0-1.0-42.0-0.0","0","0","18985","","null","","","null","4","","","","","","","","","","","","","","","",""
"","ITI","","html-keyboard-response","42","339592","0.0-1.0-45.0","0","0","18985","","null","","","null","4","","","","","","","","","","","","","","","NaN",""
"","S1","","html-keyboard-response","43","339846","0.0-1.0-47.0","0","0","18985","","null","","","null","5","","","","","","","","","","","","","","","",""
"","ISI","","html-keyboard-response","44","340355","0.0-1.0-48.0","0","0","18985","","null","","","null","5","NaN","","","","","","","","","","","","","","",""
"","S2","","html-keyboard-response","45","340628","0.0-1.0-49.0","0","0","18985","","null","","","null","5","","NaN","","","","","","","","","","","","","",""
"","response","","html-keyboard-response","46","340993","0.0-1.0-50.0-0.0","0","0","18985","","356","","","75","5","","","1","5","training","adjacent","AB","1","2","M.jpg","O.jpg","1","1","1","",""
"","feedback","","html-keyboard-response","47","342002","0.0-1.0-51.0-0.0","0","0","18985","","null","","","null","5","","","","","","","","","","","","","","","",""
"","ITI","","html-keyboard-response","48","343012","0.0-1.0-54.0","0","0","18985","","null","","","null","5","","","","","","","","","","","","","","","NaN",""
"","S1","","html-keyboard-response","49","343266","0.0-1.0-56.0","0","0","18985","","null","","","null","6","","","","","","","","","","","","","","","",""
"","ISI","","html-keyboard-response","50","343775","0.0-1.0-57.0","0","0","18985","","null","","","null","6","NaN","","","","","","","","","","","","","","",""
"","S2","","html-keyboard-response","51","344036","0.0-1.0-58.0","0","0","18985","","null","","","null","6","","NaN","","","","","","","","","","","","","",""
"","response","","html-keyboard-response","52","344767","0.0-1.0-59.0-0.0","0","0","18985","","726","","","68","6","","","1","6","training","adjacent","FG","6","7","R.jpg","Q.jpg","0","1","0","",""
"","feedback","","html-keyboard-response","53","345777","0.0-1.0-60.0-0.0","0","0","18985","","null","","","null","6","","","","","","","","","","","","","","","",""
"","time_out","","html-keyboard-response","54","347784","0.0-1.0-62.0-0.0","0","0","18985","","null","","","null","6","","","","","","","","","","","","","","","",""
"","ITI","","html-keyboard-response","55","348918","0.0-1.0-63.0","0","0","18985","","null","","","null","6","","","","","","","","","","","","","","","NaN",""
"","S1","","html-keyboard-response","56","349187","0.0-1.0-65.0","0","0","18985","","null","","","null","7","","","","","","","","","","","","","","","",""
"","ISI","","html-keyboard-response","57","349693","0.0-1.0-66.0","0","0","18985","","null","","","null","7","NaN","","","","","","","","","","","","","","",""
"","S2","","html-keyboard-response","58","349951","0.0-1.0-67.0","0","0","18985","","null","","","null","7","","NaN","","","","","","","","","","","","","",""
"","response","","html-keyboard-response","59","350597","0.0-1.0-68.0-0.0","0","0","18985","","640","","","68","7","","","1","7","training","adjacent","DC","4","3","N.jpg","P.jpg","0","0","1","",""
"","feedback","","html-keyboard-response","60","351606","0.0-1.0-69.0-0.0","0","0","18985","","null","","","null","7","","","","","","","","","","","","","","","",""
"","ITI","","html-keyboard-response","61","352616","0.0-1.0-72.0","0","0","18985","","null","","","null","7","","","","","","","","","","","","","","","NaN",""
"","S1","","html-keyboard-response","62","352874","0.0-1.0-74.0","0","0","18985","","null","","","null","8","","","","","","","","","","","","","","","",""
"","ISI","","html-keyboard-response","63","353392","0.0-1.0-75.0","0","0","18985","","null","","","null","8","NaN","","","","","","","","","","","","","","",""
"","S2","","html-keyboard-response","64","353656","0.0-1.0-76.0","0","0","18985","","null","","","null","8","","NaN","","","","","","","","","","","","","",""
"","response","","html-keyboard-response","65","354310","0.0-1.0-77.0-0.0","0","0","18985","","648","","","68","8","","","1","8","training","adjacent","ED","5","4","L.jpg","N.jpg","0","0","1","",""
"","feedback","","html-keyboard-response","66","355318","0.0-1.0-78.0-0.0","0","0","18985","","null","","","null","8","","","","","","","","","","","","","","","",""
"","ITI","","html-keyboard-response","67","356355","0.0-1.0-81.0","0","0","18985","","null","","","null","8","","","","","","","","","","","","","","","NaN",""
"","S1","","html-keyboard-response","68","356612","0.0-1.0-83.0","0","0","18985","","null","","","null","9","","","","","","","","","","","","","","","",""
"","ISI","","html-keyboard-response","69","357161","0.0-1.0-84.0","0","0","18985","","null","","","null","9","NaN","","","","","","","","","","","","","","",""
"","S2","","html-keyboard-response","70","357422","0.0-1.0-85.0","0","0","18985","","null","","","null","9","","NaN","","","","","","","","","","","","","",""
"","response","","html-keyboard-response","71","357910","0.0-1.0-86.0-0.0","0","0","18985","","479","","","68","9","","","1","9","training","adjacent","DE","4","5","N.jpg","L.jpg","0","1","0","",""
"","feedback","","html-keyboard-response","72","358959","0.0-1.0-87.0-0.0","0","0","18985","","null","","","null","9","","","","","","","","","","","","","","","",""
"","time_out","","html-keyboard-response","73","360964","0.0-1.0-89.0-0.0","0","0","18985","","null","","","null","9","","","","","","","","","","","","","","","",""
"","ITI","","html-keyboard-response","74","361979","0.0-1.0-90.0","0","0","18985","","null","","","null","9","","","","","","","","","","","","","","","NaN",""
"","S1","","html-keyboard-response","75","362236","0.0-1.0-92.0","0","0","18985","","null","","","null","10","","","","","","","","","","","","","","","",""
"","ISI","","html-keyboard-response","76","362739","0.0-1.0-93.0","0","0","18985","","null","","","null","10","NaN","","","","","","","","","","","","","","",""
"","S2","","html-keyboard-response","77","363011","0.0-1.0-94.0","0","0","18985","","null","","","null","10","","NaN","","","","","","","","","","","","","",""
"","response","","html-keyboard-response","78","363539","0.0-1.0-95.0-0.0","0","0","18985","","520","","","68","10","","","1","10","training","adjacent","CD","3","4","P.jpg","N.jpg","0","1","0","",""
"","feedback","","html-keyboard-response","79","364726","0.0-1.0-96.0-0.0","0","0","18985","","null","","","null","10","","","","","","","","","","","","","","","",""
"","time_out","","html-keyboard-response","80","366738","0.0-1.0-98.0-0.0","0","0","18985","","null","","","null","10","","","","","","","","","","","","","","","",""
"","ITI","","html-keyboard-response","81","367744","0.0-1.0-99.0","0","0","18985","","null","","","null","10","","","","","","","","","","","","","","","NaN",""
"","S1","","html-keyboard-response","82","368228","0.0-1.0-101.0","0","0","18985","","null","","","null","11","","","","","","","","","","","","","","","",""
"","ISI","","html-keyboard-response","83","368733","0.0-1.0-102.0","0","0","18985","","null","","","null","11","NaN","","","","","","","","","","","","","","",""
"","S2","","html-keyboard-response","84","368991","0.0-1.0-103.0","0","0","18985","","null","","","null","11","","NaN","","","","","","","","","","","","","",""
"","response","","html-keyboard-response","85","369559","0.0-1.0-104.0-0.0","0","0","18985","","560","","","75","11","","","1","11","training","adjacent","FG","6","7","R.jpg","Q.jpg","1","1","1","",""
"","feedback","","html-keyboard-response","86","370572","0.0-1.0-105.0-0.0","0","0","18985","","null","","","null","11","","","","","","","","","","","","","","","",""
"","ITI","","html-keyboard-response","87","371576","0.0-1.0-108.0","0","0","18985","","null","","","null","11","","","","","","","","","","","","","","","NaN",""
"","S1","","html-keyboard-response","88","371850","0.0-1.0-110.0","0","0","18985","","null","","","null","12","","","","","","","","","","","","","","","",""
"","ISI","","html-keyboard-response","89","372369","0.0-1.0-111.0","0","0","18985","","null","","","null","12","NaN","","","","","","","","","","","","","","",""
"","S2","","html-keyboard-response","90","372634","0.0-1.0-112.0","0","0","18985","","null","","","null","12","","NaN","","","","","","","","","","","","","",""
"","response","","html-keyboard-response","91","373135","0.0-1.0-113.0-0.0","0","0","18985","","493","","","75","12","","","1","12","training","adjacent","ED","5","4","L.jpg","N.jpg","1","0","0","",""
"","feedback","","html-keyboard-response","92","374150","0.0-1.0-114.0-0.0","0","0","18985","","null","","","null","12","","","","","","","","","","","","","","","",""
"","time_out","","html-keyboard-response","93","376245","0.0-1.0-116.0-0.0","0","0","18985","","null","","","null","12","","","","","","","","","","","","","","","",""
"","ITI","","html-keyboard-response","94","377252","0.0-1.0-117.0","0","0","18985","","null","","","null","12","","","","","","","","","","","","","","","NaN",""
"","S1","","html-keyboard-response","95","377512","0.0-1.0-119.0","0","0","18985","","null","","","null","13","","","","","","","","","","","","","","","",""
"","ISI","","html-keyboard-response","96","378022","0.0-1.0-120.0","0","0","18985","","null","","","null","13","NaN","","","","","","","","","","","","","","",""
"","S2","","html-keyboard-response","97","378365","0.0-1.0-121.0","0","0","18985","","null","","","null","13","","NaN","","","","","","","","","","","","","",""
"","response","","html-keyboard-response","98","378892","0.0-1.0-122.0-0.0","0","0","18985","","522","","","68","13","","","1","13","training","adjacent","FG","6","7","R.jpg","Q.jpg","0","1","0","",""
"","feedback","","html-keyboard-response","99","379900","0.0-1.0-123.0-0.0","0","0","18985","","null","","","null","13","","","","","","","","","","","","","","","",""
"","time_out","","html-keyboard-response","100","381909","0.0-1.0-125.0-0.0","0","0","18985","","null","","","null","13","","","","","","","","","","","","","","","",""
"","ITI","","html-keyboard-response","101","382917","0.0-1.0-126.0","0","0","18985","","null","","","null","13","","","","","","","","","","","","","","","NaN",""
"","S1","","html-keyboard-response","102","383173","0.0-1.0-128.0","0","0","18985","","null","","","null","14","","","","","","","","","","","","","","","",""
"","ISI","","html-keyboard-response","103","383811","0.0-1.0-129.0","0","0","18985","","341","","","68","14","d","","","","","","","","","","","","","","",""
"","S2","","html-keyboard-response","104","384072","0.0-1.0-130.0","0","0","18985","","null","","","null","14","","NaN","","","","","","","","","","","","","",""
"","response","","html-keyboard-response","105","384806","0.0-1.0-131.0-0.0","0","0","18985","","730","","","68","14","","","1","14","training","adjacent","EF","5","6","L.jpg","R.jpg","0","1","0","",""
"","feedback","","html-keyboard-response","106","385817","0.0-1.0-132.0-0.0","0","0","18985","","null","","","null","14","","","","","","","","","","","","","","","",""
"","time_out","","html-keyboard-response","107","387821","0.0-1.0-134.0-0.0","0","0","18985","","null","","","null","14","","","","","","","","","","","","","","","",""
"","ITI","","html-keyboard-response","108","388826","0.0-1.0-135.0","0","0","18985","","null","","","null","14","","","","","","","","","","","","","","","NaN",""
"","S1","","html-keyboard-response","109","389085","0.0-1.0-137.0","0","0","18985","","null","","","null","15","","","","","","","","","","","","","","","",""
"","ISI","","html-keyboard-response","110","389591","0.0-1.0-138.0","0","0","18985","","null","","","null","15","NaN","","","","","","","","","","","","","","",""
"","S2","","html-keyboard-response","111","389870","0.0-1.0-139.0","0","0","18985","","null","","","null","15","","NaN","","","","","","","","","","","","","",""
"","response","","html-keyboard-response","112","390163","0.0-1.0-140.0-0.0","0","0","18985","","287","","","75","15","","","1","15","training","adjacent","BA","2","1","O.jpg","M.jpg","1","0","0","",""
"","feedback","","html-keyboard-response","113","391172","0.0-1.0-141.0-0.0","0","0","18985","","null","","","null","15","","","","","","","","","","","","","","","",""
"","time_out","","html-keyboard-response","114","393200","0.0-1.0-143.0-0.0","0","0","18985","","null","","","null","15","","","","","","","","","","","","","","","",""
"","ITI","","html-keyboard-response","115","394218","0.0-1.0-144.0","0","0","18985","","null","","","null","15","","","","","","","","","","","","","","","NaN",""
"","S1","","html-keyboard-response","116","394476","0.0-1.0-146.0","0","0","18985","","null","","","null","16","","","","","","","","","","","","","","","",""
"","ISI","","html-keyboard-response","117","394981","0.0-1.0-147.0","0","0","18985","","null","","","null","16","NaN","","","","","","","","","","","","","","",""
"","S2","","html-keyboard-response","118","395378","0.0-1.0-148.0","0","0","18985","","null","","","null","16","","NaN","","","","","","","","","","","","","",""
"","response","","html-keyboard-response","119","395545","0.0-1.0-149.0-0.0","0","0","18985","","163","","","68","16","","","1","16","training","adjacent","FE","6","5","R.jpg","L.jpg","0","0","1","",""
"","feedback","","html-keyboard-response","120","396551","0.0-1.0-150.0-0.0","0","0","18985","","null","","","null","16","","","","","","","","","","","","","","","",""
"","ITI","","html-keyboard-response","121","397883","0.0-1.0-153.0","0","0","18985","","null","","","null","16","","","","","","","","","","","","","","","NaN",""
"","S1","","html-keyboard-response","122","398139","0.0-1.0-155.0","0","0","18985","","null","","","null","17","","","","","","","","","","","","","","","",""
"","ISI","","html-keyboard-response","123","398647","0.0-1.0-156.0","0","0","18985","","null","","","null","17","NaN","","","","","","","","","","","","","","",""
"","S2","","html-keyboard-response","124","398926","0.0-1.0-157.0","0","0","18985","","null","","","null","17","","NaN","","","","","","","","","","","","","",""
"","response","","html-keyboard-response","125","399716","0.0-1.0-158.0-0.0","0","0","18985","","782","","","75","17","","","1","17","training","adjacent","FE","6","5","R.jpg","L.jpg","1","0","0","",""
"","feedback","","html-keyboard-response","126","400725","0.0-1.0-159.0-0.0","0","0","18985","","null","","","null","17","","","","","","","","","","","","","","","",""
"","time_out","","html-keyboard-response","127","402734","0.0-1.0-161.0-0.0","0","0","18985","","null","","","null","17","","","","","","","","","","","","","","","",""
"","ITI","","html-keyboard-response","128","403742","0.0-1.0-162.0","0","0","18985","","null","","","null","17","","","","","","","","","","","","","","","NaN",""
"","S1","","html-keyboard-response","129","403997","0.0-1.0-164.0","0","0","18985","","null","","","null","18","","","","","","","","","","","","","","","",""
"","ISI","","html-keyboard-response","130","404503","0.0-1.0-165.0","0","0","18985","","null","","","null","18","NaN","","","","","","","","","","","","","","",""
"","S2","","html-keyboard-response","131","404759","0.0-1.0-166.0","0","0","18985","","null","","","null","18","","NaN","","","","","","","","","","","","","",""
"","response","","html-keyboard-response","132","405297","0.0-1.0-167.0-0.0","0","0","18985","","531","","","68","18","","","1","18","training","adjacent","FE","6","5","R.jpg","L.jpg","0","0","1","",""
"","feedback","","html-keyboard-response","133","406304","0.0-1.0-168.0-0.0","0","0","18985","","null","","","null","18","","","","","","","","","","","","","","","",""
"","ITI","","html-keyboard-response","134","407312","0.0-1.0-171.0","0","0","18985","","null","","","null","18","","","","","","","","","","","","","","","NaN",""
"","S1","","html-keyboard-response","135","407573","0.0-1.0-173.0","0","0","18985","","null","","","null","19","","","","","","","","","","","","","","","",""
"","ISI","","html-keyboard-response","136","408080","0.0-1.0-174.0","0","0","18985","","null","","","null","19","NaN","","","","","","","","","","","","","","",""
"","S2","","html-keyboard-response","137","408336","0.0-1.0-175.0","0","0","18985","","null","","","null","19","","NaN","","","","","","","","","","","","","",""
"","response","","html-keyboard-response","138","410094","0.0-1.0-176.0-0.0","0","0","18985","","null","","","null","19","","","1","19","training","adjacent","CD","3","4","P.jpg","N.jpg","NaN","1","0","",""
"","too_slow_prompt","","html-keyboard-response","139","411101","0.0-1.0-178.0-0.0","1","0","18985","","null","","","null","","","","","","","","","","","","","","","","",""
"","time_out","","html-keyboard-response","140","413108","0.0-1.0-179.0-0.0","0","0","18985","","null","","","null","19","","","","","","","","","","","","","","","",""
"","ITI","","html-keyboard-response","141","414116","0.0-1.0-180.0","0","0","18985","","null","","","null","19","","","","","","","","","","","","","","","NaN",""
"","S1","","html-keyboard-response","142","414375","0.0-1.0-182.0","0","0","18985","","null","","","null","20","","","","","","","","","","","","","","","",""
"","ISI","","html-keyboard-response","143","414882","0.0-1.0-183.0","0","0","18985","","null","","","null","20","NaN","","","","","","","","","","","","","","",""
"","S2","","html-keyboard-response","144","415146","0.0-1.0-184.0","0","0","18985","","null","","","null","20","","NaN","","","","","","","","","","","","","",""
"","response","","html-keyboard-response","145","416410","0.0-1.0-185.0-0.0","0","0","18985","","1256","","","68","20","","","1","20","training","adjacent","AB","1","2","M.jpg","O.jpg","0","1","0","",""
"","feedback","","html-keyboard-response","146","417417","0.0-1.0-186.0-0.0","0","0","18985","","null","","","null","20","","","","","","","","","","","","","","","",""
"","time_out","","html-keyboard-response","147","419446","0.0-1.0-188.0-0.0","0","0","18985","","null","","","null","20","","","","","","","","","","","","","","","",""
"","ITI","","html-keyboard-response","148","420452","0.0-1.0-189.0","0","0","18985","","534","","","75","20","","","","","","","","","","","","","","","k",""
"","S1","","html-keyboard-response","149","420709","0.0-1.0-191.0","0","0","18985","","null","","","null","21","","","","","","","","","","","","","","","",""
"","ISI","","html-keyboard-response","150","421214","0.0-1.0-192.0","0","0","18985","","94","","","68","21","d","","","","","","","","","","","","","","",""
"","S2","","html-keyboard-response","151","421332","0.0-1.0-193.0","0","0","18985","","112","","","68","21","","d","1","21","training","adjacent","BC","2","3","O.jpg","P.jpg","0","1","0","",""
"","feedback","","html-keyboard-response","152","422358","0.0-1.0-195.0-0.0","0","0","18985","","null","","","null","21","","","","","","","","","","","","","","","",""
"","time_out","","html-keyboard-response","153","424367","0.0-1.0-197.0-0.0","0","0","18985","","null","","","null","21","","","","","","","","","","","","","","","",""
"","ITI","","html-keyboard-response","154","425373","0.0-1.0-198.0","0","0","18985","","65","","","75","21","","","","","","","","","","","","","","","k",""
"","S1","","html-keyboard-response","155","425631","0.0-1.0-200.0","0","0","18985","","null","","","null","22","","","","","","","","","","","","","","","",""
"","ISI","","html-keyboard-response","156","426136","0.0-1.0-201.0","0","0","18985","","485","","","75","22","k","","","","","","","","","","","","","","",""
"","S2","","html-keyboard-response","157","426391","0.0-1.0-202.0","0","0","18985","","null","","","null","22","","NaN","","","","","","","","","","","","","",""
"","response","","html-keyboard-response","158","427520","0.0-1.0-203.0-0.0","0","0","18985","","1121","","","68","22","","","1","22","training","adjacent","GF","7","6","Q.jpg","R.jpg","0","0","1","",""
"","feedback","","html-keyboard-response","159","428528","0.0-1.0-204.0-0.0","0","0","18985","","null","","","null","22","","","","","","","","","","","","","","","",""
"","ITI","","html-keyboard-response","160","429539","0.0-1.0-207.0","0","0","18985","","null","","","null","22","","","","","","","","","","","","","","","NaN",""
"","S1","","html-keyboard-response","161","429797","0.0-1.0-209.0","0","0","18985","","null","","","null","23","","","","","","","","","","","","","","","",""
"","ISI","","html-keyboard-response","162","430302","0.0-1.0-210.0","0","0","18985","","null","","","null","23","NaN","","","","","","","","","","","","","","",""
"","S2","","html-keyboard-response","163","430559","0.0-1.0-211.0","0","0","18985","","null","","","null","23","","NaN","","","","","","","","","","","","","",""
"","response","","html-keyboard-response","164","431016","0.0-1.0-212.0-0.0","0","0","18985","","448","","","68","23","","","1","23","training","adjacent","CD","3","4","P.jpg","N.jpg","0","1","0","",""
"","feedback","","html-keyboard-response","165","432026","0.0-1.0-213.0-0.0","0","0","18985","","null","","","null","23","","","","","","","","","","","","","","","",""
"","time_out","","html-keyboard-response","166","434032","0.0-1.0-215.0-0.0","0","0","18985","","null","","","null","23","","","","","","","","","","","","","","","",""
"","ITI","","html-keyboard-response","167","435039","0.0-1.0-216.0","0","0","18985","","null","","","null","23","","","","","","","","","","","","","","","NaN",""
"","S1","","html-keyboard-response","168","435419","0.0-1.0-218.0","0","0","18985","","null","","","null","24","","","","","","","","","","","","","","","",""
"","ISI","","html-keyboard-response","169","435925","0.0-1.0-219.0","0","0","18985","","null","","","null","24","NaN","","","","","","","","","","","","","","",""
"","S2","","html-keyboard-response","170","436089","0.0-1.0-220.0","0","0","18985","","158","","","68","24","","d","1","24","training","adjacent","DC","4","3","N.jpg","P.jpg","0","0","1","",""
"","feedback","","html-keyboard-response","171","437098","0.0-1.0-222.0-0.0","0","0","18985","","null","","","null","24","","","","","","","","","","","","","","","",""
"","ITI","","html-keyboard-response","172","438107","0.0-1.0-225.0","0","0","18985","","null","","","null","24","","","","","","","","","","","","","","","NaN",""
"","S1","","html-keyboard-response","173","438363","0.0-1.0-227.0","0","0","18985","","null","","","null","25","","","","","","","","","","","","","","","",""
"","ISI","","html-keyboard-response","174","438868","0.0-1.0-228.0","0","0","18985","","null","","","null","25","NaN","","","","","","","","","","","","","","",""
"","S2","","html-keyboard-response","175","439126","0.0-1.0-229.0","0","0","18985","","null","","","null","25","","NaN","","","","","","","","","","","","","",""
"","response","","html-keyboard-response","176","439404","0.0-1.0-230.0-0.0","0","0","18985","","272","","","75","25","","","1","25","training","adjacent","DC","4","3","N.jpg","P.jpg","1","0","0","",""
"","feedback","","html-keyboard-response","177","440410","0.0-1.0-231.0-0.0","0","0","18985","","null","","","null","25","","","","","","","","","","","","","","","",""
"","time_out","","html-keyboard-response","178","442415","0.0-1.0-233.0-0.0","0","0","18985","","null","","","null","25","","","","","","","","","","","","","","","",""
"","ITI","","html-keyboard-response","179","443431","0.0-1.0-234.0","0","0","18985","","null","","","null","25","","","","","","","","","","","","","","","NaN",""
"","S1","","html-keyboard-response","180","443798","0.0-1.0-236.0","0","0","18985","","null","","","null","26","","","","","","","","","","","","","","","",""
"","ISI","","html-keyboard-response","181","444305","0.0-1.0-237.0","0","0","18985","","null","","","null","26","NaN","","","","","","","","","","","","","","",""
"","S2","","html-keyboard-response","182","444563","0.0-1.0-238.0","0","0","18985","","null","","","null","26","","NaN","","","","","","","","","","","","","",""
"","response","","html-keyboard-response","183","444820","0.0-1.0-239.0-0.0","0","0","18985","","250","","","68","26","","","1","26","training","adjacent","DE","4","5","N.jpg","L.jpg","0","1","0","",""
"","feedback","","html-keyboard-response","184","445828","0.0-1.0-240.0-0.0","0","0","18985","","null","","","null","26","","","","","","","","","","","","","","","",""
"","time_out","","html-keyboard-response","185","447838","0.0-1.0-242.0-0.0","0","0","18985","","null","","","null","26","","","","","","","","","","","","","","","",""
"","ITI","","html-keyboard-response","186","448845","0.0-1.0-243.0","0","0","18985","","null","","","null","26","","","","","","","","","","","","","","","NaN",""
"","S1","","html-keyboard-response","187","449111","0.0-1.0-245.0","0","0","18985","","null","","","null","27","","","","","","","","","","","","","","","",""
"","ISI","","html-keyboard-response","188","450019","0.0-1.0-246.0","0","0","18985","","null","","","null","27","NaN","","","","","","","","","","","","","","",""
"","S2","","html-keyboard-response","189","450274","0.0-1.0-247.0","0","0","18985","","null","","","null","27","","NaN","","","","","","","","","","","","","",""
"","response","","html-keyboard-response","190","450757","0.0-1.0-248.0-0.0","0","0","18985","","477","","","75","27","","","1","27","training","adjacent","ED","5","4","L.jpg","N.jpg","1","0","0","",""
"","feedback","","html-keyboard-response","191","451764","0.0-1.0-249.0-0.0","0","0","18985","","null","","","null","27","","","","","","","","","","","","","","","",""
"","time_out","","html-keyboard-response","192","453778","0.0-1.0-251.0-0.0","0","0","18985","","null","","","null","27","","","","","","","","","","","","","","","",""
"","ITI","","html-keyboard-response","193","454786","0.0-1.0-252.0","0","0","18985","","null","","","null","27","","","","","","","","","","","","","","","NaN",""
"","S1","","html-keyboard-response","194","455041","0.0-1.0-254.0","0","0","18985","","null","","","null","28","","","","","","","","","","","","","","","",""
"","ISI","","html-keyboard-response","195","455623","0.0-1.0-255.0","0","0","18985","","null","","","null","28","NaN","","","","","","","","","","","","","","",""
"","S2","","html-keyboard-response","196","455886","0.0-1.0-256.0","0","0","18985","","null","","","null","28","","NaN","","","","","","","","","","","","","",""
"","response","","html-keyboard-response","197","456293","0.0-1.0-257.0-0.0","0","0","18985","","399","","","68","28","","","1","28","training","adjacent","GF","7","6","Q.jpg","R.jpg","0","0","1","",""
"","feedback","","html-keyboard-response","198","457304","0.0-1.0-258.0-0.0","0","0","18985","","null","","","null","28","","","","","","","","","","","","","","","",""
"","ITI","","html-keyboard-response","199","458310","0.0-1.0-261.0","0","0","18985","","null","","","null","28","","","","","","","","","","","","","","","NaN",""
"","S1","","html-keyboard-response","200","458567","0.0-1.0-263.0","0","0","18985","","null","","","null","29","","","","","","","","","","","","","","","",""
"","ISI","","html-keyboard-response","201","459073","0.0-1.0-264.0","0","0","18985","","null","","","null","29","NaN","","","","","","","","","","","","","","",""
"","S2","","html-keyboard-response","202","459334","0.0-1.0-265.0","0","0","18985","","null","","","null","29","","NaN","","","","","","","","","","","","","",""
"","response","","html-keyboard-response","203","459715","0.0-1.0-266.0-0.0","0","0","18985","","375","","","68","29","","","1","29","training","adjacent","BC","2","3","O.jpg","P.jpg","0","1","0","",""
"","feedback","","html-keyboard-response","204","460720","0.0-1.0-267.0-0.0","0","0","18985","","null","","","null","29","","","","","","","","","","","","","","","",""
"","time_out","","html-keyboard-response","205","462728","0.0-1.0-269.0-0.0","0","0","18985","","null","","","null","29","","","","","","","","","","","","","","","",""
"","ITI","","html-keyboard-response","206","463740","0.0-1.0-270.0","0","0","18985","","null","","","null","29","","","","","","","","","","","","","","","NaN",""
"","S1","","html-keyboard-response","207","463999","0.0-1.0-272.0","0","0","18985","","null","","","null","30","","","","","","","","","","","","","","","",""
"","ISI","","html-keyboard-response","208","464505","0.0-1.0-273.0","0","0","18985","","398","","","68","30","d","","","","","","","","","","","","","","",""
"","S2","","html-keyboard-response","209","464760","0.0-1.0-274.0","0","0","18985","","null","","","null","30","","NaN","","","","","","","","","","","","","",""
"","response","","html-keyboard-response","210","465473","0.0-1.0-275.0-0.0","0","0","18985","","705","","","68","30","","","1","30","training","adjacent","BA","2","1","O.jpg","M.jpg","0","0","1","",""
"","feedback","","html-keyboard-response","211","466481","0.0-1.0-276.0-0.0","0","0","18985","","null","","","null","30","","","","","","","","","","","","","","","",""
"","ITI","","html-keyboard-response","212","467500","0.0-1.0-279.0","0","0","18985","","null","","","null","30","","","","","","","","","","","","","","","NaN",""
"","S1","","html-keyboard-response","213","467758","0.0-1.0-281.0","0","0","18985","","null","","","null","31","","","","","","","","","","","","","","","",""
"","ISI","","html-keyboard-response","214","468265","0.0-1.0-282.0","0","0","18985","","null","","","null","31","NaN","","","","","","","","","","","","","","",""
"","S2","","html-keyboard-response","215","468520","0.0-1.0-283.0","0","0","18985","","null","","","null","31","","NaN","","","","","","","","","","","","","",""
"","response","","html-keyboard-response","216","469468","0.0-1.0-284.0-0.0","0","0","18985","","941","","","68","31","","","1","31","training","adjacent","AB","1","2","M.jpg","O.jpg","0","1","0","",""
"","feedback","","html-keyboard-response","217","470476","0.0-1.0-285.0-0.0","0","0","18985","","null","","","null","31","","","","","","","","","","","","","","","",""
"","time_out","","html-keyboard-response","218","472487","0.0-1.0-287.0-0.0","0","0","18985","","null","","","null","31","","","","","","","","","","","","","","","",""
"","ITI","","html-keyboard-response","219","473518","0.0-1.0-288.0","0","0","18985","","null","","","null","31","","","","","","","","","","","","","","","NaN",""
"","S1","","html-keyboard-response","220","473773","0.0-1.0-290.0","0","0","18985","","null","","","null","32","","","","","","","","","","","","","","","",""
"","ISI","","html-keyboard-response","221","474278","0.0-1.0-291.0","0","0","18985","","null","","","null","32","NaN","","","","","","","","","","","","","","",""
"","S2","","html-keyboard-response","222","474540","0.0-1.0-292.0","0","0","18985","","null","","","null","32","","NaN","","","","","","","","","","","","","",""
"","response","","html-keyboard-response","223","474868","0.0-1.0-293.0-0.0","0","0","18985","","317","","","75","32","","","1","32","training","adjacent","BC","2","3","O.jpg","P.jpg","1","1","1","",""
"","feedback","","html-keyboard-response","224","476010","0.0-1.0-294.0-0.0","0","0","18985","","null","","","null","32","","","","","","","","","","","","","","","",""
"","ITI","","html-keyboard-response","225","477017","0.0-1.0-297.0","0","0","18985","","null","","","null","32","","","","","","","","","","","","","","","NaN",""
"","S1","","html-keyboard-response","226","477273","0.0-1.0-299.0","0","0","18985","","null","","","null","33","","","","","","","","","","","","","","","",""
"","ISI","","html-keyboard-response","227","477780","0.0-1.0-300.0","0","0","18985","","null","","","null","33","NaN","","","","","","","","","","","","","","",""
"","S2","","html-keyboard-response","228","478039","0.0-1.0-301.0","0","0","18985","","null","","","null","33","","NaN","","","","","","","","","","","","","",""
"","response","","html-keyboard-response","229","478552","0.0-1.0-302.0-0.0","0","0","18985","","506","","","75","33","","","1","33","training","adjacent","EF","5","6","L.jpg","R.jpg","1","1","1","",""
"","feedback","","html-keyboard-response","230","479567","0.0-1.0-303.0-0.0","0","0","18985","","null","","","null","33","","","","","","","","","","","","","","","",""
"","ITI","","html-keyboard-response","231","480576","0.0-1.0-306.0","0","0","18985","","null","","","null","33","","","","","","","","","","","","","","","NaN",""
"","S1","","html-keyboard-response","232","480834","0.0-1.0-308.0","0","0","18985","","null","","","null","34","","","","","","","","","","","","","","","",""
"","ISI","","html-keyboard-response","233","481352","0.0-1.0-309.0","0","0","18985","","null","","","null","34","NaN","","","","","","","","","","","","","","",""
"","S2","","html-keyboard-response","234","481607","0.0-1.0-310.0","0","0","18985","","null","","","null","34","","NaN","","","","","","","","","","","","","",""
"","response","","html-keyboard-response","235","483366","0.0-1.0-311.0-0.0","0","0","18985","","null","","","null","34","","","1","34","training","adjacent","BC","2","3","O.jpg","P.jpg","NaN","1","0","",""
"","too_slow_prompt","","html-keyboard-response","236","484375","0.0-1.0-313.0-0.0","1","0","18985","","null","","","null","","","","","","","","","","","","","","","","",""
"","time_out","","html-keyboard-response","237","486381","0.0-1.0-314.0-0.0","0","0","18985","","null","","","null","34","","","","","","","","","","","","","","","",""
"","ITI","","html-keyboard-response","238","487389","0.0-1.0-315.0","0","0","18985","","null","","","null","34","","","","","","","","","","","","","","","NaN",""
"","S1","","html-keyboard-response","239","487657","0.0-1.0-317.0","0","0","18985","","null","","","null","35","","","","","","","","","","","","","","","",""
"","ISI","","html-keyboard-response","240","488166","0.0-1.0-318.0","0","0","18985","","295","","","68","35","d","","","","","","","","","","","","","","",""
"","S2","","html-keyboard-response","241","488423","0.0-1.0-319.0","0","0","18985","","null","","","null","35","","NaN","","","","","","","","","","","","","",""
"","response","","html-keyboard-response","242","490198","0.0-1.0-320.0-0.0","0","0","18985","","null","","","null","35","","","1","35","training","adjacent","EF","5","6","L.jpg","R.jpg","NaN","1","0","",""
"","too_slow_prompt","","html-keyboard-response","243","491212","0.0-1.0-322.0-0.0","1","0","18985","","null","","","null","","","","","","","","","","","","","","","","",""
"","time_out","","html-keyboard-response","244","493389","0.0-1.0-323.0-0.0","0","0","18985","","null","","","null","35","","","","","","","","","","","","","","","",""
"","ITI","","html-keyboard-response","245","494455","0.0-1.0-324.0","0","0","18985","","142","","","75","35","","","","","","","","","","","","","","","k",""
"","S1","","html-keyboard-response","246","494716","0.0-1.0-326.0","0","0","18985","","null","","","null","36","","","","","","","","","","","","","","","",""
"","ISI","","html-keyboard-response","247","495224","0.0-1.0-327.0","0","0","18985","","null","","","null","36","NaN","","","","","","","","","","","","","","",""
"","S2","","html-keyboard-response","248","495269","0.0-1.0-328.0","0","0","18985","","38","","","68","36","","d","1","36","training","adjacent","DC","4","3","N.jpg","P.jpg","0","0","1","",""
"","feedback","","html-keyboard-response","249","496277","0.0-1.0-330.0-0.0","0","0","18985","","null","","","null","36","","","","","","","","","","","","","","","",""
"","ITI","","html-keyboard-response","250","497295","0.0-1.0-333.0","0","0","18985","","null","","","null","36","","","","","","","","","","","","","","","NaN",""
"","S1","","html-keyboard-response","251","497556","0.0-1.0-335.0","0","0","18985","","null","","","null","37","","","","","","","","","","","","","","","",""
"","ISI","","html-keyboard-response","252","498063","0.0-1.0-336.0","0","0","18985","","1","","","68","37","d","","","","","","","","","","","","","","",""
"","S2","","html-keyboard-response","253","498188","0.0-1.0-337.0","0","0","18985","","117","","","75","37","","k","1","37","training","adjacent","BA","2","1","O.jpg","M.jpg","1","0","0","",""
"","feedback","","html-keyboard-response","254","499220","0.0-1.0-339.0-0.0","0","0","18985","","null","","","null","37","","","","","","","","","","","","","","","",""
"","time_out","","html-keyboard-response","255","501226","0.0-1.0-341.0-0.0","0","0","18985","","null","","","null","37","","","","","","","","","","","","","","","",""
"","ITI","","html-keyboard-response","256","502236","0.0-1.0-342.0","0","0","18985","","55","","","68","37","","","","","","","","","","","","","","","d",""
"","S1","","html-keyboard-response","257","502498","0.0-1.0-344.0","0","0","18985","","null","","","null","38","","","","","","","","","","","","","","","",""
"","ISI","","html-keyboard-response","258","503006","0.0-1.0-345.0","0","0","18985","","305","","","75","38","k","","","","","","","","","","","","","","",""
"","S2","","html-keyboard-response","259","503031","0.0-1.0-346.0","0","0","18985","","14","","","75","38","","k","1","38","training","adjacent","DE","4","5","N.jpg","L.jpg","1","1","1","",""
"","feedback","","html-keyboard-response","260","504039","0.0-1.0-348.0-0.0","0","0","18985","","null","","","null","38","","","","","","","","","","","","","","","",""
"","ITI","","html-keyboard-response","261","505048","0.0-1.0-351.0","0","0","18985","","78","","","68","38","","","","","","","","","","","","","","","d",""
"","S1","","html-keyboard-response","262","505314","0.0-1.0-353.0","0","0","18985","","null","","","null","39","","","","","","","","","","","","","","","",""
"","ISI","","html-keyboard-response","263","505820","0.0-1.0-354.0","0","0","18985","","null","","","null","39","NaN","","","","","","","","","","","","","","",""
"","S2","","html-keyboard-response","264","506028","0.0-1.0-355.0","0","0","18985","","199","","","68","39","","d","1","39","training","adjacent","CB","3","2","P.jpg","O.jpg","0","0","1","",""
"","feedback","","html-keyboard-response","265","507037","0.0-1.0-357.0-0.0","0","0","18985","","null","","","null","39","","","","","","","","","","","","","","","",""
"","ITI","","html-keyboard-response","266","508047","0.0-1.0-360.0","0","0","18985","","63","","","68","39","","","","","","","","","","","","","","","d",""
"","S1","","html-keyboard-response","267","508309","0.0-1.0-362.0","0","0","18985","","null","","","null","40","","","","","","","","","","","","","","","",""
"","ISI","","html-keyboard-response","268","508816","0.0-1.0-363.0","0","0","18985","","355","","","75","40","k","","","","","","","","","","","","","","",""
"","S2","","html-keyboard-response","269","508899","0.0-1.0-364.0","0","0","18985","","76","","","75","40","","k","1","40","training","adjacent","CB","3","2","P.jpg","O.jpg","1","0","0","",""
"","feedback","","html-keyboard-response","270","509910","0.0-1.0-366.0-0.0","0","0","18985","","null","","","null","40","","","","","","","","","","","","","","","",""
"","time_out","","html-keyboard-response","271","511916","0.0-1.0-368.0-0.0","0","0","18985","","null","","","null","40","","","","","","","","","","","","","","","",""
"","ITI","","html-keyboard-response","272","512927","0.0-1.0-369.0","0","0","18985","","1","","","75","40","","","","","","","","","","","","","","","k",""
"","S1","","html-keyboard-response","273","513194","0.0-1.0-371.0","0","0","18985","","null","","","null","41","","","","","","","","","","","","","","","",""
"","ISI","","html-keyboard-response","274","513737","0.0-1.0-372.0","0","0","18985","","143","","","68","41","d","","","","","","","","","","","","","","",""
"","S2","","html-keyboard-response","275","513762","0.0-1.0-373.0","0","0","18985","","16","","","68","41","","d","1","41","training","adjacent","BA","2","1","O.jpg","M.jpg","0","0","1","",""
"","feedback","","html-keyboard-response","276","514768","0.0-1.0-375.0-0.0","0","0","18985","","null","","","null","41","","","","","","","","","","","","","","","",""
"","ITI","","html-keyboard-response","277","515780","0.0-1.0-378.0","0","0","18985","","3","","","75","41","","","","","","","","","","","","","","","k",""
"","S1","","html-keyboard-response","278","516044","0.0-1.0-380.0","0","0","18985","","null","","","null","42","","","","","","","","","","","","","","","",""
"","ISI","","html-keyboard-response","279","516548","0.0-1.0-381.0","0","0","18985","","84","","","75","42","k","","","","","","","","","","","","","","",""
"","S2","","html-keyboard-response","280","516789","0.0-1.0-382.0","0","0","18985","","232","","","75","42","","k","1","42","training","adjacent","ED","5","4","L.jpg","N.jpg","1","0","0","",""
"","feedback","","html-keyboard-response","281","517797","0.0-1.0-384.0-0.0","0","0","18985","","null","","","null","42","","","","","","","","","","","","","","","",""
"","time_out","","html-keyboard-response","282","519808","0.0-1.0-386.0-0.0","0","0","18985","","null","","","null","42","","","","","","","","","","","","","","","",""
"","ITI","","html-keyboard-response","283","520816","0.0-1.0-387.0","0","0","18985","","null","","","null","42","","","","","","","","","","","","","","","NaN",""
"","S1","","html-keyboard-response","284","521074","0.0-1.0-389.0","0","0","18985","","null","","","null","43","","","","","","","","","","","","","","","",""
"","ISI","","html-keyboard-response","285","521579","0.0-1.0-390.0","0","0","18985","","40","","","75","43","k","","","","","","","","","","","","","","",""
"","S2","","html-keyboard-response","286","521716","0.0-1.0-391.0","0","0","18985","","129","","","75","43","","k","1","43","training","adjacent","FG","6","7","R.jpg","Q.jpg","1","1","1","",""
"","feedback","","html-keyboard-response","287","522729","0.0-1.0-393.0-0.0","0","0","18985","","null","","","null","43","","","","","","","","","","","","","","","",""
"","ITI","","html-keyboard-response","288","523742","0.0-1.0-396.0","0","0","18985","","null","","","null","43","","","","","","","","","","","","","","","NaN",""
"","S1","","html-keyboard-response","289","523997","0.0-1.0-398.0","0","0","18985","","null","","","null","44","","","","","","","","","","","","","","","",""
"","ISI","","html-keyboard-response","290","524501","0.0-1.0-399.0","0","0","18985","","323","","","75","44","k","","","","","","","","","","","","","","",""
"","S2","","html-keyboard-response","291","524545","0.0-1.0-400.0","0","0","18985","","35","","","75","44","","k","1","44","training","adjacent","DE","4","5","N.jpg","L.jpg","1","1","1","",""
"","feedback","","html-keyboard-response","292","525618","0.0-1.0-402.0-0.0","0","0","18985","","null","","","null","44","","","","","","","","","","","","","","","",""
"","ITI","","html-keyboard-response","293","526626","0.0-1.0-405.0","0","0","18985","","null","","","null","44","","","","","","","","","","","","","","","NaN",""
"","S1","","html-keyboard-response","294","526881","0.0-1.0-407.0","0","0","18985","","null","","","null","45","","","","","","","","","","","","","","","",""
"","ISI","","html-keyboard-response","295","527389","0.0-1.0-408.0","0","0","18985","","219","","","75","45","k","","","","","","","","","","","","","","",""
"","S2","","html-keyboard-response","296","527509","0.0-1.0-409.0","0","0","18985","","114","","","75","45","","k","1","45","training","adjacent","GF","7","6","Q.jpg","R.jpg","1","0","0","",""
"","feedback","","html-keyboard-response","297","528518","0.0-1.0-411.0-0.0","0","0","18985","","null","","","null","45","","","","","","","","","","","","","","","",""
"","time_out","","html-keyboard-response","298","530526","0.0-1.0-413.0-0.0","0","0","18985","","null","","","null","45","","","","","","","","","","","","","","","",""
"","ITI","","html-keyboard-response","299","531541","0.0-1.0-414.0","0","0","18985","","null","","","null","45","","","","","","","","","","","","","","","NaN",""
"","S1","","html-keyboard-response","300","531806","0.0-1.0-416.0","0","0","18985","","null","","","null","46","","","","","","","","","","","","","","","",""
"","ISI","","html-keyboard-response","301","532311","0.0-1.0-417.0","0","0","18985","","293","","","68","46","d","","","","","","","","","","","","","","",""
"","S2","","html-keyboard-response","302","532361","0.0-1.0-418.0","0","0","18985","","44","","","68","46","","d","1","46","training","adjacent","CD","3","4","P.jpg","N.jpg","0","1","0","",""
"","feedback","","html-keyboard-response","303","533511","0.0-1.0-420.0-0.0","0","0","18985","","null","","","null","46","","","","","","","","","","","","","","","",""
"","time_out","","html-keyboard-response","304","535529","0.0-1.0-422.0-0.0","0","0","18985","","null","","","null","46","","","","","","","","","","","","","","","",""
"","ITI","","html-keyboard-response","305","536542","0.0-1.0-423.0","0","0","18985","","null","","","null","46","","","","","","","","","","","","","","","NaN",""
"","S1","","html-keyboard-response","306","536800","0.0-1.0-425.0","0","0","18985","","null","","","null","47","","","","","","","","","","","","","","","",""
"","ISI","","html-keyboard-response","307","537307","0.0-1.0-426.0","0","0","18985","","280","","","75","47","k","","","","","","","","","","","","","","",""
"","S2","","html-keyboard-response","308","537527","0.0-1.0-427.0","0","0","18985","","211","","","75","47","","k","1","47","training","adjacent","CB","3","2","P.jpg","O.jpg","1","0","0","",""
"","feedback","","html-keyboard-response","309","538536","0.0-1.0-429.0-0.0","0","0","18985","","null","","","null","47","","","","","","","","","","","","","","","",""
"","time_out","","html-keyboard-response","310","540543","0.0-1.0-431.0-0.0","0","0","18985","","null","","","null","47","","","","","","","","","","","","","","","",""
"","ITI","","html-keyboard-response","311","541553","0.0-1.0-432.0","0","0","18985","","200","","","68","47","","","","","","","","","","","","","","","d",""
"","block_over","","html-keyboard-response","312","674581","0.0-1.0-433.0-0.0","0","0","18985","","133013","","","32","47","","","","","","","","","","","","","","","",""
"","S1","","html-keyboard-response","313","674842","0.0-1.0-434.0","0","0","18985","","null","","","null","48","","","","","","","","","","","","","","","",""
"","ISI","","html-keyboard-response","314","675349","0.0-1.0-435.0","0","0","18985","","null","","","null","48","NaN","","","","","","","","","","","","","","",""
"","S2","","html-keyboard-response","315","675605","0.0-1.0-436.0","0","0","18985","","null","","","null","48","","NaN","","","","","","","","","","","","","",""
"","response","","html-keyboard-response","316","675791","0.0-1.0-437.0-0.0","0","0","18985","","179","","","68","48","","","2","48","training","adjacent","FE","6","5","R.jpg","L.jpg","0","0","1","",""
"","feedback","","html-keyboard-response","317","676808","0.0-1.0-438.0-0.0","0","0","18985","","null","","","null","48","","","","","","","","","","","","","","","",""
"","ITI","","html-keyboard-response","318","677821","0.0-1.0-441.0","0","0","18985","","null","","","null","48","","","","","","","","","","","","","","","NaN",""
"","S1","","html-keyboard-response","319","678076","0.0-1.0-443.0","0","0","18985","","null","","","null","49","","","","","","","","","","","","","","","",""
"","ISI","","html-keyboard-response","320","678593","0.0-1.0-444.0","0","0","18985","","null","","","null","49","NaN","","","","","","","","","","","","","","",""
"","S2","","html-keyboard-response","321","678856","0.0-1.0-445.0","0","0","18985","","null","","","null","49","","NaN","","","","","","","","","","","","","",""
"","response","","html-keyboard-response","322","679091","0.0-1.0-446.0-0.0","0","0","18985","","229","","","68","49","","","2","49","training","adjacent","AB","1","2","M.jpg","O.jpg","0","1","0","",""
"","feedback","","html-keyboard-response","323","680102","0.0-1.0-447.0-0.0","0","0","18985","","null","","","null","49","","","","","","","","","","","","","","","",""
"","time_out","","html-keyboard-response","324","682114","0.0-1.0-449.0-0.0","0","0","18985","","null","","","null","49","","","","","","","","","","","","","","","",""
"","ITI","","html-keyboard-response","325","683130","0.0-1.0-450.0","0","0","18985","","25","","","75","49","","","","","","","","","","","","","","","k",""
"","S1","","html-keyboard-response","326","683390","0.0-1.0-452.0","0","0","18985","","null","","","null","50","","","","","","","","","","","","","","","",""
"","ISI","","html-keyboard-response","327","683951","0.0-1.0-453.0","0","0","18985","","555","","","75","50","k","","","","","","","","","","","","","","",""
"","S2","","html-keyboard-response","328","683972","0.0-1.0-454.0","0","0","18985","","14","","","68","50","","d","2","50","training","adjacent","BC","2","3","O.jpg","P.jpg","0","1","0","",""
"","feedback","","html-keyboard-response","329","684987","0.0-1.0-456.0-0.0","0","0","18985","","null","","","null","50","","","","","","","","","","","","","","","",""
"","time_out","","html-keyboard-response","330","686996","0.0-1.0-458.0-0.0","0","0","18985","","null","","","null","50","","","","","","","","","","","","","","","",""
"","ITI","","html-keyboard-response","331","688001","0.0-1.0-459.0","0","0","18985","","71","","","68","50","","","","","","","","","","","","","","","d",""
"","S1","","html-keyboard-response","332","688256","0.0-1.0-461.0","0","0","18985","","null","","","null","51","","","","","","","","","","","","","","","",""
"","ISI","","html-keyboard-response","333","688764","0.0-1.0-462.0","0","0","18985","","268","","","68","51","d","","","","","","","","","","","","","","",""
"","S2","","html-keyboard-response","334","688965","0.0-1.0-463.0","0","0","18985","","189","","","68","51","","d","2","51","training","adjacent","DE","4","5","N.jpg","L.jpg","0","1","0","",""
"","feedback","","html-keyboard-response","335","689994","0.0-1.0-465.0-0.0","0","0","18985","","null","","","null","51","","","","","","","","","","","","","","","",""
"","time_out","","html-keyboard-response","336","692005","0.0-1.0-467.0-0.0","0","0","18985","","null","","","null","51","","","","","","","","","","","","","","","",""
"","ITI","","html-keyboard-response","337","693011","0.0-1.0-468.0","0","0","18985","","358","","","75","51","","","","","","","","","","","","","","","k",""
"","S1","","html-keyboard-response","338","693269","0.0-1.0-470.0","0","0","18985","","null","","","null","52","","","","","","","","","","","","","","","",""
"","ISI","","html-keyboard-response","339","693774","0.0-1.0-471.0","0","0","18985","","35","","","75","52","k","","","","","","","","","","","","","","",""
"","S2","","html-keyboard-response","340","693932","0.0-1.0-472.0","0","0","18985","","151","","","75","52","","k","2","52","training","adjacent","FG","6","7","R.jpg","Q.jpg","1","1","1","",""
"","feedback","","html-keyboard-response","341","694940","0.0-1.0-474.0-0.0","0","0","18985","","null","","","null","52","","","","","","","","","","","","","","","",""
"","ITI","","html-keyboard-response","342","695948","0.0-1.0-477.0","0","0","18985","","17","","","75","52","","","","","","","","","","","","","","","k",""
"","S1","","html-keyboard-response","343","696203","0.0-1.0-479.0","0","0","18985","","null","","","null","53","","","","","","","","","","","","","","","",""
"","ISI","","html-keyboard-response","344","696718","0.0-1.0-480.0","0","0","18985","","94","","","75","53","k","","","","","","","","","","","","","","",""
"","S2","","html-keyboard-response","345","696827","0.0-1.0-481.0","0","0","18985","","100","","","75","53","","k","2","53","training","adjacent","CD","3","4","P.jpg","N.jpg","1","1","1","",""
"","feedback","","html-keyboard-response","346","697840","0.0-1.0-483.0-0.0","0","0","18985","","null","","","null","53","","","","","","","","","","","","","","","",""
"","ITI","","html-keyboard-response","347","698845","0.0-1.0-486.0","0","0","18985","","103","","","75","53","","","","","","","","","","","","","","","k",""
"","S1","","html-keyboard-response","348","699099","0.0-1.0-488.0","0","0","18985","","null","","","null","54","","","","","","","","","","","","","","","",""
"","ISI","","html-keyboard-response","349","699620","0.0-1.0-489.0","0","0","18985","","92","","","75","54","k","","","","","","","","","","","","","","",""
"","S2","","html-keyboard-response","350","699626","0.0-1.0-490.0","0","0","18985","","2","","","75","54","","k","2","54","training","adjacent","FE","6","5","R.jpg","L.jpg","1","0","0","",""
"","feedback","","html-keyboard-response","351","700638","0.0-1.0-492.0-0.0","0","0","18985","","null","","","null","54","","","","","","","","","","","","","","","",""
"","time_out","","html-keyboard-response","352","702653","0.0-1.0-494.0-0.0","0","0","18985","","null","","","null","54","","","","","","","","","","","","","","","",""
"","ITI","","html-keyboard-response","353","703665","0.0-1.0-495.0","0","0","18985","","137","","","68","54","","","","","","","","","","","","","","","d",""
"","S1","","html-keyboard-response","354","703920","0.0-1.0-497.0","0","0","18985","","null","","","null","55","","","","","","","","","","","","","","","",""
"","ISI","","html-keyboard-response","355","704497","0.0-1.0-498.0","0","0","18985","","120","","","68","55","d","","","","","","","","","","","","","","",""
"","S2","","html-keyboard-response","356","704510","0.0-1.0-499.0","0","0","18985","","4","","","75","55","","k","2","55","training","adjacent","DC","4","3","N.jpg","P.jpg","1","0","0","",""
"","feedback","","html-keyboard-response","357","705514","0.0-1.0-501.0-0.0","0","0","18985","","null","","","null","55","","","","","","","","","","","","","","","",""
"","time_out","","html-keyboard-response","358","707550","0.0-1.0-503.0-0.0","0","0","18985","","null","","","null","55","","","","","","","","","","","","","","","",""
"","ITI","","html-keyboard-response","359","708561","0.0-1.0-504.0","0","0","18985","","119","","","68","55","","","","","","","","","","","","","","","d",""
"","S1","","html-keyboard-response","360","708819","0.0-1.0-506.0","0","0","18985","","null","","","null","56","","","","","","","","","","","","","","","",""
"","ISI","","html-keyboard-response","361","709325","0.0-1.0-507.0","0","0","18985","","53","","","75","56","k","","","","","","","","","","","","","","",""
"","S2","","html-keyboard-response","362","709350","0.0-1.0-508.0","0","0","18985","","15","","","75","56","","k","2","56","training","adjacent","AB","1","2","M.jpg","O.jpg","1","1","1","",""
"","feedback","","html-keyboard-response","363","710358","0.0-1.0-510.0-0.0","0","0","18985","","null","","","null","56","","","","","","","","","","","","","","","",""
"","ITI","","html-keyboard-response","364","711365","0.0-1.0-513.0","0","0","18985","","34","","","68","56","","","","","","","","","","","","","","","d",""
"","S1","","html-keyboard-response","365","711623","0.0-1.0-515.0","0","0","18985","","null","","","null","57","","","","","","","","","","","","","","","",""
"","ISI","","html-keyboard-response","366","712129","0.0-1.0-516.0","0","0","18985","","145","","","75","57","k","","","","","","","","","","","","","","",""
"","S2","","html-keyboard-response","367","712229","0.0-1.0-517.0","0","0","18985","","94","","","68","57","","d","2","57","training","adjacent","FE","6","5","R.jpg","L.jpg","0","0","1","",""
"","feedback","","html-keyboard-response","368","713237","0.0-1.0-519.0-0.0","0","0","18985","","null","","","null","57","","","","","","","","","","","","","","","",""
"","ITI","","html-keyboard-response","369","714355","0.0-1.0-522.0","0","0","18985","","76","","","68","57","","","","","","","","","","","","","","","d",""
"","S1","","html-keyboard-response","370","714612","0.0-1.0-524.0","0","0","18985","","null","","","null","58","","","","","","","","","","","","","","","",""
"","ISI","","html-keyboard-response","371","715117","0.0-1.0-525.0","0","0","18985","","133","","","68","58","d","","","","","","","","","","","","","","",""
"","S2","","html-keyboard-response","372","715377","0.0-1.0-526.0","0","0","18985","","null","","","null","58","","NaN","","","","","","","","","","","","","",""
"","response","","html-keyboard-response","373","715393","0.0-1.0-527.0-0.0","0","0","18985","","11","","","68","58","","","2","58","training","adjacent","FG","6","7","R.jpg","Q.jpg","0","1","0","",""
"","feedback","","html-keyboard-response","374","716400","0.0-1.0-528.0-0.0","0","0","18985","","null","","","null","58","","","","","","","","","","","","","","","",""
"","time_out","","html-keyboard-response","375","718415","0.0-1.0-530.0-0.0","0","0","18985","","null","","","null","58","","","","","","","","","","","","","","","",""
"","ITI","","html-keyboard-response","376","719425","0.0-1.0-531.0","0","0","18985","","129","","","75","58","","","","","","","","","","","","","","","k",""
"","S1","","html-keyboard-response","377","719685","0.0-1.0-533.0","0","0","18985","","null","","","null","59","","","","","","","","","","","","","","","",""
"","ISI","","html-keyboard-response","378","720192","0.0-1.0-534.0","0","0","18985","","277","","","75","59","k","","","","","","","","","","","","","","",""
"","S2","","html-keyboard-response","379","720453","0.0-1.0-535.0","0","0","18985","","null","","","null","59","","NaN","","","","","","","","","","","","","",""
"","response","","html-keyboard-response","380","720680","0.0-1.0-536.0-0.0","0","0","18985","","219","","","75","59","","","2","59","training","adjacent","DC","4","3","N.jpg","P.jpg","1","0","0","",""
"","feedback","","html-keyboard-response","381","721692","0.0-1.0-537.0-0.0","0","0","18985","","null","","","null","59","","","","","","","","","","","","","","","",""
"","time_out","","html-keyboard-response","382","723702","0.0-1.0-539.0-0.0","0","0","18985","","null","","","null","59","","","","","","","","","","","","","","","",""
"","ITI","","html-keyboard-response","383","724722","0.0-1.0-540.0","0","0","18985","","405","","","68","59","","","","","","","","","","","","","","","d",""
"","S1","","html-keyboard-response","384","724977","0.0-1.0-542.0","0","0","18985","","null","","","null","60","","","","","","","","","","","","","","","",""
"","ISI","","html-keyboard-response","385","725481","0.0-1.0-543.0","0","0","18985","","231","","","68","60","d","","","","","","","","","","","","","","",""
"","S2","","html-keyboard-response","386","725613","0.0-1.0-544.0","0","0","18985","","126","","","68","60","","d","2","60","training","adjacent","BA","2","1","O.jpg","M.jpg","0","0","1","",""
"","feedback","","html-keyboard-response","387","726623","0.0-1.0-546.0-0.0","0","0","18985","","null","","","null","60","","","","","","","","","","","","","","","",""
"","ITI","","html-keyboard-response","388","727630","0.0-1.0-549.0","0","0","18985","","null","","","null","60","","","","","","","","","","","","","","","NaN",""
"","S1","","html-keyboard-response","389","727886","0.0-1.0-551.0","0","0","18985","","null","","","null","61","","","","","","","","","","","","","","","",""
"","ISI","","html-keyboard-response","390","728394","0.0-1.0-552.0","0","0","18985","","275","","","68","61","d","","","","","","","","","","","","","","",""
"","S2","","html-keyboard-response","391","728691","0.0-1.0-553.0","0","0","18985","","null","","","null","61","","NaN","","","","","","","","","","","","","",""
"","response","","html-keyboard-response","392","728708","0.0-1.0-554.0-0.0","0","0","18985","","12","","","68","61","","","2","61","training","adjacent","FG","6","7","R.jpg","Q.jpg","0","1","0","",""
"","feedback","","html-keyboard-response","393","729716","0.0-1.0-555.0-0.0","0","0","18985","","null","","","null","61","","","","","","","","","","","","","","","",""
"","time_out","","html-keyboard-response","394","731725","0.0-1.0-557.0-0.0","0","0","18985","","null","","","null","61","","","","","","","","","","","","","","","",""
"","ITI","","html-keyboard-response","395","732941","0.0-1.0-558.0","0","0","18985","","null","","","null","61","","","","","","","","","","","","","","","NaN",""
"","S1","","html-keyboard-response","396","733317","0.0-1.0-560.0","0","0","18985","","null","","","null","62","","","","","","","","","","","","","","","",""
"","ISI","","html-keyboard-response","397","733825","0.0-1.0-561.0","0","0","18985","","null","","","null","62","NaN","","","","","","","","","","","","","","",""
"","S2","","html-keyboard-response","398","734085","0.0-1.0-562.0","0","0","18985","","null","","","null","62","","NaN","","","","","","","","","","","","","",""
"","response","","html-keyboard-response","399","734369","0.0-1.0-563.0-0.0","0","0","18985","","276","","","75","62","","","2","62","training","adjacent","FE","6","5","R.jpg","L.jpg","1","0","0","",""
"","feedback","","html-keyboard-response","400","735379","0.0-1.0-564.0-0.0","0","0","18985","","null","","","null","62","","","","","","","","","","","","","","","",""
"","time_out","","html-keyboard-response","401","737386","0.0-1.0-566.0-0.0","0","0","18985","","null","","","null","62","","","","","","","","","","","","","","","",""
"","ITI","","html-keyboard-response","402","738401","0.0-1.0-567.0","0","0","18985","","32","","","75","62","","","","","","","","","","","","","","","k",""
"","S1","","html-keyboard-response","403","738657","0.0-1.0-569.0","0","0","18985","","null","","","null","63","","","","","","","","","","","","","","","",""
"","ISI","","html-keyboard-response","404","739165","0.0-1.0-570.0","0","0","18985","","22","","","68","63","d","","","","","","","","","","","","","","",""
"","S2","","html-keyboard-response","405","739191","0.0-1.0-571.0","0","0","18985","","21","","","68","63","","d","2","63","training","adjacent","EF","5","6","L.jpg","R.jpg","0","1","0","",""
"","feedback","","html-keyboard-response","406","740202","0.0-1.0-573.0-0.0","0","0","18985","","null","","","null","63","","","","","","","","","","","","","","","",""
"","time_out","","html-keyboard-response","407","742211","0.0-1.0-575.0-0.0","0","0","18985","","null","","","null","63","","","","","","","","","","","","","","","",""
"","ITI","","html-keyboard-response","408","743220","0.0-1.0-576.0","0","0","18985","","115","","","75","63","","","","","","","","","","","","","","","k",""
"","S1","","html-keyboard-response","409","743475","0.0-1.0-578.0","0","0","18985","","null","","","null","64","","","","","","","","","","","","","","","",""
"","ISI","","html-keyboard-response","410","743981","0.0-1.0-579.0","0","0","18985","","86","","","75","64","k","","","","","","","","","","","","","","",""
"","S2","","html-keyboard-response","411","744239","0.0-1.0-580.0","0","0","18985","","null","","","null","64","","NaN","","","","","","","","","","","","","",""
"","response","","html-keyboard-response","412","744390","0.0-1.0-581.0-0.0","0","0","18985","","144","","","68","64","","","2","64","training","adjacent","CB","3","2","P.jpg","O.jpg","0","0","1","",""
"","feedback","","html-keyboard-response","413","745400","0.0-1.0-582.0-0.0","0","0","18985","","null","","","null","64","","","","","","","","","","","","","","","",""
"","ITI","","html-keyboard-response","414","746406","0.0-1.0-585.0","0","0","18985","","87","","","75","64","","","","","","","","","","","","","","","k",""
"","S1","","html-keyboard-response","415","746677","0.0-1.0-587.0","0","0","18985","","null","","","null","65","","","","","","","","","","","","","","","",""
"","ISI","","html-keyboard-response","416","747184","0.0-1.0-588.0","0","0","18985","","188","","","68","65","d","","","","","","","","","","","","","","",""
"","S2","","html-keyboard-response","417","747441","0.0-1.0-589.0","0","0","18985","","null","","","null","65","","NaN","","","","","","","","","","","","","",""
"","response","","html-keyboard-response","418","747752","0.0-1.0-590.0-0.0","0","0","18985","","305","","","68","65","","","2","65","training","adjacent","BA","2","1","O.jpg","M.jpg","0","0","1","",""
"","feedback","","html-keyboard-response","419","748848","0.0-1.0-591.0-0.0","0","0","18985","","null","","","null","65","","","","","","","","","","","","","","","",""
"","ITI","","html-keyboard-response","420","749855","0.0-1.0-594.0","0","0","18985","","null","","","null","65","","","","","","","","","","","","","","","NaN",""
"","S1","","html-keyboard-response","421","750114","0.0-1.0-596.0","0","0","18985","","null","","","null","66","","","","","","","","","","","","","","","",""
"","ISI","","html-keyboard-response","422","750623","0.0-1.0-597.0","0","0","18985","","null","","","null","66","NaN","","","","","","","","","","","","","","",""
"","S2","","html-keyboard-response","423","750884","0.0-1.0-598.0","0","0","18985","","null","","","null","66","","NaN","","","","","","","","","","","","","",""
"","response","","html-keyboard-response","424","751447","0.0-1.0-599.0-0.0","0","0","18985","","559","","","75","66","","","2","66","training","adjacent","CD","3","4","P.jpg","N.jpg","1","1","1","",""
"","feedback","","html-keyboard-response","425","752464","0.0-1.0-600.0-0.0","0","0","18985","","null","","","null","66","","","","","","","","","","","","","","","",""
"","ITI","","html-keyboard-response","426","753533","0.0-1.0-603.0","0","0","18985","","null","","","null","66","","","","","","","","","","","","","","","NaN",""
"","S1","","html-keyboard-response","427","753790","0.0-1.0-605.0","0","0","18985","","null","","","null","67","","","","","","","","","","","","","","","",""
"","ISI","","html-keyboard-response","428","754303","0.0-1.0-606.0","0","0","18985","","null","","","null","67","NaN","","","","","","","","","","","","","","",""
"","S2","","html-keyboard-response","429","754585","0.0-1.0-607.0","0","0","18985","","null","","","null","67","","NaN","","","","","","","","","","","","","",""
"","response","","html-keyboard-response","430","755558","0.0-1.0-608.0-0.0","0","0","18985","","964","","","75","67","","","2","67","training","adjacent","BC","2","3","O.jpg","P.jpg","1","1","1","",""
"","feedback","","html-keyboard-response","431","756566","0.0-1.0-609.0-0.0","0","0","18985","","null","","","null","67","","","","","","","","","","","","","","","",""
"","ITI","","html-keyboard-response","432","757574","0.0-1.0-612.0","0","0","18985","","null","","","null","67","","","","","","","","","","","","","","","NaN",""
"","S1","","html-keyboard-response","433","757830","0.0-1.0-614.0","0","0","18985","","null","","","null","68","","","","","","","","","","","","","","","",""
"","ISI","","html-keyboard-response","434","758337","0.0-1.0-615.0","0","0","18985","","null","","","null","68","NaN","","","","","","","","","","","","","","",""
"","S2","","html-keyboard-response","435","758617","0.0-1.0-616.0","0","0","18985","","null","","","null","68","","NaN","","","","","","","","","","","","","",""
"","response","","html-keyboard-response","436","759083","0.0-1.0-617.0-0.0","0","0","18985","","458","","","68","68","","","2","68","training","adjacent","GF","7","6","Q.jpg","R.jpg","0","0","1","",""
"","feedback","","html-keyboard-response","437","760090","0.0-1.0-618.0-0.0","0","0","18985","","null","","","null","68","","","","","","","","","","","","","","","",""
"","ITI","","html-keyboard-response","438","761099","0.0-1.0-621.0","0","0","18985","","null","","","null","68","","","","","","","","","","","","","","","NaN",""
"","S1","","html-keyboard-response","439","761435","0.0-1.0-623.0","0","0","18985","","null","","","null","69","","","","","","","","","","","","","","","",""
"","ISI","","html-keyboard-response","440","761942","0.0-1.0-624.0","0","0","18985","","null","","","null","69","NaN","","","","","","","","","","","","","","",""
"","S2","","html-keyboard-response","441","762201","0.0-1.0-625.0","0","0","18985","","null","","","null","69","","NaN","","","","","","","","","","","","","",""
"","response","","html-keyboard-response","442","762850","0.0-1.0-626.0-0.0","0","0","18985","","642","","","68","69","","","2","69","training","adjacent","ED","5","4","L.jpg","N.jpg","0","0","1","",""
"","feedback","","html-keyboard-response","443","763860","0.0-1.0-627.0-0.0","0","0","18985","","null","","","null","69","","","","","","","","","","","","","","","",""
"","ITI","","html-keyboard-response","444","764872","0.0-1.0-630.0","0","0","18985","","null","","","null","69","","","","","","","","","","","","","","","NaN",""
"","S1","","html-keyboard-response","445","765130","0.0-1.0-632.0","0","0","18985","","null","","","null","70","","","","","","","","","","","","","","","",""
"","ISI","","html-keyboard-response","446","765637","0.0-1.0-633.0","0","0","18985","","null","","","null","70","NaN","","","","","","","","","","","","","","",""
"","S2","","html-keyboard-response","447","765894","0.0-1.0-634.0","0","0","18985","","null","","","null","70","","NaN","","","","","","","","","","","","","",""
"","response","","html-keyboard-response","448","766229","0.0-1.0-635.0-0.0","0","0","18985","","330","","","75","70","","","2","70","training","adjacent","GF","7","6","Q.jpg","R.jpg","1","0","0","",""
"","feedback","","html-keyboard-response","449","767238","0.0-1.0-636.0-0.0","0","0","18985","","null","","","null","70","","","","","","","","","","","","","","","",""
"","time_out","","html-keyboard-response","450","769246","0.0-1.0-638.0-0.0","0","0","18985","","null","","","null","70","","","","","","","","","","","","","","","",""
"","ITI","","html-keyboard-response","451","770251","0.0-1.0-639.0","0","0","18985","","null","","","null","70","","","","","","","","","","","","","","","NaN",""
"","S1","","html-keyboard-response","452","770507","0.0-1.0-641.0","0","0","18985","","null","","","null","71","","","","","","","","","","","","","","","",""
"","ISI","","html-keyboard-response","453","771029","0.0-1.0-642.0","0","0","18985","","null","","","null","71","NaN","","","","","","","","","","","","","","",""
"","S2","","html-keyboard-response","454","771290","0.0-1.0-643.0","0","0","18985","","null","","","null","71","","NaN","","","","","","","","","","","","","",""
"","response","","html-keyboard-response","455","771825","0.0-1.0-644.0-0.0","0","0","18985","","526","","","75","71","","","2","71","training","adjacent","GF","7","6","Q.jpg","R.jpg","1","0","0","",""
"","feedback","","html-keyboard-response","456","772833","0.0-1.0-645.0-0.0","0","0","18985","","null","","","null","71","","","","","","","","","","","","","","","",""
"","time_out","","html-keyboard-response","457","774843","0.0-1.0-647.0-0.0","0","0","18985","","null","","","null","71","","","","","","","","","","","","","","","",""
"","ITI","","html-keyboard-response","458","775849","0.0-1.0-648.0","0","0","18985","","null","","","null","71","","","","","","","","","","","","","","","NaN",""
"","S1","","html-keyboard-response","459","776106","0.0-1.0-650.0","0","0","18985","","null","","","null","72","","","","","","","","","","","","","","","",""
"","ISI","","html-keyboard-response","460","776613","0.0-1.0-651.0","0","0","18985","","null","","","null","72","NaN","","","","","","","","","","","","","","",""
"","S2","","html-keyboard-response","461","776870","0.0-1.0-652.0","0","0","18985","","null","","","null","72","","NaN","","","","","","","","","","","","","",""
"","response","","html-keyboard-response","462","777101","0.0-1.0-653.0-0.0","0","0","18985","","223","","","75","72","","","2","72","training","adjacent","DE","4","5","N.jpg","L.jpg","1","1","1","",""
"","feedback","","html-keyboard-response","463","778110","0.0-1.0-654.0-0.0","0","0","18985","","null","","","null","72","","","","","","","","","","","","","","","",""
"","ITI","","html-keyboard-response","464","779115","0.0-1.0-657.0","0","0","18985","","null","","","null","72","","","","","","","","","","","","","","","NaN",""
"","S1","","html-keyboard-response","465","779382","0.0-1.0-659.0","0","0","18985","","null","","","null","73","","","","","","","","","","","","","","","",""
"","ISI","","html-keyboard-response","466","779890","0.0-1.0-660.0","0","0","18985","","null","","","null","73","NaN","","","","","","","","","","","","","","",""
"","S2","","html-keyboard-response","467","780146","0.0-1.0-661.0","0","0","18985","","null","","","null","73","","NaN","","","","","","","","","","","","","",""
"","response","","html-keyboard-response","468","780448","0.0-1.0-662.0-0.0","0","0","18985","","297","","","75","73","","","2","73","training","adjacent","EF","5","6","L.jpg","R.jpg","1","1","1","",""
"","feedback","","html-keyboard-response","469","781623","0.0-1.0-663.0-0.0","0","0","18985","","null","","","null","73","","","","","","","","","","","","","","","",""
"","ITI","","html-keyboard-response","470","782641","0.0-1.0-666.0","0","0","18985","","null","","","null","73","","","","","","","","","","","","","","","NaN",""
"","S1","","html-keyboard-response","471","782899","0.0-1.0-668.0","0","0","18985","","null","","","null","74","","","","","","","","","","","","","","","",""
"","ISI","","html-keyboard-response","472","783417","0.0-1.0-669.0","0","0","18985","","null","","","null","74","NaN","","","","","","","","","","","","","","",""
"","S2","","html-keyboard-response","473","783689","0.0-1.0-670.0","0","0","18985","","null","","","null","74","","NaN","","","","","","","","","","","","","",""
"","response","","html-keyboard-response","474","784154","0.0-1.0-671.0-0.0","0","0","18985","","456","","","75","74","","","2","74","training","adjacent","ED","5","4","L.jpg","N.jpg","1","0","0","",""
"","feedback","","html-keyboard-response","475","785170","0.0-1.0-672.0-0.0","0","0","18985","","null","","","null","74","","","","","","","","","","","","","","","",""
"","time_out","","html-keyboard-response","476","787187","0.0-1.0-674.0-0.0","0","0","18985","","null","","","null","74","","","","","","","","","","","","","","","",""
"","ITI","","html-keyboard-response","477","788206","0.0-1.0-675.0","0","0","18985","","null","","","null","74","","","","","","","","","","","","","","","NaN",""
"","S1","","html-keyboard-response","478","788463","0.0-1.0-677.0","0","0","18985","","null","","","null","75","","","","","","","","","","","","","","","",""
"","ISI","","html-keyboard-response","479","788969","0.0-1.0-678.0","0","0","18985","","null","","","null","75","NaN","","","","","","","","","","","","","","",""
"","S2","","html-keyboard-response","480","789231","0.0-1.0-679.0","0","0","18985","","null","","","null","75","","NaN","","","","","","","","","","","","","",""
"","response","","html-keyboard-response","481","789400","0.0-1.0-680.0-0.0","0","0","18985","","158","","","68","75","","","2","75","training","adjacent","CB","3","2","P.jpg","O.jpg","0","0","1","",""
"","feedback","","html-keyboard-response","482","790408","0.0-1.0-681.0-0.0","0","0","18985","","null","","","null","75","","","","","","","","","","","","","","","",""
"","ITI","","html-keyboard-response","483","791449","0.0-1.0-684.0","0","0","18985","","null","","","null","75","","","","","","","","","","","","","","","NaN",""
"","S1","","html-keyboard-response","484","791711","0.0-1.0-686.0","0","0","18985","","null","","","null","76","","","","","","","","","","","","","","","",""
"","ISI","","html-keyboard-response","485","792222","0.0-1.0-687.0","0","0","18985","","null","","","null","76","NaN","","","","","","","","","","","","","","",""
"","S2","","html-keyboard-response","486","792481","0.0-1.0-688.0","0","0","18985","","null","","","null","76","","NaN","","","","","","","","","","","","","",""
"","response","","html-keyboard-response","487","793164","0.0-1.0-689.0-0.0","0","0","18985","","673","","","68","76","","","2","76","training","adjacent","BC","2","3","O.jpg","P.jpg","0","1","0","",""
"","feedback","","html-keyboard-response","488","794177","0.0-1.0-690.0-0.0","0","0","18985","","null","","","null","76","","","","","","","","","","","","","","","",""
"","time_out","","html-keyboard-response","489","796191","0.0-1.0-692.0-0.0","0","0","18985","","null","","","null","76","","","","","","","","","","","","","","","",""
"","ITI","","html-keyboard-response","490","797211","0.0-1.0-693.0","0","0","18985","","310","","","75","76","","","","","","","","","","","","","","","k",""
"","S1","","html-keyboard-response","491","797472","0.0-1.0-695.0","0","0","18985","","null","","","null","77","","","","","","","","","","","","","","","",""
"","ISI","","html-keyboard-response","492","797982","0.0-1.0-696.0","0","0","18985","","349","","","75","77","k","","","","","","","","","","","","","","",""
"","S2","","html-keyboard-response","493","798238","0.0-1.0-697.0","0","0","18985","","null","","","null","77","","NaN","","","","","","","","","","","","","",""
"","response","","html-keyboard-response","494","798313","0.0-1.0-698.0-0.0","0","0","18985","","69","","","75","77","","","2","77","training","adjacent","GF","7","6","Q.jpg","R.jpg","1","0","0","",""
"","feedback","","html-keyboard-response","495","799322","0.0-1.0-699.0-0.0","0","0","18985","","null","","","null","77","","","","","","","","","","","","","","","",""
"","time_out","","html-keyboard-response","496","801351","0.0-1.0-701.0-0.0","0","0","18985","","null","","","null","77","","","","","","","","","","","","","","","",""
"","ITI","","html-keyboard-response","497","802357","0.0-1.0-702.0","0","0","18985","","69","","","68","77","","","","","","","","","","","","","","","d",""
"","S1","","html-keyboard-response","498","802610","0.0-1.0-704.0","0","0","18985","","null","","","null","78","","","","","","","","","","","","","","","",""
"","ISI","","html-keyboard-response","499","803224","0.0-1.0-705.0","0","0","18985","","60","","","68","78","d","","","","","","","","","","","","","","",""
"","S2","","html-keyboard-response","500","803336","0.0-1.0-706.0","0","0","18985","","99","","","75","78","","k","2","78","training","adjacent","AB","1","2","M.jpg","O.jpg","1","1","1","",""
"","feedback","","html-keyboard-response","501","804343","0.0-1.0-708.0-0.0","0","0","18985","","null","","","null","78","","","","","","","","","","","","","","","",""
"","ITI","","html-keyboard-response","502","805360","0.0-1.0-711.0","0","0","18985","","947","","","68","78","","","","","","","","","","","","","","","d",""
"","S1","","html-keyboard-response","503","805656","0.0-1.0-713.0","0","0","18985","","null","","","null","79","","","","","","","","","","","","","","","",""
"","ISI","","html-keyboard-response","504","806161","0.0-1.0-714.0","0","0","18985","","266","","","68","79","d","","","","","","","","","","","","","","",""
"","S2","","html-keyboard-response","505","806173","0.0-1.0-715.0","0","0","18985","","3","","","68","79","","d","2","79","training","adjacent","EF","5","6","L.jpg","R.jpg","0","1","0","",""
"","feedback","","html-keyboard-response","506","807180","0.0-1.0-717.0-0.0","0","0","18985","","null","","","null","79","","","","","","","","","","","","","","","",""
"","time_out","","html-keyboard-response","507","809188","0.0-1.0-719.0-0.0","0","0","18985","","null","","","null","79","","","","","","","","","","","","","","","",""
"","ITI","","html-keyboard-response","508","810194","0.0-1.0-720.0","0","0","18985","","null","","","null","79","","","","","","","","","","","","","","","NaN",""
"","S1","","html-keyboard-response","509","810450","0.0-1.0-722.0","0","0","18985","","null","","","null","80","","","","","","","","","","","","","","","",""
"","ISI","","html-keyboard-response","510","810958","0.0-1.0-723.0","0","0","18985","","468","","","75","80","k","","","","","","","","","","","","","","",""
"","S2","","html-keyboard-response","511","811207","0.0-1.0-724.0","0","0","18985","","242","","","75","80","","k","2","80","training","adjacent","CB","3","2","P.jpg","O.jpg","1","0","0","",""
"","feedback","","html-keyboard-response","512","812215","0.0-1.0-726.0-0.0","0","0","18985","","null","","","null","80","","","","","","","","","","","","","","","",""
"","time_out","","html-keyboard-response","513","814229","0.0-1.0-728.0-0.0","0","0","18985","","null","","","null","80","","","","","","","","","","","","","","","",""
"","ITI","","html-keyboard-response","514","815239","0.0-1.0-729.0","0","0","18985","","325","","","68","80","","","","","","","","","","","","","","","d",""
"","S1","","html-keyboard-response","515","815497","0.0-1.0-731.0","0","0","18985","","null","","","null","81","","","","","","","","","","","","","","","",""
"","ISI","","html-keyboard-response","516","816107","0.0-1.0-732.0","0","0","18985","","84","","","68","81","d","","","","","","","","","","","","","","",""
"","S2","","html-keyboard-response","517","816283","0.0-1.0-733.0","0","0","18985","","168","","","68","81","","d","2","81","training","adjacent","AB","1","2","M.jpg","O.jpg","0","1","0","",""
"","feedback","","html-keyboard-response","518","817306","0.0-1.0-735.0-0.0","0","0","18985","","null","","","null","81","","","","","","","","","","","","","","","",""
"","time_out","","html-keyboard-response","519","819315","0.0-1.0-737.0-0.0","0","0","18985","","null","","","null","81","","","","","","","","","","","","","","","",""
"","ITI","","html-keyboard-response","520","820324","0.0-1.0-738.0","0","0","18985","","461","","","75","81","","","","","","","","","","","","","","","k",""
"","S1","","html-keyboard-response","521","820581","0.0-1.0-740.0","0","0","18985","","null","","","null","82","","","","","","","","","","","","","","","",""
"","ISI","","html-keyboard-response","522","821105","0.0-1.0-741.0","0","0","18985","","1","","","75","82","k","","","","","","","","","","","","","","",""
"","S2","","html-keyboard-response","523","821177","0.0-1.0-742.0","0","0","18985","","65","","","75","82","","k","2","82","training","adjacent","DC","4","3","N.jpg","P.jpg","1","0","0","",""
"","feedback","","html-keyboard-response","524","822186","0.0-1.0-744.0-0.0","0","0","18985","","null","","","null","82","","","","","","","","","","","","","","","",""
"","time_out","","html-keyboard-response","525","824194","0.0-1.0-746.0-0.0","0","0","18985","","null","","","null","82","","","","","","","","","","","","","","","",""
"","ITI","","html-keyboard-response","526","825226","0.0-1.0-747.0","0","0","18985","","null","","","null","82","","","","","","","","","","","","","","","NaN",""
"","S1","","html-keyboard-response","527","825487","0.0-1.0-749.0","0","0","18985","","null","","","null","83","","","","","","","","","","","","","","","",""
"","ISI","","html-keyboard-response","528","825999","0.0-1.0-750.0","0","0","18985","","127","","","68","83","d","","","","","","","","","","","","","","",""
"","S2","","html-keyboard-response","529","826260","0.0-1.0-751.0","0","0","18985","","null","","","null","83","","NaN","","","","","","","","","","","","","",""
"","response","","html-keyboard-response","530","826997","0.0-1.0-752.0-0.0","0","0","18985","","728","","","68","83","","","2","83","training","adjacent","BA","2","1","O.jpg","M.jpg","0","0","1","",""
"","feedback","","html-keyboard-response","531","828005","0.0-1.0-753.0-0.0","0","0","18985","","null","","","null","83","","","","","","","","","","","","","","","",""
"","ITI","","html-keyboard-response","532","829010","0.0-1.0-756.0","0","0","18985","","null","","","null","83","","","","","","","","","","","","","","","NaN",""
"","S1","","html-keyboard-response","533","829270","0.0-1.0-758.0","0","0","18985","","null","","","null","84","","","","","","","","","","","","","","","",""
"","ISI","","html-keyboard-response","534","829776","0.0-1.0-759.0","0","0","18985","","null","","","null","84","NaN","","","","","","","","","","","","","","",""
"","S2","","html-keyboard-response","535","830031","0.0-1.0-760.0","0","0","18985","","null","","","null","84","","NaN","","","","","","","","","","","","","",""
"","response","","html-keyboard-response","536","830682","0.0-1.0-761.0-0.0","0","0","18985","","644","","","68","84","","","2","84","training","adjacent","EF","5","6","L.jpg","R.jpg","0","1","0","",""
"","feedback","","html-keyboard-response","537","831693","0.0-1.0-762.0-0.0","0","0","18985","","null","","","null","84","","","","","","","","","","","","","","","",""
"","time_out","","html-keyboard-response","538","833750","0.0-1.0-764.0-0.0","0","0","18985","","null","","","null","84","","","","","","","","","","","","","","","",""
"","ITI","","html-keyboard-response","539","834763","0.0-1.0-765.0","0","0","18985","","34","","","75","84","","","","","","","","","","","","","","","k",""
"","S1","","html-keyboard-response","540","835021","0.0-1.0-767.0","0","0","18985","","null","","","null","85","","","","","","","","","","","","","","","",""
"","ISI","","html-keyboard-response","541","835529","0.0-1.0-768.0","0","0","18985","","59","","","75","85","k","","","","","","","","","","","","","","",""
"","S2","","html-keyboard-response","542","835726","0.0-1.0-769.0","0","0","18985","","188","","","75","85","","k","2","85","training","adjacent","FG","6","7","R.jpg","Q.jpg","1","1","1","",""
"","feedback","","html-keyboard-response","543","836735","0.0-1.0-771.0-0.0","0","0","18985","","null","","","null","85","","","","","","","","","","","","","","","",""
"","ITI","","html-keyboard-response","544","837778","0.0-1.0-774.0","0","0","18985","","null","","","null","85","","","","","","","","","","","","","","","NaN",""
"","S1","","html-keyboard-response","545","838053","0.0-1.0-776.0","0","0","18985","","null","","","null","86","","","","","","","","","","","","","","","",""
"","ISI","","html-keyboard-response","546","838566","0.0-1.0-777.0","0","0","18985","","null","","","null","86","NaN","","","","","","","","","","","","","","",""
"","S2","","html-keyboard-response","547","838821","0.0-1.0-778.0","0","0","18985","","null","","","null","86","","NaN","","","","","","","","","","","","","",""
"","response","","html-keyboard-response","548","839606","0.0-1.0-779.0-0.0","0","0","18985","","777","","","75","86","","","2","86","training","adjacent","CD","3","4","P.jpg","N.jpg","1","1","1","",""
"","feedback","","html-keyboard-response","549","840617","0.0-1.0-780.0-0.0","0","0","18985","","null","","","null","86","","","","","","","","","","","","","","","",""
"","ITI","","html-keyboard-response","550","841634","0.0-1.0-783.0","0","0","18985","","null","","","null","86","","","","","","","","","","","","","","","NaN",""
"","S1","","html-keyboard-response","551","841895","0.0-1.0-785.0","0","0","18985","","null","","","null","87","","","","","","","","","","","","","","","",""
"","ISI","","html-keyboard-response","552","842400","0.0-1.0-786.0","0","0","18985","","null","","","null","87","NaN","","","","","","","","","","","","","","",""
"","S2","","html-keyboard-response","553","842656","0.0-1.0-787.0","0","0","18985","","null","","","null","87","","NaN","","","","","","","","","","","","","",""
"","response","","html-keyboard-response","554","842781","0.0-1.0-788.0-0.0","0","0","18985","","120","","","75","87","","","2","87","training","adjacent","ED","5","4","L.jpg","N.jpg","1","0","0","",""
"","feedback","","html-keyboard-response","555","843791","0.0-1.0-789.0-0.0","0","0","18985","","null","","","null","87","","","","","","","","","","","","","","","",""
"","time_out","","html-keyboard-response","556","845851","0.0-1.0-791.0-0.0","0","0","18985","","null","","","null","87","","","","","","","","","","","","","","","",""
"","ITI","","html-keyboard-response","557","846855","0.0-1.0-792.0","0","0","18985","","null","","","null","87","","","","","","","","","","","","","","","NaN",""
"","S1","","html-keyboard-response","558","847115","0.0-1.0-794.0","0","0","18985","","null","","","null","88","","","","","","","","","","","","","","","",""
"","ISI","","html-keyboard-response","559","847631","0.0-1.0-795.0","0","0","18985","","493","","","68","88","d","","","","","","","","","","","","","","",""
"","S2","","html-keyboard-response","560","847901","0.0-1.0-796.0","0","0","18985","","null","","","null","88","","NaN","","","","","","","","","","","","","",""
"","response","","html-keyboard-response","561","848361","0.0-1.0-797.0-0.0","0","0","18985","","450","","","68","88","","","2","88","training","adjacent","DE","4","5","N.jpg","L.jpg","0","1","0","",""
"","feedback","","html-keyboard-response","562","849391","0.0-1.0-798.0-0.0","0","0","18985","","null","","","null","88","","","","","","","","","","","","","","","",""
"","time_out","","html-keyboard-response","563","851613","0.0-1.0-800.0-0.0","0","0","18985","","null","","","null","88","","","","","","","","","","","","","","","",""
"","ITI","","html-keyboard-response","564","852619","0.0-1.0-801.0","0","0","18985","","949","","","75","88","","","","","","","","","","","","","","","k",""
"","S1","","html-keyboard-response","565","852877","0.0-1.0-803.0","0","0","18985","","null","","","null","89","","","","","","","","","","","","","","","",""
"","ISI","","html-keyboard-response","566","853396","0.0-1.0-804.0","0","0","18985","","140","","","75","89","k","","","","","","","","","","","","","","",""
"","S2","","html-keyboard-response","567","853454","0.0-1.0-805.0","0","0","18985","","45","","","75","89","","k","2","89","training","adjacent","ED","5","4","L.jpg","N.jpg","1","0","0","",""
"","feedback","","html-keyboard-response","568","854459","0.0-1.0-807.0-0.0","0","0","18985","","null","","","null","89","","","","","","","","","","","","","","","",""
"","time_out","","html-keyboard-response","569","856467","0.0-1.0-809.0-0.0","0","0","18985","","null","","","null","89","","","","","","","","","","","","","","","",""
"","ITI","","html-keyboard-response","570","857482","0.0-1.0-810.0","0","0","18985","","null","","","null","89","","","","","","","","","","","","","","","NaN",""
"","S1","","html-keyboard-response","571","857745","0.0-1.0-812.0","0","0","18985","","null","","","null","90","","","","","","","","","","","","","","","",""
"","ISI","","html-keyboard-response","572","858251","0.0-1.0-813.0","0","0","18985","","null","","","null","90","NaN","","","","","","","","","","","","","","",""
"","S2","","html-keyboard-response","573","858509","0.0-1.0-814.0","0","0","18985","","null","","","null","90","","NaN","","","","","","","","","","","","","",""
"","response","","html-keyboard-response","574","858693","0.0-1.0-815.0-0.0","0","0","18985","","177","","","68","90","","","2","90","training","adjacent","DE","4","5","N.jpg","L.jpg","0","1","0","",""
"","feedback","","html-keyboard-response","575","859702","0.0-1.0-816.0-0.0","0","0","18985","","null","","","null","90","","","","","","","","","","","","","","","",""
"","time_out","","html-keyboard-response","576","861730","0.0-1.0-818.0-0.0","0","0","18985","","null","","","null","90","","","","","","","","","","","","","","","",""
"","ITI","","html-keyboard-response","577","862741","0.0-1.0-819.0","0","0","18985","","null","","","null","90","","","","","","","","","","","","","","","NaN",""
"","S1","","html-keyboard-response","578","862999","0.0-1.0-821.0","0","0","18985","","null","","","null","91","","","","","","","","","","","","","","","",""
"","ISI","","html-keyboard-response","579","863512","0.0-1.0-822.0","0","0","18985","","null","","","null","91","NaN","","","","","","","","","","","","","","",""
