"success","ttype","start_time","trial_type","trial_index","time_elapsed","internal_node_id","warning","missed_checkup","PID","view_history","rt","responses","repeat_instructions","key_press","index","keypress_isi","keypress_S2","block","trial_num","phase","group_type","pair_type","S1_stim","S2_stim","S1_img","S2_img","S1_chosen","S1_higher","accuracy","keypress_iti","total_bonus_tally"
"true","full_screen","d03082023hr1620","fullscreen","0","32824","0.0-0.0","0","0","17156","","","","","","","","","","","","","","","","","","","","","",""
"","instructions","","instructions","1","79656","0.0-1.0-0.0-0.0","0","0","17156","[{""page_index"":0,""viewing_time"":5086},{""page_index"":1,""viewing_time"":18244},{""page_index"":2,""viewing_time"":8516},{""page_index"":1,""viewing_time"":4903},{""page_index"":2,""viewing_time"":7717},{""page_index"":3,""viewing_time"":2361}]","46829","","","","","","","","","","","","","","","","","","","",""
"","comprehension_check","","survey-multi-choice","2","99925","0.0-1.0-0.0-1.0","0","0","17156","","20263","{""Q0"":""True"",""Q1"":""D"",""Q2"":""Only when the screen 'MAKE A CHOICE' is shown"",""Q3"":""Green mark"",""Q4"":""either D or K""}","1","","","","","","","","","","","","","","","","","",""
"","missed_instruction_checkup","","html-keyboard-response","3","102379","0.0-1.0-0.0-2.0-0.0","0","1","17156","","2448","","","32","","","","","","","","","","","","","","","","",""
"","instructions","","instructions","4","131654","0.0-1.0-0.1-0.1","0","0","17156","[{""page_index"":0,""viewing_time"":2237},{""page_index"":1,""viewing_time"":19948},{""page_index"":2,""viewing_time"":5742},{""page_index"":3,""viewing_time"":1344}]","29271","","","","","","","","","","","","","","","","","","","",""
"","comprehension_check","","survey-multi-choice","5","154720","0.0-1.0-0.1-1.1","0","0","17156","","23062","{""Q0"":""True"",""Q1"":""D"",""Q2"":""Once the second image appears and while the screen 'MAKE A CHOICE' is shown"",""Q3"":""Green mark"",""Q4"":""either D or K""}","0","","","","","","","","","","","","","","","","","",""
"","start_exp","","html-keyboard-response","6","157010","0.0-1.0-1.0","0","0","17156","","2288","","","32","","","","","","","","","","","","","","","","",""
"","S1","","html-keyboard-response","7","157270","0.0-1.0-2.0","0","0","17156","","null","","","null","0","","","","","","","","","","","","","","","",""
"","ISI","","html-keyboard-response","8","157431","0.0-1.0-3.0","0","0","17156","","null","","","null","0","NaN","","","","","","","","","","","","","","",""
"","S2","","html-keyboard-response","9","157698","0.0-1.0-4.0","0","0","17156","","null","","","null","0","","NaN","","","","","","","","","","","","","",""
"","response","","html-keyboard-response","10","158410","0.0-1.0-5.0-0.0","0","0","17156","","708","","","68","0","","","1","0","training","adjacent","DC","4","3","O.jpg","P.jpg","1","0","0","",""
"","feedback","","html-keyboard-response","11","159426","0.0-1.0-6.0-0.0","0","0","17156","","null","","","null","0","","","","","","","","","","","","","","","",""
"","time_out","","html-keyboard-response","12","161443","0.0-1.0-8.0-0.0","0","0","17156","","null","","","null","0","","","","","","","","","","","","","","","",""
"","ITI","","html-keyboard-response","13","162455","0.0-1.0-9.0","0","0","17156","","null","","","null","0","","","","","","","","","","","","","","","NaN",""
"","S1","","html-keyboard-response","14","162722","0.0-1.0-11.0","0","0","17156","","null","","","null","1","","","","","","","","","","","","","","","",""
"","ISI","","html-keyboard-response","15","162881","0.0-1.0-12.0","0","0","17156","","null","","","null","1","NaN","","","","","","","","","","","","","","",""
"","S2","","html-keyboard-response","16","163144","0.0-1.0-13.0","0","0","17156","","null","","","null","1","","NaN","","","","","","","","","","","","","",""
"","response","","html-keyboard-response","17","163597","0.0-1.0-14.0-0.0","0","0","17156","","450","","","75","1","","","1","1","training","adjacent","CB","3","2","P.jpg","L.jpg","0","0","1","",""
"","feedback","","html-keyboard-response","18","164611","0.0-1.0-15.0-0.0","0","0","17156","","null","","","null","1","","","","","","","","","","","","","","","",""
"","ITI","","html-keyboard-response","19","165623","0.0-1.0-18.0","0","0","17156","","null","","","null","1","","","","","","","","","","","","","","","NaN",""
"","S1","","html-keyboard-response","20","165891","0.0-1.0-20.0","0","0","17156","","null","","","null","2","","","","","","","","","","","","","","","",""
"","ISI","","html-keyboard-response","21","166059","0.0-1.0-21.0","0","0","17156","","null","","","null","2","NaN","","","","","","","","","","","","","","",""
"","S2","","html-keyboard-response","22","166321","0.0-1.0-22.0","0","0","17156","","null","","","null","2","","NaN","","","","","","","","","","","","","",""
"","response","","html-keyboard-response","23","166739","0.0-1.0-23.0-0.0","0","0","17156","","415","","","75","2","","","1","2","training","adjacent","DC","4","3","O.jpg","P.jpg","0","0","1","",""
"","feedback","","html-keyboard-response","24","167752","0.0-1.0-24.0-0.0","0","0","17156","","null","","","null","2","","","","","","","","","","","","","","","",""
"","ITI","","html-keyboard-response","25","168759","0.0-1.0-27.0","0","0","17156","","null","","","null","2","","","","","","","","","","","","","","","NaN",""
"","S1","","html-keyboard-response","26","169022","0.0-1.0-29.0","0","0","17156","","null","","","null","3","","","","","","","","","","","","","","","",""
"","ISI","","html-keyboard-response","27","169184","0.0-1.0-30.0","0","0","17156","","null","","","null","3","NaN","","","","","","","","","","","","","","",""
"","S2","","html-keyboard-response","28","169447","0.0-1.0-31.0","0","0","17156","","null","","","null","3","","NaN","","","","","","","","","","","","","",""
"","response","","html-keyboard-response","29","169766","0.0-1.0-32.0-0.0","0","0","17156","","315","","","68","3","","","1","3","training","adjacent","GF","7","6","R.jpg","Q.jpg","1","0","0","",""
"","feedback","","html-keyboard-response","30","170775","0.0-1.0-33.0-0.0","0","0","17156","","null","","","null","3","","","","","","","","","","","","","","","",""
"","time_out","","html-keyboard-response","31","172786","0.0-1.0-35.0-0.0","0","0","17156","","null","","","null","3","","","","","","","","","","","","","","","",""
"","ITI","","html-keyboard-response","32","173801","0.0-1.0-36.0","0","0","17156","","null","","","null","3","","","","","","","","","","","","","","","NaN",""
"","S1","","html-keyboard-response","33","174066","0.0-1.0-38.0","0","0","17156","","null","","","null","4","","","","","","","","","","","","","","","",""
"","ISI","","html-keyboard-response","34","174225","0.0-1.0-39.0","0","0","17156","","null","","","null","4","NaN","","","","","","","","","","","","","","",""
"","S2","","html-keyboard-response","35","174487","0.0-1.0-40.0","0","0","17156","","null","","","null","4","","NaN","","","","","","","","","","","","","",""
"","response","","html-keyboard-response","36","174886","0.0-1.0-41.0-0.0","0","0","17156","","396","","","75","4","","","1","4","training","adjacent","ED","5","4","N.jpg","O.jpg","0","0","1","",""
"","feedback","","html-keyboard-response","37","175895","0.0-1.0-42.0-0.0","0","0","17156","","null","","","null","4","","","","","","","","","","","","","","","",""
"","ITI","","html-keyboard-response","38","176904","0.0-1.0-45.0","0","0","17156","","null","","","null","4","","","","","","","","","","","","","","","NaN",""
"","S1","","html-keyboard-response","39","177171","0.0-1.0-47.0","0","0","17156","","null","","","null","5","","","","","","","","","","","","","","","",""
"","ISI","","html-keyboard-response","40","177336","0.0-1.0-48.0","0","0","17156","","null","","","null","5","NaN","","","","","","","","","","","","","","",""
"","S2","","html-keyboard-response","41","177601","0.0-1.0-49.0","0","0","17156","","null","","","null","5","","NaN","","","","","","","","","","","","","",""
"","response","","html-keyboard-response","42","177841","0.0-1.0-50.0-0.0","0","0","17156","","238","","","75","5","","","1","5","training","adjacent","FG","6","7","Q.jpg","R.jpg","0","1","0","",""
"","feedback","","html-keyboard-response","43","178849","0.0-1.0-51.0-0.0","0","0","17156","","null","","","null","5","","","","","","","","","","","","","","","",""
"","time_out","","html-keyboard-response","44","180866","0.0-1.0-53.0-0.0","0","0","17156","","null","","","null","5","","","","","","","","","","","","","","","",""
"","ITI","","html-keyboard-response","45","181879","0.0-1.0-54.0","0","0","17156","","null","","","null","5","","","","","","","","","","","","","","","NaN",""
"","S1","","html-keyboard-response","46","182144","0.0-1.0-56.0","0","0","17156","","null","","","null","6","","","","","","","","","","","","","","","",""
"","ISI","","html-keyboard-response","47","182305","0.0-1.0-57.0","0","0","17156","","null","","","null","6","NaN","","","","","","","","","","","","","","",""
"","S2","","html-keyboard-response","48","182567","0.0-1.0-58.0","0","0","17156","","null","","","null","6","","NaN","","","","","","","","","","","","","",""
"","response","","html-keyboard-response","49","182630","0.0-1.0-59.0-0.0","0","0","17156","","60","","","68","6","","","1","6","training","adjacent","CB","3","2","P.jpg","L.jpg","1","0","0","",""
"","feedback","","html-keyboard-response","50","183639","0.0-1.0-60.0-0.0","0","0","17156","","null","","","null","6","","","","","","","","","","","","","","","",""
"","time_out","","html-keyboard-response","51","185652","0.0-1.0-62.0-0.0","0","0","17156","","null","","","null","6","","","","","","","","","","","","","","","",""
"","ITI","","html-keyboard-response","52","186663","0.0-1.0-63.0","0","0","17156","","null","","","null","6","","","","","","","","","","","","","","","NaN",""
"","S1","","html-keyboard-response","53","186930","0.0-1.0-65.0","0","0","17156","","null","","","null","7","","","","","","","","","","","","","","","",""
"","ISI","","html-keyboard-response","54","187091","0.0-1.0-66.0","0","0","17156","","null","","","null","7","NaN","","","","","","","","","","","","","","",""
"","S2","","html-keyboard-response","55","187351","0.0-1.0-67.0","0","0","17156","","null","","","null","7","","NaN","","","","","","","","","","","","","",""
"","response","","html-keyboard-response","56","187720","0.0-1.0-68.0-0.0","0","0","17156","","366","","","75","7","","","1","7","training","adjacent","AB","1","2","M.jpg","L.jpg","0","1","0","",""
"","feedback","","html-keyboard-response","57","188727","0.0-1.0-69.0-0.0","0","0","17156","","null","","","null","7","","","","","","","","","","","","","","","",""
"","time_out","","html-keyboard-response","58","190738","0.0-1.0-71.0-0.0","0","0","17156","","null","","","null","7","","","","","","","","","","","","","","","",""
"","ITI","","html-keyboard-response","59","191750","0.0-1.0-72.0","0","0","17156","","null","","","null","7","","","","","","","","","","","","","","","NaN",""
"","S1","","html-keyboard-response","60","192007","0.0-1.0-74.0","0","0","17156","","null","","","null","8","","","","","","","","","","","","","","","",""
"","ISI","","html-keyboard-response","61","192167","0.0-1.0-75.0","0","0","17156","","null","","","null","8","NaN","","","","","","","","","","","","","","",""
"","S2","","html-keyboard-response","62","192434","0.0-1.0-76.0","0","0","17156","","null","","","null","8","","NaN","","","","","","","","","","","","","",""
"","response","","html-keyboard-response","63","192527","0.0-1.0-77.0-0.0","0","0","17156","","91","","","68","8","","","1","8","training","adjacent","FG","6","7","Q.jpg","R.jpg","1","1","1","",""
"","feedback","","html-keyboard-response","64","193538","0.0-1.0-78.0-0.0","0","0","17156","","null","","","null","8","","","","","","","","","","","","","","","",""
"","ITI","","html-keyboard-response","65","194551","0.0-1.0-81.0","0","0","17156","","null","","","null","8","","","","","","","","","","","","","","","NaN",""
"","S1","","html-keyboard-response","66","194817","0.0-1.0-83.0","0","0","17156","","null","","","null","9","","","","","","","","","","","","","","","",""
"","ISI","","html-keyboard-response","67","194978","0.0-1.0-84.0","0","0","17156","","null","","","null","9","NaN","","","","","","","","","","","","","","",""
"","S2","","html-keyboard-response","68","195240","0.0-1.0-85.0","0","0","17156","","null","","","null","9","","NaN","","","","","","","","","","","","","",""
"","response","","html-keyboard-response","69","195450","0.0-1.0-86.0-0.0","0","0","17156","","207","","","68","9","","","1","9","training","adjacent","GF","7","6","R.jpg","Q.jpg","1","0","0","",""
"","feedback","","html-keyboard-response","70","196467","0.0-1.0-87.0-0.0","0","0","17156","","null","","","null","9","","","","","","","","","","","","","","","",""
"","time_out","","html-keyboard-response","71","198483","0.0-1.0-89.0-0.0","0","0","17156","","null","","","null","9","","","","","","","","","","","","","","","",""
"","ITI","","html-keyboard-response","72","199495","0.0-1.0-90.0","0","0","17156","","null","","","null","9","","","","","","","","","","","","","","","NaN",""
"","S1","","html-keyboard-response","73","199763","0.0-1.0-92.0","0","0","17156","","null","","","null","10","","","","","","","","","","","","","","","",""
"","ISI","","html-keyboard-response","74","199927","0.0-1.0-93.0","0","0","17156","","null","","","null","10","NaN","","","","","","","","","","","","","","",""
"","S2","","html-keyboard-response","75","200194","0.0-1.0-94.0","0","0","17156","","null","","","null","10","","NaN","","","","","","","","","","","","","",""
"","response","","html-keyboard-response","76","200417","0.0-1.0-95.0-0.0","0","0","17156","","220","","","68","10","","","1","10","training","adjacent","DE","4","5","O.jpg","N.jpg","1","1","1","",""
"","feedback","","html-keyboard-response","77","201430","0.0-1.0-96.0-0.0","0","0","17156","","null","","","null","10","","","","","","","","","","","","","","","",""
"","ITI","","html-keyboard-response","78","202439","0.0-1.0-99.0","0","0","17156","","null","","","null","10","","","","","","","","","","","","","","","NaN",""
"","S1","","html-keyboard-response","79","202705","0.0-1.0-101.0","0","0","17156","","null","","","null","11","","","","","","","","","","","","","","","",""
"","ISI","","html-keyboard-response","80","202865","0.0-1.0-102.0","0","0","17156","","null","","","null","11","NaN","","","","","","","","","","","","","","",""
"","S2","","html-keyboard-response","81","203127","0.0-1.0-103.0","0","0","17156","","null","","","null","11","","NaN","","","","","","","","","","","","","",""
"","response","","html-keyboard-response","82","203305","0.0-1.0-104.0-0.0","0","0","17156","","176","","","75","11","","","1","11","training","adjacent","EF","5","6","N.jpg","Q.jpg","0","1","0","",""
"","feedback","","html-keyboard-response","83","204322","0.0-1.0-105.0-0.0","0","0","17156","","null","","","null","11","","","","","","","","","","","","","","","",""
"","time_out","","html-keyboard-response","84","206338","0.0-1.0-107.0-0.0","0","0","17156","","null","","","null","11","","","","","","","","","","","","","","","",""
"","ITI","","html-keyboard-response","85","207351","0.0-1.0-108.0","0","0","17156","","null","","","null","11","","","","","","","","","","","","","","","NaN",""
"","S1","","html-keyboard-response","86","207617","0.0-1.0-110.0","0","0","17156","","null","","","null","12","","","","","","","","","","","","","","","",""
"","ISI","","html-keyboard-response","87","207778","0.0-1.0-111.0","0","0","17156","","null","","","null","12","NaN","","","","","","","","","","","","","","",""
"","S2","","html-keyboard-response","88","208035","0.0-1.0-112.0","0","0","17156","","null","","","null","12","","NaN","","","","","","","","","","","","","",""
"","response","","html-keyboard-response","89","208051","0.0-1.0-113.0-0.0","0","0","17156","","14","","","68","12","","","1","12","training","adjacent","FE","6","5","Q.jpg","N.jpg","1","0","0","",""
"","feedback","","html-keyboard-response","90","209067","0.0-1.0-114.0-0.0","0","0","17156","","null","","","null","12","","","","","","","","","","","","","","","",""
"","time_out","","html-keyboard-response","91","211079","0.0-1.0-116.0-0.0","0","0","17156","","null","","","null","12","","","","","","","","","","","","","","","",""
"","ITI","","html-keyboard-response","92","212087","0.0-1.0-117.0","0","0","17156","","null","","","null","12","","","","","","","","","","","","","","","NaN",""
"","S1","","html-keyboard-response","93","212354","0.0-1.0-119.0","0","0","17156","","null","","","null","13","","","","","","","","","","","","","","","",""
"","ISI","","html-keyboard-response","94","212514","0.0-1.0-120.0","0","0","17156","","null","","","null","13","NaN","","","","","","","","","","","","","","",""
"","S2","","html-keyboard-response","95","212775","0.0-1.0-121.0","0","0","17156","","null","","","null","13","","NaN","","","","","","","","","","","","","",""
"","response","","html-keyboard-response","96","212810","0.0-1.0-122.0-0.0","0","0","17156","","32","","","68","13","","","1","13","training","adjacent","BC","2","3","L.jpg","P.jpg","1","1","1","",""
"","feedback","","html-keyboard-response","97","213826","0.0-1.0-123.0-0.0","0","0","17156","","null","","","null","13","","","","","","","","","","","","","","","",""
"","ITI","","html-keyboard-response","98","214838","0.0-1.0-126.0","0","0","17156","","null","","","null","13","","","","","","","","","","","","","","","NaN",""
"","S1","","html-keyboard-response","99","215105","0.0-1.0-128.0","0","0","17156","","null","","","null","14","","","","","","","","","","","","","","","",""
"","ISI","","html-keyboard-response","100","215265","0.0-1.0-129.0","0","0","17156","","null","","","null","14","NaN","","","","","","","","","","","","","","",""
"","S2","","html-keyboard-response","101","215527","0.0-1.0-130.0","0","0","17156","","null","","","null","14","","NaN","","","","","","","","","","","","","",""
"","response","","html-keyboard-response","102","215562","0.0-1.0-131.0-0.0","0","0","17156","","32","","","68","14","","","1","14","training","adjacent","DC","4","3","O.jpg","P.jpg","1","0","0","",""
"","feedback","","html-keyboard-response","103","216577","0.0-1.0-132.0-0.0","0","0","17156","","null","","","null","14","","","","","","","","","","","","","","","",""
"","time_out","","html-keyboard-response","104","218593","0.0-1.0-134.0-0.0","0","0","17156","","null","","","null","14","","","","","","","","","","","","","","","",""
"","ITI","","html-keyboard-response","105","219608","0.0-1.0-135.0","0","0","17156","","null","","","null","14","","","","","","","","","","","","","","","NaN",""
"","S1","","html-keyboard-response","106","219874","0.0-1.0-137.0","0","0","17156","","null","","","null","15","","","","","","","","","","","","","","","",""
"","ISI","","html-keyboard-response","107","220033","0.0-1.0-138.0","0","0","17156","","null","","","null","15","NaN","","","","","","","","","","","","","","",""
"","S2","","html-keyboard-response","108","220300","0.0-1.0-139.0","0","0","17156","","null","","","null","15","","NaN","","","","","","","","","","","","","",""
"","response","","html-keyboard-response","109","220569","0.0-1.0-140.0-0.0","0","0","17156","","266","","","68","15","","","1","15","training","adjacent","ED","5","4","N.jpg","O.jpg","1","0","0","",""
"","feedback","","html-keyboard-response","110","221586","0.0-1.0-141.0-0.0","0","0","17156","","null","","","null","15","","","","","","","","","","","","","","","",""
"","time_out","","html-keyboard-response","111","223601","0.0-1.0-143.0-0.0","0","0","17156","","null","","","null","15","","","","","","","","","","","","","","","",""
"","ITI","","html-keyboard-response","112","224615","0.0-1.0-144.0","0","0","17156","","null","","","null","15","","","","","","","","","","","","","","","NaN",""
"","S1","","html-keyboard-response","113","224881","0.0-1.0-146.0","0","0","17156","","null","","","null","16","","","","","","","","","","","","","","","",""
"","ISI","","html-keyboard-response","114","225041","0.0-1.0-147.0","0","0","17156","","null","","","null","16","NaN","","","","","","","","","","","","","","",""
"","S2","","html-keyboard-response","115","225303","0.0-1.0-148.0","0","0","17156","","null","","","null","16","","NaN","","","","","","","","","","","","","",""
"","response","","html-keyboard-response","116","225792","0.0-1.0-149.0-0.0","0","0","17156","","487","","","68","16","","","1","16","training","adjacent","CD","3","4","P.jpg","O.jpg","1","1","1","",""
"","feedback","","html-keyboard-response","117","226807","0.0-1.0-150.0-0.0","0","0","17156","","null","","","null","16","","","","","","","","","","","","","","","",""
"","ITI","","html-keyboard-response","118","227815","0.0-1.0-153.0","0","0","17156","","null","","","null","16","","","","","","","","","","","","","","","NaN",""
"","S1","","html-keyboard-response","119","228081","0.0-1.0-155.0","0","0","17156","","null","","","null","17","","","","","","","","","","","","","","","",""
"","ISI","","html-keyboard-response","120","228242","0.0-1.0-156.0","0","0","17156","","null","","","null","17","NaN","","","","","","","","","","","","","","",""
"","S2","","html-keyboard-response","121","228504","0.0-1.0-157.0","0","0","17156","","null","","","null","17","","NaN","","","","","","","","","","","","","",""
"","response","","html-keyboard-response","122","228735","0.0-1.0-158.0-0.0","0","0","17156","","229","","","75","17","","","1","17","training","adjacent","AB","1","2","M.jpg","L.jpg","0","1","0","",""
"","feedback","","html-keyboard-response","123","229746","0.0-1.0-159.0-0.0","0","0","17156","","null","","","null","17","","","","","","","","","","","","","","","",""
"","time_out","","html-keyboard-response","124","231761","0.0-1.0-161.0-0.0","0","0","17156","","null","","","null","17","","","","","","","","","","","","","","","",""
"","ITI","","html-keyboard-response","125","232775","0.0-1.0-162.0","0","0","17156","","null","","","null","17","","","","","","","","","","","","","","","NaN",""
"","S1","","html-keyboard-response","126","233042","0.0-1.0-164.0","0","0","17156","","null","","","null","18","","","","","","","","","","","","","","","",""
"","ISI","","html-keyboard-response","127","233202","0.0-1.0-165.0","0","0","17156","","null","","","null","18","NaN","","","","","","","","","","","","","","",""
"","S2","","html-keyboard-response","128","233458","0.0-1.0-166.0","0","0","17156","","null","","","null","18","","NaN","","","","","","","","","","","","","",""
"","response","","html-keyboard-response","129","233754","0.0-1.0-167.0-0.0","0","0","17156","","294","","","75","18","","","1","18","training","adjacent","BA","2","1","L.jpg","M.jpg","0","0","1","",""
"","feedback","","html-keyboard-response","130","234771","0.0-1.0-168.0-0.0","0","0","17156","","null","","","null","18","","","","","","","","","","","","","","","",""
"","ITI","","html-keyboard-response","131","235779","0.0-1.0-171.0","0","0","17156","","null","","","null","18","","","","","","","","","","","","","","","NaN",""
"","S1","","html-keyboard-response","132","236037","0.0-1.0-173.0","0","0","17156","","null","","","null","19","","","","","","","","","","","","","","","",""
"","ISI","","html-keyboard-response","133","236200","0.0-1.0-174.0","0","0","17156","","null","","","null","19","NaN","","","","","","","","","","","","","","",""
"","S2","","html-keyboard-response","134","236467","0.0-1.0-175.0","0","0","17156","","null","","","null","19","","NaN","","","","","","","","","","","","","",""
"","response","","html-keyboard-response","135","236768","0.0-1.0-176.0-0.0","0","0","17156","","298","","","68","19","","","1","19","training","adjacent","ED","5","4","N.jpg","O.jpg","1","0","0","",""
"","feedback","","html-keyboard-response","136","237777","0.0-1.0-177.0-0.0","0","0","17156","","null","","","null","19","","","","","","","","","","","","","","","",""
"","time_out","","html-keyboard-response","137","239795","0.0-1.0-179.0-0.0","0","0","17156","","null","","","null","19","","","","","","","","","","","","","","","",""
"","ITI","","html-keyboard-response","138","240810","0.0-1.0-180.0","0","0","17156","","null","","","null","19","","","","","","","","","","","","","","","NaN",""
"","S1","","html-keyboard-response","139","241073","0.0-1.0-182.0","0","0","17156","","null","","","null","20","","","","","","","","","","","","","","","",""
"","ISI","","html-keyboard-response","140","241233","0.0-1.0-183.0","0","0","17156","","null","","","null","20","NaN","","","","","","","","","","","","","","",""
"","S2","","html-keyboard-response","141","241491","0.0-1.0-184.0","0","0","17156","","null","","","null","20","","NaN","","","","","","","","","","","","","",""
"","response","","html-keyboard-response","142","242037","0.0-1.0-185.0-0.0","0","0","17156","","543","","","75","20","","","1","20","training","adjacent","BA","2","1","L.jpg","M.jpg","0","0","1","",""
"","feedback","","html-keyboard-response","143","243047","0.0-1.0-186.0-0.0","0","0","17156","","null","","","null","20","","","","","","","","","","","","","","","",""
"","ITI","","html-keyboard-response","144","244054","0.0-1.0-189.0","0","0","17156","","null","","","null","20","","","","","","","","","","","","","","","NaN",""
"","S1","","html-keyboard-response","145","244315","0.0-1.0-191.0","0","0","17156","","null","","","null","21","","","","","","","","","","","","","","","",""
"","ISI","","html-keyboard-response","146","244481","0.0-1.0-192.0","0","0","17156","","null","","","null","21","NaN","","","","","","","","","","","","","","",""
"","S2","","html-keyboard-response","147","244743","0.0-1.0-193.0","0","0","17156","","null","","","null","21","","NaN","","","","","","","","","","","","","",""
"","response","","html-keyboard-response","148","244975","0.0-1.0-194.0-0.0","0","0","17156","","228","","","68","21","","","1","21","training","adjacent","GF","7","6","R.jpg","Q.jpg","1","0","0","",""
"","feedback","","html-keyboard-response","149","245986","0.0-1.0-195.0-0.0","0","0","17156","","null","","","null","21","","","","","","","","","","","","","","","",""
"","time_out","","html-keyboard-response","150","248002","0.0-1.0-197.0-0.0","0","0","17156","","null","","","null","21","","","","","","","","","","","","","","","",""
"","ITI","","html-keyboard-response","151","249015","0.0-1.0-198.0","0","0","17156","","null","","","null","21","","","","","","","","","","","","","","","NaN",""
"","S1","","html-keyboard-response","152","249281","0.0-1.0-200.0","0","0","17156","","null","","","null","22","","","","","","","","","","","","","","","",""
"","ISI","","html-keyboard-response","153","249442","0.0-1.0-201.0","0","0","17156","","null","","","null","22","NaN","","","","","","","","","","","","","","",""
"","S2","","html-keyboard-response","154","249705","0.0-1.0-202.0","0","0","17156","","null","","","null","22","","NaN","","","","","","","","","","","","","",""
"","response","","html-keyboard-response","155","249882","0.0-1.0-203.0-0.0","0","0","17156","","175","","","68","22","","","1","22","training","adjacent","BC","2","3","L.jpg","P.jpg","1","1","1","",""
"","feedback","","html-keyboard-response","156","250897","0.0-1.0-204.0-0.0","0","0","17156","","null","","","null","22","","","","","","","","","","","","","","","",""
"","ITI","","html-keyboard-response","157","251911","0.0-1.0-207.0","0","0","17156","","null","","","null","22","","","","","","","","","","","","","","","NaN",""
"","S1","","html-keyboard-response","158","252177","0.0-1.0-209.0","0","0","17156","","null","","","null","23","","","","","","","","","","","","","","","",""
"","ISI","","html-keyboard-response","159","252337","0.0-1.0-210.0","0","0","17156","","null","","","null","23","NaN","","","","","","","","","","","","","","",""
"","S2","","html-keyboard-response","160","252600","0.0-1.0-211.0","0","0","17156","","null","","","null","23","","NaN","","","","","","","","","","","","","",""
"","response","","html-keyboard-response","161","252807","0.0-1.0-212.0-0.0","0","0","17156","","204","","","68","23","","","1","23","training","adjacent","FG","6","7","Q.jpg","R.jpg","1","1","1","",""
"","feedback","","html-keyboard-response","162","253815","0.0-1.0-213.0-0.0","0","0","17156","","null","","","null","23","","","","","","","","","","","","","","","",""
"","ITI","","html-keyboard-response","163","254823","0.0-1.0-216.0","0","0","17156","","null","","","null","23","","","","","","","","","","","","","","","NaN",""
"","S1","","html-keyboard-response","164","255090","0.0-1.0-218.0","0","0","17156","","null","","","null","24","","","","","","","","","","","","","","","",""
"","ISI","","html-keyboard-response","165","255249","0.0-1.0-219.0","0","0","17156","","null","","","null","24","NaN","","","","","","","","","","","","","","",""
"","S2","","html-keyboard-response","166","255510","0.0-1.0-220.0","0","0","17156","","null","","","null","24","","NaN","","","","","","","","","","","","","",""
"","response","","html-keyboard-response","167","255704","0.0-1.0-221.0-0.0","0","0","17156","","190","","","75","24","","","1","24","training","adjacent","FE","6","5","Q.jpg","N.jpg","0","0","1","",""
"","feedback","","html-keyboard-response","168","256710","0.0-1.0-222.0-0.0","0","0","17156","","null","","","null","24","","","","","","","","","","","","","","","",""
"","ITI","","html-keyboard-response","169","257719","0.0-1.0-225.0","0","0","17156","","null","","","null","24","","","","","","","","","","","","","","","NaN",""
"","S1","","html-keyboard-response","170","257982","0.0-1.0-227.0","0","0","17156","","null","","","null","25","","","","","","","","","","","","","","","",""
"","ISI","","html-keyboard-response","171","258146","0.0-1.0-228.0","0","0","17156","","null","","","null","25","NaN","","","","","","","","","","","","","","",""
"","S2","","html-keyboard-response","172","258409","0.0-1.0-229.0","0","0","17156","","null","","","null","25","","NaN","","","","","","","","","","","","","",""
"","response","","html-keyboard-response","173","258488","0.0-1.0-230.0-0.0","0","0","17156","","75","","","75","25","","","1","25","training","adjacent","FE","6","5","Q.jpg","N.jpg","0","0","1","",""
"","feedback","","html-keyboard-response","174","259493","0.0-1.0-231.0-0.0","0","0","17156","","null","","","null","25","","","","","","","","","","","","","","","",""
"","ITI","","html-keyboard-response","175","260502","0.0-1.0-234.0","0","0","17156","","null","","","null","25","","","","","","","","","","","","","","","NaN",""
"","S1","","html-keyboard-response","176","260770","0.0-1.0-236.0","0","0","17156","","null","","","null","26","","","","","","","","","","","","","","","",""
"","ISI","","html-keyboard-response","177","260936","0.0-1.0-237.0","0","0","17156","","null","","","null","26","NaN","","","","","","","","","","","","","","",""
"","S2","","html-keyboard-response","178","261202","0.0-1.0-238.0","0","0","17156","","null","","","null","26","","NaN","","","","","","","","","","","","","",""
"","response","","html-keyboard-response","179","261289","0.0-1.0-239.0-0.0","0","0","17156","","84","","","68","26","","","1","26","training","adjacent","CD","3","4","P.jpg","O.jpg","1","1","1","",""
"","feedback","","html-keyboard-response","180","262306","0.0-1.0-240.0-0.0","0","0","17156","","null","","","null","26","","","","","","","","","","","","","","","",""
"","ITI","","html-keyboard-response","181","263319","0.0-1.0-243.0","0","0","17156","","null","","","null","26","","","","","","","","","","","","","","","NaN",""
"","S1","","html-keyboard-response","182","263586","0.0-1.0-245.0","0","0","17156","","null","","","null","27","","","","","","","","","","","","","","","",""
"","ISI","","html-keyboard-response","183","263746","0.0-1.0-246.0","0","0","17156","","null","","","null","27","NaN","","","","","","","","","","","","","","",""
"","S2","","html-keyboard-response","184","264006","0.0-1.0-247.0","0","0","17156","","null","","","null","27","","NaN","","","","","","","","","","","","","",""
"","response","","html-keyboard-response","185","264256","0.0-1.0-248.0-0.0","0","0","17156","","246","","","68","27","","","1","27","training","adjacent","BA","2","1","L.jpg","M.jpg","1","0","0","",""
"","feedback","","html-keyboard-response","186","265271","0.0-1.0-249.0-0.0","0","0","17156","","null","","","null","27","","","","","","","","","","","","","","","",""
"","time_out","","html-keyboard-response","187","267282","0.0-1.0-251.0-0.0","0","0","17156","","null","","","null","27","","","","","","","","","","","","","","","",""
"","ITI","","html-keyboard-response","188","268295","0.0-1.0-252.0","0","0","17156","","null","","","null","27","","","","","","","","","","","","","","","NaN",""
"","S1","","html-keyboard-response","189","268560","0.0-1.0-254.0","0","0","17156","","null","","","null","28","","","","","","","","","","","","","","","",""
"","ISI","","html-keyboard-response","190","268721","0.0-1.0-255.0","0","0","17156","","null","","","null","28","NaN","","","","","","","","","","","","","","",""
"","S2","","html-keyboard-response","191","268983","0.0-1.0-256.0","0","0","17156","","null","","","null","28","","NaN","","","","","","","","","","","","","",""
"","response","","html-keyboard-response","192","269222","0.0-1.0-257.0-0.0","0","0","17156","","234","","","68","28","","","1","28","training","adjacent","DE","4","5","O.jpg","N.jpg","1","1","1","",""
"","feedback","","html-keyboard-response","193","270231","0.0-1.0-258.0-0.0","0","0","17156","","null","","","null","28","","","","","","","","","","","","","","","",""
"","ITI","","html-keyboard-response","194","271239","0.0-1.0-261.0","0","0","17156","","null","","","null","28","","","","","","","","","","","","","","","NaN",""
"","S1","","html-keyboard-response","195","271505","0.0-1.0-263.0","0","0","17156","","null","","","null","29","","","","","","","","","","","","","","","",""
"","ISI","","html-keyboard-response","196","271666","0.0-1.0-264.0","0","0","17156","","null","","","null","29","NaN","","","","","","","","","","","","","","",""
"","S2","","html-keyboard-response","197","271928","0.0-1.0-265.0","0","0","17156","","null","","","null","29","","NaN","","","","","","","","","","","","","",""
"","response","","html-keyboard-response","198","272390","0.0-1.0-266.0-0.0","0","0","17156","","459","","","75","29","","","1","29","training","adjacent","CB","3","2","P.jpg","L.jpg","0","0","1","",""
"","feedback","","html-keyboard-response","199","273399","0.0-1.0-267.0-0.0","0","0","17156","","null","","","null","29","","","","","","","","","","","","","","","",""
"","ITI","","html-keyboard-response","200","274407","0.0-1.0-270.0","0","0","17156","","null","","","null","29","","","","","","","","","","","","","","","NaN",""
"","S1","","html-keyboard-response","201","274673","0.0-1.0-272.0","0","0","17156","","null","","","null","30","","","","","","","","","","","","","","","",""
"","ISI","","html-keyboard-response","202","274833","0.0-1.0-273.0","0","0","17156","","null","","","null","30","NaN","","","","","","","","","","","","","","",""
"","S2","","html-keyboard-response","203","275095","0.0-1.0-274.0","0","0","17156","","null","","","null","30","","NaN","","","","","","","","","","","","","",""
"","response","","html-keyboard-response","204","275305","0.0-1.0-275.0-0.0","0","0","17156","","207","","","75","30","","","1","30","training","adjacent","FE","6","5","Q.jpg","N.jpg","0","0","1","",""
"","feedback","","html-keyboard-response","205","276321","0.0-1.0-276.0-0.0","0","0","17156","","null","","","null","30","","","","","","","","","","","","","","","",""
"","ITI","","html-keyboard-response","206","277334","0.0-1.0-279.0","0","0","17156","","null","","","null","30","","","","","","","","","","","","","","","NaN",""
"","S1","","html-keyboard-response","207","277601","0.0-1.0-281.0","0","0","17156","","null","","","null","31","","","","","","","","","","","","","","","",""
"","ISI","","html-keyboard-response","208","277757","0.0-1.0-282.0","0","0","17156","","null","","","null","31","NaN","","","","","","","","","","","","","","",""
"","S2","","html-keyboard-response","209","278017","0.0-1.0-283.0","0","0","17156","","null","","","null","31","","NaN","","","","","","","","","","","","","",""
"","response","","html-keyboard-response","210","278452","0.0-1.0-284.0-0.0","0","0","17156","","432","","","75","31","","","1","31","training","adjacent","FG","6","7","Q.jpg","R.jpg","0","1","0","",""
"","feedback","","html-keyboard-response","211","279463","0.0-1.0-285.0-0.0","0","0","17156","","null","","","null","31","","","","","","","","","","","","","","","",""
"","time_out","","html-keyboard-response","212","281473","0.0-1.0-287.0-0.0","0","0","17156","","null","","","null","31","","","","","","","","","","","","","","","",""
"","ITI","","html-keyboard-response","213","282487","0.0-1.0-288.0","0","0","17156","","null","","","null","31","","","","","","","","","","","","","","","NaN",""
"","S1","","html-keyboard-response","214","282755","0.0-1.0-290.0","0","0","17156","","null","","","null","32","","","","","","","","","","","","","","","",""
"","ISI","","html-keyboard-response","215","282920","0.0-1.0-291.0","0","0","17156","","null","","","null","32","NaN","","","","","","","","","","","","","","",""
"","S2","","html-keyboard-response","216","283185","0.0-1.0-292.0","0","0","17156","","null","","","null","32","","NaN","","","","","","","","","","","","","",""
"","response","","html-keyboard-response","217","283668","0.0-1.0-293.0-0.0","0","0","17156","","480","","","75","32","","","1","32","training","adjacent","CD","3","4","P.jpg","O.jpg","0","1","0","",""
"","feedback","","html-keyboard-response","218","284677","0.0-1.0-294.0-0.0","0","0","17156","","null","","","null","32","","","","","","","","","","","","","","","",""
"","time_out","","html-keyboard-response","219","286690","0.0-1.0-296.0-0.0","0","0","17156","","null","","","null","32","","","","","","","","","","","","","","","",""
"","ITI","","html-keyboard-response","220","287702","0.0-1.0-297.0","0","0","17156","","null","","","null","32","","","","","","","","","","","","","","","NaN",""
"","S1","","html-keyboard-response","221","287970","0.0-1.0-299.0","0","0","17156","","null","","","null","33","","","","","","","","","","","","","","","",""
"","ISI","","html-keyboard-response","222","288135","0.0-1.0-300.0","0","0","17156","","null","","","null","33","NaN","","","","","","","","","","","","","","",""
"","S2","","html-keyboard-response","223","288400","0.0-1.0-301.0","0","0","17156","","null","","","null","33","","NaN","","","","","","","","","","","","","",""
"","response","","html-keyboard-response","224","289261","0.0-1.0-302.0-0.0","0","0","17156","","857","","","68","33","","","1","33","training","adjacent","CD","3","4","P.jpg","O.jpg","1","1","1","",""
"","feedback","","html-keyboard-response","225","290272","0.0-1.0-303.0-0.0","0","0","17156","","null","","","null","33","","","","","","","","","","","","","","","",""
"","ITI","","html-keyboard-response","226","291288","0.0-1.0-306.0","0","0","17156","","null","","","null","33","","","","","","","","","","","","","","","NaN",""
"","S1","","html-keyboard-response","227","291553","0.0-1.0-308.0","0","0","17156","","null","","","null","34","","","","","","","","","","","","","","","",""
"","ISI","","html-keyboard-response","228","291714","0.0-1.0-309.0","0","0","17156","","null","","","null","34","NaN","","","","","","","","","","","","","","",""
"","S2","","html-keyboard-response","229","291975","0.0-1.0-310.0","0","0","17156","","null","","","null","34","","NaN","","","","","","","","","","","","","",""
"","response","","html-keyboard-response","230","292785","0.0-1.0-311.0-0.0","0","0","17156","","806","","","68","34","","","1","34","training","adjacent","AB","1","2","M.jpg","L.jpg","1","1","1","",""
"","feedback","","html-keyboard-response","231","293798","0.0-1.0-312.0-0.0","0","0","17156","","null","","","null","34","","","","","","","","","","","","","","","",""
"","ITI","","html-keyboard-response","232","294807","0.0-1.0-315.0","0","0","17156","","null","","","null","34","","","","","","","","","","","","","","","NaN",""
"","S1","","html-keyboard-response","233","295073","0.0-1.0-317.0","0","0","17156","","null","","","null","35","","","","","","","","","","","","","","","",""
"","ISI","","html-keyboard-response","234","295234","0.0-1.0-318.0","0","0","17156","","null","","","null","35","NaN","","","","","","","","","","","","","","",""
"","S2","","html-keyboard-response","235","295494","0.0-1.0-319.0","0","0","17156","","null","","","null","35","","NaN","","","","","","","","","","","","","",""
"","response","","html-keyboard-response","236","295845","0.0-1.0-320.0-0.0","0","0","17156","","349","","","75","35","","","1","35","training","adjacent","BC","2","3","L.jpg","P.jpg","0","1","0","",""
"","feedback","","html-keyboard-response","237","296854","0.0-1.0-321.0-0.0","0","0","17156","","null","","","null","35","","","","","","","","","","","","","","","",""
"","time_out","","html-keyboard-response","238","298867","0.0-1.0-323.0-0.0","0","0","17156","","null","","","null","35","","","","","","","","","","","","","","","",""
"","ITI","","html-keyboard-response","239","299880","0.0-1.0-324.0","0","0","17156","","null","","","null","35","","","","","","","","","","","","","","","NaN",""
"","S1","","html-keyboard-response","240","300147","0.0-1.0-326.0","0","0","17156","","null","","","null","36","","","","","","","","","","","","","","","",""
"","ISI","","html-keyboard-response","241","300310","0.0-1.0-327.0","0","0","17156","","null","","","null","36","NaN","","","","","","","","","","","","","","",""
"","S2","","html-keyboard-response","242","300577","0.0-1.0-328.0","0","0","17156","","null","","","null","36","","NaN","","","","","","","","","","","","","",""
"","response","","html-keyboard-response","243","300883","0.0-1.0-329.0-0.0","0","0","17156","","303","","","68","36","","","1","36","training","adjacent","DE","4","5","O.jpg","N.jpg","1","1","1","",""
"","feedback","","html-keyboard-response","244","301896","0.0-1.0-330.0-0.0","0","0","17156","","null","","","null","36","","","","","","","","","","","","","","","",""
"","ITI","","html-keyboard-response","245","302914","0.0-1.0-333.0","0","0","17156","","null","","","null","36","","","","","","","","","","","","","","","NaN",""
"","S1","","html-keyboard-response","246","303175","0.0-1.0-335.0","0","0","17156","","null","","","null","37","","","","","","","","","","","","","","","",""
"","ISI","","html-keyboard-response","247","303335","0.0-1.0-336.0","0","0","17156","","null","","","null","37","NaN","","","","","","","","","","","","","","",""
"","S2","","html-keyboard-response","248","303601","0.0-1.0-337.0","0","0","17156","","null","","","null","37","","NaN","","","","","","","","","","","","","",""
"","response","","html-keyboard-response","249","303966","0.0-1.0-338.0-0.0","0","0","17156","","361","","","75","37","","","1","37","training","adjacent","AB","1","2","M.jpg","L.jpg","0","1","0","",""
"","feedback","","html-keyboard-response","250","304978","0.0-1.0-339.0-0.0","0","0","17156","","null","","","null","37","","","","","","","","","","","","","","","",""
"","time_out","","html-keyboard-response","251","306995","0.0-1.0-341.0-0.0","0","0","17156","","null","","","null","37","","","","","","","","","","","","","","","",""
"","ITI","","html-keyboard-response","252","308012","0.0-1.0-342.0","0","0","17156","","null","","","null","37","","","","","","","","","","","","","","","NaN",""
"","S1","","html-keyboard-response","253","308274","0.0-1.0-344.0","0","0","17156","","null","","","null","38","","","","","","","","","","","","","","","",""
"","ISI","","html-keyboard-response","254","308435","0.0-1.0-345.0","0","0","17156","","null","","","null","38","NaN","","","","","","","","","","","","","","",""
"","S2","","html-keyboard-response","255","308695","0.0-1.0-346.0","0","0","17156","","null","","","null","38","","NaN","","","","","","","","","","","","","",""
"","response","","html-keyboard-response","256","309167","0.0-1.0-347.0-0.0","0","0","17156","","469","","","68","38","","","1","38","training","adjacent","DC","4","3","O.jpg","P.jpg","1","0","0","",""
"","feedback","","html-keyboard-response","257","310177","0.0-1.0-348.0-0.0","0","0","17156","","null","","","null","38","","","","","","","","","","","","","","","",""
"","time_out","","html-keyboard-response","258","312194","0.0-1.0-350.0-0.0","0","0","17156","","null","","","null","38","","","","","","","","","","","","","","","",""
"","ITI","","html-keyboard-response","259","313207","0.0-1.0-351.0","0","0","17156","","null","","","null","38","","","","","","","","","","","","","","","NaN",""
"","S1","","html-keyboard-response","260","313473","0.0-1.0-353.0","0","0","17156","","null","","","null","39","","","","","","","","","","","","","","","",""
"","ISI","","html-keyboard-response","261","313631","0.0-1.0-354.0","0","0","17156","","null","","","null","39","NaN","","","","","","","","","","","","","","",""
"","S2","","html-keyboard-response","262","313893","0.0-1.0-355.0","0","0","17156","","null","","","null","39","","NaN","","","","","","","","","","","","","",""
"","response","","html-keyboard-response","263","314171","0.0-1.0-356.0-0.0","0","0","17156","","273","","","68","39","","","1","39","training","adjacent","EF","5","6","N.jpg","Q.jpg","1","1","1","",""
"","feedback","","html-keyboard-response","264","315185","0.0-1.0-357.0-0.0","0","0","17156","","null","","","null","39","","","","","","","","","","","","","","","",""
"","ITI","","html-keyboard-response","265","316200","0.0-1.0-360.0","0","0","17156","","null","","","null","39","","","","","","","","","","","","","","","NaN",""
"","S1","","html-keyboard-response","266","316467","0.0-1.0-362.0","0","0","17156","","null","","","null","40","","","","","","","","","","","","","","","",""
"","ISI","","html-keyboard-response","267","316631","0.0-1.0-363.0","0","0","17156","","null","","","null","40","NaN","","","","","","","","","","","","","","",""
"","S2","","html-keyboard-response","268","316898","0.0-1.0-364.0","0","0","17156","","null","","","null","40","","NaN","","","","","","","","","","","","","",""
"","response","","html-keyboard-response","269","317276","0.0-1.0-365.0-0.0","0","0","17156","","373","","","75","40","","","1","40","training","adjacent","ED","5","4","N.jpg","O.jpg","0","0","1","",""
"","feedback","","html-keyboard-response","270","318289","0.0-1.0-366.0-0.0","0","0","17156","","null","","","null","40","","","","","","","","","","","","","","","",""
"","ITI","","html-keyboard-response","271","319303","0.0-1.0-369.0","0","0","17156","","null","","","null","40","","","","","","","","","","","","","","","NaN",""
"","S1","","html-keyboard-response","272","319569","0.0-1.0-371.0","0","0","17156","","null","","","null","41","","","","","","","","","","","","","","","",""
"","ISI","","html-keyboard-response","273","319729","0.0-1.0-372.0","0","0","17156","","null","","","null","41","NaN","","","","","","","","","","","","","","",""
"","S2","","html-keyboard-response","274","319990","0.0-1.0-373.0","0","0","17156","","null","","","null","41","","NaN","","","","","","","","","","","","","",""
"","response","","html-keyboard-response","275","320500","0.0-1.0-374.0-0.0","0","0","17156","","507","","","68","41","","","1","41","training","adjacent","EF","5","6","N.jpg","Q.jpg","1","1","1","",""
"","feedback","","html-keyboard-response","276","321509","0.0-1.0-375.0-0.0","0","0","17156","","null","","","null","41","","","","","","","","","","","","","","","",""
"","ITI","","html-keyboard-response","277","322519","0.0-1.0-378.0","0","0","17156","","null","","","null","41","","","","","","","","","","","","","","","NaN",""
"","S1","","html-keyboard-response","278","322786","0.0-1.0-380.0","0","0","17156","","null","","","null","42","","","","","","","","","","","","","","","",""
"","ISI","","html-keyboard-response","279","322953","0.0-1.0-381.0","0","0","17156","","null","","","null","42","NaN","","","","","","","","","","","","","","",""
"","S2","","html-keyboard-response","280","323217","0.0-1.0-382.0","0","0","17156","","null","","","null","42","","NaN","","","","","","","","","","","","","",""
"","response","","html-keyboard-response","281","323564","0.0-1.0-383.0-0.0","0","0","17156","","343","","","68","42","","","1","42","training","adjacent","BC","2","3","L.jpg","P.jpg","1","1","1","",""
"","feedback","","html-keyboard-response","282","324574","0.0-1.0-384.0-0.0","0","0","17156","","null","","","null","42","","","","","","","","","","","","","","","",""
"","ITI","","html-keyboard-response","283","325586","0.0-1.0-387.0","0","0","17156","","null","","","null","42","","","","","","","","","","","","","","","NaN",""
"","S1","","html-keyboard-response","284","325847","0.0-1.0-389.0","0","0","17156","","null","","","null","43","","","","","","","","","","","","","","","",""
"","ISI","","html-keyboard-response","285","326006","0.0-1.0-390.0","0","0","17156","","null","","","null","43","NaN","","","","","","","","","","","","","","",""
"","S2","","html-keyboard-response","286","326275","0.0-1.0-391.0","0","0","17156","","null","","","null","43","","NaN","","","","","","","","","","","","","",""
"","response","","html-keyboard-response","287","326541","0.0-1.0-392.0-0.0","0","0","17156","","263","","","68","43","","","1","43","training","adjacent","GF","7","6","R.jpg","Q.jpg","1","0","0","",""
"","feedback","","html-keyboard-response","288","327553","0.0-1.0-393.0-0.0","0","0","17156","","null","","","null","43","","","","","","","","","","","","","","","",""
"","time_out","","html-keyboard-response","289","329569","0.0-1.0-395.0-0.0","0","0","17156","","null","","","null","43","","","","","","","","","","","","","","","",""
"","ITI","","html-keyboard-response","290","330582","0.0-1.0-396.0","0","0","17156","","null","","","null","43","","","","","","","","","","","","","","","NaN",""
"","S1","","html-keyboard-response","291","330848","0.0-1.0-398.0","0","0","17156","","null","","","null","44","","","","","","","","","","","","","","","",""
"","ISI","","html-keyboard-response","292","331011","0.0-1.0-399.0","0","0","17156","","null","","","null","44","NaN","","","","","","","","","","","","","","",""
"","S2","","html-keyboard-response","293","331270","0.0-1.0-400.0","0","0","17156","","null","","","null","44","","NaN","","","","","","","","","","","","","",""
"","response","","html-keyboard-response","294","331495","0.0-1.0-401.0-0.0","0","0","17156","","222","","","68","44","","","1","44","training","adjacent","CB","3","2","P.jpg","L.jpg","1","0","0","",""
"","feedback","","html-keyboard-response","295","332501","0.0-1.0-402.0-0.0","0","0","17156","","null","","","null","44","","","","","","","","","","","","","","","",""
"","time_out","","html-keyboard-response","296","334512","0.0-1.0-404.0-0.0","0","0","17156","","null","","","null","44","","","","","","","","","","","","","","","",""
"","ITI","","html-keyboard-response","297","335522","0.0-1.0-405.0","0","0","17156","","null","","","null","44","","","","","","","","","","","","","","","NaN",""
"","S1","","html-keyboard-response","298","335785","0.0-1.0-407.0","0","0","17156","","null","","","null","45","","","","","","","","","","","","","","","",""
"","ISI","","html-keyboard-response","299","335944","0.0-1.0-408.0","0","0","17156","","null","","","null","45","NaN","","","","","","","","","","","","","","",""
"","S2","","html-keyboard-response","300","336208","0.0-1.0-409.0","0","0","17156","","null","","","null","45","","NaN","","","","","","","","","","","","","",""
"","response","","html-keyboard-response","301","336809","0.0-1.0-410.0-0.0","0","0","17156","","598","","","68","45","","","1","45","training","adjacent","BA","2","1","L.jpg","M.jpg","1","0","0","",""
"","feedback","","html-keyboard-response","302","337824","0.0-1.0-411.0-0.0","0","0","17156","","null","","","null","45","","","","","","","","","","","","","","","",""
"","time_out","","html-keyboard-response","303","339841","0.0-1.0-413.0-0.0","0","0","17156","","null","","","null","45","","","","","","","","","","","","","","","",""
"","ITI","","html-keyboard-response","304","340857","0.0-1.0-414.0","0","0","17156","","null","","","null","45","","","","","","","","","","","","","","","NaN",""
"","S1","","html-keyboard-response","305","341121","0.0-1.0-416.0","0","0","17156","","null","","","null","46","","","","","","","","","","","","","","","",""
"","ISI","","html-keyboard-response","306","341281","0.0-1.0-417.0","0","0","17156","","null","","","null","46","NaN","","","","","","","","","","","","","","",""
"","S2","","html-keyboard-response","307","341541","0.0-1.0-418.0","0","0","17156","","null","","","null","46","","NaN","","","","","","","","","","","","","",""
"","response","","html-keyboard-response","308","341884","0.0-1.0-419.0-0.0","0","0","17156","","340","","","68","46","","","1","46","training","adjacent","EF","5","6","N.jpg","Q.jpg","1","1","1","",""
"","feedback","","html-keyboard-response","309","342899","0.0-1.0-420.0-0.0","0","0","17156","","null","","","null","46","","","","","","","","","","","","","","","",""
"","ITI","","html-keyboard-response","310","343910","0.0-1.0-423.0","0","0","17156","","null","","","null","46","","","","","","","","","","","","","","","NaN",""
"","S1","","html-keyboard-response","311","344177","0.0-1.0-425.0","0","0","17156","","null","","","null","47","","","","","","","","","","","","","","","",""
"","ISI","","html-keyboard-response","312","344337","0.0-1.0-426.0","0","0","17156","","null","","","null","47","NaN","","","","","","","","","","","","","","",""
"","S2","","html-keyboard-response","313","344595","0.0-1.0-427.0","0","0","17156","","null","","","null","47","","NaN","","","","","","","","","","","","","",""
"","response","","html-keyboard-response","314","344823","0.0-1.0-428.0-0.0","0","0","17156","","225","","","75","47","","","1","47","training","adjacent","DE","4","5","O.jpg","N.jpg","0","1","0","",""
"","feedback","","html-keyboard-response","315","345829","0.0-1.0-429.0-0.0","0","0","17156","","null","","","null","47","","","","","","","","","","","","","","","",""
"","time_out","","html-keyboard-response","316","347842","0.0-1.0-431.0-0.0","0","0","17156","","null","","","null","47","","","","","","","","","","","","","","","",""
"","ITI","","html-keyboard-response","317","348858","0.0-1.0-432.0","0","0","17156","","null","","","null","47","","","","","","","","","","","","","","","NaN",""
"","block_over","","html-keyboard-response","318","360259","0.0-1.0-433.0-0.0","0","0","17156","","11397","","","32","47","","","","","","","","","","","","","","","",""
"","S1","","html-keyboard-response","319","360520","0.0-1.0-434.0","0","0","17156","","null","","","null","48","","","","","","","","","","","","","","","",""
"","ISI","","html-keyboard-response","320","360677","0.0-1.0-435.0","0","0","17156","","null","","","null","48","NaN","","","","","","","","","","","","","","",""
"","S2","","html-keyboard-response","321","360933","0.0-1.0-436.0","0","0","17156","","null","","","null","48","","NaN","","","","","","","","","","","","","",""
"","response","","html-keyboard-response","322","361389","0.0-1.0-437.0-0.0","0","0","17156","","452","","","75","48","","","2","48","training","adjacent","DC","4","3","O.jpg","P.jpg","0","0","1","",""
"","feedback","","html-keyboard-response","323","362396","0.0-1.0-438.0-0.0","0","0","17156","","null","","","null","48","","","","","","","","","","","","","","","",""
"","ITI","","html-keyboard-response","324","363408","0.0-1.0-441.0","0","0","17156","","null","","","null","48","","","","","","","","","","","","","","","NaN",""
"","S1","","html-keyboard-response","325","363675","0.0-1.0-443.0","0","0","17156","","null","","","null","49","","","","","","","","","","","","","","","",""
"","ISI","","html-keyboard-response","326","363842","0.0-1.0-444.0","0","0","17156","","null","","","null","49","NaN","","","","","","","","","","","","","","",""
"","S2","","html-keyboard-response","327","364101","0.0-1.0-445.0","0","0","17156","","null","","","null","49","","NaN","","","","","","","","","","","","","",""
"","response","","html-keyboard-response","328","364433","0.0-1.0-446.0-0.0","0","0","17156","","330","","","68","49","","","2","49","training","adjacent","FG","6","7","Q.jpg","R.jpg","1","1","1","",""
"","feedback","","html-keyboard-response","329","365445","0.0-1.0-447.0-0.0","0","0","17156","","null","","","null","49","","","","","","","","","","","","","","","",""
"","ITI","","html-keyboard-response","330","366450","0.0-1.0-450.0","0","0","17156","","null","","","null","49","","","","","","","","","","","","","","","NaN",""
"","S1","","html-keyboard-response","331","366711","0.0-1.0-452.0","0","0","17156","","null","","","null","50","","","","","","","","","","","","","","","",""
"","ISI","","html-keyboard-response","332","366871","0.0-1.0-453.0","0","0","17156","","null","","","null","50","NaN","","","","","","","","","","","","","","",""
"","S2","","html-keyboard-response","333","367136","0.0-1.0-454.0","0","0","17156","","null","","","null","50","","NaN","","","","","","","","","","","","","",""
"","response","","html-keyboard-response","334","367342","0.0-1.0-455.0-0.0","0","0","17156","","202","","","68","50","","","2","50","training","adjacent","GF","7","6","R.jpg","Q.jpg","1","0","0","",""
"","feedback","","html-keyboard-response","335","368353","0.0-1.0-456.0-0.0","0","0","17156","","null","","","null","50","","","","","","","","","","","","","","","",""
"","time_out","","html-keyboard-response","336","370370","0.0-1.0-458.0-0.0","0","0","17156","","null","","","null","50","","","","","","","","","","","","","","","",""
"","ITI","","html-keyboard-response","337","371382","0.0-1.0-459.0","0","0","17156","","null","","","null","50","","","","","","","","","","","","","","","NaN",""
"","S1","","html-keyboard-response","338","371650","0.0-1.0-461.0","0","0","17156","","null","","","null","51","","","","","","","","","","","","","","","",""
"","ISI","","html-keyboard-response","339","371814","0.0-1.0-462.0","0","0","17156","","null","","","null","51","NaN","","","","","","","","","","","","","","",""
"","S2","","html-keyboard-response","340","372083","0.0-1.0-463.0","0","0","17156","","null","","","null","51","","NaN","","","","","","","","","","","","","",""
"","response","","html-keyboard-response","341","372423","0.0-1.0-464.0-0.0","0","0","17156","","338","","","75","51","","","2","51","training","adjacent","BC","2","3","L.jpg","P.jpg","0","1","0","",""
"","feedback","","html-keyboard-response","342","373429","0.0-1.0-465.0-0.0","0","0","17156","","null","","","null","51","","","","","","","","","","","","","","","",""
"","time_out","","html-keyboard-response","343","375440","0.0-1.0-467.0-0.0","0","0","17156","","null","","","null","51","","","","","","","","","","","","","","","",""
"","ITI","","html-keyboard-response","344","376449","0.0-1.0-468.0","0","0","17156","","null","","","null","51","","","","","","","","","","","","","","","NaN",""
"","S1","","html-keyboard-response","345","376707","0.0-1.0-470.0","0","0","17156","","null","","","null","52","","","","","","","","","","","","","","","",""
"","ISI","","html-keyboard-response","346","376869","0.0-1.0-471.0","0","0","17156","","null","","","null","52","NaN","","","","","","","","","","","","","","",""
"","S2","","html-keyboard-response","347","377126","0.0-1.0-472.0","0","0","17156","","null","","","null","52","","NaN","","","","","","","","","","","","","",""
"","response","","html-keyboard-response","348","377356","0.0-1.0-473.0-0.0","0","0","17156","","227","","","68","52","","","2","52","training","adjacent","BA","2","1","L.jpg","M.jpg","1","0","0","",""
"","feedback","","html-keyboard-response","349","378368","0.0-1.0-474.0-0.0","0","0","17156","","null","","","null","52","","","","","","","","","","","","","","","",""
"","time_out","","html-keyboard-response","350","380385","0.0-1.0-476.0-0.0","0","0","17156","","null","","","null","52","","","","","","","","","","","","","","","",""
"","ITI","","html-keyboard-response","351","381398","0.0-1.0-477.0","0","0","17156","","null","","","null","52","","","","","","","","","","","","","","","NaN",""
"","S1","","html-keyboard-response","352","381666","0.0-1.0-479.0","0","0","17156","","null","","","null","53","","","","","","","","","","","","","","","",""
"","ISI","","html-keyboard-response","353","381832","0.0-1.0-480.0","0","0","17156","","null","","","null","53","NaN","","","","","","","","","","","","","","",""
"","S2","","html-keyboard-response","354","382094","0.0-1.0-481.0","0","0","17156","","null","","","null","53","","NaN","","","","","","","","","","","","","",""
"","response","","html-keyboard-response","355","382305","0.0-1.0-482.0-0.0","0","0","17156","","209","","","68","53","","","2","53","training","adjacent","EF","5","6","N.jpg","Q.jpg","1","1","1","",""
"","feedback","","html-keyboard-response","356","383319","0.0-1.0-483.0-0.0","0","0","17156","","null","","","null","53","","","","","","","","","","","","","","","",""
"","ITI","","html-keyboard-response","357","384327","0.0-1.0-486.0","0","0","17156","","null","","","null","53","","","","","","","","","","","","","","","NaN",""
"","S1","","html-keyboard-response","358","384593","0.0-1.0-488.0","0","0","17156","","null","","","null","54","","","","","","","","","","","","","","","",""
"","ISI","","html-keyboard-response","359","384750","0.0-1.0-489.0","0","0","17156","","null","","","null","54","NaN","","","","","","","","","","","","","","",""
"","S2","","html-keyboard-response","360","385018","0.0-1.0-490.0","0","0","17156","","null","","","null","54","","NaN","","","","","","","","","","","","","",""
"","response","","html-keyboard-response","361","385500","0.0-1.0-491.0-0.0","0","0","17156","","479","","","75","54","","","2","54","training","adjacent","CB","3","2","P.jpg","L.jpg","0","0","1","",""
"","feedback","","html-keyboard-response","362","386511","0.0-1.0-492.0-0.0","0","0","17156","","null","","","null","54","","","","","","","","","","","","","","","",""
"","ITI","","html-keyboard-response","363","387521","0.0-1.0-495.0","0","0","17156","","null","","","null","54","","","","","","","","","","","","","","","NaN",""
"","S1","","html-keyboard-response","364","387783","0.0-1.0-497.0","0","0","17156","","null","","","null","55","","","","","","","","","","","","","","","",""
"","ISI","","html-keyboard-response","365","387943","0.0-1.0-498.0","0","0","17156","","null","","","null","55","NaN","","","","","","","","","","","","","","",""
"","S2","","html-keyboard-response","366","388209","0.0-1.0-499.0","0","0","17156","","null","","","null","55","","NaN","","","","","","","","","","","","","",""
"","response","","html-keyboard-response","367","388950","0.0-1.0-500.0-0.0","0","0","17156","","738","","","68","55","","","2","55","training","adjacent","FE","6","5","Q.jpg","N.jpg","1","0","0","",""
"","feedback","","html-keyboard-response","368","389962","0.0-1.0-501.0-0.0","0","0","17156","","null","","","null","55","","","","","","","","","","","","","","","",""
"","time_out","","html-keyboard-response","369","391973","0.0-1.0-503.0-0.0","0","0","17156","","null","","","null","55","","","","","","","","","","","","","","","",""
"","ITI","","html-keyboard-response","370","392982","0.0-1.0-504.0","0","0","17156","","null","","","null","55","","","","","","","","","","","","","","","NaN",""
"","S1","","html-keyboard-response","371","393248","0.0-1.0-506.0","0","0","17156","","null","","","null","56","","","","","","","","","","","","","","","",""
"","ISI","","html-keyboard-response","372","393409","0.0-1.0-507.0","0","0","17156","","null","","","null","56","NaN","","","","","","","","","","","","","","",""
"","S2","","html-keyboard-response","373","393670","0.0-1.0-508.0","0","0","17156","","null","","","null","56","","NaN","","","","","","","","","","","","","",""
"","response","","html-keyboard-response","374","394260","0.0-1.0-509.0-0.0","0","0","17156","","586","","","75","56","","","2","56","training","adjacent","CB","3","2","P.jpg","L.jpg","0","0","1","",""
"","feedback","","html-keyboard-response","375","395271","0.0-1.0-510.0-0.0","0","0","17156","","null","","","null","56","","","","","","","","","","","","","","","",""
"","ITI","","html-keyboard-response","376","396290","0.0-1.0-513.0","0","0","17156","","null","","","null","56","","","","","","","","","","","","","","","NaN",""
"","S1","","html-keyboard-response","377","396551","0.0-1.0-515.0","0","0","17156","","null","","","null","57","","","","","","","","","","","","","","","",""
"","ISI","","html-keyboard-response","378","396711","0.0-1.0-516.0","0","0","17156","","null","","","null","57","NaN","","","","","","","","","","","","","","",""
"","S2","","html-keyboard-response","379","396976","0.0-1.0-517.0","0","0","17156","","null","","","null","57","","NaN","","","","","","","","","","","","","",""
"","response","","html-keyboard-response","380","397417","0.0-1.0-518.0-0.0","0","0","17156","","439","","","75","57","","","2","57","training","adjacent","ED","5","4","N.jpg","O.jpg","0","0","1","",""
"","feedback","","html-keyboard-response","381","398432","0.0-1.0-519.0-0.0","0","0","17156","","null","","","null","57","","","","","","","","","","","","","","","",""
"","ITI","","html-keyboard-response","382","399446","0.0-1.0-522.0","0","0","17156","","null","","","null","57","","","","","","","","","","","","","","","NaN",""
"","S1","","html-keyboard-response","383","399714","0.0-1.0-524.0","0","0","17156","","null","","","null","58","","","","","","","","","","","","","","","",""
"","ISI","","html-keyboard-response","384","399878","0.0-1.0-525.0","0","0","17156","","null","","","null","58","NaN","","","","","","","","","","","","","","",""
"","S2","","html-keyboard-response","385","400145","0.0-1.0-526.0","0","0","17156","","null","","","null","58","","NaN","","","","","","","","","","","","","",""
"","response","","html-keyboard-response","386","400564","0.0-1.0-527.0-0.0","0","0","17156","","417","","","68","58","","","2","58","training","adjacent","GF","7","6","R.jpg","Q.jpg","1","0","0","",""
"","feedback","","html-keyboard-response","387","401573","0.0-1.0-528.0-0.0","0","0","17156","","null","","","null","58","","","","","","","","","","","","","","","",""
"","time_out","","html-keyboard-response","388","403585","0.0-1.0-530.0-0.0","0","0","17156","","null","","","null","58","","","","","","","","","","","","","","","",""
"","ITI","","html-keyboard-response","389","404598","0.0-1.0-531.0","0","0","17156","","null","","","null","58","","","","","","","","","","","","","","","NaN",""
"","S1","","html-keyboard-response","390","404865","0.0-1.0-533.0","0","0","17156","","null","","","null","59","","","","","","","","","","","","","","","",""
"","ISI","","html-keyboard-response","391","405025","0.0-1.0-534.0","0","0","17156","","null","","","null","59","NaN","","","","","","","","","","","","","","",""
"","S2","","html-keyboard-response","392","405286","0.0-1.0-535.0","0","0","17156","","null","","","null","59","","NaN","","","","","","","","","","","","","",""
"","response","","html-keyboard-response","393","406086","0.0-1.0-536.0-0.0","0","0","17156","","796","","","75","59","","","2","59","training","adjacent","BA","2","1","L.jpg","M.jpg","0","0","1","",""
"","feedback","","html-keyboard-response","394","407093","0.0-1.0-537.0-0.0","0","0","17156","","null","","","null","59","","","","","","","","","","","","","","","",""
"","ITI","","html-keyboard-response","395","408105","0.0-1.0-540.0","0","0","17156","","null","","","null","59","","","","","","","","","","","","","","","NaN",""
"","S1","","html-keyboard-response","396","408369","0.0-1.0-542.0","0","0","17156","","null","","","null","60","","","","","","","","","","","","","","","",""
"","ISI","","html-keyboard-response","397","408529","0.0-1.0-543.0","0","0","17156","","null","","","null","60","NaN","","","","","","","","","","","","","","",""
"","S2","","html-keyboard-response","398","408791","0.0-1.0-544.0","0","0","17156","","null","","","null","60","","NaN","","","","","","","","","","","","","",""
"","response","","html-keyboard-response","399","409386","0.0-1.0-545.0-0.0","0","0","17156","","593","","","75","60","","","2","60","training","adjacent","CD","3","4","P.jpg","O.jpg","0","1","0","",""
"","feedback","","html-keyboard-response","400","410401","0.0-1.0-546.0-0.0","0","0","17156","","null","","","null","60","","","","","","","","","","","","","","","",""
"","time_out","","html-keyboard-response","401","412417","0.0-1.0-548.0-0.0","0","0","17156","","null","","","null","60","","","","","","","","","","","","","","","",""
"","ITI","","html-keyboard-response","402","413430","0.0-1.0-549.0","0","0","17156","","null","","","null","60","","","","","","","","","","","","","","","NaN",""
"","S1","","html-keyboard-response","403","413696","0.0-1.0-551.0","0","0","17156","","null","","","null","61","","","","","","","","","","","","","","","",""
"","ISI","","html-keyboard-response","404","413857","0.0-1.0-552.0","0","0","17156","","null","","","null","61","NaN","","","","","","","","","","","","","","",""
"","S2","","html-keyboard-response","405","414119","0.0-1.0-553.0","0","0","17156","","null","","","null","61","","NaN","","","","","","","","","","","","","",""
"","response","","html-keyboard-response","406","414968","0.0-1.0-554.0-0.0","0","0","17156","","845","","","68","61","","","2","61","training","adjacent","GF","7","6","R.jpg","Q.jpg","1","0","0","",""
"","feedback","","html-keyboard-response","407","415985","0.0-1.0-555.0-0.0","0","0","17156","","null","","","null","61","","","","","","","","","","","","","","","",""
"","time_out","","html-keyboard-response","408","418001","0.0-1.0-557.0-0.0","0","0","17156","","null","","","null","61","","","","","","","","","","","","","","","",""
"","ITI","","html-keyboard-response","409","419014","0.0-1.0-558.0","0","0","17156","","null","","","null","61","","","","","","","","","","","","","","","NaN",""
"","S1","","html-keyboard-response","410","419280","0.0-1.0-560.0","0","0","17156","","null","","","null","62","","","","","","","","","","","","","","","",""
"","ISI","","html-keyboard-response","411","419440","0.0-1.0-561.0","0","0","17156","","null","","","null","62","NaN","","","","","","","","","","","","","","",""
"","S2","","html-keyboard-response","412","419703","0.0-1.0-562.0","0","0","17156","","null","","","null","62","","NaN","","","","","","","","","","","","","",""
"","response","","html-keyboard-response","413","420345","0.0-1.0-563.0-0.0","0","0","17156","","638","","","68","62","","","2","62","training","adjacent","CD","3","4","P.jpg","O.jpg","1","1","1","",""
"","feedback","","html-keyboard-response","414","421361","0.0-1.0-564.0-0.0","0","0","17156","","null","","","null","62","","","","","","","","","","","","","","","",""
"","ITI","","html-keyboard-response","415","422374","0.0-1.0-567.0","0","0","17156","","null","","","null","62","","","","","","","","","","","","","","","NaN",""
"","S1","","html-keyboard-response","416","422644","0.0-1.0-569.0","0","0","17156","","null","","","null","63","","","","","","","","","","","","","","","",""
"","ISI","","html-keyboard-response","417","422803","0.0-1.0-570.0","0","0","17156","","null","","","null","63","NaN","","","","","","","","","","","","","","",""
"","S2","","html-keyboard-response","418","423062","0.0-1.0-571.0","0","0","17156","","null","","","null","63","","NaN","","","","","","","","","","","","","",""
"","response","","html-keyboard-response","419","423747","0.0-1.0-572.0-0.0","0","0","17156","","681","","","75","63","","","2","63","training","adjacent","DE","4","5","O.jpg","N.jpg","0","1","0","",""
"","feedback","","html-keyboard-response","420","424758","0.0-1.0-573.0-0.0","0","0","17156","","null","","","null","63","","","","","","","","","","","","","","","",""
"","time_out","","html-keyboard-response","421","426768","0.0-1.0-575.0-0.0","0","0","17156","","null","","","null","63","","","","","","","","","","","","","","","",""
"","ITI","","html-keyboard-response","422","427781","0.0-1.0-576.0","0","0","17156","","null","","","null","63","","","","","","","","","","","","","","","NaN",""
"","S1","","html-keyboard-response","423","428038","0.0-1.0-578.0","0","0","17156","","null","","","null","64","","","","","","","","","","","","","","","",""
"","ISI","","html-keyboard-response","424","428202","0.0-1.0-579.0","0","0","17156","","null","","","null","64","NaN","","","","","","","","","","","","","","",""
"","S2","","html-keyboard-response","425","428465","0.0-1.0-580.0","0","0","17156","","null","","","null","64","","NaN","","","","","","","","","","","","","",""
"","response","","html-keyboard-response","426","428633","0.0-1.0-581.0-0.0","0","0","17156","","165","","","75","64","","","2","64","training","adjacent","DE","4","5","O.jpg","N.jpg","0","1","0","",""
"","feedback","","html-keyboard-response","427","429648","0.0-1.0-582.0-0.0","0","0","17156","","null","","","null","64","","","","","","","","","","","","","","","",""
"","time_out","","html-keyboard-response","428","431665","0.0-1.0-584.0-0.0","0","0","17156","","null","","","null","64","","","","","","","","","","","","","","","",""
"","ITI","","html-keyboard-response","429","432679","0.0-1.0-585.0","0","0","17156","","null","","","null","64","","","","","","","","","","","","","","","NaN",""
"","S1","","html-keyboard-response","430","432944","0.0-1.0-587.0","0","0","17156","","null","","","null","65","","","","","","","","","","","","","","","",""
"","ISI","","html-keyboard-response","431","433104","0.0-1.0-588.0","0","0","17156","","null","","","null","65","NaN","","","","","","","","","","","","","","",""
"","S2","","html-keyboard-response","432","433367","0.0-1.0-589.0","0","0","17156","","null","","","null","65","","NaN","","","","","","","","","","","","","",""
"","response","","html-keyboard-response","433","433942","0.0-1.0-590.0-0.0","0","0","17156","","571","","","75","65","","","2","65","training","adjacent","ED","5","4","N.jpg","O.jpg","0","0","1","",""
"","feedback","","html-keyboard-response","434","434949","0.0-1.0-591.0-0.0","0","0","17156","","null","","","null","65","","","","","","","","","","","","","","","",""
"","ITI","","html-keyboard-response","435","435958","0.0-1.0-594.0","0","0","17156","","null","","","null","65","","","","","","","","","","","","","","","NaN",""
"","S1","","html-keyboard-response","436","436225","0.0-1.0-596.0","0","0","17156","","null","","","null","66","","","","","","","","","","","","","","","",""
"","ISI","","html-keyboard-response","437","436385","0.0-1.0-597.0","0","0","17156","","null","","","null","66","NaN","","","","","","","","","","","","","","",""
"","S2","","html-keyboard-response","438","436645","0.0-1.0-598.0","0","0","17156","","null","","","null","66","","NaN","","","","","","","","","","","","","",""
"","response","","html-keyboard-response","439","436968","0.0-1.0-599.0-0.0","0","0","17156","","320","","","75","66","","","2","66","training","adjacent","BC","2","3","L.jpg","P.jpg","0","1","0","",""
"","feedback","","html-keyboard-response","440","437985","0.0-1.0-600.0-0.0","0","0","17156","","null","","","null","66","","","","","","","","","","","","","","","",""
"","time_out","","html-keyboard-response","441","439997","0.0-1.0-602.0-0.0","0","0","17156","","null","","","null","66","","","","","","","","","","","","","","","",""
"","ITI","","html-keyboard-response","442","441009","0.0-1.0-603.0","0","0","17156","","null","","","null","66","","","","","","","","","","","","","","","NaN",""
"","S1","","html-keyboard-response","443","441269","0.0-1.0-605.0","0","0","17156","","null","","","null","67","","","","","","","","","","","","","","","",""
"","ISI","","html-keyboard-response","444","441430","0.0-1.0-606.0","0","0","17156","","null","","","null","67","NaN","","","","","","","","","","","","","","",""
"","S2","","html-keyboard-response","445","441696","0.0-1.0-607.0","0","0","17156","","null","","","null","67","","NaN","","","","","","","","","","","","","",""
"","response","","html-keyboard-response","446","442058","0.0-1.0-608.0-0.0","0","0","17156","","358","","","75","67","","","2","67","training","adjacent","ED","5","4","N.jpg","O.jpg","0","0","1","",""
"","feedback","","html-keyboard-response","447","443073","0.0-1.0-609.0-0.0","0","0","17156","","null","","","null","67","","","","","","","","","","","","","","","",""
"","ITI","","html-keyboard-response","448","444086","0.0-1.0-612.0","0","0","17156","","null","","","null","67","","","","","","","","","","","","","","","NaN",""
"","S1","","html-keyboard-response","449","444354","0.0-1.0-614.0","0","0","17156","","null","","","null","68","","","","","","","","","","","","","","","",""
"","ISI","","html-keyboard-response","450","444517","0.0-1.0-615.0","0","0","17156","","null","","","null","68","NaN","","","","","","","","","","","","","","",""
"","S2","","html-keyboard-response","451","444785","0.0-1.0-616.0","0","0","17156","","null","","","null","68","","NaN","","","","","","","","","","","","","",""
"","response","","html-keyboard-response","452","446076","0.0-1.0-617.0-0.0","0","0","17156","","1288","","","68","68","","","2","68","training","adjacent","AB","1","2","M.jpg","L.jpg","1","1","1","",""
"","feedback","","html-keyboard-response","453","447089","0.0-1.0-618.0-0.0","0","0","17156","","null","","","null","68","","","","","","","","","","","","","","","",""
"","ITI","","html-keyboard-response","454","448102","0.0-1.0-621.0","0","0","17156","","null","","","null","68","","","","","","","","","","","","","","","NaN",""
"","S1","","html-keyboard-response","455","448366","0.0-1.0-623.0","0","0","17156","","null","","","null","69","","","","","","","","","","","","","","","",""
"","ISI","","html-keyboard-response","456","448527","0.0-1.0-624.0","0","0","17156","","null","","","null","69","NaN","","","","","","","","","","","","","","",""
"","S2","","html-keyboard-response","457","448790","0.0-1.0-625.0","0","0","17156","","null","","","null","69","","NaN","","","","","","","","","","","","","",""
"","response","","html-keyboard-response","458","449294","0.0-1.0-626.0-0.0","0","0","17156","","498","","","68","69","","","2","69","training","adjacent","DC","4","3","O.jpg","P.jpg","1","0","0","",""
"","feedback","","html-keyboard-response","459","450305","0.0-1.0-627.0-0.0","0","0","17156","","null","","","null","69","","","","","","","","","","","","","","","",""
"","time_out","","html-keyboard-response","460","452321","0.0-1.0-629.0-0.0","0","0","17156","","null","","","null","69","","","","","","","","","","","","","","","",""
"","ITI","","html-keyboard-response","461","453334","0.0-1.0-630.0","0","0","17156","","605","","","75","69","","","","","","","","","","","","","","","k",""
"","S1","","html-keyboard-response","462","453606","0.0-1.0-632.0","0","0","17156","","null","","","null","70","","","","","","","","","","","","","","","",""
"","ISI","","html-keyboard-response","463","453765","0.0-1.0-633.0","0","0","17156","","null","","","null","70","NaN","","","","","","","","","","","","","","",""
"","S2","","html-keyboard-response","464","454031","0.0-1.0-634.0","0","0","17156","","null","","","null","70","","NaN","","","","","","","","","","","","","",""
"","response","","html-keyboard-response","465","454235","0.0-1.0-635.0-0.0","0","0","17156","","199","","","75","70","","","2","70","training","adjacent","AB","1","2","M.jpg","L.jpg","0","1","0","",""
"","feedback","","html-keyboard-response","466","455249","0.0-1.0-636.0-0.0","0","0","17156","","null","","","null","70","","","","","","","","","","","","","","","",""
"","time_out","","html-keyboard-response","467","457261","0.0-1.0-638.0-0.0","0","0","17156","","null","","","null","70","","","","","","","","","","","","","","","",""
"","ITI","","html-keyboard-response","468","458272","0.0-1.0-639.0","0","0","17156","","null","","","null","70","","","","","","","","","","","","","","","NaN",""
"","S1","","html-keyboard-response","469","458534","0.0-1.0-641.0","0","0","17156","","null","","","null","71","","","","","","","","","","","","","","","",""
"","ISI","","html-keyboard-response","470","458693","0.0-1.0-642.0","0","0","17156","","null","","","null","71","NaN","","","","","","","","","","","","","","",""
"","S2","","html-keyboard-response","471","458960","0.0-1.0-643.0","0","0","17156","","null","","","null","71","","NaN","","","","","","","","","","","","","",""
"","response","","html-keyboard-response","472","459696","0.0-1.0-644.0-0.0","0","0","17156","","734","","","68","71","","","2","71","training","adjacent","BA","2","1","L.jpg","M.jpg","1","0","0","",""
"","feedback","","html-keyboard-response","473","460710","0.0-1.0-645.0-0.0","0","0","17156","","null","","","null","71","","","","","","","","","","","","","","","",""
"","time_out","","html-keyboard-response","474","462724","0.0-1.0-647.0-0.0","0","0","17156","","null","","","null","71","","","","","","","","","","","","","","","",""
"","ITI","","html-keyboard-response","475","463734","0.0-1.0-648.0","0","0","17156","","null","","","null","71","","","","","","","","","","","","","","","NaN",""
"","S1","","html-keyboard-response","476","464006","0.0-1.0-650.0","0","0","17156","","null","","","null","72","","","","","","","","","","","","","","","",""
"","ISI","","html-keyboard-response","477","464164","0.0-1.0-651.0","0","0","17156","","null","","","null","72","NaN","","","","","","","","","","","","","","",""
"","S2","","html-keyboard-response","478","464420","0.0-1.0-652.0","0","0","17156","","null","","","null","72","","NaN","","","","","","","","","","","","","",""
"","response","","html-keyboard-response","479","464648","0.0-1.0-653.0-0.0","0","0","17156","","225","","","68","72","","","2","72","training","adjacent","FE","6","5","Q.jpg","N.jpg","1","0","0","",""
"","feedback","","html-keyboard-response","480","465666","0.0-1.0-654.0-0.0","0","0","17156","","null","","","null","72","","","","","","","","","","","","","","","",""
"","time_out","","html-keyboard-response","481","467680","0.0-1.0-656.0-0.0","0","0","17156","","null","","","null","72","","","","","","","","","","","","","","","",""
"","ITI","","html-keyboard-response","482","468693","0.0-1.0-657.0","0","0","17156","","null","","","null","72","","","","","","","","","","","","","","","NaN",""
"","S1","","html-keyboard-response","483","468960","0.0-1.0-659.0","0","0","17156","","null","","","null","73","","","","","","","","","","","","","","","",""
"","ISI","","html-keyboard-response","484","469121","0.0-1.0-660.0","0","0","17156","","null","","","null","73","NaN","","","","","","","","","","","","","","",""
"","S2","","html-keyboard-response","485","469380","0.0-1.0-661.0","0","0","17156","","null","","","null","73","","NaN","","","","","","","","","","","","","",""
"","response","","html-keyboard-response","486","469677","0.0-1.0-662.0-0.0","0","0","17156","","292","","","68","73","","","2","73","training","adjacent","EF","5","6","N.jpg","Q.jpg","1","1","1","",""
"","feedback","","html-keyboard-response","487","470688","0.0-1.0-663.0-0.0","0","0","17156","","null","","","null","73","","","","","","","","","","","","","","","",""
"","ITI","","html-keyboard-response","488","471702","0.0-1.0-666.0","0","0","17156","","null","","","null","73","","","","","","","","","","","","","","","NaN",""
"","S1","","html-keyboard-response","489","471969","0.0-1.0-668.0","0","0","17156","","null","","","null","74","","","","","","","","","","","","","","","",""
"","ISI","","html-keyboard-response","490","472129","0.0-1.0-669.0","0","0","17156","","null","","","null","74","NaN","","","","","","","","","","","","","","",""
"","S2","","html-keyboard-response","491","472390","0.0-1.0-670.0","0","0","17156","","null","","","null","74","","NaN","","","","","","","","","","","","","",""
"","response","","html-keyboard-response","492","472609","0.0-1.0-671.0-0.0","0","0","17156","","216","","","75","74","","","2","74","training","adjacent","AB","1","2","M.jpg","L.jpg","0","1","0","",""
"","feedback","","html-keyboard-response","493","473622","0.0-1.0-672.0-0.0","0","0","17156","","null","","","null","74","","","","","","","","","","","","","","","",""
"","time_out","","html-keyboard-response","494","475633","0.0-1.0-674.0-0.0","0","0","17156","","null","","","null","74","","","","","","","","","","","","","","","",""
"","ITI","","html-keyboard-response","495","476641","0.0-1.0-675.0","0","0","17156","","null","","","null","74","","","","","","","","","","","","","","","NaN",""
"","S1","","html-keyboard-response","496","476901","0.0-1.0-677.0","0","0","17156","","null","","","null","75","","","","","","","","","","","","","","","",""
"","ISI","","html-keyboard-response","497","477062","0.0-1.0-678.0","0","0","17156","","null","","","null","75","NaN","","","","","","","","","","","","","","",""
"","S2","","html-keyboard-response","498","477328","0.0-1.0-679.0","0","0","17156","","null","","","null","75","","NaN","","","","","","","","","","","","","",""
"","response","","html-keyboard-response","499","477515","0.0-1.0-680.0-0.0","0","0","17156","","183","","","75","75","","","2","75","training","adjacent","FG","6","7","Q.jpg","R.jpg","0","1","0","",""
"","feedback","","html-keyboard-response","500","478529","0.0-1.0-681.0-0.0","0","0","17156","","null","","","null","75","","","","","","","","","","","","","","","",""
"","time_out","","html-keyboard-response","501","480544","0.0-1.0-683.0-0.0","0","0","17156","","null","","","null","75","","","","","","","","","","","","","","","",""
"","ITI","","html-keyboard-response","502","481560","0.0-1.0-684.0","0","0","17156","","null","","","null","75","","","","","","","","","","","","","","","NaN",""
"","S1","","html-keyboard-response","503","481824","0.0-1.0-686.0","0","0","17156","","null","","","null","76","","","","","","","","","","","","","","","",""
"","ISI","","html-keyboard-response","504","481985","0.0-1.0-687.0","0","0","17156","","null","","","null","76","NaN","","","","","","","","","","","","","","",""
"","S2","","html-keyboard-response","505","482244","0.0-1.0-688.0","0","0","17156","","null","","","null","76","","NaN","","","","","","","","","","","","","",""
"","response","","html-keyboard-response","506","482363","0.0-1.0-689.0-0.0","0","0","17156","","115","","","75","76","","","2","76","training","adjacent","DC","4","3","O.jpg","P.jpg","0","0","1","",""
"","feedback","","html-keyboard-response","507","483377","0.0-1.0-690.0-0.0","0","0","17156","","null","","","null","76","","","","","","","","","","","","","","","",""
"","ITI","","html-keyboard-response","508","484391","0.0-1.0-693.0","0","0","17156","","null","","","null","76","","","","","","","","","","","","","","","NaN",""
"","S1","","html-keyboard-response","509","484653","0.0-1.0-695.0","0","0","17156","","null","","","null","77","","","","","","","","","","","","","","","",""
"","ISI","","html-keyboard-response","510","484813","0.0-1.0-696.0","0","0","17156","","null","","","null","77","NaN","","","","","","","","","","","","","","",""
"","S2","","html-keyboard-response","511","485073","0.0-1.0-697.0","0","0","17156","","null","","","null","77","","NaN","","","","","","","","","","","","","",""
"","response","","html-keyboard-response","512","485290","0.0-1.0-698.0-0.0","0","0","17156","","214","","","68","77","","","2","77","training","adjacent","GF","7","6","R.jpg","Q.jpg","1","0","0","",""
"","feedback","","html-keyboard-response","513","486304","0.0-1.0-699.0-0.0","0","0","17156","","null","","","null","77","","","","","","","","","","","","","","","",""
"","time_out","","html-keyboard-response","514","488321","0.0-1.0-701.0-0.0","0","0","17156","","null","","","null","77","","","","","","","","","","","","","","","",""
"","ITI","","html-keyboard-response","515","489334","0.0-1.0-702.0","0","0","17156","","null","","","null","77","","","","","","","","","","","","","","","NaN",""
"","S1","","html-keyboard-response","516","489602","0.0-1.0-704.0","0","0","17156","","null","","","null","78","","","","","","","","","","","","","","","",""
"","ISI","","html-keyboard-response","517","489764","0.0-1.0-705.0","0","0","17156","","null","","","null","78","NaN","","","","","","","","","","","","","","",""
"","S2","","html-keyboard-response","518","489947","0.0-1.0-706.0","0","0","17156","","179","","","68","78","","d","2","78","training","adjacent","CD","3","4","P.jpg","O.jpg","1","1","1","",""
"","feedback","","html-keyboard-response","519","490960","0.0-1.0-708.0-0.0","0","0","17156","","null","","","null","78","","","","","","","","","","","","","","","",""
"","ITI","","html-keyboard-response","520","491974","0.0-1.0-711.0","0","0","17156","","null","","","null","78","","","","","","","","","","","","","","","NaN",""
"","S1","","html-keyboard-response","521","492240","0.0-1.0-713.0","0","0","17156","","null","","","null","79","","","","","","","","","","","","","","","",""
"","ISI","","html-keyboard-response","522","492400","0.0-1.0-714.0","0","0","17156","","null","","","null","79","NaN","","","","","","","","","","","","","","",""
"","S2","","html-keyboard-response","523","492661","0.0-1.0-715.0","0","0","17156","","null","","","null","79","","NaN","","","","","","","","","","","","","",""
"","response","","html-keyboard-response","524","492855","0.0-1.0-716.0-0.0","0","0","17156","","189","","","68","79","","","2","79","training","adjacent","CB","3","2","P.jpg","L.jpg","1","0","0","",""
"","feedback","","html-keyboard-response","525","493868","0.0-1.0-717.0-0.0","0","0","17156","","null","","","null","79","","","","","","","","","","","","","","","",""
"","time_out","","html-keyboard-response","526","495876","0.0-1.0-719.0-0.0","0","0","17156","","null","","","null","79","","","","","","","","","","","","","","","",""
"","ITI","","html-keyboard-response","527","496885","0.0-1.0-720.0","0","0","17156","","null","","","null","79","","","","","","","","","","","","","","","NaN",""
"","S1","","html-keyboard-response","528","497152","0.0-1.0-722.0","0","0","17156","","null","","","null","80","","","","","","","","","","","","","","","",""
"","ISI","","html-keyboard-response","529","497312","0.0-1.0-723.0","0","0","17156","","null","","","null","80","NaN","","","","","","","","","","","","","","",""
"","S2","","html-keyboard-response","530","497573","0.0-1.0-724.0","0","0","17156","","null","","","null","80","","NaN","","","","","","","","","","","","","",""
"","response","","html-keyboard-response","531","497671","0.0-1.0-725.0-0.0","0","0","17156","","96","","","68","80","","","2","80","training","adjacent","FG","6","7","Q.jpg","R.jpg","1","1","1","",""
"","feedback","","html-keyboard-response","532","498685","0.0-1.0-726.0-0.0","0","0","17156","","null","","","null","80","","","","","","","","","","","","","","","",""
"","ITI","","html-keyboard-response","533","499695","0.0-1.0-729.0","0","0","17156","","null","","","null","80","","","","","","","","","","","","","","","NaN",""
"","S1","","html-keyboard-response","534","499958","0.0-1.0-731.0","0","0","17156","","null","","","null","81","","","","","","","","","","","","","","","",""
"","ISI","","html-keyboard-response","535","500117","0.0-1.0-732.0","0","0","17156","","null","","","null","81","NaN","","","","","","","","","","","","","","",""
"","S2","","html-keyboard-response","536","500386","0.0-1.0-733.0","0","0","17156","","null","","","null","81","","NaN","","","","","","","","","","","","","",""
"","response","","html-keyboard-response","537","500577","0.0-1.0-734.0-0.0","0","0","17156","","180","","","68","81","","","2","81","training","adjacent","FE","6","5","Q.jpg","N.jpg","1","0","0","",""
"","feedback","","html-keyboard-response","538","501590","0.0-1.0-735.0-0.0","0","0","17156","","null","","","null","81","","","","","","","","","","","","","","","",""
"","time_out","","html-keyboard-response","539","503599","0.0-1.0-737.0-0.0","0","0","17156","","null","","","null","81","","","","","","","","","","","","","","","",""
"","ITI","","html-keyboard-response","540","504615","0.0-1.0-738.0","0","0","17156","","null","","","null","81","","","","","","","","","","","","","","","NaN",""
"","S1","","html-keyboard-response","541","504880","0.0-1.0-740.0","0","0","17156","","null","","","null","82","","","","","","","","","","","","","","","",""
"","ISI","","html-keyboard-response","542","505044","0.0-1.0-741.0","0","0","17156","","null","","","null","82","NaN","","","","","","","","","","","","","","",""
"","S2","","html-keyboard-response","543","505313","0.0-1.0-742.0","0","0","17156","","null","","","null","82","","NaN","","","","","","","","","","","","","",""
"","response","","html-keyboard-response","544","506155","0.0-1.0-743.0-0.0","0","0","17156","","838","","","68","82","","","2","82","training","adjacent","AB","1","2","M.jpg","L.jpg","1","1","1","",""
"","feedback","","html-keyboard-response","545","507169","0.0-1.0-744.0-0.0","0","0","17156","","null","","","null","82","","","","","","","","","","","","","","","",""
"","ITI","","html-keyboard-response","546","508181","0.0-1.0-747.0","0","0","17156","","null","","","null","82","","","","","","","","","","","","","","","NaN",""
"","S1","","html-keyboard-response","547","508449","0.0-1.0-749.0","0","0","17156","","null","","","null","83","","","","","","","","","","","","","","","",""
"","ISI","","html-keyboard-response","548","508609","0.0-1.0-750.0","0","0","17156","","null","","","null","83","NaN","","","","","","","","","","","","","","",""
"","S2","","html-keyboard-response","549","508870","0.0-1.0-751.0","0","0","17156","","null","","","null","83","","NaN","","","","","","","","","","","","","",""
"","response","","html-keyboard-response","550","509350","0.0-1.0-752.0-0.0","0","0","17156","","477","","","68","83","","","2","83","training","adjacent","CB","3","2","P.jpg","L.jpg","1","0","0","",""
"","feedback","","html-keyboard-response","551","510358","0.0-1.0-753.0-0.0","0","0","17156","","null","","","null","83","","","","","","","","","","","","","","","",""
"","time_out","","html-keyboard-response","552","512367","0.0-1.0-755.0-0.0","0","0","17156","","null","","","null","83","","","","","","","","","","","","","","","",""
"","ITI","","html-keyboard-response","553","513380","0.0-1.0-756.0","0","0","17156","","null","","","null","83","","","","","","","","","","","","","","","NaN",""
"","S1","","html-keyboard-response","554","513638","0.0-1.0-758.0","0","0","17156","","null","","","null","84","","","","","","","","","","","","","","","",""
"","ISI","","html-keyboard-response","555","513797","0.0-1.0-759.0","0","0","17156","","null","","","null","84","NaN","","","","","","","","","","","","","","",""
"","S2","","html-keyboard-response","556","514064","0.0-1.0-760.0","0","0","17156","","null","","","null","84","","NaN","","","","","","","","","","","","","",""
"","response","","html-keyboard-response","557","515387","0.0-1.0-761.0-0.0","0","0","17156","","1320","","","68","84","","","2","84","training","adjacent","DE","4","5","O.jpg","N.jpg","1","1","1","",""
"","feedback","","html-keyboard-response","558","516400","0.0-1.0-762.0-0.0","0","0","17156","","null","","","null","84","","","","","","","","","","","","","","","",""
"","ITI","","html-keyboard-response","559","517415","0.0-1.0-765.0","0","0","17156","","null","","","null","84","","","","","","","","","","","","","","","NaN",""
"","S1","","html-keyboard-response","560","517682","0.0-1.0-767.0","0","0","17156","","null","","","null","85","","","","","","","","","","","","","","","",""
"","ISI","","html-keyboard-response","561","517847","0.0-1.0-768.0","0","0","17156","","null","","","null","85","NaN","","","","","","","","","","","","","","",""
"","S2","","html-keyboard-response","562","518112","0.0-1.0-769.0","0","0","17156","","null","","","null","85","","NaN","","","","","","","","","","","","","",""
"","response","","html-keyboard-response","563","518954","0.0-1.0-770.0-0.0","0","0","17156","","838","","","68","85","","","2","85","training","adjacent","BC","2","3","L.jpg","P.jpg","1","1","1","",""
"","feedback","","html-keyboard-response","564","519968","0.0-1.0-771.0-0.0","0","0","17156","","null","","","null","85","","","","","","","","","","","","","","","",""
"","ITI","","html-keyboard-response","565","520982","0.0-1.0-774.0","0","0","17156","","null","","","null","85","","","","","","","","","","","","","","","NaN",""
"","S1","","html-keyboard-response","566","521250","0.0-1.0-776.0","0","0","17156","","null","","","null","86","","","","","","","","","","","","","","","",""
"","ISI","","html-keyboard-response","567","521414","0.0-1.0-777.0","0","0","17156","","null","","","null","86","NaN","","","","","","","","","","","","","","",""
"","S2","","html-keyboard-response","568","521679","0.0-1.0-778.0","0","0","17156","","null","","","null","86","","NaN","","","","","","","","","","","","","",""
"","response","","html-keyboard-response","569","522186","0.0-1.0-779.0-0.0","0","0","17156","","503","","","75","86","","","2","86","training","adjacent","EF","5","6","N.jpg","Q.jpg","0","1","0","",""
"","feedback","","html-keyboard-response","570","523201","0.0-1.0-780.0-0.0","0","0","17156","","null","","","null","86","","","","","","","","","","","","","","","",""
"","time_out","","html-keyboard-response","571","525218","0.0-1.0-782.0-0.0","0","0","17156","","null","","","null","86","","","","","","","","","","","","","","","",""
"","ITI","","html-keyboard-response","572","526230","0.0-1.0-783.0","0","0","17156","","null","","","null","86","","","","","","","","","","","","","","","NaN",""
"","S1","","html-keyboard-response","573","526498","0.0-1.0-785.0","0","0","17156","","null","","","null","87","","","","","","","","","","","","","","","",""
"","ISI","","html-keyboard-response","574","526661","0.0-1.0-786.0","0","0","17156","","null","","","null","87","NaN","","","","","","","","","","","","","","",""
"","S2","","html-keyboard-response","575","526927","0.0-1.0-787.0","0","0","17156","","null","","","null","87","","NaN","","","","","","","","","","","","","",""
"","response","","html-keyboard-response","576","527137","0.0-1.0-788.0-0.0","0","0","17156","","206","","","75","87","","","2","87","training","adjacent","BA","2","1","L.jpg","M.jpg","0","0","1","",""
"","feedback","","html-keyboard-response","577","528149","0.0-1.0-789.0-0.0","0","0","17156","","null","","","null","87","","","","","","","","","","","","","","","",""
"","ITI","","html-keyboard-response","578","529159","0.0-1.0-792.0","0","0","17156","","null","","","null","87","","","","","","","","","","","","","","","NaN",""
"","S1","","html-keyboard-response","579","529424","0.0-1.0-794.0","0","0","17156","","null","","","null","88","","","","","","","","","","","","","","","",""
"","ISI","","html-keyboard-response","580","529583","0.0-1.0-795.0","0","0","17156","","null","","","null","88","NaN","","","","","","","","","","","","","","",""
