"success","ttype","start_time","trial_type","trial_index","time_elapsed","internal_node_id","warning","missed_checkup","PID","view_history","rt","responses","repeat_instructions","key_press","index","keypress_isi","keypress_S2","block","trial_num","phase","group_type","pair_type","S1_stim","S2_stim","S1_img","S2_img","S1_chosen","S1_higher","accuracy","keypress_iti","total_bonus_tally"
"true","full_screen","d03032023hr2058","fullscreen","0","6870","0.0-0.0","0","0","77211","","","","","","","","","","","","","","","","","","","","","",""
"","instructions","","instructions","1","21028","0.0-1.0-0.0-0.0","0","0","77211","[{""page_index"":0,""viewing_time"":4179},{""page_index"":1,""viewing_time"":4211},{""page_index"":2,""viewing_time"":3266},{""page_index"":3,""viewing_time"":2492}]","14149","","","","","","","","","","","","","","","","","","","",""
"","comprehension_check","","survey-multi-choice","2","54557","0.0-1.0-0.0-1.0","0","0","77211","","33508","{""Q0"":""True"",""Q1"":""D"",""Q2"":""Once the second image appears and while the screen 'MAKE A CHOICE' is shown"",""Q3"":""Green mark"",""Q4"":""either D or K""}","1","","","","","","","","","","","","","","","","","",""
"","missed_instruction_checkup","","html-keyboard-response","3","64681","0.0-1.0-0.0-2.0-0.0","0","1","77211","","10110","","","32","","","","","","","","","","","","","","","","",""
"","instructions","","instructions","4","72115","0.0-1.0-0.1-0.1","0","0","77211","[{""page_index"":0,""viewing_time"":3148},{""page_index"":1,""viewing_time"":1411},{""page_index"":2,""viewing_time"":1339},{""page_index"":3,""viewing_time"":1524}]","7423","","","","","","","","","","","","","","","","","","","",""
"","comprehension_check","","survey-multi-choice","5","82721","0.0-1.0-0.1-1.1","0","0","77211","","10585","{""Q0"":""True"",""Q1"":""K"",""Q2"":""Once the second image appears and while the screen 'MAKE A CHOICE' is shown"",""Q3"":""Green mark"",""Q4"":""either D or K""}","0","","","","","","","","","","","","","","","","","",""
"","start_exp","","html-keyboard-response","6","85952","0.0-1.0-1.0","0","0","77211","","3222","","","32","","","","","","","","","","","","","","","","",""
"","S1","","html-keyboard-response","7","86275","0.0-1.0-2.0","0","0","77211","","null","","","null","0","","","","","","","","","","","","","","","",""
"","ISI","","html-keyboard-response","8","86833","0.0-1.0-3.0","0","0","77211","","null","","","null","0","NaN","","","","","","","","","","","","","","",""
"","S2","","html-keyboard-response","9","87093","0.0-1.0-4.0","0","0","77211","","null","","","null","0","","NaN","","","","","","","","","","","","","",""
"","response","","html-keyboard-response","10","88849","0.0-1.0-5.0-0.0","0","0","77211","","null","","","null","0","","","1","0","training","adjacent","FE","6","5","Q.jpg","L.jpg","NaN","0","0","",""
"","too_slow_prompt","","html-keyboard-response","11","89854","0.0-1.0-7.0-0.0","1","0","77211","","null","","","null","","","","","","","","","","","","","","","","",""
"","time_out","","html-keyboard-response","12","91859","0.0-1.0-8.0-0.0","0","0","77211","","null","","","null","0","","","","","","","","","","","","","","","",""
"","ITI","","html-keyboard-response","13","92873","0.0-1.0-9.0","0","0","77211","","354","","","68","0","","","","","","","","","","","","","","","d",""
"","S1","","html-keyboard-response","14","93131","0.0-1.0-11.0","0","0","77211","","null","","","null","1","","","","","","","","","","","","","","","",""
"","ISI","","html-keyboard-response","15","93646","0.0-1.0-12.0","0","0","77211","","228","","","75","1","k","","","","","","","","","","","","","","",""
"","S2","","html-keyboard-response","16","93839","0.0-1.0-13.0","0","0","77211","","186","","","75","1","","k","1","1","training","adjacent","EF","5","6","L.jpg","Q.jpg","1","1","1","",""
"","feedback","","html-keyboard-response","17","94846","0.0-1.0-15.0-0.0","0","0","77211","","null","","","null","1","","","","","","","","","","","","","","","",""
"","ITI","","html-keyboard-response","18","95852","0.0-1.0-18.0","0","0","77211","","60","","","68","1","","","","","","","","","","","","","","","d",""
"","S1","","html-keyboard-response","19","96115","0.0-1.0-20.0","0","0","77211","","null","","","null","2","","","","","","","","","","","","","","","",""
"","ISI","","html-keyboard-response","20","96621","0.0-1.0-21.0","0","0","77211","","100","","","68","2","d","","","","","","","","","","","","","","",""
"","S2","","html-keyboard-response","21","96702","0.0-1.0-22.0","0","0","77211","","75","","","68","2","","d","1","2","training","adjacent","BC","2","3","P.jpg","N.jpg","0","1","0","",""
"","feedback","","html-keyboard-response","22","97726","0.0-1.0-24.0-0.0","0","0","77211","","null","","","null","2","","","","","","","","","","","","","","","",""
"","time_out","","html-keyboard-response","23","99729","0.0-1.0-26.0-0.0","0","0","77211","","null","","","null","2","","","","","","","","","","","","","","","",""
"","ITI","","html-keyboard-response","24","100739","0.0-1.0-27.0","0","0","77211","","17","","","68","2","","","","","","","","","","","","","","","d",""
"","S1","","html-keyboard-response","25","100993","0.0-1.0-29.0","0","0","77211","","null","","","null","3","","","","","","","","","","","","","","","",""
"","ISI","","html-keyboard-response","26","101497","0.0-1.0-30.0","0","0","77211","","416","","","68","3","d","","","","","","","","","","","","","","",""
"","S2","","html-keyboard-response","27","101579","0.0-1.0-31.0","0","0","77211","","79","","","75","3","","k","1","3","training","adjacent","BA","2","1","P.jpg","O.jpg","1","0","0","",""
"","feedback","","html-keyboard-response","28","102586","0.0-1.0-33.0-0.0","0","0","77211","","null","","","null","3","","","","","","","","","","","","","","","",""
"","time_out","","html-keyboard-response","29","104594","0.0-1.0-35.0-0.0","0","0","77211","","null","","","null","3","","","","","","","","","","","","","","","",""
"","ITI","","html-keyboard-response","30","105607","0.0-1.0-36.0","0","0","77211","","195","","","68","3","","","","","","","","","","","","","","","d",""
"","S1","","html-keyboard-response","31","105866","0.0-1.0-38.0","0","0","77211","","null","","","null","4","","","","","","","","","","","","","","","",""
"","ISI","","html-keyboard-response","32","106370","0.0-1.0-39.0","0","0","77211","","147","","","75","4","k","","","","","","","","","","","","","","",""
"","S2","","html-keyboard-response","33","106392","0.0-1.0-40.0","0","0","77211","","20","","","68","4","","d","1","4","training","adjacent","GF","7","6","R.jpg","Q.jpg","0","0","1","",""
"","feedback","","html-keyboard-response","34","107411","0.0-1.0-42.0-0.0","0","0","77211","","null","","","null","4","","","","","","","","","","","","","","","",""
"","ITI","","html-keyboard-response","35","108414","0.0-1.0-45.0","0","0","77211","","93","","","68","4","","","","","","","","","","","","","","","d",""
"","S1","","html-keyboard-response","36","108669","0.0-1.0-47.0","0","0","77211","","null","","","null","5","","","","","","","","","","","","","","","",""
"","ISI","","html-keyboard-response","37","109221","0.0-1.0-48.0","0","0","77211","","253","","","68","5","d","","","","","","","","","","","","","","",""
"","S2","","html-keyboard-response","38","109232","0.0-1.0-49.0","0","0","77211","","4","","","75","5","","k","1","5","training","adjacent","DE","4","5","M.jpg","L.jpg","1","1","1","",""
"","feedback","","html-keyboard-response","39","110241","0.0-1.0-51.0-0.0","0","0","77211","","null","","","null","5","","","","","","","","","","","","","","","",""
"","ITI","","html-keyboard-response","40","111249","0.0-1.0-54.0","0","0","77211","","19","","","68","5","","","","","","","","","","","","","","","d",""
"","S1","","html-keyboard-response","41","111518","0.0-1.0-56.0","0","0","77211","","null","","","null","6","","","","","","","","","","","","","","","",""
"","ISI","","html-keyboard-response","42","112021","0.0-1.0-57.0","0","0","77211","","11","","","75","6","k","","","","","","","","","","","","","","",""
"","S2","","html-keyboard-response","43","112276","0.0-1.0-58.0","0","0","77211","","null","","","null","6","","NaN","","","","","","","","","","","","","",""
"","response","","html-keyboard-response","44","112293","0.0-1.0-59.0-0.0","0","0","77211","","13","","","68","6","","","1","6","training","adjacent","GF","7","6","R.jpg","Q.jpg","0","0","1","",""
"","feedback","","html-keyboard-response","45","113300","0.0-1.0-60.0-0.0","0","0","77211","","null","","","null","6","","","","","","","","","","","","","","","",""
"","ITI","","html-keyboard-response","46","114310","0.0-1.0-63.0","0","0","77211","","137","","","68","6","","","","","","","","","","","","","","","d",""
"","S1","","html-keyboard-response","47","114589","0.0-1.0-65.0","0","0","77211","","null","","","null","7","","","","","","","","","","","","","","","",""
"","ISI","","html-keyboard-response","48","115092","0.0-1.0-66.0","0","0","77211","","463","","","68","7","d","","","","","","","","","","","","","","",""
"","S2","","html-keyboard-response","49","115153","0.0-1.0-67.0","0","0","77211","","56","","","68","7","","d","1","7","training","adjacent","BC","2","3","P.jpg","N.jpg","0","1","0","",""
"","feedback","","html-keyboard-response","50","116157","0.0-1.0-69.0-0.0","0","0","77211","","null","","","null","7","","","","","","","","","","","","","","","",""
"","time_out","","html-keyboard-response","51","118170","0.0-1.0-71.0-0.0","0","0","77211","","null","","","null","7","","","","","","","","","","","","","","","",""
"","ITI","","html-keyboard-response","52","119176","0.0-1.0-72.0","0","0","77211","","236","","","75","7","","","","","","","","","","","","","","","k",""
"","S1","","html-keyboard-response","53","119430","0.0-1.0-74.0","0","0","77211","","null","","","null","8","","","","","","","","","","","","","","","",""
"","ISI","","html-keyboard-response","54","119936","0.0-1.0-75.0","0","0","77211","","13","","","68","8","d","","","","","","","","","","","","","","",""
"","S2","","html-keyboard-response","55","120151","0.0-1.0-76.0","0","0","77211","","207","","","68","8","","d","1","8","training","adjacent","EF","5","6","L.jpg","Q.jpg","0","1","0","",""
"","feedback","","html-keyboard-response","56","121157","0.0-1.0-78.0-0.0","0","0","77211","","null","","","null","8","","","","","","","","","","","","","","","",""
"","time_out","","html-keyboard-response","57","123213","0.0-1.0-80.0-0.0","0","0","77211","","null","","","null","8","","","","","","","","","","","","","","","",""
"","ITI","","html-keyboard-response","58","124231","0.0-1.0-81.0","0","0","77211","","13","","","68","8","","","","","","","","","","","","","","","d",""
"","S1","","html-keyboard-response","59","124490","0.0-1.0-83.0","0","0","77211","","null","","","null","9","","","","","","","","","","","","","","","",""
"","ISI","","html-keyboard-response","60","124993","0.0-1.0-84.0","0","0","77211","","422","","","68","9","d","","","","","","","","","","","","","","",""
"","S2","","html-keyboard-response","61","125115","0.0-1.0-85.0","0","0","77211","","116","","","75","9","","k","1","9","training","adjacent","EF","5","6","L.jpg","Q.jpg","1","1","1","",""
"","feedback","","html-keyboard-response","62","126120","0.0-1.0-87.0-0.0","0","0","77211","","null","","","null","9","","","","","","","","","","","","","","","",""
"","ITI","","html-keyboard-response","63","127134","0.0-1.0-90.0","0","0","77211","","161","","","68","9","","","","","","","","","","","","","","","d",""
"","S1","","html-keyboard-response","64","127389","0.0-1.0-92.0","0","0","77211","","null","","","null","10","","","","","","","","","","","","","","","",""
"","ISI","","html-keyboard-response","65","127893","0.0-1.0-93.0","0","0","77211","","null","","","null","10","NaN","","","","","","","","","","","","","","",""
"","S2","","html-keyboard-response","66","128152","0.0-1.0-94.0","0","0","77211","","null","","","null","10","","NaN","","","","","","","","","","","","","",""
"","response","","html-keyboard-response","67","128417","0.0-1.0-95.0-0.0","0","0","77211","","261","","","75","10","","","1","10","training","adjacent","CD","3","4","N.jpg","M.jpg","1","1","1","",""
"","feedback","","html-keyboard-response","68","129424","0.0-1.0-96.0-0.0","0","0","77211","","null","","","null","10","","","","","","","","","","","","","","","",""
"","ITI","","html-keyboard-response","69","130430","0.0-1.0-99.0","0","0","77211","","20","","","75","10","","","","","","","","","","","","","","","k",""
"","S1","","html-keyboard-response","70","130684","0.0-1.0-101.0","0","0","77211","","null","","","null","11","","","","","","","","","","","","","","","",""
"","ISI","","html-keyboard-response","71","131188","0.0-1.0-102.0","0","0","77211","","167","","","68","11","d","","","","","","","","","","","","","","",""
"","S2","","html-keyboard-response","72","131361","0.0-1.0-103.0","0","0","77211","","168","","","68","11","","d","1","11","training","adjacent","BA","2","1","P.jpg","O.jpg","0","0","1","",""
"","feedback","","html-keyboard-response","73","132381","0.0-1.0-105.0-0.0","0","0","77211","","null","","","null","11","","","","","","","","","","","","","","","",""
"","ITI","","html-keyboard-response","74","133474","0.0-1.0-108.0","0","0","77211","","10","","","75","11","","","","","","","","","","","","","","","k",""
"","S1","","html-keyboard-response","75","133729","0.0-1.0-110.0","0","0","77211","","null","","","null","12","","","","","","","","","","","","","","","",""
"","ISI","","html-keyboard-response","76","134233","0.0-1.0-111.0","0","0","77211","","311","","","88","12","x","","","","","","","","","","","","","","",""
"","S2","","html-keyboard-response","77","134463","0.0-1.0-112.0","0","0","77211","","226","","","75","12","","k","1","12","training","adjacent","BA","2","1","P.jpg","O.jpg","1","0","0","",""
"","feedback","","html-keyboard-response","78","135469","0.0-1.0-114.0-0.0","0","0","77211","","null","","","null","12","","","","","","","","","","","","","","","",""
"","time_out","","html-keyboard-response","79","137502","0.0-1.0-116.0-0.0","0","0","77211","","null","","","null","12","","","","","","","","","","","","","","","",""
"","ITI","","html-keyboard-response","80","138509","0.0-1.0-117.0","0","0","77211","","259","","","68","12","","","","","","","","","","","","","","","d",""
"","S1","","html-keyboard-response","81","138765","0.0-1.0-119.0","0","0","77211","","null","","","null","13","","","","","","","","","","","","","","","",""
"","ISI","","html-keyboard-response","82","139268","0.0-1.0-120.0","0","0","77211","","164","","","75","13","k","","","","","","","","","","","","","","",""
"","S2","","html-keyboard-response","83","139327","0.0-1.0-121.0","0","0","77211","","53","","","75","13","","k","1","13","training","adjacent","ED","5","4","L.jpg","M.jpg","1","0","0","",""
"","feedback","","html-keyboard-response","84","140335","0.0-1.0-123.0-0.0","0","0","77211","","null","","","null","13","","","","","","","","","","","","","","","",""
"","time_out","","html-keyboard-response","85","142341","0.0-1.0-125.0-0.0","0","0","77211","","null","","","null","13","","","","","","","","","","","","","","","",""
"","ITI","","html-keyboard-response","86","143356","0.0-1.0-126.0","0","0","77211","","4","","","68","13","","","","","","","","","","","","","","","d",""
"","S1","","html-keyboard-response","87","143613","0.0-1.0-128.0","0","0","77211","","null","","","null","14","","","","","","","","","","","","","","","",""
"","ISI","","html-keyboard-response","88","144115","0.0-1.0-129.0","0","0","77211","","174","","","68","14","d","","","","","","","","","","","","","","",""
"","S2","","html-keyboard-response","89","144142","0.0-1.0-130.0","0","0","77211","","23","","","68","14","","d","1","14","training","adjacent","FG","6","7","Q.jpg","R.jpg","0","1","0","",""
"","feedback","","html-keyboard-response","90","145146","0.0-1.0-132.0-0.0","0","0","77211","","null","","","null","14","","","","","","","","","","","","","","","",""
"","time_out","","html-keyboard-response","91","147151","0.0-1.0-134.0-0.0","0","0","77211","","null","","","null","14","","","","","","","","","","","","","","","",""
"","ITI","","html-keyboard-response","92","148156","0.0-1.0-135.0","0","0","77211","","23","","","68","14","","","","","","","","","","","","","","","d",""
"","S1","","html-keyboard-response","93","148415","0.0-1.0-137.0","0","0","77211","","null","","","null","15","","","","","","","","","","","","","","","",""
"","ISI","","html-keyboard-response","94","148921","0.0-1.0-138.0","0","0","77211","","170","","","75","15","k","","","","","","","","","","","","","","",""
"","S2","","html-keyboard-response","95","149085","0.0-1.0-139.0","0","0","77211","","158","","","68","15","","d","1","15","training","adjacent","AB","1","2","O.jpg","P.jpg","0","1","0","",""
"","feedback","","html-keyboard-response","96","150091","0.0-1.0-141.0-0.0","0","0","77211","","null","","","null","15","","","","","","","","","","","","","","","",""
"","time_out","","html-keyboard-response","97","152095","0.0-1.0-143.0-0.0","0","0","77211","","null","","","null","15","","","","","","","","","","","","","","","",""
"","ITI","","html-keyboard-response","98","153099","0.0-1.0-144.0","0","0","77211","","60","","","68","15","","","","","","","","","","","","","","","d",""
"","S1","","html-keyboard-response","99","153382","0.0-1.0-146.0","0","0","77211","","null","","","null","16","","","","","","","","","","","","","","","",""
"","ISI","","html-keyboard-response","100","153888","0.0-1.0-147.0","0","0","77211","","4","","","75","16","k","","","","","","","","","","","","","","",""
"","S2","","html-keyboard-response","101","153925","0.0-1.0-148.0","0","0","77211","","31","","","75","16","","k","1","16","training","adjacent","ED","5","4","L.jpg","M.jpg","1","0","0","",""
"","feedback","","html-keyboard-response","102","154931","0.0-1.0-150.0-0.0","0","0","77211","","null","","","null","16","","","","","","","","","","","","","","","",""
"","time_out","","html-keyboard-response","103","156959","0.0-1.0-152.0-0.0","0","0","77211","","null","","","null","16","","","","","","","","","","","","","","","",""
"","ITI","","html-keyboard-response","104","157992","0.0-1.0-153.0","0","0","77211","","148","","","75","16","","","","","","","","","","","","","","","k",""
"","S1","","html-keyboard-response","105","158245","0.0-1.0-155.0","0","0","77211","","null","","","null","17","","","","","","","","","","","","","","","",""
"","ISI","","html-keyboard-response","106","158750","0.0-1.0-156.0","0","0","77211","","30","","","75","17","k","","","","","","","","","","","","","","",""
"","S2","","html-keyboard-response","107","158812","0.0-1.0-157.0","0","0","77211","","57","","","75","17","","k","1","17","training","adjacent","EF","5","6","L.jpg","Q.jpg","1","1","1","",""
"","feedback","","html-keyboard-response","108","159892","0.0-1.0-159.0-0.0","0","0","77211","","null","","","null","17","","","","","","","","","","","","","","","",""
"","ITI","","html-keyboard-response","109","160899","0.0-1.0-162.0","0","0","77211","","358","","","68","17","","","","","","","","","","","","","","","d",""
"","S1","","html-keyboard-response","110","161155","0.0-1.0-164.0","0","0","77211","","null","","","null","18","","","","","","","","","","","","","","","",""
"","ISI","","html-keyboard-response","111","161659","0.0-1.0-165.0","0","0","77211","","99","","","75","18","k","","","","","","","","","","","","","","",""
"","S2","","html-keyboard-response","112","161740","0.0-1.0-166.0","0","0","77211","","76","","","75","18","","k","1","18","training","adjacent","AB","1","2","O.jpg","P.jpg","1","1","1","",""
"","feedback","","html-keyboard-response","113","162750","0.0-1.0-168.0-0.0","0","0","77211","","null","","","null","18","","","","","","","","","","","","","","","",""
"","ITI","","html-keyboard-response","114","163816","0.0-1.0-171.0","0","0","77211","","158","","","75","18","","","","","","","","","","","","","","","k",""
"","S1","","html-keyboard-response","115","164070","0.0-1.0-173.0","0","0","77211","","null","","","null","19","","","","","","","","","","","","","","","",""
"","ISI","","html-keyboard-response","116","164575","0.0-1.0-174.0","0","0","77211","","136","","","68","19","d","","","","","","","","","","","","","","",""
"","S2","","html-keyboard-response","117","164610","0.0-1.0-175.0","0","0","77211","","32","","","68","19","","d","1","19","training","adjacent","BC","2","3","P.jpg","N.jpg","0","1","0","",""
"","feedback","","html-keyboard-response","118","165618","0.0-1.0-177.0-0.0","0","0","77211","","null","","","null","19","","","","","","","","","","","","","","","",""
"","time_out","","html-keyboard-response","119","167624","0.0-1.0-179.0-0.0","0","0","77211","","null","","","null","19","","","","","","","","","","","","","","","",""
"","ITI","","html-keyboard-response","120","168626","0.0-1.0-180.0","0","0","77211","","57","","","68","19","","","","","","","","","","","","","","","d",""
"","S1","","html-keyboard-response","121","168880","0.0-1.0-182.0","0","0","77211","","null","","","null","20","","","","","","","","","","","","","","","",""
"","ISI","","html-keyboard-response","122","169383","0.0-1.0-183.0","0","0","77211","","86","","","68","20","d","","","","","","","","","","","","","","",""
"","S2","","html-keyboard-response","123","169448","0.0-1.0-184.0","0","0","77211","","61","","","75","20","","k","1","20","training","adjacent","BC","2","3","P.jpg","N.jpg","1","1","1","",""
"","feedback","","html-keyboard-response","124","170451","0.0-1.0-186.0-0.0","0","0","77211","","null","","","null","20","","","","","","","","","","","","","","","",""
"","ITI","","html-keyboard-response","125","171471","0.0-1.0-189.0","0","0","77211","","36","","","75","20","","","","","","","","","","","","","","","k",""
"","S1","","html-keyboard-response","126","171726","0.0-1.0-191.0","0","0","77211","","null","","","null","21","","","","","","","","","","","","","","","",""
"","ISI","","html-keyboard-response","127","172231","0.0-1.0-192.0","0","0","77211","","18","","","68","21","d","","","","","","","","","","","","","","",""
"","S2","","html-keyboard-response","128","172485","0.0-1.0-193.0","0","0","77211","","null","","","null","21","","NaN","","","","","","","","","","","","","",""
"","response","","html-keyboard-response","129","172588","0.0-1.0-194.0-0.0","0","0","77211","","97","","","75","21","","","1","21","training","adjacent","FE","6","5","Q.jpg","L.jpg","1","0","0","",""
"","feedback","","html-keyboard-response","130","173594","0.0-1.0-195.0-0.0","0","0","77211","","null","","","null","21","","","","","","","","","","","","","","","",""
"","time_out","","html-keyboard-response","131","175603","0.0-1.0-197.0-0.0","0","0","77211","","null","","","null","21","","","","","","","","","","","","","","","",""
"","ITI","","html-keyboard-response","132","176618","0.0-1.0-198.0","0","0","77211","","549","","","68","21","","","","","","","","","","","","","","","d",""
"","S1","","html-keyboard-response","133","176878","0.0-1.0-200.0","0","0","77211","","null","","","null","22","","","","","","","","","","","","","","","",""
"","ISI","","html-keyboard-response","134","177382","0.0-1.0-201.0","0","0","77211","","442","","","68","22","d","","","","","","","","","","","","","","",""
"","S2","","html-keyboard-response","135","177473","0.0-1.0-202.0","0","0","77211","","86","","","75","22","","k","1","22","training","adjacent","DE","4","5","M.jpg","L.jpg","1","1","1","",""
"","feedback","","html-keyboard-response","136","178565","0.0-1.0-204.0-0.0","0","0","77211","","null","","","null","22","","","","","","","","","","","","","","","",""
"","ITI","","html-keyboard-response","137","179570","0.0-1.0-207.0","0","0","77211","","5","","","68","22","","","","","","","","","","","","","","","d",""
"","S1","","html-keyboard-response","138","179824","0.0-1.0-209.0","0","0","77211","","null","","","null","23","","","","","","","","","","","","","","","",""
"","ISI","","html-keyboard-response","139","180327","0.0-1.0-210.0","0","0","77211","","76","","","68","23","d","","","","","","","","","","","","","","",""
"","S2","","html-keyboard-response","140","180467","0.0-1.0-211.0","0","0","77211","","134","","","75","23","","k","1","23","training","adjacent","DC","4","3","M.jpg","N.jpg","1","0","0","",""
"","feedback","","html-keyboard-response","141","181473","0.0-1.0-213.0-0.0","0","0","77211","","null","","","null","23","","","","","","","","","","","","","","","",""
"","time_out","","html-keyboard-response","142","183478","0.0-1.0-215.0-0.0","0","0","77211","","null","","","null","23","","","","","","","","","","","","","","","",""
"","ITI","","html-keyboard-response","143","184481","0.0-1.0-216.0","0","0","77211","","374","","","68","23","","","","","","","","","","","","","","","d",""
"","S1","","html-keyboard-response","144","184735","0.0-1.0-218.0","0","0","77211","","null","","","null","24","","","","","","","","","","","","","","","",""
"","ISI","","html-keyboard-response","145","185419","0.0-1.0-219.0","0","0","77211","","56","","","75","24","k","","","","","","","","","","","","","","",""
"","S2","","html-keyboard-response","146","185594","0.0-1.0-220.0","0","0","77211","","68","","","68","24","","d","1","24","training","adjacent","AB","1","2","O.jpg","P.jpg","0","1","0","",""
"","feedback","","html-keyboard-response","147","186599","0.0-1.0-222.0-0.0","0","0","77211","","null","","","null","24","","","","","","","","","","","","","","","",""
"","time_out","","html-keyboard-response","148","188606","0.0-1.0-224.0-0.0","0","0","77211","","null","","","null","24","","","","","","","","","","","","","","","",""
"","ITI","","html-keyboard-response","149","189615","0.0-1.0-225.0","0","0","77211","","114","","","75","24","","","","","","","","","","","","","","","k",""
"","S1","","html-keyboard-response","150","189869","0.0-1.0-227.0","0","0","77211","","null","","","null","25","","","","","","","","","","","","","","","",""
"","ISI","","html-keyboard-response","151","190376","0.0-1.0-228.0","0","0","77211","","182","","","75","25","k","","","","","","","","","","","","","","",""
"","S2","","html-keyboard-response","152","190432","0.0-1.0-229.0","0","0","77211","","53","","","75","25","","k","1","25","training","adjacent","FG","6","7","Q.jpg","R.jpg","1","1","1","",""
"","feedback","","html-keyboard-response","153","191446","0.0-1.0-231.0-0.0","0","0","77211","","null","","","null","25","","","","","","","","","","","","","","","",""
"","ITI","","html-keyboard-response","154","192454","0.0-1.0-234.0","0","0","77211","","26","","","75","25","","","","","","","","","","","","","","","k",""
"","S1","","html-keyboard-response","155","192721","0.0-1.0-236.0","0","0","77211","","null","","","null","26","","","","","","","","","","","","","","","",""
"","ISI","","html-keyboard-response","156","193227","0.0-1.0-237.0","0","0","77211","","249","","","75","26","k","","","","","","","","","","","","","","",""
"","S2","","html-keyboard-response","157","193494","0.0-1.0-238.0","0","0","77211","","null","","","null","26","","NaN","","","","","","","","","","","","","",""
"","response","","html-keyboard-response","158","193570","0.0-1.0-239.0-0.0","0","0","77211","","73","","","75","26","","","1","26","training","adjacent","AB","1","2","O.jpg","P.jpg","1","1","1","",""
"","feedback","","html-keyboard-response","159","194581","0.0-1.0-240.0-0.0","0","0","77211","","null","","","null","26","","","","","","","","","","","","","","","",""
"","ITI","","html-keyboard-response","160","195584","0.0-1.0-243.0","0","0","77211","","null","","","null","26","","","","","","","","","","","","","","","NaN",""
"","S1","","html-keyboard-response","161","195841","0.0-1.0-245.0","0","0","77211","","null","","","null","27","","","","","","","","","","","","","","","",""
"","ISI","","html-keyboard-response","162","196345","0.0-1.0-246.0","0","0","77211","","105","","","68","27","d","","","","","","","","","","","","","","",""
"","S2","","html-keyboard-response","163","196599","0.0-1.0-247.0","0","0","77211","","null","","","null","27","","NaN","","","","","","","","","","","","","",""
"","response","","html-keyboard-response","164","196750","0.0-1.0-248.0-0.0","0","0","77211","","145","","","75","27","","","1","27","training","adjacent","GF","7","6","R.jpg","Q.jpg","1","0","0","",""
"","feedback","","html-keyboard-response","165","197876","0.0-1.0-249.0-0.0","0","0","77211","","null","","","null","27","","","","","","","","","","","","","","","",""
"","time_out","","html-keyboard-response","166","199882","0.0-1.0-251.0-0.0","0","0","77211","","null","","","null","27","","","","","","","","","","","","","","","",""
"","ITI","","html-keyboard-response","167","200887","0.0-1.0-252.0","0","0","77211","","887","","","68","27","","","","","","","","","","","","","","","d",""
"","S1","","html-keyboard-response","168","201144","0.0-1.0-254.0","0","0","77211","","null","","","null","28","","","","","","","","","","","","","","","",""
"","ISI","","html-keyboard-response","169","201649","0.0-1.0-255.0","0","0","77211","","11","","","68","28","d","","","","","","","","","","","","","","",""
"","S2","","html-keyboard-response","170","201872","0.0-1.0-256.0","0","0","77211","","216","","","68","28","","d","1","28","training","adjacent","FE","6","5","Q.jpg","L.jpg","0","0","1","",""
"","feedback","","html-keyboard-response","171","202878","0.0-1.0-258.0-0.0","0","0","77211","","null","","","null","28","","","","","","","","","","","","","","","",""
"","ITI","","html-keyboard-response","172","203883","0.0-1.0-261.0","0","0","77211","","743","","","68","28","","","","","","","","","","","","","","","d",""
"","S1","","html-keyboard-response","173","204138","0.0-1.0-263.0","0","0","77211","","null","","","null","29","","","","","","","","","","","","","","","",""
"","ISI","","html-keyboard-response","174","204646","0.0-1.0-264.0","0","0","77211","","149","","","75","29","k","","","","","","","","","","","","","","",""
"","S2","","html-keyboard-response","175","204744","0.0-1.0-265.0","0","0","77211","","91","","","75","29","","k","1","29","training","adjacent","FG","6","7","Q.jpg","R.jpg","1","1","1","",""
"","feedback","","html-keyboard-response","176","205749","0.0-1.0-267.0-0.0","0","0","77211","","null","","","null","29","","","","","","","","","","","","","","","",""
"","ITI","","html-keyboard-response","177","206753","0.0-1.0-270.0","0","0","77211","","192","","","68","29","","","","","","","","","","","","","","","d",""
"","S1","","html-keyboard-response","178","207006","0.0-1.0-272.0","0","0","77211","","null","","","null","30","","","","","","","","","","","","","","","",""
"","ISI","","html-keyboard-response","179","207509","0.0-1.0-273.0","0","0","77211","","103","","","75","30","k","","","","","","","","","","","","","","",""
"","S2","","html-keyboard-response","180","207645","0.0-1.0-274.0","0","0","77211","","131","","","75","30","","k","1","30","training","adjacent","FE","6","5","Q.jpg","L.jpg","1","0","0","",""
"","feedback","","html-keyboard-response","181","208649","0.0-1.0-276.0-0.0","0","0","77211","","null","","","null","30","","","","","","","","","","","","","","","",""
"","time_out","","html-keyboard-response","182","210654","0.0-1.0-278.0-0.0","0","0","77211","","null","","","null","30","","","","","","","","","","","","","","","",""
"","ITI","","html-keyboard-response","183","211663","0.0-1.0-279.0","0","0","77211","","214","","","75","30","","","","","","","","","","","","","","","k",""
"","S1","","html-keyboard-response","184","211920","0.0-1.0-281.0","0","0","77211","","null","","","null","31","","","","","","","","","","","","","","","",""
"","ISI","","html-keyboard-response","185","212533","0.0-1.0-282.0","0","0","77211","","22","","","68","31","d","","","","","","","","","","","","","","",""
"","S2","","html-keyboard-response","186","212629","0.0-1.0-283.0","0","0","77211","","84","","","68","31","","d","1","31","training","adjacent","CD","3","4","N.jpg","M.jpg","0","1","0","",""
"","feedback","","html-keyboard-response","187","213637","0.0-1.0-285.0-0.0","0","0","77211","","null","","","null","31","","","","","","","","","","","","","","","",""
"","time_out","","html-keyboard-response","188","215643","0.0-1.0-287.0-0.0","0","0","77211","","null","","","null","31","","","","","","","","","","","","","","","",""
"","ITI","","html-keyboard-response","189","216648","0.0-1.0-288.0","0","0","77211","","470","","","75","31","","","","","","","","","","","","","","","k",""
"","S1","","html-keyboard-response","190","216901","0.0-1.0-290.0","0","0","77211","","null","","","null","32","","","","","","","","","","","","","","","",""
"","ISI","","html-keyboard-response","191","217404","0.0-1.0-291.0","0","0","77211","","23","","","68","32","d","","","","","","","","","","","","","","",""
"","S2","","html-keyboard-response","192","217672","0.0-1.0-292.0","0","0","77211","","null","","","null","32","","NaN","","","","","","","","","","","","","",""
"","response","","html-keyboard-response","193","217810","0.0-1.0-293.0-0.0","0","0","77211","","132","","","68","32","","","1","32","training","adjacent","CD","3","4","N.jpg","M.jpg","0","1","0","",""
"","feedback","","html-keyboard-response","194","218821","0.0-1.0-294.0-0.0","0","0","77211","","null","","","null","32","","","","","","","","","","","","","","","",""
"","time_out","","html-keyboard-response","195","220828","0.0-1.0-296.0-0.0","0","0","77211","","null","","","null","32","","","","","","","","","","","","","","","",""
"","ITI","","html-keyboard-response","196","221837","0.0-1.0-297.0","0","0","77211","","367","","","75","32","","","","","","","","","","","","","","","k",""
"","S1","","html-keyboard-response","197","222098","0.0-1.0-299.0","0","0","77211","","null","","","null","33","","","","","","","","","","","","","","","",""
"","ISI","","html-keyboard-response","198","222687","0.0-1.0-300.0","0","0","77211","","61","","","68","33","d","","","","","","","","","","","","","","",""
"","S2","","html-keyboard-response","199","222803","0.0-1.0-301.0","0","0","77211","","106","","","75","33","","k","1","33","training","adjacent","DE","4","5","M.jpg","L.jpg","1","1","1","",""
"","feedback","","html-keyboard-response","200","223808","0.0-1.0-303.0-0.0","0","0","77211","","null","","","null","33","","","","","","","","","","","","","","","",""
"","ITI","","html-keyboard-response","201","224812","0.0-1.0-306.0","0","0","77211","","97","","","68","33","","","","","","","","","","","","","","","d",""
"","S1","","html-keyboard-response","202","225067","0.0-1.0-308.0","0","0","77211","","null","","","null","34","","","","","","","","","","","","","","","",""
"","ISI","","html-keyboard-response","203","225573","0.0-1.0-309.0","0","0","77211","","null","","","null","34","NaN","","","","","","","","","","","","","","",""
"","S2","","html-keyboard-response","204","225831","0.0-1.0-310.0","0","0","77211","","null","","","null","34","","NaN","","","","","","","","","","","","","",""
"","response","","html-keyboard-response","205","227584","0.0-1.0-311.0-0.0","0","0","77211","","null","","","null","34","","","1","34","training","adjacent","FG","6","7","Q.jpg","R.jpg","NaN","1","0","",""
"","too_slow_prompt","","html-keyboard-response","206","228588","0.0-1.0-313.0-0.0","1","0","77211","","null","","","null","","","","","","","","","","","","","","","","",""
"","time_out","","html-keyboard-response","207","230594","0.0-1.0-314.0-0.0","0","0","77211","","null","","","null","34","","","","","","","","","","","","","","","",""
"","ITI","","html-keyboard-response","208","231600","0.0-1.0-315.0","0","0","77211","","168","","","68","34","","","","","","","","","","","","","","","d",""
"","S1","","html-keyboard-response","209","231855","0.0-1.0-317.0","0","0","77211","","null","","","null","35","","","","","","","","","","","","","","","",""
"","ISI","","html-keyboard-response","210","232363","0.0-1.0-318.0","0","0","77211","","40","","","75","35","k","","","","","","","","","","","","","","",""
"","S2","","html-keyboard-response","211","232376","0.0-1.0-319.0","0","0","77211","","4","","","75","35","","k","1","35","training","adjacent","CD","3","4","N.jpg","M.jpg","1","1","1","",""
"","feedback","","html-keyboard-response","212","233384","0.0-1.0-321.0-0.0","0","0","77211","","null","","","null","35","","","","","","","","","","","","","","","",""
"","ITI","","html-keyboard-response","213","234390","0.0-1.0-324.0","0","0","77211","","160","","","75","35","","","","","","","","","","","","","","","k",""
"","S1","","html-keyboard-response","214","234645","0.0-1.0-326.0","0","0","77211","","null","","","null","36","","","","","","","","","","","","","","","",""
"","ISI","","html-keyboard-response","215","235156","0.0-1.0-327.0","0","0","77211","","181","","","75","36","k","","","","","","","","","","","","","","",""
"","S2","","html-keyboard-response","216","235416","0.0-1.0-328.0","0","0","77211","","null","","","null","36","","NaN","","","","","","","","","","","","","",""
"","response","","html-keyboard-response","217","235422","0.0-1.0-329.0-0.0","0","0","77211","","2","","","75","36","","","1","36","training","adjacent","BA","2","1","P.jpg","O.jpg","1","0","0","",""
"","feedback","","html-keyboard-response","218","236427","0.0-1.0-330.0-0.0","0","0","77211","","null","","","null","36","","","","","","","","","","","","","","","",""
"","time_out","","html-keyboard-response","219","238433","0.0-1.0-332.0-0.0","0","0","77211","","null","","","null","36","","","","","","","","","","","","","","","",""
"","ITI","","html-keyboard-response","220","239437","0.0-1.0-333.0","0","0","77211","","71","","","75","36","","","","","","","","","","","","","","","k",""
"","S1","","html-keyboard-response","221","239691","0.0-1.0-335.0","0","0","77211","","null","","","null","37","","","","","","","","","","","","","","","",""
"","ISI","","html-keyboard-response","222","240203","0.0-1.0-336.0","0","0","77211","","128","","","75","37","k","","","","","","","","","","","","","","",""
"","S2","","html-keyboard-response","223","240345","0.0-1.0-337.0","0","0","77211","","136","","","75","37","","k","1","37","training","adjacent","DC","4","3","M.jpg","N.jpg","1","0","0","",""
"","feedback","","html-keyboard-response","224","241351","0.0-1.0-339.0-0.0","0","0","77211","","null","","","null","37","","","","","","","","","","","","","","","",""
"","time_out","","html-keyboard-response","225","243359","0.0-1.0-341.0-0.0","0","0","77211","","null","","","null","37","","","","","","","","","","","","","","","",""
"","ITI","","html-keyboard-response","226","244372","0.0-1.0-342.0","0","0","77211","","1","","","68","37","","","","","","","","","","","","","","","d",""
"","S1","","html-keyboard-response","227","244627","0.0-1.0-344.0","0","0","77211","","null","","","null","38","","","","","","","","","","","","","","","",""
"","ISI","","html-keyboard-response","228","245132","0.0-1.0-345.0","0","0","77211","","241","","","75","38","k","","","","","","","","","","","","","","",""
"","S2","","html-keyboard-response","229","245179","0.0-1.0-346.0","0","0","77211","","39","","","75","38","","k","1","38","training","adjacent","ED","5","4","L.jpg","M.jpg","1","0","0","",""
"","feedback","","html-keyboard-response","230","246215","0.0-1.0-348.0-0.0","0","0","77211","","null","","","null","38","","","","","","","","","","","","","","","",""
"","time_out","","html-keyboard-response","231","248239","0.0-1.0-350.0-0.0","0","0","77211","","null","","","null","38","","","","","","","","","","","","","","","",""
"","ITI","","html-keyboard-response","232","249247","0.0-1.0-351.0","0","0","77211","","650","","","75","38","","","","","","","","","","","","","","","k",""
"","S1","","html-keyboard-response","233","249505","0.0-1.0-353.0","0","0","77211","","null","","","null","39","","","","","","","","","","","","","","","",""
"","ISI","","html-keyboard-response","234","250011","0.0-1.0-354.0","0","0","77211","","100","","","68","39","d","","","","","","","","","","","","","","",""
"","S2","","html-keyboard-response","235","250271","0.0-1.0-355.0","0","0","77211","","null","","","null","39","","NaN","","","","","","","","","","","","","",""
"","response","","html-keyboard-response","236","250553","0.0-1.0-356.0-0.0","0","0","77211","","278","","","68","39","","","1","39","training","adjacent","DE","4","5","M.jpg","L.jpg","0","1","0","",""
"","feedback","","html-keyboard-response","237","251558","0.0-1.0-357.0-0.0","0","0","77211","","null","","","null","39","","","","","","","","","","","","","","","",""
"","time_out","","html-keyboard-response","238","253572","0.0-1.0-359.0-0.0","0","0","77211","","null","","","null","39","","","","","","","","","","","","","","","",""
"","ITI","","html-keyboard-response","239","254575","0.0-1.0-360.0","0","0","77211","","147","","","68","39","","","","","","","","","","","","","","","d",""
"","S1","","html-keyboard-response","240","254969","0.0-1.0-362.0","0","0","77211","","null","","","null","40","","","","","","","","","","","","","","","",""
"","ISI","","html-keyboard-response","241","255471","0.0-1.0-363.0","0","0","77211","","51","","","68","40","d","","","","","","","","","","","","","","",""
"","S2","","html-keyboard-response","242","255550","0.0-1.0-364.0","0","0","77211","","74","","","68","40","","d","1","40","training","adjacent","DC","4","3","M.jpg","N.jpg","0","0","1","",""
"","feedback","","html-keyboard-response","243","256557","0.0-1.0-366.0-0.0","0","0","77211","","null","","","null","40","","","","","","","","","","","","","","","",""
"","ITI","","html-keyboard-response","244","257562","0.0-1.0-369.0","0","0","77211","","38","","","68","40","","","","","","","","","","","","","","","d",""
"","S1","","html-keyboard-response","245","257819","0.0-1.0-371.0","0","0","77211","","null","","","null","41","","","","","","","","","","","","","","","",""
"","ISI","","html-keyboard-response","246","258323","0.0-1.0-372.0","0","0","77211","","58","","","75","41","k","","","","","","","","","","","","","","",""
"","S2","","html-keyboard-response","247","258349","0.0-1.0-373.0","0","0","77211","","22","","","68","41","","d","1","41","training","adjacent","GF","7","6","R.jpg","Q.jpg","0","0","1","",""
"","feedback","","html-keyboard-response","248","259353","0.0-1.0-375.0-0.0","0","0","77211","","null","","","null","41","","","","","","","","","","","","","","","",""
"","ITI","","html-keyboard-response","249","260358","0.0-1.0-378.0","0","0","77211","","396","","","75","41","","","","","","","","","","","","","","","k",""
"","S1","","html-keyboard-response","250","260613","0.0-1.0-380.0","0","0","77211","","null","","","null","42","","","","","","","","","","","","","","","",""
"","ISI","","html-keyboard-response","251","261116","0.0-1.0-381.0","0","0","77211","","31","","","75","42","k","","","","","","","","","","","","","","",""
"","S2","","html-keyboard-response","252","261163","0.0-1.0-382.0","0","0","77211","","43","","","68","42","","d","1","42","training","adjacent","DC","4","3","M.jpg","N.jpg","0","0","1","",""
"","feedback","","html-keyboard-response","253","262202","0.0-1.0-384.0-0.0","0","0","77211","","null","","","null","42","","","","","","","","","","","","","","","",""
"","ITI","","html-keyboard-response","254","263210","0.0-1.0-387.0","0","0","77211","","77","","","68","42","","","","","","","","","","","","","","","d",""
"","S1","","html-keyboard-response","255","263465","0.0-1.0-389.0","0","0","77211","","null","","","null","43","","","","","","","","","","","","","","","",""
"","ISI","","html-keyboard-response","256","263968","0.0-1.0-390.0","0","0","77211","","57","","","75","43","k","","","","","","","","","","","","","","",""
"","S2","","html-keyboard-response","257","264225","0.0-1.0-391.0","0","0","77211","","null","","","null","43","","NaN","","","","","","","","","","","","","",""
"","response","","html-keyboard-response","258","264271","0.0-1.0-392.0-0.0","0","0","77211","","43","","","75","43","","","1","43","training","adjacent","CB","3","2","N.jpg","P.jpg","1","0","0","",""
"","feedback","","html-keyboard-response","259","265334","0.0-1.0-393.0-0.0","0","0","77211","","null","","","null","43","","","","","","","","","","","","","","","",""
"","time_out","","html-keyboard-response","260","267494","0.0-1.0-395.0-0.0","0","0","77211","","null","","","null","43","","","","","","","","","","","","","","","",""
"","ITI","","html-keyboard-response","261","268538","0.0-1.0-396.0","0","0","77211","","1","","","68","43","","","","","","","","","","","","","","","d",""
"","S1","","html-keyboard-response","262","268792","0.0-1.0-398.0","0","0","77211","","null","","","null","44","","","","","","","","","","","","","","","",""
"","ISI","","html-keyboard-response","263","269296","0.0-1.0-399.0","0","0","77211","","77","","","75","44","k","","","","","","","","","","","","","","",""
"","S2","","html-keyboard-response","264","269483","0.0-1.0-400.0","0","0","77211","","182","","","75","44","","k","1","44","training","adjacent","CB","3","2","N.jpg","P.jpg","1","0","0","",""
"","feedback","","html-keyboard-response","265","270489","0.0-1.0-402.0-0.0","0","0","77211","","null","","","null","44","","","","","","","","","","","","","","","",""
"","time_out","","html-keyboard-response","266","272495","0.0-1.0-404.0-0.0","0","0","77211","","null","","","null","44","","","","","","","","","","","","","","","",""
"","ITI","","html-keyboard-response","267","273501","0.0-1.0-405.0","0","0","77211","","117","","","75","44","","","","","","","","","","","","","","","k",""
"","S1","","html-keyboard-response","268","273759","0.0-1.0-407.0","0","0","77211","","null","","","null","45","","","","","","","","","","","","","","","",""
"","ISI","","html-keyboard-response","269","274267","0.0-1.0-408.0","0","0","77211","","202","","","75","45","k","","","","","","","","","","","","","","",""
"","S2","","html-keyboard-response","270","274284","0.0-1.0-409.0","0","0","77211","","10","","","75","45","","k","1","45","training","adjacent","CB","3","2","N.jpg","P.jpg","1","0","0","",""
"","feedback","","html-keyboard-response","271","275288","0.0-1.0-411.0-0.0","0","0","77211","","null","","","null","45","","","","","","","","","","","","","","","",""
"","time_out","","html-keyboard-response","272","277295","0.0-1.0-413.0-0.0","0","0","77211","","null","","","null","45","","","","","","","","","","","","","","","",""
"","ITI","","html-keyboard-response","273","278302","0.0-1.0-414.0","0","0","77211","","141","","","75","45","","","","","","","","","","","","","","","k",""
"","S1","","html-keyboard-response","274","278556","0.0-1.0-416.0","0","0","77211","","null","","","null","46","","","","","","","","","","","","","","","",""
"","ISI","","html-keyboard-response","275","279059","0.0-1.0-417.0","0","0","77211","","151","","","75","46","k","","","","","","","","","","","","","","",""
"","S2","","html-keyboard-response","276","279314","0.0-1.0-418.0","0","0","77211","","null","","","null","46","","NaN","","","","","","","","","","","","","",""
"","response","","html-keyboard-response","277","279343","0.0-1.0-419.0-0.0","0","0","77211","","27","","","75","46","","","1","46","training","adjacent","CB","3","2","N.jpg","P.jpg","1","0","0","",""
"","feedback","","html-keyboard-response","278","280349","0.0-1.0-420.0-0.0","0","0","77211","","null","","","null","46","","","","","","","","","","","","","","","",""
"","time_out","","html-keyboard-response","279","282355","0.0-1.0-422.0-0.0","0","0","77211","","null","","","null","46","","","","","","","","","","","","","","","",""
"","ITI","","html-keyboard-response","280","283363","0.0-1.0-423.0","0","0","77211","","229","","","68","46","","","","","","","","","","","","","","","d",""
"","S1","","html-keyboard-response","281","283618","0.0-1.0-425.0","0","0","77211","","null","","","null","47","","","","","","","","","","","","","","","",""
"","ISI","","html-keyboard-response","282","284123","0.0-1.0-426.0","0","0","77211","","198","","","75","47","k","","","","","","","","","","","","","","",""
"","S2","","html-keyboard-response","283","284255","0.0-1.0-427.0","0","0","77211","","125","","","75","47","","k","1","47","training","adjacent","ED","5","4","L.jpg","M.jpg","1","0","0","",""
"","feedback","","html-keyboard-response","284","285341","0.0-1.0-429.0-0.0","0","0","77211","","null","","","null","47","","","","","","","","","","","","","","","",""
"","time_out","","html-keyboard-response","285","287350","0.0-1.0-431.0-0.0","0","0","77211","","null","","","null","47","","","","","","","","","","","","","","","",""
"","ITI","","html-keyboard-response","286","288369","0.0-1.0-432.0","0","0","77211","","476","","","68","47","","","","","","","","","","","","","","","d",""
"","block_over","","html-keyboard-response","287","292284","0.0-1.0-433.0-0.0","0","0","77211","","3908","","","32","47","","","","","","","","","","","","","","","",""
"","S1","","html-keyboard-response","288","292548","0.0-1.0-434.0","0","0","77211","","null","","","null","48","","","","","","","","","","","","","","","",""
"","ISI","","html-keyboard-response","289","293054","0.0-1.0-435.0","0","0","77211","","370","","","75","48","k","","","","","","","","","","","","","","",""
"","S2","","html-keyboard-response","290","293144","0.0-1.0-436.0","0","0","77211","","85","","","68","48","","d","2","48","training","adjacent","BC","2","3","P.jpg","N.jpg","0","1","0","",""
"","feedback","","html-keyboard-response","291","294148","0.0-1.0-438.0-0.0","0","0","77211","","null","","","null","48","","","","","","","","","","","","","","","",""
"","time_out","","html-keyboard-response","292","296155","0.0-1.0-440.0-0.0","0","0","77211","","null","","","null","48","","","","","","","","","","","","","","","",""
"","ITI","","html-keyboard-response","293","297160","0.0-1.0-441.0","0","0","77211","","27","","","75","48","","","","","","","","","","","","","","","k",""
"","S1","","html-keyboard-response","294","297416","0.0-1.0-443.0","0","0","77211","","null","","","null","49","","","","","","","","","","","","","","","",""
"","ISI","","html-keyboard-response","295","297932","0.0-1.0-444.0","0","0","77211","","49","","","68","49","d","","","","","","","","","","","","","","",""
"","S2","","html-keyboard-response","296","297935","0.0-1.0-445.0","0","0","77211","","1","","","75","49","","k","2","49","training","adjacent","AB","1","2","O.jpg","P.jpg","1","1","1","",""
"","feedback","","html-keyboard-response","297","298940","0.0-1.0-447.0-0.0","0","0","77211","","null","","","null","49","","","","","","","","","","","","","","","",""
"","ITI","","html-keyboard-response","298","299944","0.0-1.0-450.0","0","0","77211","","24","","","68","49","","","","","","","","","","","","","","","d",""
"","S1","","html-keyboard-response","299","300198","0.0-1.0-452.0","0","0","77211","","null","","","null","50","","","","","","","","","","","","","","","",""
"","ISI","","html-keyboard-response","300","300702","0.0-1.0-453.0","0","0","77211","","208","","","75","50","k","","","","","","","","","","","","","","",""
"","S2","","html-keyboard-response","301","300790","0.0-1.0-454.0","0","0","77211","","84","","","75","50","","k","2","50","training","adjacent","BA","2","1","P.jpg","O.jpg","1","0","0","",""
"","feedback","","html-keyboard-response","302","301796","0.0-1.0-456.0-0.0","0","0","77211","","null","","","null","50","","","","","","","","","","","","","","","",""
"","time_out","","html-keyboard-response","303","303801","0.0-1.0-458.0-0.0","0","0","77211","","null","","","null","50","","","","","","","","","","","","","","","",""
"","ITI","","html-keyboard-response","304","304809","0.0-1.0-459.0","0","0","77211","","31","","","68","50","","","","","","","","","","","","","","","d",""
"","S1","","html-keyboard-response","305","305066","0.0-1.0-461.0","0","0","77211","","null","","","null","51","","","","","","","","","","","","","","","",""
"","ISI","","html-keyboard-response","306","305573","0.0-1.0-462.0","0","0","77211","","342","","","75","51","k","","","","","","","","","","","","","","",""
"","S2","","html-keyboard-response","307","305610","0.0-1.0-463.0","0","0","77211","","31","","","75","51","","k","2","51","training","adjacent","FG","6","7","Q.jpg","R.jpg","1","1","1","",""
"","feedback","","html-keyboard-response","308","306617","0.0-1.0-465.0-0.0","0","0","77211","","null","","","null","51","","","","","","","","","","","","","","","",""
"","ITI","","html-keyboard-response","309","307623","0.0-1.0-468.0","0","0","77211","","90","","","68","51","","","","","","","","","","","","","","","d",""
"","S1","","html-keyboard-response","310","307878","0.0-1.0-470.0","0","0","77211","","null","","","null","52","","","","","","","","","","","","","","","",""
"","ISI","","html-keyboard-response","311","308385","0.0-1.0-471.0","0","0","77211","","129","","","75","52","k","","","","","","","","","","","","","","",""
"","S2","","html-keyboard-response","312","308399","0.0-1.0-472.0","0","0","77211","","10","","","68","52","","d","2","52","training","adjacent","BA","2","1","P.jpg","O.jpg","0","0","1","",""
"","feedback","","html-keyboard-response","313","309404","0.0-1.0-474.0-0.0","0","0","77211","","null","","","null","52","","","","","","","","","","","","","","","",""
"","ITI","","html-keyboard-response","314","310414","0.0-1.0-477.0","0","0","77211","","22","","","68","52","","","","","","","","","","","","","","","d",""
"","S1","","html-keyboard-response","315","310670","0.0-1.0-479.0","0","0","77211","","null","","","null","53","","","","","","","","","","","","","","","",""
"","ISI","","html-keyboard-response","316","311173","0.0-1.0-480.0","0","0","77211","","54","","","75","53","k","","","","","","","","","","","","","","",""
"","S2","","html-keyboard-response","317","311359","0.0-1.0-481.0","0","0","77211","","183","","","68","53","","d","2","53","training","adjacent","EF","5","6","L.jpg","Q.jpg","0","1","0","",""
"","feedback","","html-keyboard-response","318","312366","0.0-1.0-483.0-0.0","0","0","77211","","null","","","null","53","","","","","","","","","","","","","","","",""
"","time_out","","html-keyboard-response","319","314372","0.0-1.0-485.0-0.0","0","0","77211","","null","","","null","53","","","","","","","","","","","","","","","",""
"","ITI","","html-keyboard-response","320","315375","0.0-1.0-486.0","0","0","77211","","317","","","68","53","","","","","","","","","","","","","","","d",""
"","S1","","html-keyboard-response","321","315632","0.0-1.0-488.0","0","0","77211","","null","","","null","54","","","","","","","","","","","","","","","",""
"","ISI","","html-keyboard-response","322","316170","0.0-1.0-489.0","0","0","77211","","280","","","68","54","d","","","","","","","","","","","","","","",""
"","S2","","html-keyboard-response","323","316264","0.0-1.0-490.0","0","0","77211","","71","","","68","54","","d","2","54","training","adjacent","CD","3","4","N.jpg","M.jpg","0","1","0","",""
"","feedback","","html-keyboard-response","324","317272","0.0-1.0-492.0-0.0","0","0","77211","","null","","","null","54","","","","","","","","","","","","","","","",""
"","time_out","","html-keyboard-response","325","319281","0.0-1.0-494.0-0.0","0","0","77211","","null","","","null","54","","","","","","","","","","","","","","","",""
"","ITI","","html-keyboard-response","326","320287","0.0-1.0-495.0","0","0","77211","","26","","","75","54","","","","","","","","","","","","","","","k",""
"","S1","","html-keyboard-response","327","320542","0.0-1.0-497.0","0","0","77211","","null","","","null","55","","","","","","","","","","","","","","","",""
"","ISI","","html-keyboard-response","328","321044","0.0-1.0-498.0","0","0","77211","","145","","","75","55","k","","","","","","","","","","","","","","",""
"","S2","","html-keyboard-response","329","321138","0.0-1.0-499.0","0","0","77211","","88","","","68","55","","d","2","55","training","adjacent","BC","2","3","P.jpg","N.jpg","0","1","0","",""
"","feedback","","html-keyboard-response","330","322144","0.0-1.0-501.0-0.0","0","0","77211","","null","","","null","55","","","","","","","","","","","","","","","",""
"","time_out","","html-keyboard-response","331","324152","0.0-1.0-503.0-0.0","0","0","77211","","null","","","null","55","","","","","","","","","","","","","","","",""
"","ITI","","html-keyboard-response","332","325158","0.0-1.0-504.0","0","0","77211","","70","","","75","55","","","","","","","","","","","","","","","k",""
"","S1","","html-keyboard-response","333","325417","0.0-1.0-506.0","0","0","77211","","null","","","null","56","","","","","","","","","","","","","","","",""
"","ISI","","html-keyboard-response","334","325922","0.0-1.0-507.0","0","0","77211","","160","","","68","56","d","","","","","","","","","","","","","","",""
"","S2","","html-keyboard-response","335","326010","0.0-1.0-508.0","0","0","77211","","81","","","68","56","","d","2","56","training","adjacent","ED","5","4","L.jpg","M.jpg","0","0","1","",""
"","feedback","","html-keyboard-response","336","327016","0.0-1.0-510.0-0.0","0","0","77211","","null","","","null","56","","","","","","","","","","","","","","","",""
"","ITI","","html-keyboard-response","337","328021","0.0-1.0-513.0","0","0","77211","","214","","","68","56","","","","","","","","","","","","","","","d",""
"","S1","","html-keyboard-response","338","328278","0.0-1.0-515.0","0","0","77211","","null","","","null","57","","","","","","","","","","","","","","","",""
"","ISI","","html-keyboard-response","339","328788","0.0-1.0-516.0","0","0","77211","","48","","","68","57","d","","","","","","","","","","","","","","",""
"","S2","","html-keyboard-response","340","328920","0.0-1.0-517.0","0","0","77211","","127","","","68","57","","d","2","57","training","adjacent","ED","5","4","L.jpg","M.jpg","0","0","1","",""
"","feedback","","html-keyboard-response","341","329927","0.0-1.0-519.0-0.0","0","0","77211","","null","","","null","57","","","","","","","","","","","","","","","",""
"","ITI","","html-keyboard-response","342","330936","0.0-1.0-522.0","0","0","77211","","147","","","68","57","","","","","","","","","","","","","","","d",""
"","S1","","html-keyboard-response","343","331190","0.0-1.0-524.0","0","0","77211","","null","","","null","58","","","","","","","","","","","","","","","",""
"","ISI","","html-keyboard-response","344","331700","0.0-1.0-525.0","0","0","77211","","30","","","75","58","k","","","","","","","","","","","","","","",""
"","S2","","html-keyboard-response","345","331834","0.0-1.0-526.0","0","0","77211","","126","","","68","58","","d","2","58","training","adjacent","CD","3","4","N.jpg","M.jpg","0","1","0","",""
"","feedback","","html-keyboard-response","346","332839","0.0-1.0-528.0-0.0","0","0","77211","","null","","","null","58","","","","","","","","","","","","","","","",""
"","time_out","","html-keyboard-response","347","334845","0.0-1.0-530.0-0.0","0","0","77211","","null","","","null","58","","","","","","","","","","","","","","","",""
"","ITI","","html-keyboard-response","348","335852","0.0-1.0-531.0","0","0","77211","","366","","","68","58","","","","","","","","","","","","","","","d",""
"","S1","","html-keyboard-response","349","336107","0.0-1.0-533.0","0","0","77211","","null","","","null","59","","","","","","","","","","","","","","","",""
"","ISI","","html-keyboard-response","350","336610","0.0-1.0-534.0","0","0","77211","","265","","","75","59","k","","","","","","","","","","","","","","",""
"","S2","","html-keyboard-response","351","336711","0.0-1.0-535.0","0","0","77211","","94","","","68","59","","d","2","59","training","adjacent","BA","2","1","P.jpg","O.jpg","0","0","1","",""
"","feedback","","html-keyboard-response","352","337725","0.0-1.0-537.0-0.0","0","0","77211","","null","","","null","59","","","","","","","","","","","","","","","",""
"","ITI","","html-keyboard-response","353","338736","0.0-1.0-540.0","0","0","77211","","104","","","75","59","","","","","","","","","","","","","","","k",""
"","S1","","html-keyboard-response","354","338995","0.0-1.0-542.0","0","0","77211","","null","","","null","60","","","","","","","","","","","","","","","",""
"","ISI","","html-keyboard-response","355","339501","0.0-1.0-543.0","0","0","77211","","186","","","68","60","d","","","","","","","","","","","","","","",""
"","S2","","html-keyboard-response","356","339736","0.0-1.0-544.0","0","0","77211","","228","","","68","60","","d","2","60","training","adjacent","AB","1","2","O.jpg","P.jpg","0","1","0","",""
"","feedback","","html-keyboard-response","357","340747","0.0-1.0-546.0-0.0","0","0","77211","","null","","","null","60","","","","","","","","","","","","","","","",""
"","time_out","","html-keyboard-response","358","342760","0.0-1.0-548.0-0.0","0","0","77211","","null","","","null","60","","","","","","","","","","","","","","","",""
"","ITI","","html-keyboard-response","359","343769","0.0-1.0-549.0","0","0","77211","","326","","","75","60","","","","","","","","","","","","","","","k",""
"","S1","","html-keyboard-response","360","344024","0.0-1.0-551.0","0","0","77211","","null","","","null","61","","","","","","","","","","","","","","","",""
"","ISI","","html-keyboard-response","361","344531","0.0-1.0-552.0","0","0","77211","","33","","","75","61","k","","","","","","","","","","","","","","",""
"","S2","","html-keyboard-response","362","344623","0.0-1.0-553.0","0","0","77211","","84","","","68","61","","d","2","61","training","adjacent","CB","3","2","N.jpg","P.jpg","0","0","1","",""
"","feedback","","html-keyboard-response","363","345628","0.0-1.0-555.0-0.0","0","0","77211","","null","","","null","61","","","","","","","","","","","","","","","",""
"","ITI","","html-keyboard-response","364","346632","0.0-1.0-558.0","0","0","77211","","94","","","68","61","","","","","","","","","","","","","","","d",""
"","S1","","html-keyboard-response","365","346888","0.0-1.0-560.0","0","0","77211","","null","","","null","62","","","","","","","","","","","","","","","",""
"","ISI","","html-keyboard-response","366","347395","0.0-1.0-561.0","0","0","77211","","21","","","75","62","k","","","","","","","","","","","","","","",""
"","S2","","html-keyboard-response","367","347565","0.0-1.0-562.0","0","0","77211","","156","","","75","62","","k","2","62","training","adjacent","FG","6","7","Q.jpg","R.jpg","1","1","1","",""
"","feedback","","html-keyboard-response","368","348579","0.0-1.0-564.0-0.0","0","0","77211","","null","","","null","62","","","","","","","","","","","","","","","",""
"","ITI","","html-keyboard-response","369","349587","0.0-1.0-567.0","0","0","77211","","186","","","75","62","","","","","","","","","","","","","","","k",""
"","S1","","html-keyboard-response","370","349847","0.0-1.0-569.0","0","0","77211","","null","","","null","63","","","","","","","","","","","","","","","",""
"","ISI","","html-keyboard-response","371","350350","0.0-1.0-570.0","0","0","77211","","17","","","75","63","k","","","","","","","","","","","","","","",""
"","S2","","html-keyboard-response","372","350428","0.0-1.0-571.0","0","0","77211","","73","","","75","63","","k","2","63","training","adjacent","GF","7","6","R.jpg","Q.jpg","1","0","0","",""
"","feedback","","html-keyboard-response","373","351436","0.0-1.0-573.0-0.0","0","0","77211","","null","","","null","63","","","","","","","","","","","","","","","",""
"","time_out","","html-keyboard-response","374","353446","0.0-1.0-575.0-0.0","0","0","77211","","null","","","null","63","","","","","","","","","","","","","","","",""
"","ITI","","html-keyboard-response","375","354450","0.0-1.0-576.0","0","0","77211","","1","","","75","63","","","","","","","","","","","","","","","k",""
"","S1","","html-keyboard-response","376","354707","0.0-1.0-578.0","0","0","77211","","null","","","null","64","","","","","","","","","","","","","","","",""
"","ISI","","html-keyboard-response","377","355213","0.0-1.0-579.0","0","0","77211","","232","","","75","64","k","","","","","","","","","","","","","","",""
"","S2","","html-keyboard-response","378","355234","0.0-1.0-580.0","0","0","77211","","17","","","75","64","","k","2","64","training","adjacent","DE","4","5","M.jpg","L.jpg","1","1","1","",""
"","feedback","","html-keyboard-response","379","356239","0.0-1.0-582.0-0.0","0","0","77211","","null","","","null","64","","","","","","","","","","","","","","","",""
"","ITI","","html-keyboard-response","380","357245","0.0-1.0-585.0","0","0","77211","","1","","","75","64","","","","","","","","","","","","","","","k",""
"","S1","","html-keyboard-response","381","357500","0.0-1.0-587.0","0","0","77211","","null","","","null","65","","","","","","","","","","","","","","","",""
"","ISI","","html-keyboard-response","382","358005","0.0-1.0-588.0","0","0","77211","","null","","","null","65","NaN","","","","","","","","","","","","","","",""
"","S2","","html-keyboard-response","383","358261","0.0-1.0-589.0","0","0","77211","","null","","","null","65","","NaN","","","","","","","","","","","","","",""
"","response","","html-keyboard-response","384","358511","0.0-1.0-590.0-0.0","0","0","77211","","244","","","75","65","","","2","65","training","adjacent","ED","5","4","L.jpg","M.jpg","1","0","0","",""
"","feedback","","html-keyboard-response","385","359518","0.0-1.0-591.0-0.0","0","0","77211","","null","","","null","65","","","","","","","","","","","","","","","",""
"","time_out","","html-keyboard-response","386","361526","0.0-1.0-593.0-0.0","0","0","77211","","null","","","null","65","","","","","","","","","","","","","","","",""
"","ITI","","html-keyboard-response","387","362533","0.0-1.0-594.0","0","0","77211","","186","","","75","65","","","","","","","","","","","","","","","k",""
"","S1","","html-keyboard-response","388","362789","0.0-1.0-596.0","0","0","77211","","null","","","null","66","","","","","","","","","","","","","","","",""
"","ISI","","html-keyboard-response","389","363294","0.0-1.0-597.0","0","0","77211","","59","","","68","66","d","","","","","","","","","","","","","","",""
"","S2","","html-keyboard-response","390","363371","0.0-1.0-598.0","0","0","77211","","70","","","68","66","","d","2","66","training","adjacent","FG","6","7","Q.jpg","R.jpg","0","1","0","",""
"","feedback","","html-keyboard-response","391","364376","0.0-1.0-600.0-0.0","0","0","77211","","null","","","null","66","","","","","","","","","","","","","","","",""
"","time_out","","html-keyboard-response","392","366385","0.0-1.0-602.0-0.0","0","0","77211","","null","","","null","66","","","","","","","","","","","","","","","",""
"","ITI","","html-keyboard-response","393","367390","0.0-1.0-603.0","0","0","77211","","50","","","75","66","","","","","","","","","","","","","","","k",""
"","S1","","html-keyboard-response","394","367643","0.0-1.0-605.0","0","0","77211","","null","","","null","67","","","","","","","","","","","","","","","",""
"","ISI","","html-keyboard-response","395","368152","0.0-1.0-606.0","0","0","77211","","266","","","68","67","d","","","","","","","","","","","","","","",""
"","S2","","html-keyboard-response","396","368409","0.0-1.0-607.0","0","0","77211","","null","","","null","67","","NaN","","","","","","","","","","","","","",""
"","response","","html-keyboard-response","397","368644","0.0-1.0-608.0-0.0","0","0","77211","","231","","","68","67","","","2","67","training","adjacent","AB","1","2","O.jpg","P.jpg","0","1","0","",""
"","feedback","","html-keyboard-response","398","369652","0.0-1.0-609.0-0.0","0","0","77211","","null","","","null","67","","","","","","","","","","","","","","","",""
"","time_out","","html-keyboard-response","399","371657","0.0-1.0-611.0-0.0","0","0","77211","","null","","","null","67","","","","","","","","","","","","","","","",""
"","ITI","","html-keyboard-response","400","372665","0.0-1.0-612.0","0","0","77211","","144","","","68","67","","","","","","","","","","","","","","","d",""
"","S1","","html-keyboard-response","401","372923","0.0-1.0-614.0","0","0","77211","","null","","","null","68","","","","","","","","","","","","","","","",""
"","ISI","","html-keyboard-response","402","373429","0.0-1.0-615.0","0","0","77211","","306","","","68","68","d","","","","","","","","","","","","","","",""
"","S2","","html-keyboard-response","403","373446","0.0-1.0-616.0","0","0","77211","","14","","","68","68","","d","2","68","training","adjacent","GF","7","6","R.jpg","Q.jpg","0","0","1","",""
"","feedback","","html-keyboard-response","404","374450","0.0-1.0-618.0-0.0","0","0","77211","","null","","","null","68","","","","","","","","","","","","","","","",""
"","ITI","","html-keyboard-response","405","375459","0.0-1.0-621.0","0","0","77211","","213","","","68","68","","","","","","","","","","","","","","","d",""
"","S1","","html-keyboard-response","406","375715","0.0-1.0-623.0","0","0","77211","","null","","","null","69","","","","","","","","","","","","","","","",""
"","ISI","","html-keyboard-response","407","376221","0.0-1.0-624.0","0","0","77211","","94","","","68","69","d","","","","","","","","","","","","","","",""
"","S2","","html-keyboard-response","408","376482","0.0-1.0-625.0","0","0","77211","","null","","","null","69","","NaN","","","","","","","","","","","","","",""
"","response","","html-keyboard-response","409","377131","0.0-1.0-626.0-0.0","0","0","77211","","642","","","75","69","","","2","69","training","adjacent","DE","4","5","M.jpg","L.jpg","1","1","1","",""
"","feedback","","html-keyboard-response","410","378138","0.0-1.0-627.0-0.0","0","0","77211","","null","","","null","69","","","","","","","","","","","","","","","",""
"","ITI","","html-keyboard-response","411","379143","0.0-1.0-630.0","0","0","77211","","null","","","null","69","","","","","","","","","","","","","","","NaN",""
"","S1","","html-keyboard-response","412","379400","0.0-1.0-632.0","0","0","77211","","null","","","null","70","","","","","","","","","","","","","","","",""
"","ISI","","html-keyboard-response","413","379906","0.0-1.0-633.0","0","0","77211","","null","","","null","70","NaN","","","","","","","","","","","","","","",""
"","S2","","html-keyboard-response","414","380161","0.0-1.0-634.0","0","0","77211","","null","","","null","70","","NaN","","","","","","","","","","","","","",""
"","response","","html-keyboard-response","415","380392","0.0-1.0-635.0-0.0","0","0","77211","","226","","","75","70","","","2","70","training","adjacent","FE","6","5","Q.jpg","L.jpg","1","0","0","",""
"","feedback","","html-keyboard-response","416","381398","0.0-1.0-636.0-0.0","0","0","77211","","null","","","null","70","","","","","","","","","","","","","","","",""
"","time_out","","html-keyboard-response","417","383407","0.0-1.0-638.0-0.0","0","0","77211","","null","","","null","70","","","","","","","","","","","","","","","",""
"","ITI","","html-keyboard-response","418","384417","0.0-1.0-639.0","0","0","77211","","376","","","75","70","","","","","","","","","","","","","","","k",""
"","S1","","html-keyboard-response","419","384672","0.0-1.0-641.0","0","0","77211","","null","","","null","71","","","","","","","","","","","","","","","",""
"","ISI","","html-keyboard-response","420","385178","0.0-1.0-642.0","0","0","77211","","null","","","null","71","NaN","","","","","","","","","","","","","","",""
"","S2","","html-keyboard-response","421","385433","0.0-1.0-643.0","0","0","77211","","null","","","null","71","","NaN","","","","","","","","","","","","","",""
"","response","","html-keyboard-response","422","386263","0.0-1.0-644.0-0.0","0","0","77211","","824","","","75","71","","","2","71","training","adjacent","EF","5","6","L.jpg","Q.jpg","1","1","1","",""
"","feedback","","html-keyboard-response","423","387267","0.0-1.0-645.0-0.0","0","0","77211","","null","","","null","71","","","","","","","","","","","","","","","",""
"","ITI","","html-keyboard-response","424","388273","0.0-1.0-648.0","0","0","77211","","73","","","83","71","","","","","","","","","","","","","","","s",""
"","S1","","html-keyboard-response","425","388528","0.0-1.0-650.0","0","0","77211","","null","","","null","72","","","","","","","","","","","","","","","",""
"","ISI","","html-keyboard-response","426","389033","0.0-1.0-651.0","0","0","77211","","43","","","75","72","k","","","","","","","","","","","","","","",""
"","S2","","html-keyboard-response","427","389291","0.0-1.0-652.0","0","0","77211","","null","","","null","72","","NaN","","","","","","","","","","","","","",""
"","response","","html-keyboard-response","428","389411","0.0-1.0-653.0-0.0","0","0","77211","","113","","","75","72","","","2","72","training","adjacent","CD","3","4","N.jpg","M.jpg","1","1","1","",""
"","feedback","","html-keyboard-response","429","390416","0.0-1.0-654.0-0.0","0","0","77211","","null","","","null","72","","","","","","","","","","","","","","","",""
"","ITI","","html-keyboard-response","430","391420","0.0-1.0-657.0","0","0","77211","","44","","","75","72","","","","","","","","","","","","","","","k",""
"","S1","","html-keyboard-response","431","391676","0.0-1.0-659.0","0","0","77211","","null","","","null","73","","","","","","","","","","","","","","","",""
"","ISI","","html-keyboard-response","432","392181","0.0-1.0-660.0","0","0","77211","","78","","","83","73","s","","","","","","","","","","","","","","",""
"","S2","","html-keyboard-response","433","392437","0.0-1.0-661.0","0","0","77211","","null","","","null","73","","NaN","","","","","","","","","","","","","",""
"","response","","html-keyboard-response","434","393648","0.0-1.0-662.0-0.0","0","0","77211","","1207","","","68","73","","","2","73","training","adjacent","BC","2","3","P.jpg","N.jpg","0","1","0","",""
"","feedback","","html-keyboard-response","435","394653","0.0-1.0-663.0-0.0","0","0","77211","","null","","","null","73","","","","","","","","","","","","","","","",""
"","time_out","","html-keyboard-response","436","396659","0.0-1.0-665.0-0.0","0","0","77211","","null","","","null","73","","","","","","","","","","","","","","","",""
"","ITI","","html-keyboard-response","437","397664","0.0-1.0-666.0","0","0","77211","","98","","","68","73","","","","","","","","","","","","","","","d",""
"","S1","","html-keyboard-response","438","397921","0.0-1.0-668.0","0","0","77211","","null","","","null","74","","","","","","","","","","","","","","","",""
"","ISI","","html-keyboard-response","439","398428","0.0-1.0-669.0","0","0","77211","","271","","","75","74","k","","","","","","","","","","","","","","",""
"","S2","","html-keyboard-response","440","398585","0.0-1.0-670.0","0","0","77211","","153","","","75","74","","k","2","74","training","adjacent","GF","7","6","R.jpg","Q.jpg","1","0","0","",""
"","feedback","","html-keyboard-response","441","399593","0.0-1.0-672.0-0.0","0","0","77211","","null","","","null","74","","","","","","","","","","","","","","","",""
"","time_out","","html-keyboard-response","442","401601","0.0-1.0-674.0-0.0","0","0","77211","","null","","","null","74","","","","","","","","","","","","","","","",""
"","ITI","","html-keyboard-response","443","402611","0.0-1.0-675.0","0","0","77211","","218","","","68","74","","","","","","","","","","","","","","","d",""
"","S1","","html-keyboard-response","444","402866","0.0-1.0-677.0","0","0","77211","","null","","","null","75","","","","","","","","","","","","","","","",""
"","ISI","","html-keyboard-response","445","403375","0.0-1.0-678.0","0","0","77211","","132","","","68","75","d","","","","","","","","","","","","","","",""
"","S2","","html-keyboard-response","446","403388","0.0-1.0-679.0","0","0","77211","","8","","","68","75","","d","2","75","training","adjacent","DC","4","3","M.jpg","N.jpg","0","0","1","",""
"","feedback","","html-keyboard-response","447","404399","0.0-1.0-681.0-0.0","0","0","77211","","null","","","null","75","","","","","","","","","","","","","","","",""
"","ITI","","html-keyboard-response","448","405406","0.0-1.0-684.0","0","0","77211","","82","","","68","75","","","","","","","","","","","","","","","d",""
"","S1","","html-keyboard-response","449","405662","0.0-1.0-686.0","0","0","77211","","null","","","null","76","","","","","","","","","","","","","","","",""
"","ISI","","html-keyboard-response","450","406165","0.0-1.0-687.0","0","0","77211","","221","","","68","76","d","","","","","","","","","","","","","","",""
"","S2","","html-keyboard-response","451","406358","0.0-1.0-688.0","0","0","77211","","188","","","68","76","","d","2","76","training","adjacent","CB","3","2","N.jpg","P.jpg","0","0","1","",""
"","feedback","","html-keyboard-response","452","407365","0.0-1.0-690.0-0.0","0","0","77211","","null","","","null","76","","","","","","","","","","","","","","","",""
"","ITI","","html-keyboard-response","453","408373","0.0-1.0-693.0","0","0","77211","","14","","","75","76","","","","","","","","","","","","","","","k",""
"","S1","","html-keyboard-response","454","408631","0.0-1.0-695.0","0","0","77211","","null","","","null","77","","","","","","","","","","","","","","","",""
"","ISI","","html-keyboard-response","455","409139","0.0-1.0-696.0","0","0","77211","","87","","","68","77","d","","","","","","","","","","","","","","",""
"","S2","","html-keyboard-response","456","409230","0.0-1.0-697.0","0","0","77211","","81","","","68","77","","d","2","77","training","adjacent","FE","6","5","Q.jpg","L.jpg","0","0","1","",""
"","feedback","","html-keyboard-response","457","410278","0.0-1.0-699.0-0.0","0","0","77211","","null","","","null","77","","","","","","","","","","","","","","","",""
"","ITI","","html-keyboard-response","458","411284","0.0-1.0-702.0","0","0","77211","","5","","","75","77","","","","","","","","","","","","","","","k",""
"","S1","","html-keyboard-response","459","411538","0.0-1.0-704.0","0","0","77211","","null","","","null","78","","","","","","","","","","","","","","","",""
"","ISI","","html-keyboard-response","460","412041","0.0-1.0-705.0","0","0","77211","","41","","","75","78","k","","","","","","","","","","","","","","",""
"","S2","","html-keyboard-response","461","412302","0.0-1.0-706.0","0","0","77211","","null","","","null","78","","NaN","","","","","","","","","","","","","",""
"","response","","html-keyboard-response","462","412310","0.0-1.0-707.0-0.0","0","0","77211","","1","","","75","78","","","2","78","training","adjacent","FG","6","7","Q.jpg","R.jpg","1","1","1","",""
"","feedback","","html-keyboard-response","463","413321","0.0-1.0-708.0-0.0","0","0","77211","","null","","","null","78","","","","","","","","","","","","","","","",""
"","ITI","","html-keyboard-response","464","414325","0.0-1.0-711.0","0","0","77211","","142","","","75","78","","","","","","","","","","","","","","","k",""
"","S1","","html-keyboard-response","465","414582","0.0-1.0-713.0","0","0","77211","","null","","","null","79","","","","","","","","","","","","","","","",""
"","ISI","","html-keyboard-response","466","415115","0.0-1.0-714.0","0","0","77211","","7","","","75","79","k","","","","","","","","","","","","","","",""
"","S2","","html-keyboard-response","467","415130","0.0-1.0-715.0","0","0","77211","","11","","","75","79","","k","2","79","training","adjacent","CD","3","4","N.jpg","M.jpg","1","1","1","",""
"","feedback","","html-keyboard-response","468","416137","0.0-1.0-717.0-0.0","0","0","77211","","null","","","null","79","","","","","","","","","","","","","","","",""
"","ITI","","html-keyboard-response","469","417142","0.0-1.0-720.0","0","0","77211","","280","","","75","79","","","","","","","","","","","","","","","k",""
"","S1","","html-keyboard-response","470","417449","0.0-1.0-722.0","0","0","77211","","null","","","null","80","","","","","","","","","","","","","","","",""
"","ISI","","html-keyboard-response","471","417965","0.0-1.0-723.0","0","0","77211","","88","","","75","80","k","","","","","","","","","","","","","","",""
"","S2","","html-keyboard-response","472","417969","0.0-1.0-724.0","0","0","77211","","0","","","75","80","","k","2","80","training","adjacent","CB","3","2","N.jpg","P.jpg","1","0","0","",""
"","feedback","","html-keyboard-response","473","418973","0.0-1.0-726.0-0.0","0","0","77211","","null","","","null","80","","","","","","","","","","","","","","","",""
"","time_out","","html-keyboard-response","474","420984","0.0-1.0-728.0-0.0","0","0","77211","","null","","","null","80","","","","","","","","","","","","","","","",""
"","ITI","","html-keyboard-response","475","421991","0.0-1.0-729.0","0","0","77211","","129","","","68","80","","","","","","","","","","","","","","","d",""
"","S1","","html-keyboard-response","476","422256","0.0-1.0-731.0","0","0","77211","","null","","","null","81","","","","","","","","","","","","","","","",""
"","ISI","","html-keyboard-response","477","422758","0.0-1.0-732.0","0","0","77211","","164","","","68","81","d","","","","","","","","","","","","","","",""
"","S2","","html-keyboard-response","478","422777","0.0-1.0-733.0","0","0","77211","","14","","","75","81","","k","2","81","training","adjacent","DC","4","3","M.jpg","N.jpg","1","0","0","",""
"","feedback","","html-keyboard-response","479","423790","0.0-1.0-735.0-0.0","0","0","77211","","null","","","null","81","","","","","","","","","","","","","","","",""
"","time_out","","html-keyboard-response","480","425796","0.0-1.0-737.0-0.0","0","0","77211","","null","","","null","81","","","","","","","","","","","","","","","",""
"","ITI","","html-keyboard-response","481","426800","0.0-1.0-738.0","0","0","77211","","45","","","68","81","","","","","","","","","","","","","","","d",""
"","S1","","html-keyboard-response","482","427055","0.0-1.0-740.0","0","0","77211","","null","","","null","82","","","","","","","","","","","","","","","",""
"","ISI","","html-keyboard-response","483","427561","0.0-1.0-741.0","0","0","77211","","144","","","75","82","k","","","","","","","","","","","","","","",""
"","S2","","html-keyboard-response","484","427763","0.0-1.0-742.0","0","0","77211","","198","","","75","82","","k","2","82","training","adjacent","FE","6","5","Q.jpg","L.jpg","1","0","0","",""
"","feedback","","html-keyboard-response","485","428770","0.0-1.0-744.0-0.0","0","0","77211","","null","","","null","82","","","","","","","","","","","","","","","",""
"","time_out","","html-keyboard-response","486","430777","0.0-1.0-746.0-0.0","0","0","77211","","null","","","null","82","","","","","","","","","","","","","","","",""
"","ITI","","html-keyboard-response","487","431782","0.0-1.0-747.0","0","0","77211","","11","","","75","82","","","","","","","","","","","","","","","k",""
"","S1","","html-keyboard-response","488","432039","0.0-1.0-749.0","0","0","77211","","null","","","null","83","","","","","","","","","","","","","","","",""
"","ISI","","html-keyboard-response","489","432546","0.0-1.0-750.0","0","0","77211","","203","","","75","83","k","","","","","","","","","","","","","","",""
"","S2","","html-keyboard-response","490","432601","0.0-1.0-751.0","0","0","77211","","48","","","68","83","","d","2","83","training","adjacent","BC","2","3","P.jpg","N.jpg","0","1","0","",""
"","feedback","","html-keyboard-response","491","433610","0.0-1.0-753.0-0.0","0","0","77211","","null","","","null","83","","","","","","","","","","","","","","","",""
"","time_out","","html-keyboard-response","492","435618","0.0-1.0-755.0-0.0","0","0","77211","","null","","","null","83","","","","","","","","","","","","","","","",""
"","ITI","","html-keyboard-response","493","436621","0.0-1.0-756.0","0","0","77211","","63","","","68","83","","","","","","","","","","","","","","","d",""
"","S1","","html-keyboard-response","494","436878","0.0-1.0-758.0","0","0","77211","","null","","","null","84","","","","","","","","","","","","","","","",""
"","ISI","","html-keyboard-response","495","437381","0.0-1.0-759.0","0","0","77211","","341","","","68","84","d","","","","","","","","","","","","","","",""
"","S2","","html-keyboard-response","496","437401","0.0-1.0-760.0","0","0","77211","","16","","","75","84","","k","2","84","training","adjacent","DE","4","5","M.jpg","L.jpg","1","1","1","",""
"","feedback","","html-keyboard-response","497","438638","0.0-1.0-762.0-0.0","0","0","77211","","null","","","null","84","","","","","","","","","","","","","","","",""
"","ITI","","html-keyboard-response","498","439651","0.0-1.0-765.0","0","0","77211","","2","","","68","84","","","","","","","","","","","","","","","d",""
"","S1","","html-keyboard-response","499","439907","0.0-1.0-767.0","0","0","77211","","null","","","null","85","","","","","","","","","","","","","","","",""
"","ISI","","html-keyboard-response","500","440414","0.0-1.0-768.0","0","0","77211","","69","","","68","85","d","","","","","","","","","","","","","","",""
"","S2","","html-keyboard-response","501","440440","0.0-1.0-769.0","0","0","77211","","17","","","68","85","","d","2","85","training","adjacent","EF","5","6","L.jpg","Q.jpg","0","1","0","",""
"","feedback","","html-keyboard-response","502","441446","0.0-1.0-771.0-0.0","0","0","77211","","null","","","null","85","","","","","","","","","","","","","","","",""
"","time_out","","html-keyboard-response","503","443452","0.0-1.0-773.0-0.0","0","0","77211","","null","","","null","85","","","","","","","","","","","","","","","",""
"","ITI","","html-keyboard-response","504","444460","0.0-1.0-774.0","0","0","77211","","88","","","75","85","","","","","","","","","","","","","","","k",""
"","S1","","html-keyboard-response","505","444719","0.0-1.0-776.0","0","0","77211","","null","","","null","86","","","","","","","","","","","","","","","",""
"","ISI","","html-keyboard-response","506","445239","0.0-1.0-777.0","0","0","77211","","293","","","68","86","d","","","","","","","","","","","","","","",""
"","S2","","html-keyboard-response","507","445462","0.0-1.0-778.0","0","0","77211","","211","","","68","86","","d","2","86","training","adjacent","GF","7","6","R.jpg","Q.jpg","0","0","1","",""
"","feedback","","html-keyboard-response","508","446468","0.0-1.0-780.0-0.0","0","0","77211","","null","","","null","86","","","","","","","","","","","","","","","",""
"","ITI","","html-keyboard-response","509","447476","0.0-1.0-783.0","0","0","77211","","398","","","75","86","","","","","","","","","","","","","","","k",""
"","S1","","html-keyboard-response","510","447732","0.0-1.0-785.0","0","0","77211","","null","","","null","87","","","","","","","","","","","","","","","",""
"","ISI","","html-keyboard-response","511","448235","0.0-1.0-786.0","0","0","77211","","471","","","75","87","k","","","","","","","","","","","","","","",""
"","S2","","html-keyboard-response","512","448390","0.0-1.0-787.0","0","0","77211","","151","","","75","87","","k","2","87","training","adjacent","ED","5","4","L.jpg","M.jpg","1","0","0","",""
"","feedback","","html-keyboard-response","513","449397","0.0-1.0-789.0-0.0","0","0","77211","","null","","","null","87","","","","","","","","","","","","","","","",""
"","time_out","","html-keyboard-response","514","451406","0.0-1.0-791.0-0.0","0","0","77211","","null","","","null","87","","","","","","","","","","","","","","","",""
"","ITI","","html-keyboard-response","515","452415","0.0-1.0-792.0","0","0","77211","","155","","","75","87","","","","","","","","","","","","","","","k",""
"","S1","","html-keyboard-response","516","452673","0.0-1.0-794.0","0","0","77211","","null","","","null","88","","","","","","","","","","","","","","","",""
"","ISI","","html-keyboard-response","517","453179","0.0-1.0-795.0","0","0","77211","","39","","","68","88","d","","","","","","","","","","","","","","",""
"","S2","","html-keyboard-response","518","453351","0.0-1.0-796.0","0","0","77211","","167","","","75","88","","k","2","88","training","adjacent","FE","6","5","Q.jpg","L.jpg","1","0","0","",""
"","feedback","","html-keyboard-response","519","454357","0.0-1.0-798.0-0.0","0","0","77211","","null","","","null","88","","","","","","","","","","","","","","","",""
"","time_out","","html-keyboard-response","520","456366","0.0-1.0-800.0-0.0","0","0","77211","","null","","","null","88","","","","","","","","","","","","","","","",""
"","ITI","","html-keyboard-response","521","457371","0.0-1.0-801.0","0","0","77211","","112","","","75","88","","","","","","","","","","","","","","","k",""
"","S1","","html-keyboard-response","522","457627","0.0-1.0-803.0","0","0","77211","","null","","","null","89","","","","","","","","","","","","","","","",""
"","ISI","","html-keyboard-response","523","458130","0.0-1.0-804.0","0","0","77211","","173","","","75","89","k","","","","","","","","","","","","","","",""
"","S2","","html-keyboard-response","524","458206","0.0-1.0-805.0","0","0","77211","","68","","","75","89","","k","2","89","training","adjacent","CB","3","2","N.jpg","P.jpg","1","0","0","",""
"","feedback","","html-keyboard-response","525","459213","0.0-1.0-807.0-0.0","0","0","77211","","null","","","null","89","","","","","","","","","","","","","","","",""
"","time_out","","html-keyboard-response","526","461222","0.0-1.0-809.0-0.0","0","0","77211","","null","","","null","89","","","","","","","","","","","","","","","",""
"","ITI","","html-keyboard-response","527","462237","0.0-1.0-810.0","0","0","77211","","215","","","75","89","","","","","","","","","","","","","","","k",""
"","S1","","html-keyboard-response","528","462493","0.0-1.0-812.0","0","0","77211","","null","","","null","90","","","","","","","","","","","","","","","",""
"","ISI","","html-keyboard-response","529","462998","0.0-1.0-813.0","0","0","77211","","75","","","75","90","k","","","","","","","","","","","","","","",""
"","S2","","html-keyboard-response","530","463176","0.0-1.0-814.0","0","0","77211","","170","","","75","90","","k","2","90","training","adjacent","DE","4","5","M.jpg","L.jpg","1","1","1","",""
"","feedback","","html-keyboard-response","531","464186","0.0-1.0-816.0-0.0","0","0","77211","","null","","","null","90","","","","","","","","","","","","","","","",""
"","ITI","","html-keyboard-response","532","465193","0.0-1.0-819.0","0","0","77211","","404","","","68","90","","","","","","","","","","","","","","","d",""
"","S1","","html-keyboard-response","533","465448","0.0-1.0-821.0","0","0","77211","","null","","","null","91","","","","","","","","","","","","","","","",""
"","ISI","","html-keyboard-response","534","465954","0.0-1.0-822.0","0","0","77211","","152","","","75","91","k","","","","","","","","","","","","","","",""
"","S2","","html-keyboard-response","535","465986","0.0-1.0-823.0","0","0","77211","","26","","","68","91","","d","2","91","training","adjacent","DC","4","3","M.jpg","N.jpg","0","0","1","",""
"","feedback","","html-keyboard-response","536","466993","0.0-1.0-825.0-0.0","0","0","77211","","null","","","null","91","","","","","","","","","","","","","","","",""
"","ITI","","html-keyboard-response","537","468001","0.0-1.0-828.0","0","0","77211","","39","","","68","91","","","","","","","","","","","","","","","d",""
"","S1","","html-keyboard-response","538","468256","0.0-1.0-830.0","0","0","77211","","null","","","null","92","","","","","","","","","","","","","","","",""
"","ISI","","html-keyboard-response","539","468760","0.0-1.0-831.0","0","0","77211","","92","","","68","92","d","","","","","","","","","","","","","","",""
"","S2","","html-keyboard-response","540","468966","0.0-1.0-832.0","0","0","77211","","201","","","75","92","","k","2","92","training","adjacent","EF","5","6","L.jpg","Q.jpg","1","1","1","",""
"","feedback","","html-keyboard-response","541","469985","0.0-1.0-834.0-0.0","0","0","77211","","null","","","null","92","","","","","","","","","","","","","","","",""
"","ITI","","html-keyboard-response","542","470990","0.0-1.0-837.0","0","0","77211","","26","","","75","92","","","","","","","","","","","","","","","k",""
"","S1","","html-keyboard-response","543","471243","0.0-1.0-839.0","0","0","77211","","null","","","null","93","","","","","","","","","","","","","","","",""
"","ISI","","html-keyboard-response","544","471749","0.0-1.0-840.0","0","0","77211","","203","","","75","93","k","","","","","","","","","","","","","","",""
"","S2","","html-keyboard-response","545","471897","0.0-1.0-841.0","0","0","77211","","140","","","75","93","","k","2","93","training","adjacent","DC","4","3","M.jpg","N.jpg","1","0","0","",""
"","feedback","","html-keyboard-response","546","472904","0.0-1.0-843.0-0.0","0","0","77211","","null","","","null","93","","","","","","","","","","","","","","","",""
"","time_out","","html-keyboard-response","547","474910","0.0-1.0-845.0-0.0","0","0","77211","","null","","","null","93","","","","","","","","","","","","","","","",""
"","ITI","","html-keyboard-response","548","475919","0.0-1.0-846.0","0","0","77211","","19","","","75","93","","","","","","","","","","","","","","","k",""
"","S1","","html-keyboard-response","549","476176","0.0-1.0-848.0","0","0","77211","","null","","","null","94","","","","","","","","","","","","","","","",""
"","ISI","","html-keyboard-response","550","476683","0.0-1.0-849.0","0","0","77211","","null","","","null","94","NaN","","","","","","","","","","","","","","",""
"","S2","","html-keyboard-response","551","476939","0.0-1.0-850.0","0","0","77211","","null","","","null","94","","NaN","","","","","","","","","","","","","",""
"","response","","html-keyboard-response","552","477181","0.0-1.0-851.0-0.0","0","0","77211","","236","","","68","94","","","2","94","training","adjacent","BA","2","1","P.jpg","O.jpg","0","0","1","",""
"","feedback","","html-keyboard-response","553","478189","0.0-1.0-852.0-0.0","0","0","77211","","null","","","null","94","","","","","","","","","","","","","","","",""
"","ITI","","html-keyboard-response","554","479193","0.0-1.0-855.0","0","0","77211","","257","","","68","94","","","","","","","","","","","","","","","d",""
"","S1","","html-keyboard-response","555","479447","0.0-1.0-857.0","0","0","77211","","null","","","null","95","","","","","","","","","","","","","","","",""
"","ISI","","html-keyboard-response","556","479953","0.0-1.0-858.0","0","0","77211","","78","","","68","95","d","","","","","","","","","","","","","","",""
"","S2","","html-keyboard-response","557","480014","0.0-1.0-859.0","0","0","77211","","54","","","68","95","","d","2","95","training","adjacent","AB","1","2","O.jpg","P.jpg","0","1","0","",""
"","feedback","","html-keyboard-response","558","481019","0.0-1.0-861.0-0.0","0","0","77211","","null","","","null","95","","","","","","","","","","","","","","","",""
"","time_out","","html-keyboard-response","559","483027","0.0-1.0-863.0-0.0","0","0","77211","","null","","","null","95","","","","","","","","","","","","","","","",""
"","ITI","","html-keyboard-response","560","484032","0.0-1.0-864.0","0","0","77211","","56","","","68","95","","","","","","","","","","","","","","","d",""
"","block_over","","html-keyboard-response","561","489343","0.0-1.0-865.0-0.0","0","0","77211","","5302","","","32","95","","","","","","","","","","","","","","","",""
"","S1","","html-keyboard-response","562","489599","0.0-1.0-866.0","0","0","77211","","null","","","null","96","","","","","","","","","","","","","","","",""
"","ISI","","html-keyboard-response","563","490106","0.0-1.0-867.0","0","0","77211","","null","","","null","96","NaN","","","","","","","","","","","","","","",""
"","S2","","html-keyboard-response","564","490368","0.0-1.0-868.0","0","0","77211","","null","","","null","96","","NaN","","","","","","","","","","","","","",""
"","response","","html-keyboard-response","565","490844","0.0-1.0-869.0-0.0","0","0","77211","","469","","","75","96","","","3","96","training","adjacent","AB","1","2","O.jpg","P.jpg","1","1","1","",""
"","feedback","","html-keyboard-response","566","491852","0.0-1.0-870.0-0.0","0","0","77211","","null","","","null","96","","","","","","","","","","","","","","","",""
"","ITI","","html-keyboard-response","567","492858","0.0-1.0-873.0","0","0","77211","","21","","","68","96","","","","","","","","","","","","","","","d",""
"","S1","","html-keyboard-response","568","493113","0.0-1.0-875.0","0","0","77211","","null","","","null","97","","","","","","","","","","","","","","","",""
"","ISI","","html-keyboard-response","569","493614","0.0-1.0-876.0","0","0","77211","","null","","","null","97","NaN","","","","","","","","","","","","","","",""
"","S2","","html-keyboard-response","570","493789","0.0-1.0-877.0","0","0","77211","","171","","","75","97","","k","3","97","training","adjacent","EF","5","6","L.jpg","Q.jpg","1","1","1","",""
"","feedback","","html-keyboard-response","571","494793","0.0-1.0-879.0-0.0","0","0","77211","","null","","","null","97","","","","","","","","","","","","","","","",""
"","ITI","","html-keyboard-response","572","495800","0.0-1.0-882.0","0","0","77211","","120","","","68","97","","","","","","","","","","","","","","","d",""
"","S1","","html-keyboard-response","573","496061","0.0-1.0-884.0","0","0","77211","","null","","","null","98","","","","","","","","","","","","","","","",""
"","ISI","","html-keyboard-response","574","496566","0.0-1.0-885.0","0","0","77211","","210","","","68","98","d","","","","","","","","","","","","","","",""
"","S2","","html-keyboard-response","575","496574","0.0-1.0-886.0","0","0","77211","","2","","","68","98","","d","3","98","training","adjacent","ED","5","4","L.jpg","M.jpg","0","0","1","",""
"","feedback","","html-keyboard-response","576","497585","0.0-1.0-888.0-0.0","0","0","77211","","null","","","null","98","","","","","","","","","","","","","","","",""
"","ITI","","html-keyboard-response","577","498590","0.0-1.0-891.0","0","0","77211","","55","","","68","98","","","","","","","","","","","","","","","d",""
"","S1","","html-keyboard-response","578","498845","0.0-1.0-893.0","0","0","77211","","null","","","null","99","","","","","","","","","","","","","","","",""
"","ISI","","html-keyboard-response","579","499352","0.0-1.0-894.0","0","0","77211","","221","","","75","99","k","","","","","","","","","","","","","","",""
"","S2","","html-keyboard-response","580","499504","0.0-1.0-895.0","0","0","77211","","145","","","68","99","","d","3","99","training","adjacent","FE","6","5","Q.jpg","L.jpg","0","0","1","",""
"","feedback","","html-keyboard-response","581","500512","0.0-1.0-897.0-0.0","0","0","77211","","null","","","null","99","","","","","","","","","","","","","","","",""
"","ITI","","html-keyboard-response","582","501523","0.0-1.0-900.0","0","0","77211","","54","","","68","99","","","","","","","","","","","","","","","d",""
"","S1","","html-keyboard-response","583","501785","0.0-1.0-902.0","0","0","77211","","null","","","null","100","","","","","","","","","","","","","","","",""
"","ISI","","html-keyboard-response","584","502289","0.0-1.0-903.0","0","0","77211","","79","","","68","100","d","","","","","","","","","","","","","","",""
"","S2","","html-keyboard-response","585","502297","0.0-1.0-904.0","0","0","77211","","5","","","68","100","","d","3","100","training","adjacent","EF","5","6","L.jpg","Q.jpg","0","1","0","",""
"","feedback","","html-keyboard-response","586","503305","0.0-1.0-906.0-0.0","0","0","77211","","null","","","null","100","","","","","","","","","","","","","","","",""
"","time_out","","html-keyboard-response","587","505313","0.0-1.0-908.0-0.0","0","0","77211","","null","","","null","100","","","","","","","","","","","","","","","",""
