"success","ttype","start_time","trial_type","trial_index","time_elapsed","internal_node_id","warning","missed_checkup","PID","view_history","rt","responses","repeat_instructions","key_press","index","keypress_isi","keypress_S2","block","trial_num","phase","group_type","pair_type","S1_stim","S2_stim","S1_img","S2_img","S1_chosen","S1_higher","accuracy","keypress_iti","total_bonus_tally"
"true","full_screen","d03072023hr1831","fullscreen","0","15539","0.0-0.0","0","0","19108","","","","","","","","","","","","","","","","","","","","","",""
"","instructions","","instructions","1","58840","0.0-1.0-0.0-0.0","0","0","19108","[{""page_index"":0,""viewing_time"":4925},{""page_index"":1,""viewing_time"":25385},{""page_index"":2,""viewing_time"":9670},{""page_index"":3,""viewing_time"":3318}]","43299","","","","","","","","","","","","","","","","","","","",""
"","comprehension_check","","survey-multi-choice","2","83546","0.0-1.0-0.0-1.0","0","0","19108","","24700","{""Q0"":""True"",""Q1"":""D"",""Q2"":""Once the second image appears and while the screen 'MAKE A CHOICE' is shown"",""Q3"":""Green mark"",""Q4"":""either D or K""}","0","","","","","","","","","","","","","","","","","",""
"","start_exp","","html-keyboard-response","3","85475","0.0-1.0-1.0","0","0","19108","","1926","","","32","","","","","","","","","","","","","","","","",""
"","S1","","html-keyboard-response","4","85733","0.0-1.0-2.0","0","0","19108","","null","","","null","0","","","","","","","","","","","","","","","",""
"","ISI","","html-keyboard-response","5","86743","0.0-1.0-3.0","0","0","19108","","null","","","null","0","NaN","","","","","","","","","","","","","","",""
"","S2","","html-keyboard-response","6","87005","0.0-1.0-4.0","0","0","19108","","null","","","null","0","","NaN","","","","","","","","","","","","","",""
"","response","","html-keyboard-response","7","87924","0.0-1.0-5.0-0.0","0","0","19108","","918","","","75","0","","","1","0","training","adjacent","DC","4","3","O.jpg","P.jpg","0","0","1","",""
"","feedback","","html-keyboard-response","8","88936","0.0-1.0-6.0-0.0","0","0","19108","","null","","","null","0","","","","","","","","","","","","","","","",""
"","ITI","","html-keyboard-response","9","89942","0.0-1.0-9.0","0","0","19108","","null","","","null","0","","","","","","","","","","","","","","","NaN",""
"","S1","","html-keyboard-response","10","90198","0.0-1.0-11.0","0","0","19108","","null","","","null","1","","","","","","","","","","","","","","","",""
"","ISI","","html-keyboard-response","11","91209","0.0-1.0-12.0","0","0","19108","","null","","","null","1","NaN","","","","","","","","","","","","","","",""
"","S2","","html-keyboard-response","12","91469","0.0-1.0-13.0","0","0","19108","","null","","","null","1","","NaN","","","","","","","","","","","","","",""
"","response","","html-keyboard-response","13","91584","0.0-1.0-14.0-0.0","0","0","19108","","113","","","68","1","","","1","1","training","adjacent","BC","2","3","L.jpg","P.jpg","1","1","1","",""
"","feedback","","html-keyboard-response","14","92590","0.0-1.0-15.0-0.0","0","0","19108","","null","","","null","1","","","","","","","","","","","","","","","",""
"","ITI","","html-keyboard-response","15","93596","0.0-1.0-18.0","0","0","19108","","null","","","null","1","","","","","","","","","","","","","","","NaN",""
"","S1","","html-keyboard-response","16","93856","0.0-1.0-20.0","0","0","19108","","null","","","null","2","","","","","","","","","","","","","","","",""
"","ISI","","html-keyboard-response","17","94865","0.0-1.0-21.0","0","0","19108","","null","","","null","2","NaN","","","","","","","","","","","","","","",""
"","S2","","html-keyboard-response","18","95128","0.0-1.0-22.0","0","0","19108","","null","","","null","2","","NaN","","","","","","","","","","","","","",""
"","response","","html-keyboard-response","19","95434","0.0-1.0-23.0-0.0","0","0","19108","","303","","","75","2","","","1","2","training","adjacent","FE","6","5","N.jpg","Q.jpg","0","0","1","",""
"","feedback","","html-keyboard-response","20","96444","0.0-1.0-24.0-0.0","0","0","19108","","null","","","null","2","","","","","","","","","","","","","","","",""
"","ITI","","html-keyboard-response","21","97454","0.0-1.0-27.0","0","0","19108","","null","","","null","2","","","","","","","","","","","","","","","NaN",""
"","S1","","html-keyboard-response","22","97710","0.0-1.0-29.0","0","0","19108","","null","","","null","3","","","","","","","","","","","","","","","",""
"","ISI","","html-keyboard-response","23","98720","0.0-1.0-30.0","0","0","19108","","null","","","null","3","NaN","","","","","","","","","","","","","","",""
"","S2","","html-keyboard-response","24","98981","0.0-1.0-31.0","0","0","19108","","null","","","null","3","","NaN","","","","","","","","","","","","","",""
"","response","","html-keyboard-response","25","99450","0.0-1.0-32.0-0.0","0","0","19108","","466","","","68","3","","","1","3","training","adjacent","CB","3","2","P.jpg","L.jpg","1","0","0","",""
"","feedback","","html-keyboard-response","26","100456","0.0-1.0-33.0-0.0","0","0","19108","","null","","","null","3","","","","","","","","","","","","","","","",""
"","time_out","","html-keyboard-response","27","102464","0.0-1.0-35.0-0.0","0","0","19108","","null","","","null","3","","","","","","","","","","","","","","","",""
"","ITI","","html-keyboard-response","28","103469","0.0-1.0-36.0","0","0","19108","","null","","","null","3","","","","","","","","","","","","","","","NaN",""
"","S1","","html-keyboard-response","29","103730","0.0-1.0-38.0","0","0","19108","","null","","","null","4","","","","","","","","","","","","","","","",""
"","ISI","","html-keyboard-response","30","104746","0.0-1.0-39.0","0","0","19108","","null","","","null","4","NaN","","","","","","","","","","","","","","",""
"","S2","","html-keyboard-response","31","105007","0.0-1.0-40.0","0","0","19108","","null","","","null","4","","NaN","","","","","","","","","","","","","",""
"","response","","html-keyboard-response","32","105437","0.0-1.0-41.0-0.0","0","0","19108","","427","","","75","4","","","1","4","training","adjacent","DE","4","5","O.jpg","Q.jpg","0","1","0","",""
"","feedback","","html-keyboard-response","33","106447","0.0-1.0-42.0-0.0","0","0","19108","","null","","","null","4","","","","","","","","","","","","","","","",""
"","time_out","","html-keyboard-response","34","108455","0.0-1.0-44.0-0.0","0","0","19108","","null","","","null","4","","","","","","","","","","","","","","","",""
"","ITI","","html-keyboard-response","35","109465","0.0-1.0-45.0","0","0","19108","","null","","","null","4","","","","","","","","","","","","","","","NaN",""
"","S1","","html-keyboard-response","36","109727","0.0-1.0-47.0","0","0","19108","","null","","","null","5","","","","","","","","","","","","","","","",""
"","ISI","","html-keyboard-response","37","110737","0.0-1.0-48.0","0","0","19108","","null","","","null","5","NaN","","","","","","","","","","","","","","",""
"","S2","","html-keyboard-response","38","110998","0.0-1.0-49.0","0","0","19108","","null","","","null","5","","NaN","","","","","","","","","","","","","",""
"","response","","html-keyboard-response","39","111922","0.0-1.0-50.0-0.0","0","0","19108","","922","","","68","5","","","1","5","training","adjacent","CD","3","4","P.jpg","O.jpg","1","1","1","",""
"","feedback","","html-keyboard-response","40","112925","0.0-1.0-51.0-0.0","0","0","19108","","null","","","null","5","","","","","","","","","","","","","","","",""
"","ITI","","html-keyboard-response","41","113935","0.0-1.0-54.0","0","0","19108","","null","","","null","5","","","","","","","","","","","","","","","NaN",""
"","S1","","html-keyboard-response","42","114192","0.0-1.0-56.0","0","0","19108","","null","","","null","6","","","","","","","","","","","","","","","",""
"","ISI","","html-keyboard-response","43","115201","0.0-1.0-57.0","0","0","19108","","null","","","null","6","NaN","","","","","","","","","","","","","","",""
"","S2","","html-keyboard-response","44","115462","0.0-1.0-58.0","0","0","19108","","null","","","null","6","","NaN","","","","","","","","","","","","","",""
"","response","","html-keyboard-response","45","116089","0.0-1.0-59.0-0.0","0","0","19108","","625","","","68","6","","","1","6","training","adjacent","EF","5","6","Q.jpg","N.jpg","1","1","1","",""
"","feedback","","html-keyboard-response","46","117093","0.0-1.0-60.0-0.0","0","0","19108","","null","","","null","6","","","","","","","","","","","","","","","",""
"","ITI","","html-keyboard-response","47","118103","0.0-1.0-63.0","0","0","19108","","null","","","null","6","","","","","","","","","","","","","","","NaN",""
"","S1","","html-keyboard-response","48","118359","0.0-1.0-65.0","0","0","19108","","null","","","null","7","","","","","","","","","","","","","","","",""
"","ISI","","html-keyboard-response","49","119369","0.0-1.0-66.0","0","0","19108","","null","","","null","7","NaN","","","","","","","","","","","","","","",""
"","S2","","html-keyboard-response","50","119633","0.0-1.0-67.0","0","0","19108","","null","","","null","7","","NaN","","","","","","","","","","","","","",""
"","response","","html-keyboard-response","51","119766","0.0-1.0-68.0-0.0","0","0","19108","","131","","","75","7","","","1","7","training","adjacent","BC","2","3","L.jpg","P.jpg","0","1","0","",""
"","feedback","","html-keyboard-response","52","120774","0.0-1.0-69.0-0.0","0","0","19108","","null","","","null","7","","","","","","","","","","","","","","","",""
"","time_out","","html-keyboard-response","53","122782","0.0-1.0-71.0-0.0","0","0","19108","","null","","","null","7","","","","","","","","","","","","","","","",""
"","ITI","","html-keyboard-response","54","123792","0.0-1.0-72.0","0","0","19108","","null","","","null","7","","","","","","","","","","","","","","","NaN",""
"","S1","","html-keyboard-response","55","124054","0.0-1.0-74.0","0","0","19108","","null","","","null","8","","","","","","","","","","","","","","","",""
"","ISI","","html-keyboard-response","56","125063","0.0-1.0-75.0","0","0","19108","","null","","","null","8","NaN","","","","","","","","","","","","","","",""
"","S2","","html-keyboard-response","57","125319","0.0-1.0-76.0","0","0","19108","","null","","","null","8","","NaN","","","","","","","","","","","","","",""
"","response","","html-keyboard-response","58","125621","0.0-1.0-77.0-0.0","0","0","19108","","298","","","68","8","","","1","8","training","adjacent","GF","7","6","M.jpg","N.jpg","1","0","0","",""
"","feedback","","html-keyboard-response","59","126631","0.0-1.0-78.0-0.0","0","0","19108","","null","","","null","8","","","","","","","","","","","","","","","",""
"","time_out","","html-keyboard-response","60","128640","0.0-1.0-80.0-0.0","0","0","19108","","null","","","null","8","","","","","","","","","","","","","","","",""
"","ITI","","html-keyboard-response","61","129650","0.0-1.0-81.0","0","0","19108","","null","","","null","8","","","","","","","","","","","","","","","NaN",""
"","S1","","html-keyboard-response","62","129911","0.0-1.0-83.0","0","0","19108","","null","","","null","9","","","","","","","","","","","","","","","",""
"","ISI","","html-keyboard-response","63","130921","0.0-1.0-84.0","0","0","19108","","null","","","null","9","NaN","","","","","","","","","","","","","","",""
"","S2","","html-keyboard-response","64","131183","0.0-1.0-85.0","0","0","19108","","null","","","null","9","","NaN","","","","","","","","","","","","","",""
"","response","","html-keyboard-response","65","131764","0.0-1.0-86.0-0.0","0","0","19108","","579","","","68","9","","","1","9","training","adjacent","AB","1","2","R.jpg","L.jpg","1","1","1","",""
"","feedback","","html-keyboard-response","66","132778","0.0-1.0-87.0-0.0","0","0","19108","","null","","","null","9","","","","","","","","","","","","","","","",""
"","ITI","","html-keyboard-response","67","133783","0.0-1.0-90.0","0","0","19108","","null","","","null","9","","","","","","","","","","","","","","","NaN",""
"","S1","","html-keyboard-response","68","134038","0.0-1.0-92.0","0","0","19108","","null","","","null","10","","","","","","","","","","","","","","","",""
"","ISI","","html-keyboard-response","69","135048","0.0-1.0-93.0","0","0","19108","","null","","","null","10","NaN","","","","","","","","","","","","","","",""
"","S2","","html-keyboard-response","70","135304","0.0-1.0-94.0","0","0","19108","","null","","","null","10","","NaN","","","","","","","","","","","","","",""
"","response","","html-keyboard-response","71","135496","0.0-1.0-95.0-0.0","0","0","19108","","189","","","75","10","","","1","10","training","adjacent","ED","5","4","Q.jpg","O.jpg","0","0","1","",""
"","feedback","","html-keyboard-response","72","136506","0.0-1.0-96.0-0.0","0","0","19108","","null","","","null","10","","","","","","","","","","","","","","","",""
"","ITI","","html-keyboard-response","73","137510","0.0-1.0-99.0","0","0","19108","","null","","","null","10","","","","","","","","","","","","","","","NaN",""
"","S1","","html-keyboard-response","74","137765","0.0-1.0-101.0","0","0","19108","","null","","","null","11","","","","","","","","","","","","","","","",""
"","ISI","","html-keyboard-response","75","138775","0.0-1.0-102.0","0","0","19108","","null","","","null","11","NaN","","","","","","","","","","","","","","",""
"","S2","","html-keyboard-response","76","139031","0.0-1.0-103.0","0","0","19108","","null","","","null","11","","NaN","","","","","","","","","","","","","",""
"","response","","html-keyboard-response","77","139351","0.0-1.0-104.0-0.0","0","0","19108","","318","","","75","11","","","1","11","training","adjacent","CB","3","2","P.jpg","L.jpg","0","0","1","",""
"","feedback","","html-keyboard-response","78","140360","0.0-1.0-105.0-0.0","0","0","19108","","null","","","null","11","","","","","","","","","","","","","","","",""
"","ITI","","html-keyboard-response","79","141370","0.0-1.0-108.0","0","0","19108","","null","","","null","11","","","","","","","","","","","","","","","NaN",""
"","S1","","html-keyboard-response","80","141632","0.0-1.0-110.0","0","0","19108","","null","","","null","12","","","","","","","","","","","","","","","",""
"","ISI","","html-keyboard-response","81","142642","0.0-1.0-111.0","0","0","19108","","null","","","null","12","NaN","","","","","","","","","","","","","","",""
"","S2","","html-keyboard-response","82","142903","0.0-1.0-112.0","0","0","19108","","null","","","null","12","","NaN","","","","","","","","","","","","","",""
"","response","","html-keyboard-response","83","143357","0.0-1.0-113.0-0.0","0","0","19108","","451","","","68","12","","","1","12","training","adjacent","DC","4","3","O.jpg","P.jpg","1","0","0","",""
"","feedback","","html-keyboard-response","84","144366","0.0-1.0-114.0-0.0","0","0","19108","","null","","","null","12","","","","","","","","","","","","","","","",""
"","time_out","","html-keyboard-response","85","146378","0.0-1.0-116.0-0.0","0","0","19108","","null","","","null","12","","","","","","","","","","","","","","","",""
"","ITI","","html-keyboard-response","86","147384","0.0-1.0-117.0","0","0","19108","","null","","","null","12","","","","","","","","","","","","","","","NaN",""
"","S1","","html-keyboard-response","87","147640","0.0-1.0-119.0","0","0","19108","","null","","","null","13","","","","","","","","","","","","","","","",""
"","ISI","","html-keyboard-response","88","148650","0.0-1.0-120.0","0","0","19108","","null","","","null","13","NaN","","","","","","","","","","","","","","",""
"","S2","","html-keyboard-response","89","148911","0.0-1.0-121.0","0","0","19108","","null","","","null","13","","NaN","","","","","","","","","","","","","",""
"","response","","html-keyboard-response","90","149258","0.0-1.0-122.0-0.0","0","0","19108","","345","","","68","13","","","1","13","training","adjacent","FE","6","5","N.jpg","Q.jpg","1","0","0","",""
"","feedback","","html-keyboard-response","91","150264","0.0-1.0-123.0-0.0","0","0","19108","","null","","","null","13","","","","","","","","","","","","","","","",""
"","time_out","","html-keyboard-response","92","152273","0.0-1.0-125.0-0.0","0","0","19108","","null","","","null","13","","","","","","","","","","","","","","","",""
"","ITI","","html-keyboard-response","93","153283","0.0-1.0-126.0","0","0","19108","","null","","","null","13","","","","","","","","","","","","","","","NaN",""
"","S1","","html-keyboard-response","94","153544","0.0-1.0-128.0","0","0","19108","","null","","","null","14","","","","","","","","","","","","","","","",""
"","ISI","","html-keyboard-response","95","154554","0.0-1.0-129.0","0","0","19108","","null","","","null","14","NaN","","","","","","","","","","","","","","",""
"","S2","","html-keyboard-response","96","154815","0.0-1.0-130.0","0","0","19108","","null","","","null","14","","NaN","","","","","","","","","","","","","",""
"","response","","html-keyboard-response","97","155244","0.0-1.0-131.0-0.0","0","0","19108","","426","","","68","14","","","1","14","training","adjacent","ED","5","4","Q.jpg","O.jpg","1","0","0","",""
"","feedback","","html-keyboard-response","98","156255","0.0-1.0-132.0-0.0","0","0","19108","","null","","","null","14","","","","","","","","","","","","","","","",""
"","time_out","","html-keyboard-response","99","158263","0.0-1.0-134.0-0.0","0","0","19108","","null","","","null","14","","","","","","","","","","","","","","","",""
"","ITI","","html-keyboard-response","100","159274","0.0-1.0-135.0","0","0","19108","","null","","","null","14","","","","","","","","","","","","","","","NaN",""
"","S1","","html-keyboard-response","101","159529","0.0-1.0-137.0","0","0","19108","","null","","","null","15","","","","","","","","","","","","","","","",""
"","ISI","","html-keyboard-response","102","160539","0.0-1.0-138.0","0","0","19108","","null","","","null","15","NaN","","","","","","","","","","","","","","",""
"","S2","","html-keyboard-response","103","160800","0.0-1.0-139.0","0","0","19108","","null","","","null","15","","NaN","","","","","","","","","","","","","",""
"","response","","html-keyboard-response","104","161052","0.0-1.0-140.0-0.0","0","0","19108","","250","","","75","15","","","1","15","training","adjacent","FG","6","7","N.jpg","M.jpg","0","1","0","",""
"","feedback","","html-keyboard-response","105","162066","0.0-1.0-141.0-0.0","0","0","19108","","null","","","null","15","","","","","","","","","","","","","","","",""
"","time_out","","html-keyboard-response","106","164074","0.0-1.0-143.0-0.0","0","0","19108","","null","","","null","15","","","","","","","","","","","","","","","",""
"","ITI","","html-keyboard-response","107","165079","0.0-1.0-144.0","0","0","19108","","null","","","null","15","","","","","","","","","","","","","","","NaN",""
"","S1","","html-keyboard-response","108","165335","0.0-1.0-146.0","0","0","19108","","null","","","null","16","","","","","","","","","","","","","","","",""
"","ISI","","html-keyboard-response","109","166344","0.0-1.0-147.0","0","0","19108","","null","","","null","16","NaN","","","","","","","","","","","","","","",""
"","S2","","html-keyboard-response","110","166599","0.0-1.0-148.0","0","0","19108","","null","","","null","16","","NaN","","","","","","","","","","","","","",""
"","response","","html-keyboard-response","111","167008","0.0-1.0-149.0-0.0","0","0","19108","","406","","","68","16","","","1","16","training","adjacent","EF","5","6","Q.jpg","N.jpg","1","1","1","",""
"","feedback","","html-keyboard-response","112","168016","0.0-1.0-150.0-0.0","0","0","19108","","null","","","null","16","","","","","","","","","","","","","","","",""
"","ITI","","html-keyboard-response","113","169026","0.0-1.0-153.0","0","0","19108","","null","","","null","16","","","","","","","","","","","","","","","NaN",""
"","S1","","html-keyboard-response","114","169282","0.0-1.0-155.0","0","0","19108","","null","","","null","17","","","","","","","","","","","","","","","",""
"","ISI","","html-keyboard-response","115","170289","0.0-1.0-156.0","0","0","19108","","null","","","null","17","NaN","","","","","","","","","","","","","","",""
"","S2","","html-keyboard-response","116","170547","0.0-1.0-157.0","0","0","19108","","null","","","null","17","","NaN","","","","","","","","","","","","","",""
"","response","","html-keyboard-response","117","171033","0.0-1.0-158.0-0.0","0","0","19108","","483","","","68","17","","","1","17","training","adjacent","DE","4","5","O.jpg","Q.jpg","1","1","1","",""
"","feedback","","html-keyboard-response","118","172039","0.0-1.0-159.0-0.0","0","0","19108","","null","","","null","17","","","","","","","","","","","","","","","",""
"","ITI","","html-keyboard-response","119","173049","0.0-1.0-162.0","0","0","19108","","null","","","null","17","","","","","","","","","","","","","","","NaN",""
"","S1","","html-keyboard-response","120","173305","0.0-1.0-164.0","0","0","19108","","null","","","null","18","","","","","","","","","","","","","","","",""
"","ISI","","html-keyboard-response","121","174315","0.0-1.0-165.0","0","0","19108","","null","","","null","18","NaN","","","","","","","","","","","","","","",""
"","S2","","html-keyboard-response","122","174576","0.0-1.0-166.0","0","0","19108","","null","","","null","18","","NaN","","","","","","","","","","","","","",""
"","response","","html-keyboard-response","123","175140","0.0-1.0-167.0-0.0","0","0","19108","","561","","","68","18","","","1","18","training","adjacent","BA","2","1","L.jpg","R.jpg","1","0","0","",""
"","feedback","","html-keyboard-response","124","176155","0.0-1.0-168.0-0.0","0","0","19108","","null","","","null","18","","","","","","","","","","","","","","","",""
"","time_out","","html-keyboard-response","125","178163","0.0-1.0-170.0-0.0","0","0","19108","","null","","","null","18","","","","","","","","","","","","","","","",""
"","ITI","","html-keyboard-response","126","179168","0.0-1.0-171.0","0","0","19108","","null","","","null","18","","","","","","","","","","","","","","","NaN",""
"","S1","","html-keyboard-response","127","179423","0.0-1.0-173.0","0","0","19108","","null","","","null","19","","","","","","","","","","","","","","","",""
"","ISI","","html-keyboard-response","128","180434","0.0-1.0-174.0","0","0","19108","","null","","","null","19","NaN","","","","","","","","","","","","","","",""
"","S2","","html-keyboard-response","129","180688","0.0-1.0-175.0","0","0","19108","","null","","","null","19","","NaN","","","","","","","","","","","","","",""
"","response","","html-keyboard-response","130","181118","0.0-1.0-176.0-0.0","0","0","19108","","427","","","75","19","","","1","19","training","adjacent","BC","2","3","L.jpg","P.jpg","0","1","0","",""
"","feedback","","html-keyboard-response","131","182129","0.0-1.0-177.0-0.0","0","0","19108","","null","","","null","19","","","","","","","","","","","","","","","",""
"","time_out","","html-keyboard-response","132","184137","0.0-1.0-179.0-0.0","0","0","19108","","null","","","null","19","","","","","","","","","","","","","","","",""
"","ITI","","html-keyboard-response","133","185147","0.0-1.0-180.0","0","0","19108","","null","","","null","19","","","","","","","","","","","","","","","NaN",""
"","S1","","html-keyboard-response","134","185408","0.0-1.0-182.0","0","0","19108","","null","","","null","20","","","","","","","","","","","","","","","",""
"","ISI","","html-keyboard-response","135","186418","0.0-1.0-183.0","0","0","19108","","null","","","null","20","NaN","","","","","","","","","","","","","","",""
"","S2","","html-keyboard-response","136","186680","0.0-1.0-184.0","0","0","19108","","null","","","null","20","","NaN","","","","","","","","","","","","","",""
"","response","","html-keyboard-response","137","187158","0.0-1.0-185.0-0.0","0","0","19108","","477","","","68","20","","","1","20","training","adjacent","FG","6","7","N.jpg","M.jpg","1","1","1","",""
"","feedback","","html-keyboard-response","138","188171","0.0-1.0-186.0-0.0","0","0","19108","","null","","","null","20","","","","","","","","","","","","","","","",""
"","ITI","","html-keyboard-response","139","189179","0.0-1.0-189.0","0","0","19108","","null","","","null","20","","","","","","","","","","","","","","","NaN",""
"","S1","","html-keyboard-response","140","189443","0.0-1.0-191.0","0","0","19108","","null","","","null","21","","","","","","","","","","","","","","","",""
"","ISI","","html-keyboard-response","141","190448","0.0-1.0-192.0","0","0","19108","","null","","","null","21","NaN","","","","","","","","","","","","","","",""
"","S2","","html-keyboard-response","142","190709","0.0-1.0-193.0","0","0","19108","","null","","","null","21","","NaN","","","","","","","","","","","","","",""
"","response","","html-keyboard-response","143","191009","0.0-1.0-194.0-0.0","0","0","19108","","298","","","75","21","","","1","21","training","adjacent","AB","1","2","R.jpg","L.jpg","0","1","0","",""
"","feedback","","html-keyboard-response","144","192016","0.0-1.0-195.0-0.0","0","0","19108","","null","","","null","21","","","","","","","","","","","","","","","",""
"","time_out","","html-keyboard-response","145","194027","0.0-1.0-197.0-0.0","0","0","19108","","null","","","null","21","","","","","","","","","","","","","","","",""
"","ITI","","html-keyboard-response","146","195034","0.0-1.0-198.0","0","0","19108","","null","","","null","21","","","","","","","","","","","","","","","NaN",""
"","S1","","html-keyboard-response","147","195289","0.0-1.0-200.0","0","0","19108","","null","","","null","22","","","","","","","","","","","","","","","",""
"","ISI","","html-keyboard-response","148","196299","0.0-1.0-201.0","0","0","19108","","null","","","null","22","NaN","","","","","","","","","","","","","","",""
"","S2","","html-keyboard-response","149","196561","0.0-1.0-202.0","0","0","19108","","null","","","null","22","","NaN","","","","","","","","","","","","","",""
"","response","","html-keyboard-response","150","196984","0.0-1.0-203.0-0.0","0","0","19108","","421","","","68","22","","","1","22","training","adjacent","CB","3","2","P.jpg","L.jpg","1","0","0","",""
"","feedback","","html-keyboard-response","151","197994","0.0-1.0-204.0-0.0","0","0","19108","","null","","","null","22","","","","","","","","","","","","","","","",""
"","time_out","","html-keyboard-response","152","200003","0.0-1.0-206.0-0.0","0","0","19108","","null","","","null","22","","","","","","","","","","","","","","","",""
"","ITI","","html-keyboard-response","153","201010","0.0-1.0-207.0","0","0","19108","","null","","","null","22","","","","","","","","","","","","","","","NaN",""
"","S1","","html-keyboard-response","154","201268","0.0-1.0-209.0","0","0","19108","","null","","","null","23","","","","","","","","","","","","","","","",""
"","ISI","","html-keyboard-response","155","202273","0.0-1.0-210.0","0","0","19108","","null","","","null","23","NaN","","","","","","","","","","","","","","",""
"","S2","","html-keyboard-response","156","202528","0.0-1.0-211.0","0","0","19108","","null","","","null","23","","NaN","","","","","","","","","","","","","",""
"","response","","html-keyboard-response","157","202843","0.0-1.0-212.0-0.0","0","0","19108","","313","","","75","23","","","1","23","training","adjacent","BA","2","1","L.jpg","R.jpg","0","0","1","",""
"","feedback","","html-keyboard-response","158","203851","0.0-1.0-213.0-0.0","0","0","19108","","null","","","null","23","","","","","","","","","","","","","","","",""
"","ITI","","html-keyboard-response","159","204856","0.0-1.0-216.0","0","0","19108","","null","","","null","23","","","","","","","","","","","","","","","NaN",""
"","S1","","html-keyboard-response","160","205117","0.0-1.0-218.0","0","0","19108","","null","","","null","24","","","","","","","","","","","","","","","",""
"","ISI","","html-keyboard-response","161","206122","0.0-1.0-219.0","0","0","19108","","null","","","null","24","NaN","","","","","","","","","","","","","","",""
"","S2","","html-keyboard-response","162","206377","0.0-1.0-220.0","0","0","19108","","null","","","null","24","","NaN","","","","","","","","","","","","","",""
"","response","","html-keyboard-response","163","206679","0.0-1.0-221.0-0.0","0","0","19108","","300","","","68","24","","","1","24","training","adjacent","CD","3","4","P.jpg","O.jpg","1","1","1","",""
"","feedback","","html-keyboard-response","164","207689","0.0-1.0-222.0-0.0","0","0","19108","","null","","","null","24","","","","","","","","","","","","","","","",""
"","ITI","","html-keyboard-response","165","208699","0.0-1.0-225.0","0","0","19108","","null","","","null","24","","","","","","","","","","","","","","","NaN",""
"","S1","","html-keyboard-response","166","208954","0.0-1.0-227.0","0","0","19108","","null","","","null","25","","","","","","","","","","","","","","","",""
"","ISI","","html-keyboard-response","167","209964","0.0-1.0-228.0","0","0","19108","","null","","","null","25","NaN","","","","","","","","","","","","","","",""
"","S2","","html-keyboard-response","168","210225","0.0-1.0-229.0","0","0","19108","","null","","","null","25","","NaN","","","","","","","","","","","","","",""
"","response","","html-keyboard-response","169","210653","0.0-1.0-230.0-0.0","0","0","19108","","425","","","68","25","","","1","25","training","adjacent","ED","5","4","Q.jpg","O.jpg","1","0","0","",""
"","feedback","","html-keyboard-response","170","211665","0.0-1.0-231.0-0.0","0","0","19108","","null","","","null","25","","","","","","","","","","","","","","","",""
"","time_out","","html-keyboard-response","171","213674","0.0-1.0-233.0-0.0","0","0","19108","","null","","","null","25","","","","","","","","","","","","","","","",""
"","ITI","","html-keyboard-response","172","214684","0.0-1.0-234.0","0","0","19108","","null","","","null","25","","","","","","","","","","","","","","","NaN",""
"","S1","","html-keyboard-response","173","214945","0.0-1.0-236.0","0","0","19108","","null","","","null","26","","","","","","","","","","","","","","","",""
"","ISI","","html-keyboard-response","174","215955","0.0-1.0-237.0","0","0","19108","","null","","","null","26","NaN","","","","","","","","","","","","","","",""
"","S2","","html-keyboard-response","175","216216","0.0-1.0-238.0","0","0","19108","","null","","","null","26","","NaN","","","","","","","","","","","","","",""
"","response","","html-keyboard-response","176","216695","0.0-1.0-239.0-0.0","0","0","19108","","476","","","68","26","","","1","26","training","adjacent","CD","3","4","P.jpg","O.jpg","1","1","1","",""
"","feedback","","html-keyboard-response","177","217708","0.0-1.0-240.0-0.0","0","0","19108","","null","","","null","26","","","","","","","","","","","","","","","",""
"","ITI","","html-keyboard-response","178","218713","0.0-1.0-243.0","0","0","19108","","null","","","null","26","","","","","","","","","","","","","","","NaN",""
"","S1","","html-keyboard-response","179","218968","0.0-1.0-245.0","0","0","19108","","null","","","null","27","","","","","","","","","","","","","","","",""
"","ISI","","html-keyboard-response","180","219978","0.0-1.0-246.0","0","0","19108","","null","","","null","27","NaN","","","","","","","","","","","","","","",""
"","S2","","html-keyboard-response","181","220234","0.0-1.0-247.0","0","0","19108","","null","","","null","27","","NaN","","","","","","","","","","","","","",""
"","response","","html-keyboard-response","182","220700","0.0-1.0-248.0-0.0","0","0","19108","","464","","","75","27","","","1","27","training","adjacent","FE","6","5","N.jpg","Q.jpg","0","0","1","",""
"","feedback","","html-keyboard-response","183","221708","0.0-1.0-249.0-0.0","0","0","19108","","null","","","null","27","","","","","","","","","","","","","","","",""
"","ITI","","html-keyboard-response","184","222712","0.0-1.0-252.0","0","0","19108","","null","","","null","27","","","","","","","","","","","","","","","NaN",""
"","S1","","html-keyboard-response","185","222969","0.0-1.0-254.0","0","0","19108","","null","","","null","28","","","","","","","","","","","","","","","",""
"","ISI","","html-keyboard-response","186","223978","0.0-1.0-255.0","0","0","19108","","null","","","null","28","NaN","","","","","","","","","","","","","","",""
"","S2","","html-keyboard-response","187","224234","0.0-1.0-256.0","0","0","19108","","null","","","null","28","","NaN","","","","","","","","","","","","","",""
"","response","","html-keyboard-response","188","224802","0.0-1.0-257.0-0.0","0","0","19108","","565","","","68","28","","","1","28","training","adjacent","BC","2","3","L.jpg","P.jpg","1","1","1","",""
"","feedback","","html-keyboard-response","189","225812","0.0-1.0-258.0-0.0","0","0","19108","","null","","","null","28","","","","","","","","","","","","","","","",""
"","ITI","","html-keyboard-response","190","226817","0.0-1.0-261.0","0","0","19108","","null","","","null","28","","","","","","","","","","","","","","","NaN",""
"","S1","","html-keyboard-response","191","227072","0.0-1.0-263.0","0","0","19108","","null","","","null","29","","","","","","","","","","","","","","","",""
"","ISI","","html-keyboard-response","192","228082","0.0-1.0-264.0","0","0","19108","","null","","","null","29","NaN","","","","","","","","","","","","","","",""
"","S2","","html-keyboard-response","193","228340","0.0-1.0-265.0","0","0","19108","","null","","","null","29","","NaN","","","","","","","","","","","","","",""
"","response","","html-keyboard-response","194","228887","0.0-1.0-266.0-0.0","0","0","19108","","544","","","75","29","","","1","29","training","adjacent","GF","7","6","M.jpg","N.jpg","0","0","1","",""
"","feedback","","html-keyboard-response","195","229899","0.0-1.0-267.0-0.0","0","0","19108","","null","","","null","29","","","","","","","","","","","","","","","",""
"","ITI","","html-keyboard-response","196","230910","0.0-1.0-270.0","0","0","19108","","null","","","null","29","","","","","","","","","","","","","","","NaN",""
"","S1","","html-keyboard-response","197","231171","0.0-1.0-272.0","0","0","19108","","null","","","null","30","","","","","","","","","","","","","","","",""
"","ISI","","html-keyboard-response","198","232181","0.0-1.0-273.0","0","0","19108","","null","","","null","30","NaN","","","","","","","","","","","","","","",""
"","S2","","html-keyboard-response","199","232442","0.0-1.0-274.0","0","0","19108","","null","","","null","30","","NaN","","","","","","","","","","","","","",""
"","response","","html-keyboard-response","200","232959","0.0-1.0-275.0-0.0","0","0","19108","","515","","","68","30","","","1","30","training","adjacent","AB","1","2","R.jpg","L.jpg","1","1","1","",""
"","feedback","","html-keyboard-response","201","233969","0.0-1.0-276.0-0.0","0","0","19108","","null","","","null","30","","","","","","","","","","","","","","","",""
"","ITI","","html-keyboard-response","202","234979","0.0-1.0-279.0","0","0","19108","","null","","","null","30","","","","","","","","","","","","","","","NaN",""
"","S1","","html-keyboard-response","203","235234","0.0-1.0-281.0","0","0","19108","","null","","","null","31","","","","","","","","","","","","","","","",""
"","ISI","","html-keyboard-response","204","236244","0.0-1.0-282.0","0","0","19108","","null","","","null","31","NaN","","","","","","","","","","","","","","",""
"","S2","","html-keyboard-response","205","236505","0.0-1.0-283.0","0","0","19108","","null","","","null","31","","NaN","","","","","","","","","","","","","",""
"","response","","html-keyboard-response","206","237061","0.0-1.0-284.0-0.0","0","0","19108","","553","","","75","31","","","1","31","training","adjacent","AB","1","2","R.jpg","L.jpg","0","1","0","",""
"","feedback","","html-keyboard-response","207","238067","0.0-1.0-285.0-0.0","0","0","19108","","null","","","null","31","","","","","","","","","","","","","","","",""
"","time_out","","html-keyboard-response","208","240075","0.0-1.0-287.0-0.0","0","0","19108","","null","","","null","31","","","","","","","","","","","","","","","",""
"","ITI","","html-keyboard-response","209","241086","0.0-1.0-288.0","0","0","19108","","null","","","null","31","","","","","","","","","","","","","","","NaN",""
"","S1","","html-keyboard-response","210","241349","0.0-1.0-290.0","0","0","19108","","null","","","null","32","","","","","","","","","","","","","","","",""
"","ISI","","html-keyboard-response","211","242357","0.0-1.0-291.0","0","0","19108","","null","","","null","32","NaN","","","","","","","","","","","","","","",""
"","S2","","html-keyboard-response","212","242618","0.0-1.0-292.0","0","0","19108","","null","","","null","32","","NaN","","","","","","","","","","","","","",""
"","response","","html-keyboard-response","213","242784","0.0-1.0-293.0-0.0","0","0","19108","","163","","","75","32","","","1","32","training","adjacent","CD","3","4","P.jpg","O.jpg","0","1","0","",""
"","feedback","","html-keyboard-response","214","243797","0.0-1.0-294.0-0.0","0","0","19108","","null","","","null","32","","","","","","","","","","","","","","","",""
"","time_out","","html-keyboard-response","215","245805","0.0-1.0-296.0-0.0","0","0","19108","","null","","","null","32","","","","","","","","","","","","","","","",""
"","ITI","","html-keyboard-response","216","246810","0.0-1.0-297.0","0","0","19108","","null","","","null","32","","","","","","","","","","","","","","","NaN",""
"","S1","","html-keyboard-response","217","247065","0.0-1.0-299.0","0","0","19108","","null","","","null","33","","","","","","","","","","","","","","","",""
"","ISI","","html-keyboard-response","218","248076","0.0-1.0-300.0","0","0","19108","","null","","","null","33","NaN","","","","","","","","","","","","","","",""
"","S2","","html-keyboard-response","219","248331","0.0-1.0-301.0","0","0","19108","","null","","","null","33","","NaN","","","","","","","","","","","","","",""
"","response","","html-keyboard-response","220","248606","0.0-1.0-302.0-0.0","0","0","19108","","273","","","68","33","","","1","33","training","adjacent","CB","3","2","P.jpg","L.jpg","1","0","0","",""
"","feedback","","html-keyboard-response","221","249614","0.0-1.0-303.0-0.0","0","0","19108","","null","","","null","33","","","","","","","","","","","","","","","",""
"","time_out","","html-keyboard-response","222","251622","0.0-1.0-305.0-0.0","0","0","19108","","null","","","null","33","","","","","","","","","","","","","","","",""
"","ITI","","html-keyboard-response","223","252627","0.0-1.0-306.0","0","0","19108","","null","","","null","33","","","","","","","","","","","","","","","NaN",""
"","S1","","html-keyboard-response","224","252882","0.0-1.0-308.0","0","0","19108","","null","","","null","34","","","","","","","","","","","","","","","",""
"","ISI","","html-keyboard-response","225","253892","0.0-1.0-309.0","0","0","19108","","null","","","null","34","NaN","","","","","","","","","","","","","","",""
"","S2","","html-keyboard-response","226","254148","0.0-1.0-310.0","0","0","19108","","null","","","null","34","","NaN","","","","","","","","","","","","","",""
"","response","","html-keyboard-response","227","254397","0.0-1.0-311.0-0.0","0","0","19108","","246","","","75","34","","","1","34","training","adjacent","BA","2","1","L.jpg","R.jpg","0","0","1","",""
"","feedback","","html-keyboard-response","228","255402","0.0-1.0-312.0-0.0","0","0","19108","","null","","","null","34","","","","","","","","","","","","","","","",""
"","ITI","","html-keyboard-response","229","256411","0.0-1.0-315.0","0","0","19108","","null","","","null","34","","","","","","","","","","","","","","","NaN",""
"","S1","","html-keyboard-response","230","256666","0.0-1.0-317.0","0","0","19108","","null","","","null","35","","","","","","","","","","","","","","","",""
"","ISI","","html-keyboard-response","231","257675","0.0-1.0-318.0","0","0","19108","","null","","","null","35","NaN","","","","","","","","","","","","","","",""
"","S2","","html-keyboard-response","232","257932","0.0-1.0-319.0","0","0","19108","","null","","","null","35","","NaN","","","","","","","","","","","","","",""
"","response","","html-keyboard-response","233","258162","0.0-1.0-320.0-0.0","0","0","19108","","227","","","75","35","","","1","35","training","adjacent","GF","7","6","M.jpg","N.jpg","0","0","1","",""
"","feedback","","html-keyboard-response","234","259173","0.0-1.0-321.0-0.0","0","0","19108","","null","","","null","35","","","","","","","","","","","","","","","",""
"","ITI","","html-keyboard-response","235","260179","0.0-1.0-324.0","0","0","19108","","null","","","null","35","","","","","","","","","","","","","","","NaN",""
"","S1","","html-keyboard-response","236","260435","0.0-1.0-326.0","0","0","19108","","null","","","null","36","","","","","","","","","","","","","","","",""
"","ISI","","html-keyboard-response","237","261444","0.0-1.0-327.0","0","0","19108","","null","","","null","36","NaN","","","","","","","","","","","","","","",""
"","S2","","html-keyboard-response","238","261706","0.0-1.0-328.0","0","0","19108","","null","","","null","36","","NaN","","","","","","","","","","","","","",""
"","response","","html-keyboard-response","239","261943","0.0-1.0-329.0-0.0","0","0","19108","","234","","","68","36","","","1","36","training","adjacent","ED","5","4","Q.jpg","O.jpg","1","0","0","",""
"","feedback","","html-keyboard-response","240","262957","0.0-1.0-330.0-0.0","0","0","19108","","null","","","null","36","","","","","","","","","","","","","","","",""
"","time_out","","html-keyboard-response","241","264962","0.0-1.0-332.0-0.0","0","0","19108","","null","","","null","36","","","","","","","","","","","","","","","",""
"","ITI","","html-keyboard-response","242","265973","0.0-1.0-333.0","0","0","19108","","null","","","null","36","","","","","","","","","","","","","","","NaN",""
"","S1","","html-keyboard-response","243","266228","0.0-1.0-335.0","0","0","19108","","null","","","null","37","","","","","","","","","","","","","","","",""
"","ISI","","html-keyboard-response","244","267238","0.0-1.0-336.0","0","0","19108","","null","","","null","37","NaN","","","","","","","","","","","","","","",""
"","S2","","html-keyboard-response","245","267499","0.0-1.0-337.0","0","0","19108","","null","","","null","37","","NaN","","","","","","","","","","","","","",""
"","response","","html-keyboard-response","246","268036","0.0-1.0-338.0-0.0","0","0","19108","","534","","","75","37","","","1","37","training","adjacent","DE","4","5","O.jpg","Q.jpg","0","1","0","",""
"","feedback","","html-keyboard-response","247","269043","0.0-1.0-339.0-0.0","0","0","19108","","null","","","null","37","","","","","","","","","","","","","","","",""
"","time_out","","html-keyboard-response","248","271052","0.0-1.0-341.0-0.0","0","0","19108","","null","","","null","37","","","","","","","","","","","","","","","",""
"","ITI","","html-keyboard-response","249","272062","0.0-1.0-342.0","0","0","19108","","null","","","null","37","","","","","","","","","","","","","","","NaN",""
"","S1","","html-keyboard-response","250","272324","0.0-1.0-344.0","0","0","19108","","null","","","null","38","","","","","","","","","","","","","","","",""
"","ISI","","html-keyboard-response","251","273334","0.0-1.0-345.0","0","0","19108","","null","","","null","38","NaN","","","","","","","","","","","","","","",""
"","S2","","html-keyboard-response","252","273595","0.0-1.0-346.0","0","0","19108","","null","","","null","38","","NaN","","","","","","","","","","","","","",""
"","response","","html-keyboard-response","253","274131","0.0-1.0-347.0-0.0","0","0","19108","","534","","","68","38","","","1","38","training","adjacent","FG","6","7","N.jpg","M.jpg","1","1","1","",""
"","feedback","","html-keyboard-response","254","275139","0.0-1.0-348.0-0.0","0","0","19108","","null","","","null","38","","","","","","","","","","","","","","","",""
"","ITI","","html-keyboard-response","255","276149","0.0-1.0-351.0","0","0","19108","","null","","","null","38","","","","","","","","","","","","","","","NaN",""
"","S1","","html-keyboard-response","256","276410","0.0-1.0-353.0","0","0","19108","","null","","","null","39","","","","","","","","","","","","","","","",""
"","ISI","","html-keyboard-response","257","277420","0.0-1.0-354.0","0","0","19108","","null","","","null","39","NaN","","","","","","","","","","","","","","",""
"","S2","","html-keyboard-response","258","277676","0.0-1.0-355.0","0","0","19108","","null","","","null","39","","NaN","","","","","","","","","","","","","",""
"","response","","html-keyboard-response","259","278089","0.0-1.0-356.0-0.0","0","0","19108","","411","","","68","39","","","1","39","training","adjacent","FE","6","5","N.jpg","Q.jpg","1","0","0","",""
"","feedback","","html-keyboard-response","260","279098","0.0-1.0-357.0-0.0","0","0","19108","","null","","","null","39","","","","","","","","","","","","","","","",""
"","time_out","","html-keyboard-response","261","281106","0.0-1.0-359.0-0.0","0","0","19108","","null","","","null","39","","","","","","","","","","","","","","","",""
"","ITI","","html-keyboard-response","262","282117","0.0-1.0-360.0","0","0","19108","","null","","","null","39","","","","","","","","","","","","","","","NaN",""
"","S1","","html-keyboard-response","263","282372","0.0-1.0-362.0","0","0","19108","","null","","","null","40","","","","","","","","","","","","","","","",""
"","ISI","","html-keyboard-response","264","283382","0.0-1.0-363.0","0","0","19108","","null","","","null","40","NaN","","","","","","","","","","","","","","",""
"","S2","","html-keyboard-response","265","283643","0.0-1.0-364.0","0","0","19108","","null","","","null","40","","NaN","","","","","","","","","","","","","",""
"","response","","html-keyboard-response","266","283776","0.0-1.0-365.0-0.0","0","0","19108","","130","","","75","40","","","1","40","training","adjacent","DC","4","3","O.jpg","P.jpg","0","0","1","",""
"","feedback","","html-keyboard-response","267","284787","0.0-1.0-366.0-0.0","0","0","19108","","null","","","null","40","","","","","","","","","","","","","","","",""
"","ITI","","html-keyboard-response","268","285797","0.0-1.0-369.0","0","0","19108","","null","","","null","40","","","","","","","","","","","","","","","NaN",""
"","S1","","html-keyboard-response","269","286060","0.0-1.0-371.0","0","0","19108","","null","","","null","41","","","","","","","","","","","","","","","",""
"","ISI","","html-keyboard-response","270","287069","0.0-1.0-372.0","0","0","19108","","null","","","null","41","NaN","","","","","","","","","","","","","","",""
"","S2","","html-keyboard-response","271","287324","0.0-1.0-373.0","0","0","19108","","null","","","null","41","","NaN","","","","","","","","","","","","","",""
"","response","","html-keyboard-response","272","287553","0.0-1.0-374.0-0.0","0","0","19108","","226","","","68","41","","","1","41","training","adjacent","BA","2","1","L.jpg","R.jpg","1","0","0","",""
"","feedback","","html-keyboard-response","273","288567","0.0-1.0-375.0-0.0","0","0","19108","","null","","","null","41","","","","","","","","","","","","","","","",""
"","time_out","","html-keyboard-response","274","290575","0.0-1.0-377.0-0.0","0","0","19108","","null","","","null","41","","","","","","","","","","","","","","","",""
"","ITI","","html-keyboard-response","275","291579","0.0-1.0-378.0","0","0","19108","","null","","","null","41","","","","","","","","","","","","","","","NaN",""
"","S1","","html-keyboard-response","276","291835","0.0-1.0-380.0","0","0","19108","","null","","","null","42","","","","","","","","","","","","","","","",""
"","ISI","","html-keyboard-response","277","292845","0.0-1.0-381.0","0","0","19108","","216","","","75","42","k","","","","","","","","","","","","","","",""
"","S2","","html-keyboard-response","278","293106","0.0-1.0-382.0","0","0","19108","","null","","","null","42","","NaN","","","","","","","","","","","","","",""
"","response","","html-keyboard-response","279","293744","0.0-1.0-383.0-0.0","0","0","19108","","635","","","75","42","","","1","42","training","adjacent","DE","4","5","O.jpg","Q.jpg","0","1","0","",""
"","feedback","","html-keyboard-response","280","294754","0.0-1.0-384.0-0.0","0","0","19108","","null","","","null","42","","","","","","","","","","","","","","","",""
"","time_out","","html-keyboard-response","281","296763","0.0-1.0-386.0-0.0","0","0","19108","","null","","","null","42","","","","","","","","","","","","","","","",""
"","ITI","","html-keyboard-response","282","297773","0.0-1.0-387.0","0","0","19108","","null","","","null","42","","","","","","","","","","","","","","","NaN",""
"","S1","","html-keyboard-response","283","298028","0.0-1.0-389.0","0","0","19108","","null","","","null","43","","","","","","","","","","","","","","","",""
"","ISI","","html-keyboard-response","284","299039","0.0-1.0-390.0","0","0","19108","","null","","","null","43","NaN","","","","","","","","","","","","","","",""
"","S2","","html-keyboard-response","285","299300","0.0-1.0-391.0","0","0","19108","","null","","","null","43","","NaN","","","","","","","","","","","","","",""
"","response","","html-keyboard-response","286","299832","0.0-1.0-392.0-0.0","0","0","19108","","529","","","68","43","","","1","43","training","adjacent","GF","7","6","M.jpg","N.jpg","1","0","0","",""
"","feedback","","html-keyboard-response","287","300844","0.0-1.0-393.0-0.0","0","0","19108","","null","","","null","43","","","","","","","","","","","","","","","",""
"","time_out","","html-keyboard-response","288","302853","0.0-1.0-395.0-0.0","0","0","19108","","null","","","null","43","","","","","","","","","","","","","","","",""
"","ITI","","html-keyboard-response","289","303863","0.0-1.0-396.0","0","0","19108","","null","","","null","43","","","","","","","","","","","","","","","NaN",""
"","S1","","html-keyboard-response","290","304124","0.0-1.0-398.0","0","0","19108","","null","","","null","44","","","","","","","","","","","","","","","",""
"","ISI","","html-keyboard-response","291","305134","0.0-1.0-399.0","0","0","19108","","null","","","null","44","NaN","","","","","","","","","","","","","","",""
"","S2","","html-keyboard-response","292","305395","0.0-1.0-400.0","0","0","19108","","null","","","null","44","","NaN","","","","","","","","","","","","","",""
"","response","","html-keyboard-response","293","305812","0.0-1.0-401.0-0.0","0","0","19108","","415","","","68","44","","","1","44","training","adjacent","EF","5","6","Q.jpg","N.jpg","1","1","1","",""
"","feedback","","html-keyboard-response","294","306823","0.0-1.0-402.0-0.0","0","0","19108","","null","","","null","44","","","","","","","","","","","","","","","",""
"","ITI","","html-keyboard-response","295","307828","0.0-1.0-405.0","0","0","19108","","null","","","null","44","","","","","","","","","","","","","","","NaN",""
"","S1","","html-keyboard-response","296","308083","0.0-1.0-407.0","0","0","19108","","null","","","null","45","","","","","","","","","","","","","","","",""
"","ISI","","html-keyboard-response","297","309093","0.0-1.0-408.0","0","0","19108","","null","","","null","45","NaN","","","","","","","","","","","","","","",""
"","S2","","html-keyboard-response","298","309349","0.0-1.0-409.0","0","0","19108","","null","","","null","45","","NaN","","","","","","","","","","","","","",""
"","response","","html-keyboard-response","299","309920","0.0-1.0-410.0-0.0","0","0","19108","","568","","","68","45","","","1","45","training","adjacent","FG","6","7","N.jpg","M.jpg","1","1","1","",""
"","feedback","","html-keyboard-response","300","310928","0.0-1.0-411.0-0.0","0","0","19108","","null","","","null","45","","","","","","","","","","","","","","","",""
"","ITI","","html-keyboard-response","301","311932","0.0-1.0-414.0","0","0","19108","","null","","","null","45","","","","","","","","","","","","","","","NaN",""
"","S1","","html-keyboard-response","302","312188","0.0-1.0-416.0","0","0","19108","","null","","","null","46","","","","","","","","","","","","","","","",""
"","ISI","","html-keyboard-response","303","313197","0.0-1.0-417.0","0","0","19108","","null","","","null","46","NaN","","","","","","","","","","","","","","",""
"","S2","","html-keyboard-response","304","313453","0.0-1.0-418.0","0","0","19108","","null","","","null","46","","NaN","","","","","","","","","","","","","",""
"","response","","html-keyboard-response","305","313768","0.0-1.0-419.0-0.0","0","0","19108","","313","","","75","46","","","1","46","training","adjacent","EF","5","6","Q.jpg","N.jpg","0","1","0","",""
"","feedback","","html-keyboard-response","306","314782","0.0-1.0-420.0-0.0","0","0","19108","","null","","","null","46","","","","","","","","","","","","","","","",""
"","time_out","","html-keyboard-response","307","316791","0.0-1.0-422.0-0.0","0","0","19108","","null","","","null","46","","","","","","","","","","","","","","","",""
"","ITI","","html-keyboard-response","308","317795","0.0-1.0-423.0","0","0","19108","","null","","","null","46","","","","","","","","","","","","","","","NaN",""
"","S1","","html-keyboard-response","309","318055","0.0-1.0-425.0","0","0","19108","","null","","","null","47","","","","","","","","","","","","","","","",""
"","ISI","","html-keyboard-response","310","319061","0.0-1.0-426.0","0","0","19108","","null","","","null","47","NaN","","","","","","","","","","","","","","",""
"","S2","","html-keyboard-response","311","319316","0.0-1.0-427.0","0","0","19108","","null","","","null","47","","NaN","","","","","","","","","","","","","",""
"","response","","html-keyboard-response","312","319759","0.0-1.0-428.0-0.0","0","0","19108","","440","","","68","47","","","1","47","training","adjacent","DC","4","3","O.jpg","P.jpg","1","0","0","",""
"","feedback","","html-keyboard-response","313","320767","0.0-1.0-429.0-0.0","0","0","19108","","null","","","null","47","","","","","","","","","","","","","","","",""
"","time_out","","html-keyboard-response","314","322776","0.0-1.0-431.0-0.0","0","0","19108","","null","","","null","47","","","","","","","","","","","","","","","",""
"","ITI","","html-keyboard-response","315","323780","0.0-1.0-432.0","0","0","19108","","null","","","null","47","","","","","","","","","","","","","","","NaN",""
"","block_over","","html-keyboard-response","316","330257","0.0-1.0-433.0-0.0","0","0","19108","","6472","","","32","47","","","","","","","","","","","","","","","",""
"","S1","","html-keyboard-response","317","330520","0.0-1.0-434.0","0","0","19108","","null","","","null","48","","","","","","","","","","","","","","","",""
"","ISI","","html-keyboard-response","318","331525","0.0-1.0-435.0","0","0","19108","","null","","","null","48","NaN","","","","","","","","","","","","","","",""
"","S2","","html-keyboard-response","319","331780","0.0-1.0-436.0","0","0","19108","","null","","","null","48","","NaN","","","","","","","","","","","","","",""
"","response","","html-keyboard-response","320","332212","0.0-1.0-437.0-0.0","0","0","19108","","430","","","68","48","","","2","48","training","adjacent","EF","5","6","Q.jpg","N.jpg","1","1","1","",""
"","feedback","","html-keyboard-response","321","333220","0.0-1.0-438.0-0.0","0","0","19108","","null","","","null","48","","","","","","","","","","","","","","","",""
"","ITI","","html-keyboard-response","322","334230","0.0-1.0-441.0","0","0","19108","","null","","","null","48","","","","","","","","","","","","","","","NaN",""
"","S1","","html-keyboard-response","323","334486","0.0-1.0-443.0","0","0","19108","","null","","","null","49","","","","","","","","","","","","","","","",""
"","ISI","","html-keyboard-response","324","335495","0.0-1.0-444.0","0","0","19108","","null","","","null","49","NaN","","","","","","","","","","","","","","",""
"","S2","","html-keyboard-response","325","335756","0.0-1.0-445.0","0","0","19108","","null","","","null","49","","NaN","","","","","","","","","","","","","",""
"","response","","html-keyboard-response","326","336033","0.0-1.0-446.0-0.0","0","0","19108","","275","","","75","49","","","2","49","training","adjacent","FG","6","7","N.jpg","M.jpg","0","1","0","",""
"","feedback","","html-keyboard-response","327","337045","0.0-1.0-447.0-0.0","0","0","19108","","null","","","null","49","","","","","","","","","","","","","","","",""
"","time_out","","html-keyboard-response","328","339054","0.0-1.0-449.0-0.0","0","0","19108","","null","","","null","49","","","","","","","","","","","","","","","",""
"","ITI","","html-keyboard-response","329","340064","0.0-1.0-450.0","0","0","19108","","null","","","null","49","","","","","","","","","","","","","","","NaN",""
"","S1","","html-keyboard-response","330","340325","0.0-1.0-452.0","0","0","19108","","null","","","null","50","","","","","","","","","","","","","","","",""
"","ISI","","html-keyboard-response","331","341335","0.0-1.0-453.0","0","0","19108","","null","","","null","50","NaN","","","","","","","","","","","","","","",""
"","S2","","html-keyboard-response","332","341596","0.0-1.0-454.0","0","0","19108","","null","","","null","50","","NaN","","","","","","","","","","","","","",""
"","response","","html-keyboard-response","333","341846","0.0-1.0-455.0-0.0","0","0","19108","","248","","","75","50","","","2","50","training","adjacent","BA","2","1","L.jpg","R.jpg","0","0","1","",""
"","feedback","","html-keyboard-response","334","342856","0.0-1.0-456.0-0.0","0","0","19108","","null","","","null","50","","","","","","","","","","","","","","","",""
"","ITI","","html-keyboard-response","335","343860","0.0-1.0-459.0","0","0","19108","","null","","","null","50","","","","","","","","","","","","","","","NaN",""
"","S1","","html-keyboard-response","336","344116","0.0-1.0-461.0","0","0","19108","","null","","","null","51","","","","","","","","","","","","","","","",""
"","ISI","","html-keyboard-response","337","345126","0.0-1.0-462.0","0","0","19108","","null","","","null","51","NaN","","","","","","","","","","","","","","",""
"","S2","","html-keyboard-response","338","345381","0.0-1.0-463.0","0","0","19108","","null","","","null","51","","NaN","","","","","","","","","","","","","",""
"","response","","html-keyboard-response","339","345715","0.0-1.0-464.0-0.0","0","0","19108","","332","","","75","51","","","2","51","training","adjacent","GF","7","6","M.jpg","N.jpg","0","0","1","",""
"","feedback","","html-keyboard-response","340","346728","0.0-1.0-465.0-0.0","0","0","19108","","null","","","null","51","","","","","","","","","","","","","","","",""
"","ITI","","html-keyboard-response","341","347732","0.0-1.0-468.0","0","0","19108","","null","","","null","51","","","","","","","","","","","","","","","NaN",""
"","S1","","html-keyboard-response","342","347988","0.0-1.0-470.0","0","0","19108","","null","","","null","52","","","","","","","","","","","","","","","",""
"","ISI","","html-keyboard-response","343","348998","0.0-1.0-471.0","0","0","19108","","null","","","null","52","NaN","","","","","","","","","","","","","","",""
"","S2","","html-keyboard-response","344","349253","0.0-1.0-472.0","0","0","19108","","null","","","null","52","","NaN","","","","","","","","","","","","","",""
"","response","","html-keyboard-response","345","349764","0.0-1.0-473.0-0.0","0","0","19108","","509","","","68","52","","","2","52","training","adjacent","AB","1","2","R.jpg","L.jpg","1","1","1","",""
"","feedback","","html-keyboard-response","346","350774","0.0-1.0-474.0-0.0","0","0","19108","","null","","","null","52","","","","","","","","","","","","","","","",""
"","ITI","","html-keyboard-response","347","351784","0.0-1.0-477.0","0","0","19108","","null","","","null","52","","","","","","","","","","","","","","","NaN",""
"","S1","","html-keyboard-response","348","352046","0.0-1.0-479.0","0","0","19108","","null","","","null","53","","","","","","","","","","","","","","","",""
"","ISI","","html-keyboard-response","349","353056","0.0-1.0-480.0","0","0","19108","","null","","","null","53","NaN","","","","","","","","","","","","","","",""
"","S2","","html-keyboard-response","350","353317","0.0-1.0-481.0","0","0","19108","","null","","","null","53","","NaN","","","","","","","","","","","","","",""
"","response","","html-keyboard-response","351","353698","0.0-1.0-482.0-0.0","0","0","19108","","379","","","68","53","","","2","53","training","adjacent","EF","5","6","Q.jpg","N.jpg","1","1","1","",""
"","feedback","","html-keyboard-response","352","354710","0.0-1.0-483.0-0.0","0","0","19108","","null","","","null","53","","","","","","","","","","","","","","","",""
"","ITI","","html-keyboard-response","353","355720","0.0-1.0-486.0","0","0","19108","","null","","","null","53","","","","","","","","","","","","","","","NaN",""
"","S1","","html-keyboard-response","354","355982","0.0-1.0-488.0","0","0","19108","","null","","","null","54","","","","","","","","","","","","","","","",""
"","ISI","","html-keyboard-response","355","356992","0.0-1.0-489.0","0","0","19108","","null","","","null","54","NaN","","","","","","","","","","","","","","",""
"","S2","","html-keyboard-response","356","357253","0.0-1.0-490.0","0","0","19108","","null","","","null","54","","NaN","","","","","","","","","","","","","",""
"","response","","html-keyboard-response","357","357653","0.0-1.0-491.0-0.0","0","0","19108","","398","","","68","54","","","2","54","training","adjacent","FE","6","5","N.jpg","Q.jpg","1","0","0","",""
"","feedback","","html-keyboard-response","358","358663","0.0-1.0-492.0-0.0","0","0","19108","","null","","","null","54","","","","","","","","","","","","","","","",""
"","time_out","","html-keyboard-response","359","360672","0.0-1.0-494.0-0.0","0","0","19108","","null","","","null","54","","","","","","","","","","","","","","","",""
"","ITI","","html-keyboard-response","360","361676","0.0-1.0-495.0","0","0","19108","","null","","","null","54","","","","","","","","","","","","","","","NaN",""
"","S1","","html-keyboard-response","361","361936","0.0-1.0-497.0","0","0","19108","","null","","","null","55","","","","","","","","","","","","","","","",""
"","ISI","","html-keyboard-response","362","362942","0.0-1.0-498.0","0","0","19108","","null","","","null","55","NaN","","","","","","","","","","","","","","",""
"","S2","","html-keyboard-response","363","363198","0.0-1.0-499.0","0","0","19108","","null","","","null","55","","NaN","","","","","","","","","","","","","",""
"","response","","html-keyboard-response","364","363426","0.0-1.0-500.0-0.0","0","0","19108","","226","","","75","55","","","2","55","training","adjacent","CB","3","2","P.jpg","L.jpg","0","0","1","",""
"","feedback","","html-keyboard-response","365","364440","0.0-1.0-501.0-0.0","0","0","19108","","null","","","null","55","","","","","","","","","","","","","","","",""
"","ITI","","html-keyboard-response","366","365447","0.0-1.0-504.0","0","0","19108","","null","","","null","55","","","","","","","","","","","","","","","NaN",""
"","S1","","html-keyboard-response","367","365705","0.0-1.0-506.0","0","0","19108","","null","","","null","56","","","","","","","","","","","","","","","",""
"","ISI","","html-keyboard-response","368","366709","0.0-1.0-507.0","0","0","19108","","null","","","null","56","NaN","","","","","","","","","","","","","","",""
"","S2","","html-keyboard-response","369","366965","0.0-1.0-508.0","0","0","19108","","null","","","null","56","","NaN","","","","","","","","","","","","","",""
"","response","","html-keyboard-response","370","367377","0.0-1.0-509.0-0.0","0","0","19108","","409","","","68","56","","","2","56","training","adjacent","DC","4","3","O.jpg","P.jpg","1","0","0","",""
"","feedback","","html-keyboard-response","371","368381","0.0-1.0-510.0-0.0","0","0","19108","","null","","","null","56","","","","","","","","","","","","","","","",""
"","time_out","","html-keyboard-response","372","370390","0.0-1.0-512.0-0.0","0","0","19108","","null","","","null","56","","","","","","","","","","","","","","","",""
"","ITI","","html-keyboard-response","373","371400","0.0-1.0-513.0","0","0","19108","","null","","","null","56","","","","","","","","","","","","","","","NaN",""
"","S1","","html-keyboard-response","374","371661","0.0-1.0-515.0","0","0","19108","","null","","","null","57","","","","","","","","","","","","","","","",""
"","ISI","","html-keyboard-response","375","372671","0.0-1.0-516.0","0","0","19108","","null","","","null","57","NaN","","","","","","","","","","","","","","",""
"","S2","","html-keyboard-response","376","372927","0.0-1.0-517.0","0","0","19108","","null","","","null","57","","NaN","","","","","","","","","","","","","",""
"","response","","html-keyboard-response","377","373262","0.0-1.0-518.0-0.0","0","0","19108","","334","","","68","57","","","2","57","training","adjacent","DC","4","3","O.jpg","P.jpg","1","0","0","",""
"","feedback","","html-keyboard-response","378","374274","0.0-1.0-519.0-0.0","0","0","19108","","null","","","null","57","","","","","","","","","","","","","","","",""
"","time_out","","html-keyboard-response","379","376277","0.0-1.0-521.0-0.0","0","0","19108","","null","","","null","57","","","","","","","","","","","","","","","",""
"","ITI","","html-keyboard-response","380","377286","0.0-1.0-522.0","0","0","19108","","null","","","null","57","","","","","","","","","","","","","","","NaN",""
"","S1","","html-keyboard-response","381","377542","0.0-1.0-524.0","0","0","19108","","null","","","null","58","","","","","","","","","","","","","","","",""
"","ISI","","html-keyboard-response","382","378552","0.0-1.0-525.0","0","0","19108","","null","","","null","58","NaN","","","","","","","","","","","","","","",""
"","S2","","html-keyboard-response","383","378813","0.0-1.0-526.0","0","0","19108","","null","","","null","58","","NaN","","","","","","","","","","","","","",""
"","response","","html-keyboard-response","384","379223","0.0-1.0-527.0-0.0","0","0","19108","","407","","","68","58","","","2","58","training","adjacent","CB","3","2","P.jpg","L.jpg","1","0","0","",""
"","feedback","","html-keyboard-response","385","380230","0.0-1.0-528.0-0.0","0","0","19108","","null","","","null","58","","","","","","","","","","","","","","","",""
"","time_out","","html-keyboard-response","386","382238","0.0-1.0-530.0-0.0","0","0","19108","","null","","","null","58","","","","","","","","","","","","","","","",""
"","ITI","","html-keyboard-response","387","383248","0.0-1.0-531.0","0","0","19108","","null","","","null","58","","","","","","","","","","","","","","","NaN",""
"","S1","","html-keyboard-response","388","383510","0.0-1.0-533.0","0","0","19108","","null","","","null","59","","","","","","","","","","","","","","","",""
"","ISI","","html-keyboard-response","389","384520","0.0-1.0-534.0","0","0","19108","","null","","","null","59","NaN","","","","","","","","","","","","","","",""
"","S2","","html-keyboard-response","390","384775","0.0-1.0-535.0","0","0","19108","","null","","","null","59","","NaN","","","","","","","","","","","","","",""
"","response","","html-keyboard-response","391","385078","0.0-1.0-536.0-0.0","0","0","19108","","301","","","75","59","","","2","59","training","adjacent","GF","7","6","M.jpg","N.jpg","0","0","1","",""
"","feedback","","html-keyboard-response","392","386089","0.0-1.0-537.0-0.0","0","0","19108","","null","","","null","59","","","","","","","","","","","","","","","",""
"","ITI","","html-keyboard-response","393","387097","0.0-1.0-540.0","0","0","19108","","null","","","null","59","","","","","","","","","","","","","","","NaN",""
"","S1","","html-keyboard-response","394","387359","0.0-1.0-542.0","0","0","19108","","null","","","null","60","","","","","","","","","","","","","","","",""
"","ISI","","html-keyboard-response","395","388368","0.0-1.0-543.0","0","0","19108","","null","","","null","60","NaN","","","","","","","","","","","","","","",""
"","S2","","html-keyboard-response","396","388632","0.0-1.0-544.0","0","0","19108","","null","","","null","60","","NaN","","","","","","","","","","","","","",""
"","response","","html-keyboard-response","397","388999","0.0-1.0-545.0-0.0","0","0","19108","","364","","","75","60","","","2","60","training","adjacent","FE","6","5","N.jpg","Q.jpg","0","0","1","",""
"","feedback","","html-keyboard-response","398","390006","0.0-1.0-546.0-0.0","0","0","19108","","null","","","null","60","","","","","","","","","","","","","","","",""
"","ITI","","html-keyboard-response","399","391016","0.0-1.0-549.0","0","0","19108","","null","","","null","60","","","","","","","","","","","","","","","NaN",""
"","S1","","html-keyboard-response","400","391271","0.0-1.0-551.0","0","0","19108","","null","","","null","61","","","","","","","","","","","","","","","",""
"","ISI","","html-keyboard-response","401","392281","0.0-1.0-552.0","0","0","19108","","null","","","null","61","NaN","","","","","","","","","","","","","","",""
"","S2","","html-keyboard-response","402","392542","0.0-1.0-553.0","0","0","19108","","null","","","null","61","","NaN","","","","","","","","","","","","","",""
"","response","","html-keyboard-response","403","393086","0.0-1.0-554.0-0.0","0","0","19108","","541","","","75","61","","","2","61","training","adjacent","CD","3","4","P.jpg","O.jpg","0","1","0","",""
"","feedback","","html-keyboard-response","404","394098","0.0-1.0-555.0-0.0","0","0","19108","","null","","","null","61","","","","","","","","","","","","","","","",""
"","time_out","","html-keyboard-response","405","396112","0.0-1.0-557.0-0.0","0","0","19108","","null","","","null","61","","","","","","","","","","","","","","","",""
"","ITI","","html-keyboard-response","406","397122","0.0-1.0-558.0","0","0","19108","","null","","","null","61","","","","","","","","","","","","","","","NaN",""
"","S1","","html-keyboard-response","407","397384","0.0-1.0-560.0","0","0","19108","","null","","","null","62","","","","","","","","","","","","","","","",""
"","ISI","","html-keyboard-response","408","398394","0.0-1.0-561.0","0","0","19108","","null","","","null","62","NaN","","","","","","","","","","","","","","",""
"","S2","","html-keyboard-response","409","398655","0.0-1.0-562.0","0","0","19108","","null","","","null","62","","NaN","","","","","","","","","","","","","",""
"","response","","html-keyboard-response","410","399075","0.0-1.0-563.0-0.0","0","0","19108","","417","","","68","62","","","2","62","training","adjacent","BA","2","1","L.jpg","R.jpg","1","0","0","",""
"","feedback","","html-keyboard-response","411","400089","0.0-1.0-564.0-0.0","0","0","19108","","null","","","null","62","","","","","","","","","","","","","","","",""
"","time_out","","html-keyboard-response","412","402098","0.0-1.0-566.0-0.0","0","0","19108","","null","","","null","62","","","","","","","","","","","","","","","",""
"","ITI","","html-keyboard-response","413","403102","0.0-1.0-567.0","0","0","19108","","null","","","null","62","","","","","","","","","","","","","","","NaN",""
"","S1","","html-keyboard-response","414","403361","0.0-1.0-569.0","0","0","19108","","null","","","null","63","","","","","","","","","","","","","","","",""
"","ISI","","html-keyboard-response","415","404368","0.0-1.0-570.0","0","0","19108","","null","","","null","63","NaN","","","","","","","","","","","","","","",""
"","S2","","html-keyboard-response","416","404626","0.0-1.0-571.0","0","0","19108","","null","","","null","63","","NaN","","","","","","","","","","","","","",""
"","response","","html-keyboard-response","417","404916","0.0-1.0-572.0-0.0","0","0","19108","","287","","","75","63","","","2","63","training","adjacent","FG","6","7","N.jpg","M.jpg","0","1","0","",""
"","feedback","","html-keyboard-response","418","405929","0.0-1.0-573.0-0.0","0","0","19108","","null","","","null","63","","","","","","","","","","","","","","","",""
"","time_out","","html-keyboard-response","419","407938","0.0-1.0-575.0-0.0","0","0","19108","","null","","","null","63","","","","","","","","","","","","","","","",""
"","ITI","","html-keyboard-response","420","408942","0.0-1.0-576.0","0","0","19108","","null","","","null","63","","","","","","","","","","","","","","","NaN",""
"","S1","","html-keyboard-response","421","409198","0.0-1.0-578.0","0","0","19108","","null","","","null","64","","","","","","","","","","","","","","","",""
"","ISI","","html-keyboard-response","422","410208","0.0-1.0-579.0","0","0","19108","","null","","","null","64","NaN","","","","","","","","","","","","","","",""
"","S2","","html-keyboard-response","423","410463","0.0-1.0-580.0","0","0","19108","","null","","","null","64","","NaN","","","","","","","","","","","","","",""
"","response","","html-keyboard-response","424","410743","0.0-1.0-581.0-0.0","0","0","19108","","277","","","68","64","","","2","64","training","adjacent","EF","5","6","Q.jpg","N.jpg","1","1","1","",""
"","feedback","","html-keyboard-response","425","411754","0.0-1.0-582.0-0.0","0","0","19108","","null","","","null","64","","","","","","","","","","","","","","","",""
"","ITI","","html-keyboard-response","426","409305","0.0-1.0-585.0","0","0","19108","","null","","","null","64","","","","","","","","","","","","","","","NaN",""
"","S1","","html-keyboard-response","427","409566","0.0-1.0-587.0","0","0","19108","","null","","","null","65","","","","","","","","","","","","","","","",""
"","ISI","","html-keyboard-response","428","410576","0.0-1.0-588.0","0","0","19108","","null","","","null","65","NaN","","","","","","","","","","","","","","",""
"","S2","","html-keyboard-response","429","410837","0.0-1.0-589.0","0","0","19108","","null","","","null","65","","NaN","","","","","","","","","","","","","",""
"","response","","html-keyboard-response","430","411204","0.0-1.0-590.0-0.0","0","0","19108","","364","","","68","65","","","2","65","training","adjacent","EF","5","6","Q.jpg","N.jpg","1","1","1","",""
"","feedback","","html-keyboard-response","431","412213","0.0-1.0-591.0-0.0","0","0","19108","","null","","","null","65","","","","","","","","","","","","","","","",""
"","ITI","","html-keyboard-response","432","413223","0.0-1.0-594.0","0","0","19108","","null","","","null","65","","","","","","","","","","","","","","","NaN",""
"","S1","","html-keyboard-response","433","413478","0.0-1.0-596.0","0","0","19108","","null","","","null","66","","","","","","","","","","","","","","","",""
"","ISI","","html-keyboard-response","434","414488","0.0-1.0-597.0","0","0","19108","","null","","","null","66","NaN","","","","","","","","","","","","","","",""
"","S2","","html-keyboard-response","435","414750","0.0-1.0-598.0","0","0","19108","","null","","","null","66","","NaN","","","","","","","","","","","","","",""
"","response","","html-keyboard-response","436","415100","0.0-1.0-599.0-0.0","0","0","19108","","348","","","68","66","","","2","66","training","adjacent","CD","3","4","P.jpg","O.jpg","1","1","1","",""
"","feedback","","html-keyboard-response","437","416111","0.0-1.0-600.0-0.0","0","0","19108","","null","","","null","66","","","","","","","","","","","","","","","",""
"","ITI","","html-keyboard-response","438","417118","0.0-1.0-603.0","0","0","19108","","null","","","null","66","","","","","","","","","","","","","","","NaN",""
"","S1","","html-keyboard-response","439","417374","0.0-1.0-605.0","0","0","19108","","null","","","null","67","","","","","","","","","","","","","","","",""
"","ISI","","html-keyboard-response","440","418384","0.0-1.0-606.0","0","0","19108","","null","","","null","67","NaN","","","","","","","","","","","","","","",""
"","S2","","html-keyboard-response","441","418645","0.0-1.0-607.0","0","0","19108","","null","","","null","67","","NaN","","","","","","","","","","","","","",""
"","response","","html-keyboard-response","442","419112","0.0-1.0-608.0-0.0","0","0","19108","","464","","","68","67","","","2","67","training","adjacent","AB","1","2","R.jpg","L.jpg","1","1","1","",""
"","feedback","","html-keyboard-response","443","420120","0.0-1.0-609.0-0.0","0","0","19108","","null","","","null","67","","","","","","","","","","","","","","","",""
"","ITI","","html-keyboard-response","444","421129","0.0-1.0-612.0","0","0","19108","","null","","","null","67","","","","","","","","","","","","","","","NaN",""
"","S1","","html-keyboard-response","445","421390","0.0-1.0-614.0","0","0","19108","","null","","","null","68","","","","","","","","","","","","","","","",""
"","ISI","","html-keyboard-response","446","422401","0.0-1.0-615.0","0","0","19108","","null","","","null","68","NaN","","","","","","","","","","","","","","",""
"","S2","","html-keyboard-response","447","422662","0.0-1.0-616.0","0","0","19108","","null","","","null","68","","NaN","","","","","","","","","","","","","",""
"","response","","html-keyboard-response","448","423174","0.0-1.0-617.0-0.0","0","0","19108","","509","","","68","68","","","2","68","training","adjacent","ED","5","4","Q.jpg","O.jpg","1","0","0","",""
"","feedback","","html-keyboard-response","449","424183","0.0-1.0-618.0-0.0","0","0","19108","","null","","","null","68","","","","","","","","","","","","","","","",""
"","time_out","","html-keyboard-response","450","426192","0.0-1.0-620.0-0.0","0","0","19108","","null","","","null","68","","","","","","","","","","","","","","","",""
"","ITI","","html-keyboard-response","451","427202","0.0-1.0-621.0","0","0","19108","","null","","","null","68","","","","","","","","","","","","","","","NaN",""
"","S1","","html-keyboard-response","452","427463","0.0-1.0-623.0","0","0","19108","","null","","","null","69","","","","","","","","","","","","","","","",""
"","ISI","","html-keyboard-response","453","428473","0.0-1.0-624.0","0","0","19108","","null","","","null","69","NaN","","","","","","","","","","","","","","",""
"","S2","","html-keyboard-response","454","428734","0.0-1.0-625.0","0","0","19108","","null","","","null","69","","NaN","","","","","","","","","","","","","",""
"","response","","html-keyboard-response","455","428986","0.0-1.0-626.0-0.0","0","0","19108","","249","","","75","69","","","2","69","training","adjacent","ED","5","4","Q.jpg","O.jpg","0","0","1","",""
"","feedback","","html-keyboard-response","456","429999","0.0-1.0-627.0-0.0","0","0","19108","","null","","","null","69","","","","","","","","","","","","","","","",""
"","ITI","","html-keyboard-response","457","431009","0.0-1.0-630.0","0","0","19108","","null","","","null","69","","","","","","","","","","","","","","","NaN",""
"","S1","","html-keyboard-response","458","431271","0.0-1.0-632.0","0","0","19108","","null","","","null","70","","","","","","","","","","","","","","","",""
"","ISI","","html-keyboard-response","459","432281","0.0-1.0-633.0","0","0","19108","","null","","","null","70","NaN","","","","","","","","","","","","","","",""
"","S2","","html-keyboard-response","460","432542","0.0-1.0-634.0","0","0","19108","","null","","","null","70","","NaN","","","","","","","","","","","","","",""
"","response","","html-keyboard-response","461","432831","0.0-1.0-635.0-0.0","0","0","19108","","286","","","75","70","","","2","70","training","adjacent","FE","6","5","N.jpg","Q.jpg","0","0","1","",""
"","feedback","","html-keyboard-response","462","433839","0.0-1.0-636.0-0.0","0","0","19108","","null","","","null","70","","","","","","","","","","","","","","","",""
"","ITI","","html-keyboard-response","463","434846","0.0-1.0-639.0","0","0","19108","","null","","","null","70","","","","","","","","","","","","","","","NaN",""
"","S1","","html-keyboard-response","464","435102","0.0-1.0-641.0","0","0","19108","","null","","","null","71","","","","","","","","","","","","","","","",""
"","ISI","","html-keyboard-response","465","436112","0.0-1.0-642.0","0","0","19108","","null","","","null","71","NaN","","","","","","","","","","","","","","",""
"","S2","","html-keyboard-response","466","436373","0.0-1.0-643.0","0","0","19108","","null","","","null","71","","NaN","","","","","","","","","","","","","",""
"","response","","html-keyboard-response","467","437055","0.0-1.0-644.0-0.0","0","0","19108","","679","","","75","71","","","2","71","training","adjacent","ED","5","4","Q.jpg","O.jpg","0","0","1","",""
"","feedback","","html-keyboard-response","468","438063","0.0-1.0-645.0-0.0","0","0","19108","","null","","","null","71","","","","","","","","","","","","","","","",""
"","ITI","","html-keyboard-response","469","439073","0.0-1.0-648.0","0","0","19108","","null","","","null","71","","","","","","","","","","","","","","","NaN",""
"","S1","","html-keyboard-response","470","439334","0.0-1.0-650.0","0","0","19108","","null","","","null","72","","","","","","","","","","","","","","","",""
"","ISI","","html-keyboard-response","471","440344","0.0-1.0-651.0","0","0","19108","","null","","","null","72","NaN","","","","","","","","","","","","","","",""
"","S2","","html-keyboard-response","472","440605","0.0-1.0-652.0","0","0","19108","","null","","","null","72","","NaN","","","","","","","","","","","","","",""
"","response","","html-keyboard-response","473","440930","0.0-1.0-653.0-0.0","0","0","19108","","323","","","75","72","","","2","72","training","adjacent","DE","4","5","O.jpg","Q.jpg","0","1","0","",""
"","feedback","","html-keyboard-response","474","441940","0.0-1.0-654.0-0.0","0","0","19108","","null","","","null","72","","","","","","","","","","","","","","","",""
"","time_out","","html-keyboard-response","475","443949","0.0-1.0-656.0-0.0","0","0","19108","","null","","","null","72","","","","","","","","","","","","","","","",""
"","ITI","","html-keyboard-response","476","444959","0.0-1.0-657.0","0","0","19108","","null","","","null","72","","","","","","","","","","","","","","","NaN",""
"","S1","","html-keyboard-response","477","445214","0.0-1.0-659.0","0","0","19108","","null","","","null","73","","","","","","","","","","","","","","","",""
"","ISI","","html-keyboard-response","478","446224","0.0-1.0-660.0","0","0","19108","","null","","","null","73","NaN","","","","","","","","","","","","","","",""
"","S2","","html-keyboard-response","479","446486","0.0-1.0-661.0","0","0","19108","","null","","","null","73","","NaN","","","","","","","","","","","","","",""
"","response","","html-keyboard-response","480","446919","0.0-1.0-662.0-0.0","0","0","19108","","432","","","68","73","","","2","73","training","adjacent","FG","6","7","N.jpg","M.jpg","1","1","1","",""
"","feedback","","html-keyboard-response","481","447925","0.0-1.0-663.0-0.0","0","0","19108","","null","","","null","73","","","","","","","","","","","","","","","",""
"","ITI","","html-keyboard-response","482","448935","0.0-1.0-666.0","0","0","19108","","null","","","null","73","","","","","","","","","","","","","","","NaN",""
"","S1","","html-keyboard-response","483","449191","0.0-1.0-668.0","0","0","19108","","null","","","null","74","","","","","","","","","","","","","","","",""
"","ISI","","html-keyboard-response","484","450201","0.0-1.0-669.0","0","0","19108","","null","","","null","74","NaN","","","","","","","","","","","","","","",""
"","S2","","html-keyboard-response","485","450462","0.0-1.0-670.0","0","0","19108","","null","","","null","74","","NaN","","","","","","","","","","","","","",""
"","response","","html-keyboard-response","486","450877","0.0-1.0-671.0-0.0","0","0","19108","","412","","","68","74","","","2","74","training","adjacent","BC","2","3","L.jpg","P.jpg","1","1","1","",""
"","feedback","","html-keyboard-response","487","451885","0.0-1.0-672.0-0.0","0","0","19108","","null","","","null","74","","","","","","","","","","","","","","","",""
"","ITI","","html-keyboard-response","488","452894","0.0-1.0-675.0","0","0","19108","","null","","","null","74","","","","","","","","","","","","","","","NaN",""
"","S1","","html-keyboard-response","489","453150","0.0-1.0-677.0","0","0","19108","","null","","","null","75","","","","","","","","","","","","","","","",""
"","ISI","","html-keyboard-response","490","454160","0.0-1.0-678.0","0","0","19108","","null","","","null","75","NaN","","","","","","","","","","","","","","",""
"","S2","","html-keyboard-response","491","454415","0.0-1.0-679.0","0","0","19108","","null","","","null","75","","NaN","","","","","","","","","","","","","",""
"","response","","html-keyboard-response","492","454881","0.0-1.0-680.0-0.0","0","0","19108","","463","","","68","75","","","2","75","training","adjacent","BC","2","3","L.jpg","P.jpg","1","1","1","",""
"","feedback","","html-keyboard-response","493","455889","0.0-1.0-681.0-0.0","0","0","19108","","null","","","null","75","","","","","","","","","","","","","","","",""
"","ITI","","html-keyboard-response","494","456894","0.0-1.0-684.0","0","0","19108","","null","","","null","75","","","","","","","","","","","","","","","NaN",""
"","S1","","html-keyboard-response","495","457150","0.0-1.0-686.0","0","0","19108","","null","","","null","76","","","","","","","","","","","","","","","",""
"","ISI","","html-keyboard-response","496","458159","0.0-1.0-687.0","0","0","19108","","null","","","null","76","NaN","","","","","","","","","","","","","","",""
"","S2","","html-keyboard-response","497","458415","0.0-1.0-688.0","0","0","19108","","null","","","null","76","","NaN","","","","","","","","","","","","","",""
"","response","","html-keyboard-response","498","458918","0.0-1.0-689.0-0.0","0","0","19108","","501","","","68","76","","","2","76","training","adjacent","BA","2","1","L.jpg","R.jpg","1","0","0","",""
"","feedback","","html-keyboard-response","499","459925","0.0-1.0-690.0-0.0","0","0","19108","","null","","","null","76","","","","","","","","","","","","","","","",""
"","time_out","","html-keyboard-response","500","461935","0.0-1.0-692.0-0.0","0","0","19108","","null","","","null","76","","","","","","","","","","","","","","","",""
"","ITI","","html-keyboard-response","501","462943","0.0-1.0-693.0","0","0","19108","","null","","","null","76","","","","","","","","","","","","","","","NaN",""
"","S1","","html-keyboard-response","502","463198","0.0-1.0-695.0","0","0","19108","","null","","","null","77","","","","","","","","","","","","","","","",""
"","ISI","","html-keyboard-response","503","464208","0.0-1.0-696.0","0","0","19108","","null","","","null","77","NaN","","","","","","","","","","","","","","",""
"","S2","","html-keyboard-response","504","464469","0.0-1.0-697.0","0","0","19108","","null","","","null","77","","NaN","","","","","","","","","","","","","",""
"","response","","html-keyboard-response","505","464748","0.0-1.0-698.0-0.0","0","0","19108","","276","","","75","77","","","2","77","training","adjacent","ED","5","4","Q.jpg","O.jpg","0","0","1","",""
"","feedback","","html-keyboard-response","506","465758","0.0-1.0-699.0-0.0","0","0","19108","","null","","","null","77","","","","","","","","","","","","","","","",""
"","ITI","","html-keyboard-response","507","466768","0.0-1.0-702.0","0","0","19108","","null","","","null","77","","","","","","","","","","","","","","","NaN",""
"","S1","","html-keyboard-response","508","467029","0.0-1.0-704.0","0","0","19108","","null","","","null","78","","","","","","","","","","","","","","","",""
"","ISI","","html-keyboard-response","509","468039","0.0-1.0-705.0","0","0","19108","","null","","","null","78","NaN","","","","","","","","","","","","","","",""
"","S2","","html-keyboard-response","510","468295","0.0-1.0-706.0","0","0","19108","","null","","","null","78","","NaN","","","","","","","","","","","","","",""
"","response","","html-keyboard-response","511","468640","0.0-1.0-707.0-0.0","0","0","19108","","342","","","75","78","","","2","78","training","adjacent","AB","1","2","R.jpg","L.jpg","0","1","0","",""
"","feedback","","html-keyboard-response","512","469647","0.0-1.0-708.0-0.0","0","0","19108","","null","","","null","78","","","","","","","","","","","","","","","",""
"","time_out","","html-keyboard-response","513","471656","0.0-1.0-710.0-0.0","0","0","19108","","null","","","null","78","","","","","","","","","","","","","","","",""
"","ITI","","html-keyboard-response","514","472666","0.0-1.0-711.0","0","0","19108","","null","","","null","78","","","","","","","","","","","","","","","NaN",""
"","S1","","html-keyboard-response","515","472927","0.0-1.0-713.0","0","0","19108","","null","","","null","79","","","","","","","","","","","","","","","",""
"","ISI","","html-keyboard-response","516","473937","0.0-1.0-714.0","0","0","19108","","633","","","68","79","d","","","","","","","","","","","","","","",""
"","S2","","html-keyboard-response","517","474198","0.0-1.0-715.0","0","0","19108","","null","","","null","79","","NaN","","","","","","","","","","","","","",""
"","response","","html-keyboard-response","518","474564","0.0-1.0-716.0-0.0","0","0","19108","","363","","","68","79","","","2","79","training","adjacent","DE","4","5","O.jpg","Q.jpg","1","1","1","",""
"","feedback","","html-keyboard-response","519","475574","0.0-1.0-717.0-0.0","0","0","19108","","null","","","null","79","","","","","","","","","","","","","","","",""
"","ITI","","html-keyboard-response","520","476585","0.0-1.0-720.0","0","0","19108","","null","","","null","79","","","","","","","","","","","","","","","NaN",""
"","S1","","html-keyboard-response","521","476846","0.0-1.0-722.0","0","0","19108","","null","","","null","80","","","","","","","","","","","","","","","",""
"","ISI","","html-keyboard-response","522","477857","0.0-1.0-723.0","0","0","19108","","null","","","null","80","NaN","","","","","","","","","","","","","","",""
"","S2","","html-keyboard-response","523","478117","0.0-1.0-724.0","0","0","19108","","null","","","null","80","","NaN","","","","","","","","","","","","","",""
"","response","","html-keyboard-response","524","478836","0.0-1.0-725.0-0.0","0","0","19108","","716","","","68","80","","","2","80","training","adjacent","BA","2","1","L.jpg","R.jpg","1","0","0","",""
"","feedback","","html-keyboard-response","525","479847","0.0-1.0-726.0-0.0","0","0","19108","","null","","","null","80","","","","","","","","","","","","","","","",""
"","time_out","","html-keyboard-response","526","481855","0.0-1.0-728.0-0.0","0","0","19108","","null","","","null","80","","","","","","","","","","","","","","","",""
"","ITI","","html-keyboard-response","527","482865","0.0-1.0-729.0","0","0","19108","","null","","","null","80","","","","","","","","","","","","","","","NaN",""
"","S1","","html-keyboard-response","528","483126","0.0-1.0-731.0","0","0","19108","","null","","","null","81","","","","","","","","","","","","","","","",""
"","ISI","","html-keyboard-response","529","484137","0.0-1.0-732.0","0","0","19108","","null","","","null","81","NaN","","","","","","","","","","","","","","",""
"","S2","","html-keyboard-response","530","484398","0.0-1.0-733.0","0","0","19108","","null","","","null","81","","NaN","","","","","","","","","","","","","",""
"","response","","html-keyboard-response","531","484775","0.0-1.0-734.0-0.0","0","0","19108","","375","","","75","81","","","2","81","training","adjacent","FE","6","5","N.jpg","Q.jpg","0","0","1","",""
"","feedback","","html-keyboard-response","532","485785","0.0-1.0-735.0-0.0","0","0","19108","","null","","","null","81","","","","","","","","","","","","","","","",""
"","ITI","","html-keyboard-response","533","486789","0.0-1.0-738.0","0","0","19108","","null","","","null","81","","","","","","","","","","","","","","","NaN",""
"","S1","","html-keyboard-response","534","487045","0.0-1.0-740.0","0","0","19108","","null","","","null","82","","","","","","","","","","","","","","","",""
"","ISI","","html-keyboard-response","535","488055","0.0-1.0-741.0","0","0","19108","","null","","","null","82","NaN","","","","","","","","","","","","","","",""
"","S2","","html-keyboard-response","536","488311","0.0-1.0-742.0","0","0","19108","","null","","","null","82","","NaN","","","","","","","","","","","","","",""
"","response","","html-keyboard-response","537","488799","0.0-1.0-743.0-0.0","0","0","19108","","485","","","68","82","","","2","82","training","adjacent","CD","3","4","P.jpg","O.jpg","1","1","1","",""
"","feedback","","html-keyboard-response","538","489808","0.0-1.0-744.0-0.0","0","0","19108","","null","","","null","82","","","","","","","","","","","","","","","",""
"","ITI","","html-keyboard-response","539","490813","0.0-1.0-747.0","0","0","19108","","null","","","null","82","","","","","","","","","","","","","","","NaN",""
"","S1","","html-keyboard-response","540","491072","0.0-1.0-749.0","0","0","19108","","null","","","null","83","","","","","","","","","","","","","","","",""
"","ISI","","html-keyboard-response","541","492078","0.0-1.0-750.0","0","0","19108","","null","","","null","83","NaN","","","","","","","","","","","","","","",""
"","S2","","html-keyboard-response","542","492333","0.0-1.0-751.0","0","0","19108","","null","","","null","83","","NaN","","","","","","","","","","","","","",""
"","response","","html-keyboard-response","543","493766","0.0-1.0-752.0-0.0","0","0","19108","","1430","","","75","83","","","2","83","training","adjacent","FG","6","7","N.jpg","M.jpg","0","1","0","",""
"","feedback","","html-keyboard-response","544","494776","0.0-1.0-753.0-0.0","0","0","19108","","null","","","null","83","","","","","","","","","","","","","","","",""
"","time_out","","html-keyboard-response","545","496785","0.0-1.0-755.0-0.0","0","0","19108","","null","","","null","83","","","","","","","","","","","","","","","",""
"","ITI","","html-keyboard-response","546","497790","0.0-1.0-756.0","0","0","19108","","null","","","null","83","","","","","","","","","","","","","","","NaN",""
"","S1","","html-keyboard-response","547","498045","0.0-1.0-758.0","0","0","19108","","null","","","null","84","","","","","","","","","","","","","","","",""
"","ISI","","html-keyboard-response","548","499055","0.0-1.0-759.0","0","0","19108","","null","","","null","84","NaN","","","","","","","","","","","","","","",""
"","S2","","html-keyboard-response","549","499316","0.0-1.0-760.0","0","0","19108","","null","","","null","84","","NaN","","","","","","","","","","","","","",""
"","response","","html-keyboard-response","550","499852","0.0-1.0-761.0-0.0","0","0","19108","","534","","","68","84","","","2","84","training","adjacent","CB","3","2","P.jpg","L.jpg","1","0","0","",""
"","feedback","","html-keyboard-response","551","500861","0.0-1.0-762.0-0.0","0","0","19108","","null","","","null","84","","","","","","","","","","","","","","","",""
"","time_out","","html-keyboard-response","552","502869","0.0-1.0-764.0-0.0","0","0","19108","","null","","","null","84","","","","","","","","","","","","","","","",""
"","ITI","","html-keyboard-response","553","503879","0.0-1.0-765.0","0","0","19108","","null","","","null","84","","","","","","","","","","","","","","","NaN",""
"","S1","","html-keyboard-response","554","504137","0.0-1.0-767.0","0","0","19108","","null","","","null","85","","","","","","","","","","","","","","","",""
"","ISI","","html-keyboard-response","555","505145","0.0-1.0-768.0","0","0","19108","","null","","","null","85","NaN","","","","","","","","","","","","","","",""
"","S2","","html-keyboard-response","556","505406","0.0-1.0-769.0","0","0","19108","","null","","","null","85","","NaN","","","","","","","","","","","","","",""
"","response","","html-keyboard-response","557","505934","0.0-1.0-770.0-0.0","0","0","19108","","525","","","75","85","","","2","85","training","adjacent","DC","4","3","O.jpg","P.jpg","0","0","1","",""
"","feedback","","html-keyboard-response","558","506944","0.0-1.0-771.0-0.0","0","0","19108","","null","","","null","85","","","","","","","","","","","","","","","",""
"","ITI","","html-keyboard-response","559","507948","0.0-1.0-774.0","0","0","19108","","null","","","null","85","","","","","","","","","","","","","","","NaN",""
"","S1","","html-keyboard-response","560","508208","0.0-1.0-776.0","0","0","19108","","null","","","null","86","","","","","","","","","","","","","","","",""
"","ISI","","html-keyboard-response","561","509214","0.0-1.0-777.0","0","0","19108","","null","","","null","86","NaN","","","","","","","","","","","","","","",""
"","S2","","html-keyboard-response","562","509469","0.0-1.0-778.0","0","0","19108","","null","","","null","86","","NaN","","","","","","","","","","","","","",""
"","response","","html-keyboard-response","563","509951","0.0-1.0-779.0-0.0","0","0","19108","","480","","","68","86","","","2","86","training","adjacent","CD","3","4","P.jpg","O.jpg","1","1","1","",""
"","feedback","","html-keyboard-response","564","510961","0.0-1.0-780.0-0.0","0","0","19108","","null","","","null","86","","","","","","","","","","","","","","","",""
"","ITI","","html-keyboard-response","565","511977","0.0-1.0-783.0","0","0","19108","","null","","","null","86","","","","","","","","","","","","","","","NaN",""
"","S1","","html-keyboard-response","566","512238","0.0-1.0-785.0","0","0","19108","","null","","","null","87","","","","","","","","","","","","","","","",""
"","ISI","","html-keyboard-response","567","513248","0.0-1.0-786.0","0","0","19108","","null","","","null","87","NaN","","","","","","","","","","","","","","",""
"","S2","","html-keyboard-response","568","513510","0.0-1.0-787.0","0","0","19108","","null","","","null","87","","NaN","","","","","","","","","","","","","",""
"","response","","html-keyboard-response","569","514104","0.0-1.0-788.0-0.0","0","0","19108","","592","","","75","87","","","2","87","training","adjacent","BC","2","3","L.jpg","P.jpg","0","1","0","",""
"","feedback","","html-keyboard-response","570","515112","0.0-1.0-789.0-0.0","0","0","19108","","null","","","null","87","","","","","","","","","","","","","","","",""
"","time_out","","html-keyboard-response","571","517121","0.0-1.0-791.0-0.0","0","0","19108","","null","","","null","87","","","","","","","","","","","","","","","",""
"","ITI","","html-keyboard-response","572","518125","0.0-1.0-792.0","0","0","19108","","null","","","null","87","","","","","","","","","","","","","","","NaN",""
"","S1","","html-keyboard-response","573","518385","0.0-1.0-794.0","0","0","19108","","null","","","null","88","","","","","","","","","","","","","","","",""
"","ISI","","html-keyboard-response","574","519390","0.0-1.0-795.0","0","0","19108","","null","","","null","88","NaN","","","","","","","","","","","","","","",""
"","S2","","html-keyboard-response","575","519645","0.0-1.0-796.0","0","0","19108","","null","","","null","88","","NaN","","","","","","","","","","","","","",""
"","response","","html-keyboard-response","576","520040","0.0-1.0-797.0-0.0","0","0","19108","","393","","","68","88","","","2","88","training","adjacent","GF","7","6","M.jpg","N.jpg","1","0","0","",""
"","feedback","","html-keyboard-response","577","521044","0.0-1.0-798.0-0.0","0","0","19108","","null","","","null","88","","","","","","","","","","","","","","","",""
"","time_out","","html-keyboard-response","578","523053","0.0-1.0-800.0-0.0","0","0","19108","","null","","","null","88","","","","","","","","","","","","","","","",""
"","ITI","","html-keyboard-response","579","524063","0.0-1.0-801.0","0","0","19108","","null","","","null","88","","","","","","","","","","","","","","","NaN",""
"","S1","","html-keyboard-response","580","524318","0.0-1.0-803.0","0","0","19108","","null","","","null","89","","","","","","","","","","","","","","","",""
"","ISI","","html-keyboard-response","581","525329","0.0-1.0-804.0","0","0","19108","","null","","","null","89","NaN","","","","","","","","","","","","","","",""
"","S2","","html-keyboard-response","582","525590","0.0-1.0-805.0","0","0","19108","","null","","","null","89","","NaN","","","","","","","","","","","","","",""
