"success","ttype","start_time","trial_type","trial_index","time_elapsed","internal_node_id","warning","missed_checkup","PID","view_history","rt","responses","repeat_instructions","key_press","index","keypress_isi","keypress_S2","block","trial_num","phase","group_type","pair_type","S1_stim","S2_stim","S1_img","S2_img","S1_chosen","S1_higher","accuracy","keypress_iti","total_bonus_tally"
"true","full_screen","d04132023hr1458","fullscreen","0","3518","0.0-0.0","0","0","91944","","","","","","","","","","","","","","","","","","","","","",""
"","instructions","","instructions","1","46588","0.0-1.0-0.0-0.0","0","0","91944","[{""page_index"":0,""viewing_time"":3788},{""page_index"":1,""viewing_time"":22512},{""page_index"":2,""viewing_time"":15042},{""page_index"":3,""viewing_time"":1724}]","43067","","","","","","","","","","","","","","","","","","","",""
"","comprehension_check","","survey-multi-choice","2","68786","0.0-1.0-0.0-1.0","0","0","91944","","22190","{""Q0"":""True"",""Q1"":""D"",""Q2"":""Once the second image appears and while the screen 'MAKE A CHOICE' is shown"",""Q3"":""Green mark"",""Q4"":""either D or K""}","0","","","","","","","","","","","","","","","","","",""
"","start_exp","","html-keyboard-response","3","99530","0.0-1.0-1.0","0","0","91944","","30736","","","32","","","","","","","","","","","","","","","","",""
"","S1","","html-keyboard-response","4","99783","0.0-1.0-2.0","0","0","91944","","null","","","null","0","","","","","","","","","","","","","","","",""
"","ISI","","html-keyboard-response","5","100793","0.0-1.0-3.0","0","0","91944","","null","","","null","0","NaN","","","","","","","","","","","","","","",""
"","S2","","html-keyboard-response","6","101054","0.0-1.0-4.0","0","0","91944","","null","","","null","0","","NaN","","","","","","","","","","","","","",""
"","response","","html-keyboard-response","7","101648","0.0-1.0-5.0-0.0","0","0","91944","","589","","","68","0","","","1","0","training","adjacent","CD","3","4","R.jpg","M.jpg","1","1","1","",""
"","feedback","","html-keyboard-response","8","102654","0.0-1.0-6.0-0.0","0","0","91944","","null","","","null","0","","","","","","","","","","","","","","","",""
"","ITI","","html-keyboard-response","9","103658","0.0-1.0-9.0","0","0","91944","","null","","","null","0","","","","","","","","","","","","","","","NaN",""
"","S1","","html-keyboard-response","10","103913","0.0-1.0-11.0","0","0","91944","","null","","","null","1","","","","","","","","","","","","","","","",""
"","ISI","","html-keyboard-response","11","104923","0.0-1.0-12.0","0","0","91944","","null","","","null","1","NaN","","","","","","","","","","","","","","",""
"","S2","","html-keyboard-response","12","105187","0.0-1.0-13.0","0","0","91944","","null","","","null","1","","NaN","","","","","","","","","","","","","",""
"","response","","html-keyboard-response","13","105763","0.0-1.0-14.0-0.0","0","0","91944","","574","","","68","1","","","1","1","training","adjacent","GF","7","6","L.jpg","Q.jpg","1","0","0","",""
"","feedback","","html-keyboard-response","14","106768","0.0-1.0-15.0-0.0","0","0","91944","","null","","","null","1","","","","","","","","","","","","","","","",""
"","time_out","","html-keyboard-response","15","108773","0.0-1.0-17.0-0.0","0","0","91944","","null","","","null","1","","","","","","","","","","","","","","","",""
"","ITI","","html-keyboard-response","16","109784","0.0-1.0-18.0","0","0","91944","","null","","","null","1","","","","","","","","","","","","","","","NaN",""
"","S1","","html-keyboard-response","17","110045","0.0-1.0-20.0","0","0","91944","","null","","","null","2","","","","","","","","","","","","","","","",""
"","ISI","","html-keyboard-response","18","111050","0.0-1.0-21.0","0","0","91944","","null","","","null","2","NaN","","","","","","","","","","","","","","",""
"","S2","","html-keyboard-response","19","111304","0.0-1.0-22.0","0","0","91944","","null","","","null","2","","NaN","","","","","","","","","","","","","",""
"","response","","html-keyboard-response","20","111969","0.0-1.0-23.0-0.0","0","0","91944","","663","","","75","2","","","1","2","training","adjacent","DE","4","5","M.jpg","O.jpg","0","1","0","",""
"","feedback","","html-keyboard-response","21","112987","0.0-1.0-24.0-0.0","0","0","91944","","null","","","null","2","","","","","","","","","","","","","","","",""
"","time_out","","html-keyboard-response","22","114995","0.0-1.0-26.0-0.0","0","0","91944","","null","","","null","2","","","","","","","","","","","","","","","",""
"","ITI","","html-keyboard-response","23","116006","0.0-1.0-27.0","0","0","91944","","null","","","null","2","","","","","","","","","","","","","","","NaN",""
"","S1","","html-keyboard-response","24","116260","0.0-1.0-29.0","0","0","91944","","null","","","null","3","","","","","","","","","","","","","","","",""
"","ISI","","html-keyboard-response","25","117270","0.0-1.0-30.0","0","0","91944","","null","","","null","3","NaN","","","","","","","","","","","","","","",""
"","S2","","html-keyboard-response","26","117523","0.0-1.0-31.0","0","0","91944","","null","","","null","3","","NaN","","","","","","","","","","","","","",""
"","response","","html-keyboard-response","27","118082","0.0-1.0-32.0-0.0","0","0","91944","","557","","","68","3","","","1","3","training","adjacent","CB","3","2","R.jpg","N.jpg","1","0","0","",""
"","feedback","","html-keyboard-response","28","119097","0.0-1.0-33.0-0.0","0","0","91944","","null","","","null","3","","","","","","","","","","","","","","","",""
"","time_out","","html-keyboard-response","29","121105","0.0-1.0-35.0-0.0","0","0","91944","","null","","","null","3","","","","","","","","","","","","","","","",""
"","ITI","","html-keyboard-response","30","122115","0.0-1.0-36.0","0","0","91944","","null","","","null","3","","","","","","","","","","","","","","","NaN",""
"","S1","","html-keyboard-response","31","122369","0.0-1.0-38.0","0","0","91944","","null","","","null","4","","","","","","","","","","","","","","","",""
"","ISI","","html-keyboard-response","32","123382","0.0-1.0-39.0","0","0","91944","","null","","","null","4","NaN","","","","","","","","","","","","","","",""
"","S2","","html-keyboard-response","33","123634","0.0-1.0-40.0","0","0","91944","","null","","","null","4","","NaN","","","","","","","","","","","","","",""
"","response","","html-keyboard-response","34","124294","0.0-1.0-41.0-0.0","0","0","91944","","658","","","75","4","","","1","4","training","adjacent","BA","2","1","N.jpg","P.jpg","0","0","1","",""
"","feedback","","html-keyboard-response","35","125298","0.0-1.0-42.0-0.0","0","0","91944","","null","","","null","4","","","","","","","","","","","","","","","",""
"","ITI","","html-keyboard-response","36","126300","0.0-1.0-45.0","0","0","91944","","null","","","null","4","","","","","","","","","","","","","","","NaN",""
"","S1","","html-keyboard-response","37","126562","0.0-1.0-47.0","0","0","91944","","null","","","null","5","","","","","","","","","","","","","","","",""
"","ISI","","html-keyboard-response","38","127572","0.0-1.0-48.0","0","0","91944","","null","","","null","5","NaN","","","","","","","","","","","","","","",""
"","S2","","html-keyboard-response","39","127834","0.0-1.0-49.0","0","0","91944","","null","","","null","5","","NaN","","","","","","","","","","","","","",""
"","response","","html-keyboard-response","40","128726","0.0-1.0-50.0-0.0","0","0","91944","","890","","","75","5","","","1","5","training","adjacent","CB","3","2","R.jpg","N.jpg","0","0","1","",""
"","feedback","","html-keyboard-response","41","129738","0.0-1.0-51.0-0.0","0","0","91944","","null","","","null","5","","","","","","","","","","","","","","","",""
"","ITI","","html-keyboard-response","42","130742","0.0-1.0-54.0","0","0","91944","","null","","","null","5","","","","","","","","","","","","","","","NaN",""
"","S1","","html-keyboard-response","43","131004","0.0-1.0-56.0","0","0","91944","","null","","","null","6","","","","","","","","","","","","","","","",""
"","ISI","","html-keyboard-response","44","132016","0.0-1.0-57.0","0","0","91944","","null","","","null","6","NaN","","","","","","","","","","","","","","",""
"","S2","","html-keyboard-response","45","132279","0.0-1.0-58.0","0","0","91944","","null","","","null","6","","NaN","","","","","","","","","","","","","",""
"","response","","html-keyboard-response","46","132979","0.0-1.0-59.0-0.0","0","0","91944","","697","","","68","6","","","1","6","training","adjacent","FG","6","7","Q.jpg","L.jpg","1","1","1","",""
"","feedback","","html-keyboard-response","47","133988","0.0-1.0-60.0-0.0","0","0","91944","","null","","","null","6","","","","","","","","","","","","","","","",""
"","ITI","","html-keyboard-response","48","134998","0.0-1.0-63.0","0","0","91944","","null","","","null","6","","","","","","","","","","","","","","","NaN",""
"","S1","","html-keyboard-response","49","135252","0.0-1.0-65.0","0","0","91944","","null","","","null","7","","","","","","","","","","","","","","","",""
"","ISI","","html-keyboard-response","50","136262","0.0-1.0-66.0","0","0","91944","","null","","","null","7","NaN","","","","","","","","","","","","","","",""
"","S2","","html-keyboard-response","51","136515","0.0-1.0-67.0","0","0","91944","","null","","","null","7","","NaN","","","","","","","","","","","","","",""
"","response","","html-keyboard-response","52","137134","0.0-1.0-68.0-0.0","0","0","91944","","617","","","75","7","","","1","7","training","adjacent","EF","5","6","O.jpg","Q.jpg","0","1","0","",""
"","feedback","","html-keyboard-response","53","138148","0.0-1.0-69.0-0.0","0","0","91944","","null","","","null","7","","","","","","","","","","","","","","","",""
"","time_out","","html-keyboard-response","54","140155","0.0-1.0-71.0-0.0","0","0","91944","","null","","","null","7","","","","","","","","","","","","","","","",""
"","ITI","","html-keyboard-response","55","141173","0.0-1.0-72.0","0","0","91944","","null","","","null","7","","","","","","","","","","","","","","","NaN",""
"","S1","","html-keyboard-response","56","141428","0.0-1.0-74.0","0","0","91944","","null","","","null","8","","","","","","","","","","","","","","","",""
"","ISI","","html-keyboard-response","57","142438","0.0-1.0-75.0","0","0","91944","","null","","","null","8","NaN","","","","","","","","","","","","","","",""
"","S2","","html-keyboard-response","58","142699","0.0-1.0-76.0","0","0","91944","","null","","","null","8","","NaN","","","","","","","","","","","","","",""
"","response","","html-keyboard-response","59","143271","0.0-1.0-77.0-0.0","0","0","91944","","569","","","75","8","","","1","8","training","adjacent","BC","2","3","N.jpg","R.jpg","0","1","0","",""
"","feedback","","html-keyboard-response","60","144276","0.0-1.0-78.0-0.0","0","0","91944","","null","","","null","8","","","","","","","","","","","","","","","",""
"","time_out","","html-keyboard-response","61","146281","0.0-1.0-80.0-0.0","0","0","91944","","null","","","null","8","","","","","","","","","","","","","","","",""
"","ITI","","html-keyboard-response","62","147290","0.0-1.0-81.0","0","0","91944","","null","","","null","8","","","","","","","","","","","","","","","NaN",""
"","S1","","html-keyboard-response","63","147549","0.0-1.0-83.0","0","0","91944","","null","","","null","9","","","","","","","","","","","","","","","",""
"","ISI","","html-keyboard-response","64","148561","0.0-1.0-84.0","0","0","91944","","null","","","null","9","NaN","","","","","","","","","","","","","","",""
"","S2","","html-keyboard-response","65","148825","0.0-1.0-85.0","0","0","91944","","null","","","null","9","","NaN","","","","","","","","","","","","","",""
"","response","","html-keyboard-response","66","149602","0.0-1.0-86.0-0.0","0","0","91944","","774","","","68","9","","","1","9","training","adjacent","FE","6","5","Q.jpg","O.jpg","1","0","0","",""
"","feedback","","html-keyboard-response","67","150607","0.0-1.0-87.0-0.0","0","0","91944","","null","","","null","9","","","","","","","","","","","","","","","",""
"","time_out","","html-keyboard-response","68","152613","0.0-1.0-89.0-0.0","0","0","91944","","null","","","null","9","","","","","","","","","","","","","","","",""
"","ITI","","html-keyboard-response","69","153615","0.0-1.0-90.0","0","0","91944","","null","","","null","9","","","","","","","","","","","","","","","NaN",""
"","S1","","html-keyboard-response","70","153876","0.0-1.0-92.0","0","0","91944","","null","","","null","10","","","","","","","","","","","","","","","",""
"","ISI","","html-keyboard-response","71","154884","0.0-1.0-93.0","0","0","91944","","null","","","null","10","NaN","","","","","","","","","","","","","","",""
"","S2","","html-keyboard-response","72","155137","0.0-1.0-94.0","0","0","91944","","null","","","null","10","","NaN","","","","","","","","","","","","","",""
"","response","","html-keyboard-response","73","155885","0.0-1.0-95.0-0.0","0","0","91944","","746","","","75","10","","","1","10","training","adjacent","FE","6","5","Q.jpg","O.jpg","0","0","1","",""
"","feedback","","html-keyboard-response","74","156895","0.0-1.0-96.0-0.0","0","0","91944","","null","","","null","10","","","","","","","","","","","","","","","",""
"","ITI","","html-keyboard-response","75","157906","0.0-1.0-99.0","0","0","91944","","null","","","null","10","","","","","","","","","","","","","","","NaN",""
"","S1","","html-keyboard-response","76","158160","0.0-1.0-101.0","0","0","91944","","null","","","null","11","","","","","","","","","","","","","","","",""
"","ISI","","html-keyboard-response","77","159165","0.0-1.0-102.0","0","0","91944","","null","","","null","11","NaN","","","","","","","","","","","","","","",""
"","S2","","html-keyboard-response","78","159420","0.0-1.0-103.0","0","0","91944","","null","","","null","11","","NaN","","","","","","","","","","","","","",""
"","response","","html-keyboard-response","79","160254","0.0-1.0-104.0-0.0","0","0","91944","","832","","","75","11","","","1","11","training","adjacent","GF","7","6","L.jpg","Q.jpg","0","0","1","",""
"","feedback","","html-keyboard-response","80","161262","0.0-1.0-105.0-0.0","0","0","91944","","null","","","null","11","","","","","","","","","","","","","","","",""
"","ITI","","html-keyboard-response","81","162272","0.0-1.0-108.0","0","0","91944","","null","","","null","11","","","","","","","","","","","","","","","NaN",""
"","S1","","html-keyboard-response","82","162537","0.0-1.0-110.0","0","0","91944","","null","","","null","12","","","","","","","","","","","","","","","",""
"","ISI","","html-keyboard-response","83","163547","0.0-1.0-111.0","0","0","91944","","null","","","null","12","NaN","","","","","","","","","","","","","","",""
"","S2","","html-keyboard-response","84","163801","0.0-1.0-112.0","0","0","91944","","null","","","null","12","","NaN","","","","","","","","","","","","","",""
"","response","","html-keyboard-response","85","164845","0.0-1.0-113.0-0.0","0","0","91944","","1043","","","68","12","","","1","12","training","adjacent","DC","4","3","M.jpg","R.jpg","1","0","0","",""
"","feedback","","html-keyboard-response","86","165855","0.0-1.0-114.0-0.0","0","0","91944","","null","","","null","12","","","","","","","","","","","","","","","",""
"","time_out","","html-keyboard-response","87","167858","0.0-1.0-116.0-0.0","0","0","91944","","null","","","null","12","","","","","","","","","","","","","","","",""
"","ITI","","html-keyboard-response","88","168860","0.0-1.0-117.0","0","0","91944","","null","","","null","12","","","","","","","","","","","","","","","NaN",""
"","S1","","html-keyboard-response","89","169124","0.0-1.0-119.0","0","0","91944","","null","","","null","13","","","","","","","","","","","","","","","",""
"","ISI","","html-keyboard-response","90","170136","0.0-1.0-120.0","0","0","91944","","null","","","null","13","NaN","","","","","","","","","","","","","","",""
"","S2","","html-keyboard-response","91","170390","0.0-1.0-121.0","0","0","91944","","null","","","null","13","","NaN","","","","","","","","","","","","","",""
"","response","","html-keyboard-response","92","170964","0.0-1.0-122.0-0.0","0","0","91944","","571","","","68","13","","","1","13","training","adjacent","BC","2","3","N.jpg","R.jpg","1","1","1","",""
"","feedback","","html-keyboard-response","93","171974","0.0-1.0-123.0-0.0","0","0","91944","","null","","","null","13","","","","","","","","","","","","","","","",""
"","ITI","","html-keyboard-response","94","172985","0.0-1.0-126.0","0","0","91944","","null","","","null","13","","","","","","","","","","","","","","","NaN",""
"","S1","","html-keyboard-response","95","173239","0.0-1.0-128.0","0","0","91944","","null","","","null","14","","","","","","","","","","","","","","","",""
"","ISI","","html-keyboard-response","96","174247","0.0-1.0-129.0","0","0","91944","","null","","","null","14","NaN","","","","","","","","","","","","","","",""
"","S2","","html-keyboard-response","97","174504","0.0-1.0-130.0","0","0","91944","","null","","","null","14","","NaN","","","","","","","","","","","","","",""
"","response","","html-keyboard-response","98","174883","0.0-1.0-131.0-0.0","0","0","91944","","378","","","75","14","","","1","14","training","adjacent","EF","5","6","O.jpg","Q.jpg","0","1","0","",""
"","feedback","","html-keyboard-response","99","175900","0.0-1.0-132.0-0.0","0","0","91944","","null","","","null","14","","","","","","","","","","","","","","","",""
"","time_out","","html-keyboard-response","100","177917","0.0-1.0-134.0-0.0","0","0","91944","","null","","","null","14","","","","","","","","","","","","","","","",""
"","ITI","","html-keyboard-response","101","178922","0.0-1.0-135.0","0","0","91944","","null","","","null","14","","","","","","","","","","","","","","","NaN",""
"","S1","","html-keyboard-response","102","179183","0.0-1.0-137.0","0","0","91944","","null","","","null","15","","","","","","","","","","","","","","","",""
"","ISI","","html-keyboard-response","103","180200","0.0-1.0-138.0","0","0","91944","","null","","","null","15","NaN","","","","","","","","","","","","","","",""
"","S2","","html-keyboard-response","104","180461","0.0-1.0-139.0","0","0","91944","","null","","","null","15","","NaN","","","","","","","","","","","","","",""
"","response","","html-keyboard-response","105","181092","0.0-1.0-140.0-0.0","0","0","91944","","630","","","75","15","","","1","15","training","adjacent","DE","4","5","M.jpg","O.jpg","0","1","0","",""
"","feedback","","html-keyboard-response","106","182104","0.0-1.0-141.0-0.0","0","0","91944","","null","","","null","15","","","","","","","","","","","","","","","",""
"","time_out","","html-keyboard-response","107","184112","0.0-1.0-143.0-0.0","0","0","91944","","null","","","null","15","","","","","","","","","","","","","","","",""
"","ITI","","html-keyboard-response","108","185115","0.0-1.0-144.0","0","0","91944","","null","","","null","15","","","","","","","","","","","","","","","NaN",""
"","S1","","html-keyboard-response","109","185370","0.0-1.0-146.0","0","0","91944","","null","","","null","16","","","","","","","","","","","","","","","",""
"","ISI","","html-keyboard-response","110","186375","0.0-1.0-147.0","0","0","91944","","null","","","null","16","NaN","","","","","","","","","","","","","","",""
"","S2","","html-keyboard-response","111","186628","0.0-1.0-148.0","0","0","91944","","null","","","null","16","","NaN","","","","","","","","","","","","","",""
"","response","","html-keyboard-response","112","187129","0.0-1.0-149.0-0.0","0","0","91944","","499","","","68","16","","","1","16","training","adjacent","ED","5","4","O.jpg","M.jpg","1","0","0","",""
"","feedback","","html-keyboard-response","113","188134","0.0-1.0-150.0-0.0","0","0","91944","","null","","","null","16","","","","","","","","","","","","","","","",""
"","time_out","","html-keyboard-response","114","190138","0.0-1.0-152.0-0.0","0","0","91944","","null","","","null","16","","","","","","","","","","","","","","","",""
"","ITI","","html-keyboard-response","115","191145","0.0-1.0-153.0","0","0","91944","","null","","","null","16","","","","","","","","","","","","","","","NaN",""
"","S1","","html-keyboard-response","116","191399","0.0-1.0-155.0","0","0","91944","","null","","","null","17","","","","","","","","","","","","","","","",""
"","ISI","","html-keyboard-response","117","192404","0.0-1.0-156.0","0","0","91944","","null","","","null","17","NaN","","","","","","","","","","","","","","",""
"","S2","","html-keyboard-response","118","192666","0.0-1.0-157.0","0","0","91944","","null","","","null","17","","NaN","","","","","","","","","","","","","",""
"","response","","html-keyboard-response","119","193326","0.0-1.0-158.0-0.0","0","0","91944","","657","","","75","17","","","1","17","training","adjacent","CD","3","4","R.jpg","M.jpg","0","1","0","",""
"","feedback","","html-keyboard-response","120","194336","0.0-1.0-159.0-0.0","0","0","91944","","null","","","null","17","","","","","","","","","","","","","","","",""
"","time_out","","html-keyboard-response","121","196342","0.0-1.0-161.0-0.0","0","0","91944","","null","","","null","17","","","","","","","","","","","","","","","",""
"","ITI","","html-keyboard-response","122","197344","0.0-1.0-162.0","0","0","91944","","null","","","null","17","","","","","","","","","","","","","","","NaN",""
"","S1","","html-keyboard-response","123","197598","0.0-1.0-164.0","0","0","91944","","null","","","null","18","","","","","","","","","","","","","","","",""
"","ISI","","html-keyboard-response","124","198602","0.0-1.0-165.0","0","0","91944","","null","","","null","18","NaN","","","","","","","","","","","","","","",""
"","S2","","html-keyboard-response","125","198856","0.0-1.0-166.0","0","0","91944","","null","","","null","18","","NaN","","","","","","","","","","","","","",""
"","response","","html-keyboard-response","126","199369","0.0-1.0-167.0-0.0","0","0","91944","","511","","","68","18","","","1","18","training","adjacent","DC","4","3","M.jpg","R.jpg","1","0","0","",""
"","feedback","","html-keyboard-response","127","200376","0.0-1.0-168.0-0.0","0","0","91944","","null","","","null","18","","","","","","","","","","","","","","","",""
"","time_out","","html-keyboard-response","128","202383","0.0-1.0-170.0-0.0","0","0","91944","","null","","","null","18","","","","","","","","","","","","","","","",""
"","ITI","","html-keyboard-response","129","203393","0.0-1.0-171.0","0","0","91944","","null","","","null","18","","","","","","","","","","","","","","","NaN",""
"","S1","","html-keyboard-response","130","203654","0.0-1.0-173.0","0","0","91944","","null","","","null","19","","","","","","","","","","","","","","","",""
"","ISI","","html-keyboard-response","131","204666","0.0-1.0-174.0","0","0","91944","","null","","","null","19","NaN","","","","","","","","","","","","","","",""
"","S2","","html-keyboard-response","132","204921","0.0-1.0-175.0","0","0","91944","","null","","","null","19","","NaN","","","","","","","","","","","","","",""
"","response","","html-keyboard-response","133","205457","0.0-1.0-176.0-0.0","0","0","91944","","533","","","68","19","","","1","19","training","adjacent","BC","2","3","N.jpg","R.jpg","1","1","1","",""
"","feedback","","html-keyboard-response","134","206466","0.0-1.0-177.0-0.0","0","0","91944","","null","","","null","19","","","","","","","","","","","","","","","",""
"","ITI","","html-keyboard-response","135","207479","0.0-1.0-180.0","0","0","91944","","null","","","null","19","","","","","","","","","","","","","","","NaN",""
"","S1","","html-keyboard-response","136","207743","0.0-1.0-182.0","0","0","91944","","null","","","null","20","","","","","","","","","","","","","","","",""
"","ISI","","html-keyboard-response","137","208753","0.0-1.0-183.0","0","0","91944","","null","","","null","20","NaN","","","","","","","","","","","","","","",""
"","S2","","html-keyboard-response","138","209017","0.0-1.0-184.0","0","0","91944","","null","","","null","20","","NaN","","","","","","","","","","","","","",""
"","response","","html-keyboard-response","139","210069","0.0-1.0-185.0-0.0","0","0","91944","","1050","","","75","20","","","1","20","training","adjacent","EF","5","6","O.jpg","Q.jpg","0","1","0","",""
"","feedback","","html-keyboard-response","140","211077","0.0-1.0-186.0-0.0","0","0","91944","","null","","","null","20","","","","","","","","","","","","","","","",""
"","time_out","","html-keyboard-response","141","213082","0.0-1.0-188.0-0.0","0","0","91944","","null","","","null","20","","","","","","","","","","","","","","","",""
"","ITI","","html-keyboard-response","142","214098","0.0-1.0-189.0","0","0","91944","","null","","","null","20","","","","","","","","","","","","","","","NaN",""
"","S1","","html-keyboard-response","143","214353","0.0-1.0-191.0","0","0","91944","","null","","","null","21","","","","","","","","","","","","","","","",""
"","ISI","","html-keyboard-response","144","215364","0.0-1.0-192.0","0","0","91944","","null","","","null","21","NaN","","","","","","","","","","","","","","",""
"","S2","","html-keyboard-response","145","215618","0.0-1.0-193.0","0","0","91944","","null","","","null","21","","NaN","","","","","","","","","","","","","",""
"","response","","html-keyboard-response","146","216525","0.0-1.0-194.0-0.0","0","0","91944","","906","","","75","21","","","1","21","training","adjacent","AB","1","2","P.jpg","N.jpg","0","1","0","",""
"","feedback","","html-keyboard-response","147","217545","0.0-1.0-195.0-0.0","0","0","91944","","null","","","null","21","","","","","","","","","","","","","","","",""
"","time_out","","html-keyboard-response","148","219556","0.0-1.0-197.0-0.0","0","0","91944","","null","","","null","21","","","","","","","","","","","","","","","",""
"","ITI","","html-keyboard-response","149","220566","0.0-1.0-198.0","0","0","91944","","null","","","null","21","","","","","","","","","","","","","","","NaN",""
"","S1","","html-keyboard-response","150","220820","0.0-1.0-200.0","0","0","91944","","null","","","null","22","","","","","","","","","","","","","","","",""
"","ISI","","html-keyboard-response","151","221832","0.0-1.0-201.0","0","0","91944","","null","","","null","22","NaN","","","","","","","","","","","","","","",""
"","S2","","html-keyboard-response","152","222094","0.0-1.0-202.0","0","0","91944","","null","","","null","22","","NaN","","","","","","","","","","","","","",""
"","response","","html-keyboard-response","153","223315","0.0-1.0-203.0-0.0","0","0","91944","","1218","","","68","22","","","1","22","training","adjacent","DE","4","5","M.jpg","O.jpg","1","1","1","",""
"","feedback","","html-keyboard-response","154","224320","0.0-1.0-204.0-0.0","0","0","91944","","null","","","null","22","","","","","","","","","","","","","","","",""
"","ITI","","html-keyboard-response","155","225325","0.0-1.0-207.0","0","0","91944","","null","","","null","22","","","","","","","","","","","","","","","NaN",""
"","S1","","html-keyboard-response","156","225579","0.0-1.0-209.0","0","0","91944","","null","","","null","23","","","","","","","","","","","","","","","",""
"","ISI","","html-keyboard-response","157","226585","0.0-1.0-210.0","0","0","91944","","null","","","null","23","NaN","","","","","","","","","","","","","","",""
"","S2","","html-keyboard-response","158","226853","0.0-1.0-211.0","0","0","91944","","null","","","null","23","","NaN","","","","","","","","","","","","","",""
"","response","","html-keyboard-response","159","228080","0.0-1.0-212.0-0.0","0","0","91944","","1226","","","68","23","","","1","23","training","adjacent","EF","5","6","O.jpg","Q.jpg","1","1","1","",""
"","feedback","","html-keyboard-response","160","229084","0.0-1.0-213.0-0.0","0","0","91944","","null","","","null","23","","","","","","","","","","","","","","","",""
"","ITI","","html-keyboard-response","161","230094","0.0-1.0-216.0","0","0","91944","","null","","","null","23","","","","","","","","","","","","","","","NaN",""
"","S1","","html-keyboard-response","162","230348","0.0-1.0-218.0","0","0","91944","","null","","","null","24","","","","","","","","","","","","","","","",""
"","ISI","","html-keyboard-response","163","231355","0.0-1.0-219.0","0","0","91944","","null","","","null","24","NaN","","","","","","","","","","","","","","",""
"","S2","","html-keyboard-response","164","231610","0.0-1.0-220.0","0","0","91944","","null","","","null","24","","NaN","","","","","","","","","","","","","",""
"","response","","html-keyboard-response","165","232412","0.0-1.0-221.0-0.0","0","0","91944","","799","","","75","24","","","1","24","training","adjacent","FG","6","7","Q.jpg","L.jpg","0","1","0","",""
"","feedback","","html-keyboard-response","166","233421","0.0-1.0-222.0-0.0","0","0","91944","","null","","","null","24","","","","","","","","","","","","","","","",""
"","time_out","","html-keyboard-response","167","235430","0.0-1.0-224.0-0.0","0","0","91944","","null","","","null","24","","","","","","","","","","","","","","","",""
"","ITI","","html-keyboard-response","168","236440","0.0-1.0-225.0","0","0","91944","","null","","","null","24","","","","","","","","","","","","","","","NaN",""
"","S1","","html-keyboard-response","169","236703","0.0-1.0-227.0","0","0","91944","","null","","","null","25","","","","","","","","","","","","","","","",""
"","ISI","","html-keyboard-response","170","237713","0.0-1.0-228.0","0","0","91944","","null","","","null","25","NaN","","","","","","","","","","","","","","",""
"","S2","","html-keyboard-response","171","237974","0.0-1.0-229.0","0","0","91944","","null","","","null","25","","NaN","","","","","","","","","","","","","",""
"","response","","html-keyboard-response","172","238724","0.0-1.0-230.0-0.0","0","0","91944","","748","","","68","25","","","1","25","training","adjacent","FG","6","7","Q.jpg","L.jpg","1","1","1","",""
"","feedback","","html-keyboard-response","173","239734","0.0-1.0-231.0-0.0","0","0","91944","","null","","","null","25","","","","","","","","","","","","","","","",""
"","ITI","","html-keyboard-response","174","240738","0.0-1.0-234.0","0","0","91944","","null","","","null","25","","","","","","","","","","","","","","","NaN",""
"","S1","","html-keyboard-response","175","240992","0.0-1.0-236.0","0","0","91944","","null","","","null","26","","","","","","","","","","","","","","","",""
"","ISI","","html-keyboard-response","176","241995","0.0-1.0-237.0","0","0","91944","","null","","","null","26","NaN","","","","","","","","","","","","","","",""
"","S2","","html-keyboard-response","177","242249","0.0-1.0-238.0","0","0","91944","","null","","","null","26","","NaN","","","","","","","","","","","","","",""
"","response","","html-keyboard-response","178","243225","0.0-1.0-239.0-0.0","0","0","91944","","974","","","75","26","","","1","26","training","adjacent","BA","2","1","N.jpg","P.jpg","0","0","1","",""
"","feedback","","html-keyboard-response","179","244230","0.0-1.0-240.0-0.0","0","0","91944","","null","","","null","26","","","","","","","","","","","","","","","",""
"","ITI","","html-keyboard-response","180","245236","0.0-1.0-243.0","0","0","91944","","null","","","null","26","","","","","","","","","","","","","","","NaN",""
"","S1","","html-keyboard-response","181","245490","0.0-1.0-245.0","0","0","91944","","null","","","null","27","","","","","","","","","","","","","","","",""
"","ISI","","html-keyboard-response","182","246508","0.0-1.0-246.0","0","0","91944","","null","","","null","27","NaN","","","","","","","","","","","","","","",""
"","S2","","html-keyboard-response","183","246770","0.0-1.0-247.0","0","0","91944","","null","","","null","27","","NaN","","","","","","","","","","","","","",""
"","response","","html-keyboard-response","184","247803","0.0-1.0-248.0-0.0","0","0","91944","","1030","","","75","27","","","1","27","training","adjacent","AB","1","2","P.jpg","N.jpg","0","1","0","",""
"","feedback","","html-keyboard-response","185","248808","0.0-1.0-249.0-0.0","0","0","91944","","null","","","null","27","","","","","","","","","","","","","","","",""
"","time_out","","html-keyboard-response","186","250816","0.0-1.0-251.0-0.0","0","0","91944","","null","","","null","27","","","","","","","","","","","","","","","",""
"","ITI","","html-keyboard-response","187","251818","0.0-1.0-252.0","0","0","91944","","null","","","null","27","","","","","","","","","","","","","","","NaN",""
"","S1","","html-keyboard-response","188","252073","0.0-1.0-254.0","0","0","91944","","null","","","null","28","","","","","","","","","","","","","","","",""
"","ISI","","html-keyboard-response","189","253078","0.0-1.0-255.0","0","0","91944","","null","","","null","28","NaN","","","","","","","","","","","","","","",""
"","S2","","html-keyboard-response","190","253332","0.0-1.0-256.0","0","0","91944","","null","","","null","28","","NaN","","","","","","","","","","","","","",""
"","response","","html-keyboard-response","191","254653","0.0-1.0-257.0-0.0","0","0","91944","","1318","","","68","28","","","1","28","training","adjacent","DE","4","5","M.jpg","O.jpg","1","1","1","",""
"","feedback","","html-keyboard-response","192","255657","0.0-1.0-258.0-0.0","0","0","91944","","null","","","null","28","","","","","","","","","","","","","","","",""
"","ITI","","html-keyboard-response","193","256668","0.0-1.0-261.0","0","0","91944","","null","","","null","28","","","","","","","","","","","","","","","NaN",""
"","S1","","html-keyboard-response","194","256923","0.0-1.0-263.0","0","0","91944","","null","","","null","29","","","","","","","","","","","","","","","",""
"","ISI","","html-keyboard-response","195","257933","0.0-1.0-264.0","0","0","91944","","null","","","null","29","NaN","","","","","","","","","","","","","","",""
"","S2","","html-keyboard-response","196","258195","0.0-1.0-265.0","0","0","91944","","null","","","null","29","","NaN","","","","","","","","","","","","","",""
"","response","","html-keyboard-response","197","259422","0.0-1.0-266.0-0.0","0","0","91944","","1224","","","75","29","","","1","29","training","adjacent","ED","5","4","O.jpg","M.jpg","0","0","1","",""
"","feedback","","html-keyboard-response","198","260425","0.0-1.0-267.0-0.0","0","0","91944","","null","","","null","29","","","","","","","","","","","","","","","",""
"","ITI","","html-keyboard-response","199","261443","0.0-1.0-270.0","0","0","91944","","null","","","null","29","","","","","","","","","","","","","","","NaN",""
"","S1","","html-keyboard-response","200","261698","0.0-1.0-272.0","0","0","91944","","null","","","null","30","","","","","","","","","","","","","","","",""
"","ISI","","html-keyboard-response","201","262703","0.0-1.0-273.0","0","0","91944","","null","","","null","30","NaN","","","","","","","","","","","","","","",""
"","S2","","html-keyboard-response","202","262966","0.0-1.0-274.0","0","0","91944","","null","","","null","30","","NaN","","","","","","","","","","","","","",""
"","response","","html-keyboard-response","203","263384","0.0-1.0-275.0-0.0","0","0","91944","","416","","","68","30","","","1","30","training","adjacent","FG","6","7","Q.jpg","L.jpg","1","1","1","",""
"","feedback","","html-keyboard-response","204","264392","0.0-1.0-276.0-0.0","0","0","91944","","null","","","null","30","","","","","","","","","","","","","","","",""
"","ITI","","html-keyboard-response","205","265400","0.0-1.0-279.0","0","0","91944","","null","","","null","30","","","","","","","","","","","","","","","NaN",""
"","S1","","html-keyboard-response","206","265664","0.0-1.0-281.0","0","0","91944","","null","","","null","31","","","","","","","","","","","","","","","",""
"","ISI","","html-keyboard-response","207","266681","0.0-1.0-282.0","0","0","91944","","null","","","null","31","NaN","","","","","","","","","","","","","","",""
"","S2","","html-keyboard-response","208","266936","0.0-1.0-283.0","0","0","91944","","null","","","null","31","","NaN","","","","","","","","","","","","","",""
"","response","","html-keyboard-response","209","267466","0.0-1.0-284.0-0.0","0","0","91944","","528","","","75","31","","","1","31","training","adjacent","CB","3","2","R.jpg","N.jpg","0","0","1","",""
"","feedback","","html-keyboard-response","210","268480","0.0-1.0-285.0-0.0","0","0","91944","","null","","","null","31","","","","","","","","","","","","","","","",""
"","ITI","","html-keyboard-response","211","269493","0.0-1.0-288.0","0","0","91944","","null","","","null","31","","","","","","","","","","","","","","","NaN",""
"","S1","","html-keyboard-response","212","269749","0.0-1.0-290.0","0","0","91944","","null","","","null","32","","","","","","","","","","","","","","","",""
"","ISI","","html-keyboard-response","213","270752","0.0-1.0-291.0","0","0","91944","","null","","","null","32","NaN","","","","","","","","","","","","","","",""
"","S2","","html-keyboard-response","214","271005","0.0-1.0-292.0","0","0","91944","","null","","","null","32","","NaN","","","","","","","","","","","","","",""
"","response","","html-keyboard-response","215","271363","0.0-1.0-293.0-0.0","0","0","91944","","355","","","68","32","","","1","32","training","adjacent","DC","4","3","M.jpg","R.jpg","1","0","0","",""
"","feedback","","html-keyboard-response","216","272372","0.0-1.0-294.0-0.0","0","0","91944","","null","","","null","32","","","","","","","","","","","","","","","",""
"","time_out","","html-keyboard-response","217","274375","0.0-1.0-296.0-0.0","0","0","91944","","null","","","null","32","","","","","","","","","","","","","","","",""
"","ITI","","html-keyboard-response","218","275385","0.0-1.0-297.0","0","0","91944","","null","","","null","32","","","","","","","","","","","","","","","NaN",""
"","S1","","html-keyboard-response","219","275639","0.0-1.0-299.0","0","0","91944","","null","","","null","33","","","","","","","","","","","","","","","",""
"","ISI","","html-keyboard-response","220","276649","0.0-1.0-300.0","0","0","91944","","null","","","null","33","NaN","","","","","","","","","","","","","","",""
"","S2","","html-keyboard-response","221","276903","0.0-1.0-301.0","0","0","91944","","null","","","null","33","","NaN","","","","","","","","","","","","","",""
"","response","","html-keyboard-response","222","277920","0.0-1.0-302.0-0.0","0","0","91944","","1015","","","68","33","","","1","33","training","adjacent","CB","3","2","R.jpg","N.jpg","1","0","0","",""
"","feedback","","html-keyboard-response","223","278928","0.0-1.0-303.0-0.0","0","0","91944","","null","","","null","33","","","","","","","","","","","","","","","",""
"","time_out","","html-keyboard-response","224","280936","0.0-1.0-305.0-0.0","0","0","91944","","null","","","null","33","","","","","","","","","","","","","","","",""
"","ITI","","html-keyboard-response","225","281943","0.0-1.0-306.0","0","0","91944","","null","","","null","33","","","","","","","","","","","","","","","NaN",""
"","S1","","html-keyboard-response","226","282198","0.0-1.0-308.0","0","0","91944","","null","","","null","34","","","","","","","","","","","","","","","",""
"","ISI","","html-keyboard-response","227","283202","0.0-1.0-309.0","0","0","91944","","null","","","null","34","NaN","","","","","","","","","","","","","","",""
"","S2","","html-keyboard-response","228","283463","0.0-1.0-310.0","0","0","91944","","null","","","null","34","","NaN","","","","","","","","","","","","","",""
"","response","","html-keyboard-response","229","283882","0.0-1.0-311.0-0.0","0","0","91944","","416","","","68","34","","","1","34","training","adjacent","FE","6","5","Q.jpg","O.jpg","1","0","0","",""
"","feedback","","html-keyboard-response","230","284887","0.0-1.0-312.0-0.0","0","0","91944","","null","","","null","34","","","","","","","","","","","","","","","",""
"","time_out","","html-keyboard-response","231","286898","0.0-1.0-314.0-0.0","0","0","91944","","null","","","null","34","","","","","","","","","","","","","","","",""
"","ITI","","html-keyboard-response","232","287908","0.0-1.0-315.0","0","0","91944","","null","","","null","34","","","","","","","","","","","","","","","NaN",""
"","S1","","html-keyboard-response","233","288163","0.0-1.0-317.0","0","0","91944","","null","","","null","35","","","","","","","","","","","","","","","",""
"","ISI","","html-keyboard-response","234","289173","0.0-1.0-318.0","0","0","91944","","null","","","null","35","NaN","","","","","","","","","","","","","","",""
"","S2","","html-keyboard-response","235","289426","0.0-1.0-319.0","0","0","91944","","null","","","null","35","","NaN","","","","","","","","","","","","","",""
"","response","","html-keyboard-response","236","290743","0.0-1.0-320.0-0.0","0","0","91944","","1316","","","68","35","","","1","35","training","adjacent","GF","7","6","L.jpg","Q.jpg","1","0","0","",""
"","feedback","","html-keyboard-response","237","291752","0.0-1.0-321.0-0.0","0","0","91944","","null","","","null","35","","","","","","","","","","","","","","","",""
"","time_out","","html-keyboard-response","238","293758","0.0-1.0-323.0-0.0","0","0","91944","","null","","","null","35","","","","","","","","","","","","","","","",""
"","ITI","","html-keyboard-response","239","294768","0.0-1.0-324.0","0","0","91944","","null","","","null","35","","","","","","","","","","","","","","","NaN",""
"","S1","","html-keyboard-response","240","295022","0.0-1.0-326.0","0","0","91944","","null","","","null","36","","","","","","","","","","","","","","","",""
"","ISI","","html-keyboard-response","241","296033","0.0-1.0-327.0","0","0","91944","","null","","","null","36","NaN","","","","","","","","","","","","","","",""
"","S2","","html-keyboard-response","242","296287","0.0-1.0-328.0","0","0","91944","","null","","","null","36","","NaN","","","","","","","","","","","","","",""
"","response","","html-keyboard-response","243","296950","0.0-1.0-329.0-0.0","0","0","91944","","662","","","75","36","","","1","36","training","adjacent","BC","2","3","N.jpg","R.jpg","0","1","0","",""
"","feedback","","html-keyboard-response","244","297956","0.0-1.0-330.0-0.0","0","0","91944","","null","","","null","36","","","","","","","","","","","","","","","",""
"","time_out","","html-keyboard-response","245","299962","0.0-1.0-332.0-0.0","0","0","91944","","null","","","null","36","","","","","","","","","","","","","","","",""
"","ITI","","html-keyboard-response","246","300968","0.0-1.0-333.0","0","0","91944","","null","","","null","36","","","","","","","","","","","","","","","NaN",""
"","S1","","html-keyboard-response","247","301225","0.0-1.0-335.0","0","0","91944","","null","","","null","37","","","","","","","","","","","","","","","",""
"","ISI","","html-keyboard-response","248","302236","0.0-1.0-336.0","0","0","91944","","null","","","null","37","NaN","","","","","","","","","","","","","","",""
"","S2","","html-keyboard-response","249","302490","0.0-1.0-337.0","0","0","91944","","null","","","null","37","","NaN","","","","","","","","","","","","","",""
"","response","","html-keyboard-response","250","303299","0.0-1.0-338.0-0.0","0","0","91944","","807","","","75","37","","","1","37","training","adjacent","BA","2","1","N.jpg","P.jpg","0","0","1","",""
"","feedback","","html-keyboard-response","251","304304","0.0-1.0-339.0-0.0","0","0","91944","","null","","","null","37","","","","","","","","","","","","","","","",""
"","ITI","","html-keyboard-response","252","305322","0.0-1.0-342.0","0","0","91944","","null","","","null","37","","","","","","","","","","","","","","","NaN",""
"","S1","","html-keyboard-response","253","305584","0.0-1.0-344.0","0","0","91944","","null","","","null","38","","","","","","","","","","","","","","","",""
"","ISI","","html-keyboard-response","254","306590","0.0-1.0-345.0","0","0","91944","","null","","","null","38","NaN","","","","","","","","","","","","","","",""
"","S2","","html-keyboard-response","255","306845","0.0-1.0-346.0","0","0","91944","","null","","","null","38","","NaN","","","","","","","","","","","","","",""
"","response","","html-keyboard-response","256","308084","0.0-1.0-347.0-0.0","0","0","91944","","1238","","","68","38","","","1","38","training","adjacent","AB","1","2","P.jpg","N.jpg","1","1","1","",""
"","feedback","","html-keyboard-response","257","309094","0.0-1.0-348.0-0.0","0","0","91944","","null","","","null","38","","","","","","","","","","","","","","","",""
"","ITI","","html-keyboard-response","258","310106","0.0-1.0-351.0","0","0","91944","","null","","","null","38","","","","","","","","","","","","","","","NaN",""
"","S1","","html-keyboard-response","259","310360","0.0-1.0-353.0","0","0","91944","","null","","","null","39","","","","","","","","","","","","","","","",""
"","ISI","","html-keyboard-response","260","311372","0.0-1.0-354.0","0","0","91944","","null","","","null","39","NaN","","","","","","","","","","","","","","",""
"","S2","","html-keyboard-response","261","311636","0.0-1.0-355.0","0","0","91944","","null","","","null","39","","NaN","","","","","","","","","","","","","",""
"","response","","html-keyboard-response","262","312587","0.0-1.0-356.0-0.0","0","0","91944","","949","","","75","39","","","1","39","training","adjacent","CD","3","4","R.jpg","M.jpg","0","1","0","",""
"","feedback","","html-keyboard-response","263","313592","0.0-1.0-357.0-0.0","0","0","91944","","null","","","null","39","","","","","","","","","","","","","","","",""
"","time_out","","html-keyboard-response","264","315603","0.0-1.0-359.0-0.0","0","0","91944","","null","","","null","39","","","","","","","","","","","","","","","",""
"","ITI","","html-keyboard-response","265","316615","0.0-1.0-360.0","0","0","91944","","null","","","null","39","","","","","","","","","","","","","","","NaN",""
"","S1","","html-keyboard-response","266","316876","0.0-1.0-362.0","0","0","91944","","null","","","null","40","","","","","","","","","","","","","","","",""
"","ISI","","html-keyboard-response","267","317888","0.0-1.0-363.0","0","0","91944","","null","","","null","40","NaN","","","","","","","","","","","","","","",""
"","S2","","html-keyboard-response","268","318143","0.0-1.0-364.0","0","0","91944","","null","","","null","40","","NaN","","","","","","","","","","","","","",""
"","response","","html-keyboard-response","269","318975","0.0-1.0-365.0-0.0","0","0","91944","","830","","","68","40","","","1","40","training","adjacent","DC","4","3","M.jpg","R.jpg","1","0","0","",""
"","feedback","","html-keyboard-response","270","319988","0.0-1.0-366.0-0.0","0","0","91944","","null","","","null","40","","","","","","","","","","","","","","","",""
"","time_out","","html-keyboard-response","271","321992","0.0-1.0-368.0-0.0","0","0","91944","","null","","","null","40","","","","","","","","","","","","","","","",""
"","ITI","","html-keyboard-response","272","322996","0.0-1.0-369.0","0","0","91944","","null","","","null","40","","","","","","","","","","","","","","","NaN",""
"","S1","","html-keyboard-response","273","323249","0.0-1.0-371.0","0","0","91944","","null","","","null","41","","","","","","","","","","","","","","","",""
"","ISI","","html-keyboard-response","274","324253","0.0-1.0-372.0","0","0","91944","","null","","","null","41","NaN","","","","","","","","","","","","","","",""
"","S2","","html-keyboard-response","275","324506","0.0-1.0-373.0","0","0","91944","","null","","","null","41","","NaN","","","","","","","","","","","","","",""
"","response","","html-keyboard-response","276","325366","0.0-1.0-374.0-0.0","0","0","91944","","859","","","75","41","","","1","41","training","adjacent","CD","3","4","R.jpg","M.jpg","0","1","0","",""
"","feedback","","html-keyboard-response","277","326380","0.0-1.0-375.0-0.0","0","0","91944","","null","","","null","41","","","","","","","","","","","","","","","",""
"","time_out","","html-keyboard-response","278","328386","0.0-1.0-377.0-0.0","0","0","91944","","null","","","null","41","","","","","","","","","","","","","","","",""
"","ITI","","html-keyboard-response","279","329389","0.0-1.0-378.0","0","0","91944","","null","","","null","41","","","","","","","","","","","","","","","NaN",""
"","S1","","html-keyboard-response","280","329644","0.0-1.0-380.0","0","0","91944","","null","","","null","42","","","","","","","","","","","","","","","",""
"","ISI","","html-keyboard-response","281","330650","0.0-1.0-381.0","0","0","91944","","null","","","null","42","NaN","","","","","","","","","","","","","","",""
"","S2","","html-keyboard-response","282","330904","0.0-1.0-382.0","0","0","91944","","null","","","null","42","","NaN","","","","","","","","","","","","","",""
"","response","","html-keyboard-response","283","331604","0.0-1.0-383.0-0.0","0","0","91944","","699","","","68","42","","","1","42","training","adjacent","ED","5","4","O.jpg","M.jpg","1","0","0","",""
"","feedback","","html-keyboard-response","284","332615","0.0-1.0-384.0-0.0","0","0","91944","","null","","","null","42","","","","","","","","","","","","","","","",""
"","time_out","","html-keyboard-response","285","334625","0.0-1.0-386.0-0.0","0","0","91944","","null","","","null","42","","","","","","","","","","","","","","","",""
"","ITI","","html-keyboard-response","286","335629","0.0-1.0-387.0","0","0","91944","","null","","","null","42","","","","","","","","","","","","","","","NaN",""
"","S1","","html-keyboard-response","287","335891","0.0-1.0-389.0","0","0","91944","","null","","","null","43","","","","","","","","","","","","","","","",""
"","ISI","","html-keyboard-response","288","336902","0.0-1.0-390.0","0","0","91944","","null","","","null","43","NaN","","","","","","","","","","","","","","",""
"","S2","","html-keyboard-response","289","337164","0.0-1.0-391.0","0","0","91944","","null","","","null","43","","NaN","","","","","","","","","","","","","",""
"","response","","html-keyboard-response","290","338081","0.0-1.0-392.0-0.0","0","0","91944","","914","","","68","43","","","1","43","training","adjacent","ED","5","4","O.jpg","M.jpg","1","0","0","",""
"","feedback","","html-keyboard-response","291","339087","0.0-1.0-393.0-0.0","0","0","91944","","null","","","null","43","","","","","","","","","","","","","","","",""
"","time_out","","html-keyboard-response","292","341092","0.0-1.0-395.0-0.0","0","0","91944","","null","","","null","43","","","","","","","","","","","","","","","",""
"","ITI","","html-keyboard-response","293","342102","0.0-1.0-396.0","0","0","91944","","null","","","null","43","","","","","","","","","","","","","","","NaN",""
"","S1","","html-keyboard-response","294","342357","0.0-1.0-398.0","0","0","91944","","null","","","null","44","","","","","","","","","","","","","","","",""
"","ISI","","html-keyboard-response","295","343375","0.0-1.0-399.0","0","0","91944","","null","","","null","44","NaN","","","","","","","","","","","","","","",""
"","S2","","html-keyboard-response","296","343630","0.0-1.0-400.0","0","0","91944","","null","","","null","44","","NaN","","","","","","","","","","","","","",""
"","response","","html-keyboard-response","297","344115","0.0-1.0-401.0-0.0","0","0","91944","","484","","","68","44","","","1","44","training","adjacent","FE","6","5","Q.jpg","O.jpg","1","0","0","",""
"","feedback","","html-keyboard-response","298","345125","0.0-1.0-402.0-0.0","0","0","91944","","null","","","null","44","","","","","","","","","","","","","","","",""
"","time_out","","html-keyboard-response","299","347135","0.0-1.0-404.0-0.0","0","0","91944","","null","","","null","44","","","","","","","","","","","","","","","",""
"","ITI","","html-keyboard-response","300","348145","0.0-1.0-405.0","0","0","91944","","null","","","null","44","","","","","","","","","","","","","","","NaN",""
"","S1","","html-keyboard-response","301","348400","0.0-1.0-407.0","0","0","91944","","null","","","null","45","","","","","","","","","","","","","","","",""
"","ISI","","html-keyboard-response","302","349403","0.0-1.0-408.0","0","0","91944","","null","","","null","45","NaN","","","","","","","","","","","","","","",""
"","S2","","html-keyboard-response","303","349656","0.0-1.0-409.0","0","0","91944","","null","","","null","45","","NaN","","","","","","","","","","","","","",""
"","response","","html-keyboard-response","304","350042","0.0-1.0-410.0-0.0","0","0","91944","","383","","","75","45","","","1","45","training","adjacent","BA","2","1","N.jpg","P.jpg","0","0","1","",""
"","feedback","","html-keyboard-response","305","351052","0.0-1.0-411.0-0.0","0","0","91944","","null","","","null","45","","","","","","","","","","","","","","","",""
"","ITI","","html-keyboard-response","306","352062","0.0-1.0-414.0","0","0","91944","","null","","","null","45","","","","","","","","","","","","","","","NaN",""
"","S1","","html-keyboard-response","307","352324","0.0-1.0-416.0","0","0","91944","","null","","","null","46","","","","","","","","","","","","","","","",""
"","ISI","","html-keyboard-response","308","353334","0.0-1.0-417.0","0","0","91944","","null","","","null","46","NaN","","","","","","","","","","","","","","",""
"","S2","","html-keyboard-response","309","353598","0.0-1.0-418.0","0","0","91944","","null","","","null","46","","NaN","","","","","","","","","","","","","",""
"","response","","html-keyboard-response","310","354732","0.0-1.0-419.0-0.0","0","0","91944","","1132","","","68","46","","","1","46","training","adjacent","GF","7","6","L.jpg","Q.jpg","1","0","0","",""
"","feedback","","html-keyboard-response","311","355744","0.0-1.0-420.0-0.0","0","0","91944","","null","","","null","46","","","","","","","","","","","","","","","",""
"","time_out","","html-keyboard-response","312","357754","0.0-1.0-422.0-0.0","0","0","91944","","null","","","null","46","","","","","","","","","","","","","","","",""
"","ITI","","html-keyboard-response","313","358757","0.0-1.0-423.0","0","0","91944","","null","","","null","46","","","","","","","","","","","","","","","NaN",""
"","S1","","html-keyboard-response","314","359012","0.0-1.0-425.0","0","0","91944","","null","","","null","47","","","","","","","","","","","","","","","",""
"","ISI","","html-keyboard-response","315","360015","0.0-1.0-426.0","0","0","91944","","null","","","null","47","NaN","","","","","","","","","","","","","","",""
"","S2","","html-keyboard-response","316","360269","0.0-1.0-427.0","0","0","91944","","null","","","null","47","","NaN","","","","","","","","","","","","","",""
"","response","","html-keyboard-response","317","360941","0.0-1.0-428.0-0.0","0","0","91944","","670","","","75","47","","","1","47","training","adjacent","AB","1","2","P.jpg","N.jpg","0","1","0","",""
"","feedback","","html-keyboard-response","318","361948","0.0-1.0-429.0-0.0","0","0","91944","","null","","","null","47","","","","","","","","","","","","","","","",""
"","time_out","","html-keyboard-response","319","363955","0.0-1.0-431.0-0.0","0","0","91944","","null","","","null","47","","","","","","","","","","","","","","","",""
"","ITI","","html-keyboard-response","320","364965","0.0-1.0-432.0","0","0","91944","","null","","","null","47","","","","","","","","","","","","","","","NaN",""
"","block_over","","html-keyboard-response","321","382544","0.0-1.0-433.0-0.0","0","0","91944","","17576","","","32","47","","","","","","","","","","","","","","","",""
"","S1","","html-keyboard-response","322","382798","0.0-1.0-434.0","0","0","91944","","null","","","null","48","","","","","","","","","","","","","","","",""
"","ISI","","html-keyboard-response","323","383808","0.0-1.0-435.0","0","0","91944","","null","","","null","48","NaN","","","","","","","","","","","","","","",""
"","S2","","html-keyboard-response","324","384061","0.0-1.0-436.0","0","0","91944","","null","","","null","48","","NaN","","","","","","","","","","","","","",""
"","response","","html-keyboard-response","325","385815","0.0-1.0-437.0-0.0","0","0","91944","","null","","","null","48","","","2","48","training","adjacent","CD","3","4","R.jpg","M.jpg","NaN","1","0","",""
"","too_slow_prompt","","html-keyboard-response","326","386823","0.0-1.0-439.0-0.0","1","0","91944","","null","","","null","","","","","","","","","","","","","","","","",""
"","time_out","","html-keyboard-response","327","388826","0.0-1.0-440.0-0.0","0","0","91944","","null","","","null","48","","","","","","","","","","","","","","","",""
"","ITI","","html-keyboard-response","328","389829","0.0-1.0-441.0","0","0","91944","","null","","","null","48","","","","","","","","","","","","","","","NaN",""
"","S1","","html-keyboard-response","329","390093","0.0-1.0-443.0","0","0","91944","","null","","","null","49","","","","","","","","","","","","","","","",""
"","ISI","","html-keyboard-response","330","391104","0.0-1.0-444.0","0","0","91944","","null","","","null","49","NaN","","","","","","","","","","","","","","",""
"","S2","","html-keyboard-response","331","391358","0.0-1.0-445.0","0","0","91944","","null","","","null","49","","NaN","","","","","","","","","","","","","",""
"","response","","html-keyboard-response","332","392648","0.0-1.0-446.0-0.0","0","0","91944","","1288","","","75","49","","","2","49","training","adjacent","GF","7","6","L.jpg","Q.jpg","0","0","1","",""
"","feedback","","html-keyboard-response","333","393658","0.0-1.0-447.0-0.0","0","0","91944","","null","","","null","49","","","","","","","","","","","","","","","",""
"","ITI","","html-keyboard-response","334","394661","0.0-1.0-450.0","0","0","91944","","null","","","null","49","","","","","","","","","","","","","","","NaN",""
"","S1","","html-keyboard-response","335","394924","0.0-1.0-452.0","0","0","91944","","null","","","null","50","","","","","","","","","","","","","","","",""
"","ISI","","html-keyboard-response","336","395931","0.0-1.0-453.0","0","0","91944","","null","","","null","50","NaN","","","","","","","","","","","","","","",""
"","S2","","html-keyboard-response","337","396185","0.0-1.0-454.0","0","0","91944","","null","","","null","50","","NaN","","","","","","","","","","","","","",""
"","response","","html-keyboard-response","338","397155","0.0-1.0-455.0-0.0","0","0","91944","","969","","","75","50","","","2","50","training","adjacent","EF","5","6","O.jpg","Q.jpg","0","1","0","",""
"","feedback","","html-keyboard-response","339","398158","0.0-1.0-456.0-0.0","0","0","91944","","null","","","null","50","","","","","","","","","","","","","","","",""
"","time_out","","html-keyboard-response","340","400163","0.0-1.0-458.0-0.0","0","0","91944","","null","","","null","50","","","","","","","","","","","","","","","",""
"","ITI","","html-keyboard-response","341","401168","0.0-1.0-459.0","0","0","91944","","null","","","null","50","","","","","","","","","","","","","","","NaN",""
"","S1","","html-keyboard-response","342","401422","0.0-1.0-461.0","0","0","91944","","null","","","null","51","","","","","","","","","","","","","","","",""
"","ISI","","html-keyboard-response","343","402431","0.0-1.0-462.0","0","0","91944","","null","","","null","51","NaN","","","","","","","","","","","","","","",""
"","S2","","html-keyboard-response","344","402685","0.0-1.0-463.0","0","0","91944","","null","","","null","51","","NaN","","","","","","","","","","","","","",""
"","response","","html-keyboard-response","345","403614","0.0-1.0-464.0-0.0","0","0","91944","","927","","","75","51","","","2","51","training","adjacent","GF","7","6","L.jpg","Q.jpg","0","0","1","",""
"","feedback","","html-keyboard-response","346","404624","0.0-1.0-465.0-0.0","0","0","91944","","null","","","null","51","","","","","","","","","","","","","","","",""
"","ITI","","html-keyboard-response","347","405639","0.0-1.0-468.0","0","0","91944","","null","","","null","51","","","","","","","","","","","","","","","NaN",""
"","S1","","html-keyboard-response","348","405894","0.0-1.0-470.0","0","0","91944","","null","","","null","52","","","","","","","","","","","","","","","",""
"","ISI","","html-keyboard-response","349","406912","0.0-1.0-471.0","0","0","91944","","null","","","null","52","NaN","","","","","","","","","","","","","","",""
"","S2","","html-keyboard-response","350","407174","0.0-1.0-472.0","0","0","91944","","null","","","null","52","","NaN","","","","","","","","","","","","","",""
"","response","","html-keyboard-response","351","408416","0.0-1.0-473.0-0.0","0","0","91944","","1240","","","75","52","","","2","52","training","adjacent","BA","2","1","N.jpg","P.jpg","0","0","1","",""
"","feedback","","html-keyboard-response","352","409422","0.0-1.0-474.0-0.0","0","0","91944","","null","","","null","52","","","","","","","","","","","","","","","",""
"","ITI","","html-keyboard-response","353","410433","0.0-1.0-477.0","0","0","91944","","null","","","null","52","","","","","","","","","","","","","","","NaN",""
"","S1","","html-keyboard-response","354","410700","0.0-1.0-479.0","0","0","91944","","null","","","null","53","","","","","","","","","","","","","","","",""
"","ISI","","html-keyboard-response","355","411711","0.0-1.0-480.0","0","0","91944","","null","","","null","53","NaN","","","","","","","","","","","","","","",""
"","S2","","html-keyboard-response","356","411971","0.0-1.0-481.0","0","0","91944","","null","","","null","53","","NaN","","","","","","","","","","","","","",""
"","response","","html-keyboard-response","357","413564","0.0-1.0-482.0-0.0","0","0","91944","","1591","","","68","53","","","2","53","training","adjacent","CD","3","4","R.jpg","M.jpg","1","1","1","",""
"","feedback","","html-keyboard-response","358","414570","0.0-1.0-483.0-0.0","0","0","91944","","null","","","null","53","","","","","","","","","","","","","","","",""
"","ITI","","html-keyboard-response","359","415576","0.0-1.0-486.0","0","0","91944","","null","","","null","53","","","","","","","","","","","","","","","NaN",""
"","S1","","html-keyboard-response","360","415844","0.0-1.0-488.0","0","0","91944","","null","","","null","54","","","","","","","","","","","","","","","",""
"","ISI","","html-keyboard-response","361","416848","0.0-1.0-489.0","0","0","91944","","null","","","null","54","NaN","","","","","","","","","","","","","","",""
"","S2","","html-keyboard-response","362","417109","0.0-1.0-490.0","0","0","91944","","null","","","null","54","","NaN","","","","","","","","","","","","","",""
"","response","","html-keyboard-response","363","418108","0.0-1.0-491.0-0.0","0","0","91944","","997","","","75","54","","","2","54","training","adjacent","DE","4","5","M.jpg","O.jpg","0","1","0","",""
"","feedback","","html-keyboard-response","364","419125","0.0-1.0-492.0-0.0","0","0","91944","","null","","","null","54","","","","","","","","","","","","","","","",""
"","time_out","","html-keyboard-response","365","421138","0.0-1.0-494.0-0.0","0","0","91944","","null","","","null","54","","","","","","","","","","","","","","","",""
"","ITI","","html-keyboard-response","366","422149","0.0-1.0-495.0","0","0","91944","","null","","","null","54","","","","","","","","","","","","","","","NaN",""
"","S1","","html-keyboard-response","367","422402","0.0-1.0-497.0","0","0","91944","","null","","","null","55","","","","","","","","","","","","","","","",""
"","ISI","","html-keyboard-response","368","423414","0.0-1.0-498.0","0","0","91944","","null","","","null","55","NaN","","","","","","","","","","","","","","",""
"","S2","","html-keyboard-response","369","423672","0.0-1.0-499.0","0","0","91944","","null","","","null","55","","NaN","","","","","","","","","","","","","",""
"","response","","html-keyboard-response","370","425334","0.0-1.0-500.0-0.0","0","0","91944","","1659","","","75","55","","","2","55","training","adjacent","FE","6","5","Q.jpg","O.jpg","0","0","1","",""
"","feedback","","html-keyboard-response","371","426347","0.0-1.0-501.0-0.0","0","0","91944","","null","","","null","55","","","","","","","","","","","","","","","",""
"","ITI","","html-keyboard-response","372","427357","0.0-1.0-504.0","0","0","91944","","null","","","null","55","","","","","","","","","","","","","","","NaN",""
"","S1","","html-keyboard-response","373","427612","0.0-1.0-506.0","0","0","91944","","null","","","null","56","","","","","","","","","","","","","","","",""
"","ISI","","html-keyboard-response","374","428620","0.0-1.0-507.0","0","0","91944","","null","","","null","56","NaN","","","","","","","","","","","","","","",""
"","S2","","html-keyboard-response","375","428874","0.0-1.0-508.0","0","0","91944","","null","","","null","56","","NaN","","","","","","","","","","","","","",""
"","response","","html-keyboard-response","376","429737","0.0-1.0-509.0-0.0","0","0","91944","","860","","","75","56","","","2","56","training","adjacent","FE","6","5","Q.jpg","O.jpg","0","0","1","",""
"","feedback","","html-keyboard-response","377","430747","0.0-1.0-510.0-0.0","0","0","91944","","null","","","null","56","","","","","","","","","","","","","","","",""
"","ITI","","html-keyboard-response","378","431750","0.0-1.0-513.0","0","0","91944","","null","","","null","56","","","","","","","","","","","","","","","NaN",""
"","S1","","html-keyboard-response","379","432013","0.0-1.0-515.0","0","0","91944","","null","","","null","57","","","","","","","","","","","","","","","",""
"","ISI","","html-keyboard-response","380","433031","0.0-1.0-516.0","0","0","91944","","null","","","null","57","NaN","","","","","","","","","","","","","","",""
"","S2","","html-keyboard-response","381","433286","0.0-1.0-517.0","0","0","91944","","null","","","null","57","","NaN","","","","","","","","","","","","","",""
"","response","","html-keyboard-response","382","434307","0.0-1.0-518.0-0.0","0","0","91944","","1020","","","75","57","","","2","57","training","adjacent","ED","5","4","O.jpg","M.jpg","0","0","1","",""
"","feedback","","html-keyboard-response","383","435313","0.0-1.0-519.0-0.0","0","0","91944","","null","","","null","57","","","","","","","","","","","","","","","",""
"","ITI","","html-keyboard-response","384","436323","0.0-1.0-522.0","0","0","91944","","null","","","null","57","","","","","","","","","","","","","","","NaN",""
"","S1","","html-keyboard-response","385","436577","0.0-1.0-524.0","0","0","91944","","null","","","null","58","","","","","","","","","","","","","","","",""
"","ISI","","html-keyboard-response","386","437581","0.0-1.0-525.0","0","0","91944","","null","","","null","58","NaN","","","","","","","","","","","","","","",""
"","S2","","html-keyboard-response","387","437834","0.0-1.0-526.0","0","0","91944","","null","","","null","58","","NaN","","","","","","","","","","","","","",""
"","response","","html-keyboard-response","388","438755","0.0-1.0-527.0-0.0","0","0","91944","","919","","","75","58","","","2","58","training","adjacent","DC","4","3","M.jpg","R.jpg","0","0","1","",""
"","feedback","","html-keyboard-response","389","439759","0.0-1.0-528.0-0.0","0","0","91944","","null","","","null","58","","","","","","","","","","","","","","","",""
"","ITI","","html-keyboard-response","390","440762","0.0-1.0-531.0","0","0","91944","","null","","","null","58","","","","","","","","","","","","","","","NaN",""
"","S1","","html-keyboard-response","391","441025","0.0-1.0-533.0","0","0","91944","","null","","","null","59","","","","","","","","","","","","","","","",""
"","ISI","","html-keyboard-response","392","442043","0.0-1.0-534.0","0","0","91944","","null","","","null","59","NaN","","","","","","","","","","","","","","",""
"","S2","","html-keyboard-response","393","442305","0.0-1.0-535.0","0","0","91944","","null","","","null","59","","NaN","","","","","","","","","","","","","",""
"","response","","html-keyboard-response","394","443482","0.0-1.0-536.0-0.0","0","0","91944","","1175","","","68","59","","","2","59","training","adjacent","EF","5","6","O.jpg","Q.jpg","1","1","1","",""
"","feedback","","html-keyboard-response","395","444493","0.0-1.0-537.0-0.0","0","0","91944","","null","","","null","59","","","","","","","","","","","","","","","",""
"","ITI","","html-keyboard-response","396","445502","0.0-1.0-540.0","0","0","91944","","null","","","null","59","","","","","","","","","","","","","","","NaN",""
"","S1","","html-keyboard-response","397","445765","0.0-1.0-542.0","0","0","91944","","null","","","null","60","","","","","","","","","","","","","","","",""
"","ISI","","html-keyboard-response","398","446770","0.0-1.0-543.0","0","0","91944","","null","","","null","60","NaN","","","","","","","","","","","","","","",""
"","S2","","html-keyboard-response","399","447034","0.0-1.0-544.0","0","0","91944","","null","","","null","60","","NaN","","","","","","","","","","","","","",""
"","response","","html-keyboard-response","400","447643","0.0-1.0-545.0-0.0","0","0","91944","","606","","","75","60","","","2","60","training","adjacent","FE","6","5","Q.jpg","O.jpg","0","0","1","",""
"","feedback","","html-keyboard-response","401","448646","0.0-1.0-546.0-0.0","0","0","91944","","null","","","null","60","","","","","","","","","","","","","","","",""
"","ITI","","html-keyboard-response","402","449662","0.0-1.0-549.0","0","0","91944","","null","","","null","60","","","","","","","","","","","","","","","NaN",""
"","S1","","html-keyboard-response","403","449925","0.0-1.0-551.0","0","0","91944","","null","","","null","61","","","","","","","","","","","","","","","",""
"","ISI","","html-keyboard-response","404","450935","0.0-1.0-552.0","0","0","91944","","null","","","null","61","NaN","","","","","","","","","","","","","","",""
"","S2","","html-keyboard-response","405","451197","0.0-1.0-553.0","0","0","91944","","null","","","null","61","","NaN","","","","","","","","","","","","","",""
"","response","","html-keyboard-response","406","451952","0.0-1.0-554.0-0.0","0","0","91944","","754","","","75","61","","","2","61","training","adjacent","FG","6","7","Q.jpg","L.jpg","0","1","0","",""
"","feedback","","html-keyboard-response","407","452963","0.0-1.0-555.0-0.0","0","0","91944","","null","","","null","61","","","","","","","","","","","","","","","",""
"","time_out","","html-keyboard-response","408","454973","0.0-1.0-557.0-0.0","0","0","91944","","null","","","null","61","","","","","","","","","","","","","","","",""
"","ITI","","html-keyboard-response","409","455976","0.0-1.0-558.0","0","0","91944","","null","","","null","61","","","","","","","","","","","","","","","NaN",""
"","S1","","html-keyboard-response","410","456230","0.0-1.0-560.0","0","0","91944","","null","","","null","62","","","","","","","","","","","","","","","",""
"","ISI","","html-keyboard-response","411","457240","0.0-1.0-561.0","0","0","91944","","null","","","null","62","NaN","","","","","","","","","","","","","","",""
"","S2","","html-keyboard-response","412","457502","0.0-1.0-562.0","0","0","91944","","null","","","null","62","","NaN","","","","","","","","","","","","","",""
"","response","","html-keyboard-response","413","458426","0.0-1.0-563.0-0.0","0","0","91944","","922","","","68","62","","","2","62","training","adjacent","FE","6","5","Q.jpg","O.jpg","1","0","0","",""
"","feedback","","html-keyboard-response","414","459433","0.0-1.0-564.0-0.0","0","0","91944","","null","","","null","62","","","","","","","","","","","","","","","",""
"","time_out","","html-keyboard-response","415","461438","0.0-1.0-566.0-0.0","0","0","91944","","null","","","null","62","","","","","","","","","","","","","","","",""
"","ITI","","html-keyboard-response","416","462448","0.0-1.0-567.0","0","0","91944","","null","","","null","62","","","","","","","","","","","","","","","NaN",""
"","S1","","html-keyboard-response","417","462703","0.0-1.0-569.0","0","0","91944","","null","","","null","63","","","","","","","","","","","","","","","",""
"","ISI","","html-keyboard-response","418","463713","0.0-1.0-570.0","0","0","91944","","null","","","null","63","NaN","","","","","","","","","","","","","","",""
"","S2","","html-keyboard-response","419","463975","0.0-1.0-571.0","0","0","91944","","null","","","null","63","","NaN","","","","","","","","","","","","","",""
"","response","","html-keyboard-response","420","464785","0.0-1.0-572.0-0.0","0","0","91944","","808","","","68","63","","","2","63","training","adjacent","CB","3","2","R.jpg","N.jpg","1","0","0","",""
"","feedback","","html-keyboard-response","421","465790","0.0-1.0-573.0-0.0","0","0","91944","","null","","","null","63","","","","","","","","","","","","","","","",""
"","time_out","","html-keyboard-response","422","467794","0.0-1.0-575.0-0.0","0","0","91944","","null","","","null","63","","","","","","","","","","","","","","","",""
"","ITI","","html-keyboard-response","423","468804","0.0-1.0-576.0","0","0","91944","","null","","","null","63","","","","","","","","","","","","","","","NaN",""
"","S1","","html-keyboard-response","424","469059","0.0-1.0-578.0","0","0","91944","","null","","","null","64","","","","","","","","","","","","","","","",""
"","ISI","","html-keyboard-response","425","470067","0.0-1.0-579.0","0","0","91944","","null","","","null","64","NaN","","","","","","","","","","","","","","",""
"","S2","","html-keyboard-response","426","470322","0.0-1.0-580.0","0","0","91944","","null","","","null","64","","NaN","","","","","","","","","","","","","",""
"","response","","html-keyboard-response","427","471282","0.0-1.0-581.0-0.0","0","0","91944","","957","","","68","64","","","2","64","training","adjacent","FG","6","7","Q.jpg","L.jpg","1","1","1","",""
"","feedback","","html-keyboard-response","428","472291","0.0-1.0-582.0-0.0","0","0","91944","","null","","","null","64","","","","","","","","","","","","","","","",""
"","ITI","","html-keyboard-response","429","473301","0.0-1.0-585.0","0","0","91944","","null","","","null","64","","","","","","","","","","","","","","","NaN",""
"","S1","","html-keyboard-response","430","473563","0.0-1.0-587.0","0","0","91944","","null","","","null","65","","","","","","","","","","","","","","","",""
"","ISI","","html-keyboard-response","431","474572","0.0-1.0-588.0","0","0","91944","","null","","","null","65","NaN","","","","","","","","","","","","","","",""
"","S2","","html-keyboard-response","432","474826","0.0-1.0-589.0","0","0","91944","","null","","","null","65","","NaN","","","","","","","","","","","","","",""
"","response","","html-keyboard-response","433","475879","0.0-1.0-590.0-0.0","0","0","91944","","1051","","","75","65","","","2","65","training","adjacent","DC","4","3","M.jpg","R.jpg","0","0","1","",""
"","feedback","","html-keyboard-response","434","476886","0.0-1.0-591.0-0.0","0","0","91944","","null","","","null","65","","","","","","","","","","","","","","","",""
"","ITI","","html-keyboard-response","435","477905","0.0-1.0-594.0","0","0","91944","","null","","","null","65","","","","","","","","","","","","","","","NaN",""
"","S1","","html-keyboard-response","436","478159","0.0-1.0-596.0","0","0","91944","","null","","","null","66","","","","","","","","","","","","","","","",""
"","ISI","","html-keyboard-response","437","479166","0.0-1.0-597.0","0","0","91944","","null","","","null","66","NaN","","","","","","","","","","","","","","",""
"","S2","","html-keyboard-response","438","479421","0.0-1.0-598.0","0","0","91944","","null","","","null","66","","NaN","","","","","","","","","","","","","",""
"","response","","html-keyboard-response","439","480331","0.0-1.0-599.0-0.0","0","0","91944","","908","","","75","66","","","2","66","training","adjacent","BA","2","1","N.jpg","P.jpg","0","0","1","",""
"","feedback","","html-keyboard-response","440","481344","0.0-1.0-600.0-0.0","0","0","91944","","null","","","null","66","","","","","","","","","","","","","","","",""
"","ITI","","html-keyboard-response","441","482354","0.0-1.0-603.0","0","0","91944","","null","","","null","66","","","","","","","","","","","","","","","NaN",""
"","S1","","html-keyboard-response","442","482609","0.0-1.0-605.0","0","0","91944","","null","","","null","67","","","","","","","","","","","","","","","",""
"","ISI","","html-keyboard-response","443","483612","0.0-1.0-606.0","0","0","91944","","null","","","null","67","NaN","","","","","","","","","","","","","","",""
"","S2","","html-keyboard-response","444","483868","0.0-1.0-607.0","0","0","91944","","null","","","null","67","","NaN","","","","","","","","","","","","","",""
"","response","","html-keyboard-response","445","484732","0.0-1.0-608.0-0.0","0","0","91944","","863","","","75","67","","","2","67","training","adjacent","FG","6","7","Q.jpg","L.jpg","0","1","0","",""
"","feedback","","html-keyboard-response","446","485738","0.0-1.0-609.0-0.0","0","0","91944","","null","","","null","67","","","","","","","","","","","","","","","",""
"","time_out","","html-keyboard-response","447","487744","0.0-1.0-611.0-0.0","0","0","91944","","null","","","null","67","","","","","","","","","","","","","","","",""
"","ITI","","html-keyboard-response","448","488748","0.0-1.0-612.0","0","0","91944","","null","","","null","67","","","","","","","","","","","","","","","NaN",""
"","S1","","html-keyboard-response","449","489001","0.0-1.0-614.0","0","0","91944","","null","","","null","68","","","","","","","","","","","","","","","",""
"","ISI","","html-keyboard-response","450","490018","0.0-1.0-615.0","0","0","91944","","null","","","null","68","NaN","","","","","","","","","","","","","","",""
"","S2","","html-keyboard-response","451","490281","0.0-1.0-616.0","0","0","91944","","null","","","null","68","","NaN","","","","","","","","","","","","","",""
"","response","","html-keyboard-response","452","491128","0.0-1.0-617.0-0.0","0","0","91944","","845","","","75","68","","","2","68","training","adjacent","BA","2","1","N.jpg","P.jpg","0","0","1","",""
"","feedback","","html-keyboard-response","453","492133","0.0-1.0-618.0-0.0","0","0","91944","","null","","","null","68","","","","","","","","","","","","","","","",""
"","ITI","","html-keyboard-response","454","493139","0.0-1.0-621.0","0","0","91944","","null","","","null","68","","","","","","","","","","","","","","","NaN",""
"","S1","","html-keyboard-response","455","493400","0.0-1.0-623.0","0","0","91944","","null","","","null","69","","","","","","","","","","","","","","","",""
"","ISI","","html-keyboard-response","456","494412","0.0-1.0-624.0","0","0","91944","","null","","","null","69","NaN","","","","","","","","","","","","","","",""
"","S2","","html-keyboard-response","457","494667","0.0-1.0-625.0","0","0","91944","","null","","","null","69","","NaN","","","","","","","","","","","","","",""
"","response","","html-keyboard-response","458","495519","0.0-1.0-626.0-0.0","0","0","91944","","849","","","75","69","","","2","69","training","adjacent","DC","4","3","M.jpg","R.jpg","0","0","1","",""
"","feedback","","html-keyboard-response","459","496525","0.0-1.0-627.0-0.0","0","0","91944","","null","","","null","69","","","","","","","","","","","","","","","",""
"","ITI","","html-keyboard-response","460","497529","0.0-1.0-630.0","0","0","91944","","null","","","null","69","","","","","","","","","","","","","","","NaN",""
"","S1","","html-keyboard-response","461","497783","0.0-1.0-632.0","0","0","91944","","null","","","null","70","","","","","","","","","","","","","","","",""
"","ISI","","html-keyboard-response","462","498800","0.0-1.0-633.0","0","0","91944","","null","","","null","70","NaN","","","","","","","","","","","","","","",""
"","S2","","html-keyboard-response","463","499061","0.0-1.0-634.0","0","0","91944","","null","","","null","70","","NaN","","","","","","","","","","","","","",""
"","response","","html-keyboard-response","464","499871","0.0-1.0-635.0-0.0","0","0","91944","","808","","","75","70","","","2","70","training","adjacent","DC","4","3","M.jpg","R.jpg","0","0","1","",""
"","feedback","","html-keyboard-response","465","500885","0.0-1.0-636.0-0.0","0","0","91944","","null","","","null","70","","","","","","","","","","","","","","","",""
"","ITI","","html-keyboard-response","466","501888","0.0-1.0-639.0","0","0","91944","","null","","","null","70","","","","","","","","","","","","","","","NaN",""
"","S1","","html-keyboard-response","467","502149","0.0-1.0-641.0","0","0","91944","","null","","","null","71","","","","","","","","","","","","","","","",""
"","ISI","","html-keyboard-response","468","503153","0.0-1.0-642.0","0","0","91944","","null","","","null","71","NaN","","","","","","","","","","","","","","",""
"","S2","","html-keyboard-response","469","503414","0.0-1.0-643.0","0","0","91944","","null","","","null","71","","NaN","","","","","","","","","","","","","",""
"","response","","html-keyboard-response","470","504146","0.0-1.0-644.0-0.0","0","0","91944","","729","","","68","71","","","2","71","training","adjacent","CB","3","2","R.jpg","N.jpg","1","0","0","",""
"","feedback","","html-keyboard-response","471","505151","0.0-1.0-645.0-0.0","0","0","91944","","null","","","null","71","","","","","","","","","","","","","","","",""
"","time_out","","html-keyboard-response","472","507158","0.0-1.0-647.0-0.0","0","0","91944","","null","","","null","71","","","","","","","","","","","","","","","",""
"","ITI","","html-keyboard-response","473","508166","0.0-1.0-648.0","0","0","91944","","null","","","null","71","","","","","","","","","","","","","","","NaN",""
"","S1","","html-keyboard-response","474","508421","0.0-1.0-650.0","0","0","91944","","null","","","null","72","","","","","","","","","","","","","","","",""
"","ISI","","html-keyboard-response","475","509432","0.0-1.0-651.0","0","0","91944","","null","","","null","72","NaN","","","","","","","","","","","","","","",""
"","S2","","html-keyboard-response","476","509694","0.0-1.0-652.0","0","0","91944","","null","","","null","72","","NaN","","","","","","","","","","","","","",""
"","response","","html-keyboard-response","477","510489","0.0-1.0-653.0-0.0","0","0","91944","","793","","","68","72","","","2","72","training","adjacent","AB","1","2","P.jpg","N.jpg","1","1","1","",""
"","feedback","","html-keyboard-response","478","511498","0.0-1.0-654.0-0.0","0","0","91944","","null","","","null","72","","","","","","","","","","","","","","","",""
"","ITI","","html-keyboard-response","479","512510","0.0-1.0-657.0","0","0","91944","","null","","","null","72","","","","","","","","","","","","","","","NaN",""
"","S1","","html-keyboard-response","480","512764","0.0-1.0-659.0","0","0","91944","","null","","","null","73","","","","","","","","","","","","","","","",""
"","ISI","","html-keyboard-response","481","513768","0.0-1.0-660.0","0","0","91944","","null","","","null","73","NaN","","","","","","","","","","","","","","",""
"","S2","","html-keyboard-response","482","514022","0.0-1.0-661.0","0","0","91944","","null","","","null","73","","NaN","","","","","","","","","","","","","",""
"","response","","html-keyboard-response","483","515056","0.0-1.0-662.0-0.0","0","0","91944","","1032","","","68","73","","","2","73","training","adjacent","AB","1","2","P.jpg","N.jpg","1","1","1","",""
"","feedback","","html-keyboard-response","484","516065","0.0-1.0-663.0-0.0","0","0","91944","","null","","","null","73","","","","","","","","","","","","","","","",""
"","ITI","","html-keyboard-response","485","517083","0.0-1.0-666.0","0","0","91944","","null","","","null","73","","","","","","","","","","","","","","","NaN",""
"","S1","","html-keyboard-response","486","517337","0.0-1.0-668.0","0","0","91944","","null","","","null","74","","","","","","","","","","","","","","","",""
"","ISI","","html-keyboard-response","487","518347","0.0-1.0-669.0","0","0","91944","","null","","","null","74","NaN","","","","","","","","","","","","","","",""
"","S2","","html-keyboard-response","488","518611","0.0-1.0-670.0","0","0","91944","","null","","","null","74","","NaN","","","","","","","","","","","","","",""
"","response","","html-keyboard-response","489","519584","0.0-1.0-671.0-0.0","0","0","91944","","971","","","68","74","","","2","74","training","adjacent","CD","3","4","R.jpg","M.jpg","1","1","1","",""
"","feedback","","html-keyboard-response","490","520589","0.0-1.0-672.0-0.0","0","0","91944","","null","","","null","74","","","","","","","","","","","","","","","",""
"","ITI","","html-keyboard-response","491","521596","0.0-1.0-675.0","0","0","91944","","null","","","null","74","","","","","","","","","","","","","","","NaN",""
"","S1","","html-keyboard-response","492","521851","0.0-1.0-677.0","0","0","91944","","null","","","null","75","","","","","","","","","","","","","","","",""
"","ISI","","html-keyboard-response","493","522868","0.0-1.0-678.0","0","0","91944","","null","","","null","75","NaN","","","","","","","","","","","","","","",""
"","S2","","html-keyboard-response","494","523123","0.0-1.0-679.0","0","0","91944","","null","","","null","75","","NaN","","","","","","","","","","","","","",""
"","response","","html-keyboard-response","495","524111","0.0-1.0-680.0-0.0","0","0","91944","","985","","","68","75","","","2","75","training","adjacent","CB","3","2","R.jpg","N.jpg","1","0","0","",""
"","feedback","","html-keyboard-response","496","525120","0.0-1.0-681.0-0.0","0","0","91944","","null","","","null","75","","","","","","","","","","","","","","","",""
"","time_out","","html-keyboard-response","497","527128","0.0-1.0-683.0-0.0","0","0","91944","","null","","","null","75","","","","","","","","","","","","","","","",""
"","ITI","","html-keyboard-response","498","528132","0.0-1.0-684.0","0","0","91944","","null","","","null","75","","","","","","","","","","","","","","","NaN",""
"","S1","","html-keyboard-response","499","528392","0.0-1.0-686.0","0","0","91944","","null","","","null","76","","","","","","","","","","","","","","","",""
"","ISI","","html-keyboard-response","500","529402","0.0-1.0-687.0","0","0","91944","","null","","","null","76","NaN","","","","","","","","","","","","","","",""
"","S2","","html-keyboard-response","501","529665","0.0-1.0-688.0","0","0","91944","","null","","","null","76","","NaN","","","","","","","","","","","","","",""
"","response","","html-keyboard-response","502","530590","0.0-1.0-689.0-0.0","0","0","91944","","923","","","68","76","","","2","76","training","adjacent","ED","5","4","O.jpg","M.jpg","1","0","0","",""
"","feedback","","html-keyboard-response","503","531597","0.0-1.0-690.0-0.0","0","0","91944","","null","","","null","76","","","","","","","","","","","","","","","",""
"","time_out","","html-keyboard-response","504","533603","0.0-1.0-692.0-0.0","0","0","91944","","null","","","null","76","","","","","","","","","","","","","","","",""
"","ITI","","html-keyboard-response","505","534606","0.0-1.0-693.0","0","0","91944","","null","","","null","76","","","","","","","","","","","","","","","NaN",""
"","S1","","html-keyboard-response","506","534861","0.0-1.0-695.0","0","0","91944","","null","","","null","77","","","","","","","","","","","","","","","",""
"","ISI","","html-keyboard-response","507","535874","0.0-1.0-696.0","0","0","91944","","null","","","null","77","NaN","","","","","","","","","","","","","","",""
"","S2","","html-keyboard-response","508","536136","0.0-1.0-697.0","0","0","91944","","null","","","null","77","","NaN","","","","","","","","","","","","","",""
"","response","","html-keyboard-response","509","537385","0.0-1.0-698.0-0.0","0","0","91944","","1247","","","75","77","","","2","77","training","adjacent","DE","4","5","M.jpg","O.jpg","0","1","0","",""
"","feedback","","html-keyboard-response","510","538391","0.0-1.0-699.0-0.0","0","0","91944","","null","","","null","77","","","","","","","","","","","","","","","",""
"","time_out","","html-keyboard-response","511","540399","0.0-1.0-701.0-0.0","0","0","91944","","null","","","null","77","","","","","","","","","","","","","","","",""
"","ITI","","html-keyboard-response","512","541410","0.0-1.0-702.0","0","0","91944","","null","","","null","77","","","","","","","","","","","","","","","NaN",""
"","S1","","html-keyboard-response","513","541664","0.0-1.0-704.0","0","0","91944","","null","","","null","78","","","","","","","","","","","","","","","",""
"","ISI","","html-keyboard-response","514","542668","0.0-1.0-705.0","0","0","91944","","null","","","null","78","NaN","","","","","","","","","","","","","","",""
"","S2","","html-keyboard-response","515","542930","0.0-1.0-706.0","0","0","91944","","null","","","null","78","","NaN","","","","","","","","","","","","","",""
"","response","","html-keyboard-response","516","543867","0.0-1.0-707.0-0.0","0","0","91944","","934","","","68","78","","","2","78","training","adjacent","EF","5","6","O.jpg","Q.jpg","1","1","1","",""
"","feedback","","html-keyboard-response","517","544879","0.0-1.0-708.0-0.0","0","0","91944","","null","","","null","78","","","","","","","","","","","","","","","",""
"","ITI","","html-keyboard-response","518","545887","0.0-1.0-711.0","0","0","91944","","null","","","null","78","","","","","","","","","","","","","","","NaN",""
"","S1","","html-keyboard-response","519","546149","0.0-1.0-713.0","0","0","91944","","null","","","null","79","","","","","","","","","","","","","","","",""
"","ISI","","html-keyboard-response","520","547154","0.0-1.0-714.0","0","0","91944","","null","","","null","79","NaN","","","","","","","","","","","","","","",""
"","S2","","html-keyboard-response","521","547416","0.0-1.0-715.0","0","0","91944","","null","","","null","79","","NaN","","","","","","","","","","","","","",""
"","response","","html-keyboard-response","522","548318","0.0-1.0-716.0-0.0","0","0","91944","","899","","","75","79","","","2","79","training","adjacent","FG","6","7","Q.jpg","L.jpg","0","1","0","",""
"","feedback","","html-keyboard-response","523","549322","0.0-1.0-717.0-0.0","0","0","91944","","null","","","null","79","","","","","","","","","","","","","","","",""
"","time_out","","html-keyboard-response","524","551328","0.0-1.0-719.0-0.0","0","0","91944","","null","","","null","79","","","","","","","","","","","","","","","",""
"","ITI","","html-keyboard-response","525","552338","0.0-1.0-720.0","0","0","91944","","null","","","null","79","","","","","","","","","","","","","","","NaN",""
"","S1","","html-keyboard-response","526","552593","0.0-1.0-722.0","0","0","91944","","null","","","null","80","","","","","","","","","","","","","","","",""
"","ISI","","html-keyboard-response","527","553611","0.0-1.0-723.0","0","0","91944","","null","","","null","80","NaN","","","","","","","","","","","","","","",""
"","S2","","html-keyboard-response","528","553865","0.0-1.0-724.0","0","0","91944","","null","","","null","80","","NaN","","","","","","","","","","","","","",""
"","response","","html-keyboard-response","529","554810","0.0-1.0-725.0-0.0","0","0","91944","","942","","","68","80","","","2","80","training","adjacent","BC","2","3","N.jpg","R.jpg","1","1","1","",""
"","feedback","","html-keyboard-response","530","555818","0.0-1.0-726.0-0.0","0","0","91944","","null","","","null","80","","","","","","","","","","","","","","","",""
"","ITI","","html-keyboard-response","531","556828","0.0-1.0-729.0","0","0","91944","","null","","","null","80","","","","","","","","","","","","","","","NaN",""
"","S1","","html-keyboard-response","532","557089","0.0-1.0-731.0","0","0","91944","","null","","","null","81","","","","","","","","","","","","","","","",""
"","ISI","","html-keyboard-response","533","558102","0.0-1.0-732.0","0","0","91944","","null","","","null","81","NaN","","","","","","","","","","","","","","",""
"","S2","","html-keyboard-response","534","558366","0.0-1.0-733.0","0","0","91944","","null","","","null","81","","NaN","","","","","","","","","","","","","",""
"","response","","html-keyboard-response","535","559622","0.0-1.0-734.0-0.0","0","0","91944","","1254","","","75","81","","","2","81","training","adjacent","GF","7","6","L.jpg","Q.jpg","0","0","1","",""
"","feedback","","html-keyboard-response","536","560632","0.0-1.0-735.0-0.0","0","0","91944","","null","","","null","81","","","","","","","","","","","","","","","",""
"","ITI","","html-keyboard-response","537","561643","0.0-1.0-738.0","0","0","91944","","null","","","null","81","","","","","","","","","","","","","","","NaN",""
"","S1","","html-keyboard-response","538","561904","0.0-1.0-740.0","0","0","91944","","null","","","null","82","","","","","","","","","","","","","","","",""
"","ISI","","html-keyboard-response","539","562921","0.0-1.0-741.0","0","0","91944","","null","","","null","82","NaN","","","","","","","","","","","","","","",""
"","S2","","html-keyboard-response","540","563185","0.0-1.0-742.0","0","0","91944","","null","","","null","82","","NaN","","","","","","","","","","","","","",""
"","response","","html-keyboard-response","541","563858","0.0-1.0-743.0-0.0","0","0","91944","","672","","","75","82","","","2","82","training","adjacent","DE","4","5","M.jpg","O.jpg","0","1","0","",""
"","feedback","","html-keyboard-response","542","564876","0.0-1.0-744.0-0.0","0","0","91944","","null","","","null","82","","","","","","","","","","","","","","","",""
"","time_out","","html-keyboard-response","543","566882","0.0-1.0-746.0-0.0","0","0","91944","","null","","","null","82","","","","","","","","","","","","","","","",""
"","ITI","","html-keyboard-response","544","567885","0.0-1.0-747.0","0","0","91944","","null","","","null","82","","","","","","","","","","","","","","","NaN",""
"","S1","","html-keyboard-response","545","568139","0.0-1.0-749.0","0","0","91944","","null","","","null","83","","","","","","","","","","","","","","","",""
"","ISI","","html-keyboard-response","546","569144","0.0-1.0-750.0","0","0","91944","","null","","","null","83","NaN","","","","","","","","","","","","","","",""
"","S2","","html-keyboard-response","547","569407","0.0-1.0-751.0","0","0","91944","","null","","","null","83","","NaN","","","","","","","","","","","","","",""
"","response","","html-keyboard-response","548","570145","0.0-1.0-752.0-0.0","0","0","91944","","736","","","75","83","","","2","83","training","adjacent","GF","7","6","L.jpg","Q.jpg","0","0","1","",""
"","feedback","","html-keyboard-response","549","571150","0.0-1.0-753.0-0.0","0","0","91944","","null","","","null","83","","","","","","","","","","","","","","","",""
"","ITI","","html-keyboard-response","550","572154","0.0-1.0-756.0","0","0","91944","","null","","","null","83","","","","","","","","","","","","","","","NaN",""
"","S1","","html-keyboard-response","551","572408","0.0-1.0-758.0","0","0","91944","","null","","","null","84","","","","","","","","","","","","","","","",""
"","ISI","","html-keyboard-response","552","573418","0.0-1.0-759.0","0","0","91944","","null","","","null","84","NaN","","","","","","","","","","","","","","",""
"","S2","","html-keyboard-response","553","573672","0.0-1.0-760.0","0","0","91944","","null","","","null","84","","NaN","","","","","","","","","","","","","",""
"","response","","html-keyboard-response","554","574601","0.0-1.0-761.0-0.0","0","0","91944","","927","","","68","84","","","2","84","training","adjacent","ED","5","4","O.jpg","M.jpg","1","0","0","",""
"","feedback","","html-keyboard-response","555","575611","0.0-1.0-762.0-0.0","0","0","91944","","null","","","null","84","","","","","","","","","","","","","","","",""
"","time_out","","html-keyboard-response","556","577621","0.0-1.0-764.0-0.0","0","0","91944","","null","","","null","84","","","","","","","","","","","","","","","",""
"","ITI","","html-keyboard-response","557","578632","0.0-1.0-765.0","0","0","91944","","null","","","null","84","","","","","","","","","","","","","","","NaN",""
"","S1","","html-keyboard-response","558","578895","0.0-1.0-767.0","0","0","91944","","null","","","null","85","","","","","","","","","","","","","","","",""
"","ISI","","html-keyboard-response","559","579905","0.0-1.0-768.0","0","0","91944","","null","","","null","85","NaN","","","","","","","","","","","","","","",""
"","S2","","html-keyboard-response","560","580159","0.0-1.0-769.0","0","0","91944","","null","","","null","85","","NaN","","","","","","","","","","","","","",""
"","response","","html-keyboard-response","561","581198","0.0-1.0-770.0-0.0","0","0","91944","","1037","","","68","85","","","2","85","training","adjacent","BC","2","3","N.jpg","R.jpg","1","1","1","",""
"","feedback","","html-keyboard-response","562","582206","0.0-1.0-771.0-0.0","0","0","91944","","null","","","null","85","","","","","","","","","","","","","","","",""
"","ITI","","html-keyboard-response","563","583209","0.0-1.0-774.0","0","0","91944","","null","","","null","85","","","","","","","","","","","","","","","NaN",""
"","S1","","html-keyboard-response","564","583463","0.0-1.0-776.0","0","0","91944","","null","","","null","86","","","","","","","","","","","","","","","",""
"","ISI","","html-keyboard-response","565","584466","0.0-1.0-777.0","0","0","91944","","null","","","null","86","NaN","","","","","","","","","","","","","","",""
"","S2","","html-keyboard-response","566","584732","0.0-1.0-778.0","0","0","91944","","null","","","null","86","","NaN","","","","","","","","","","","","","",""
"","response","","html-keyboard-response","567","585589","0.0-1.0-779.0-0.0","0","0","91944","","855","","","75","86","","","2","86","training","adjacent","BA","2","1","N.jpg","P.jpg","0","0","1","",""
"","feedback","","html-keyboard-response","568","586595","0.0-1.0-780.0-0.0","0","0","91944","","null","","","null","86","","","","","","","","","","","","","","","",""
"","ITI","","html-keyboard-response","569","587598","0.0-1.0-783.0","0","0","91944","","null","","","null","86","","","","","","","","","","","","","","","NaN",""
"","S1","","html-keyboard-response","570","587853","0.0-1.0-785.0","0","0","91944","","null","","","null","87","","","","","","","","","","","","","","","",""
"","ISI","","html-keyboard-response","571","588863","0.0-1.0-786.0","0","0","91944","","null","","","null","87","NaN","","","","","","","","","","","","","","",""
"","S2","","html-keyboard-response","572","589125","0.0-1.0-787.0","0","0","91944","","null","","","null","87","","NaN","","","","","","","","","","","","","",""
"","response","","html-keyboard-response","573","590037","0.0-1.0-788.0-0.0","0","0","91944","","910","","","68","87","","","2","87","training","adjacent","ED","5","4","O.jpg","M.jpg","1","0","0","",""
"","feedback","","html-keyboard-response","574","591047","0.0-1.0-789.0-0.0","0","0","91944","","null","","","null","87","","","","","","","","","","","","","","","",""
"","time_out","","html-keyboard-response","575","593053","0.0-1.0-791.0-0.0","0","0","91944","","null","","","null","87","","","","","","","","","","","","","","","",""
"","ITI","","html-keyboard-response","576","594063","0.0-1.0-792.0","0","0","91944","","null","","","null","87","","","","","","","","","","","","","","","NaN",""
"","S1","","html-keyboard-response","577","594318","0.0-1.0-794.0","0","0","91944","","null","","","null","88","","","","","","","","","","","","","","","",""
"","ISI","","html-keyboard-response","578","595321","0.0-1.0-795.0","0","0","91944","","null","","","null","88","NaN","","","","","","","","","","","","","","",""
"","S2","","html-keyboard-response","579","595583","0.0-1.0-796.0","0","0","91944","","null","","","null","88","","NaN","","","","","","","","","","","","","",""
"","response","","html-keyboard-response","580","596430","0.0-1.0-797.0-0.0","0","0","91944","","846","","","68","88","","","2","88","training","adjacent","EF","5","6","O.jpg","Q.jpg","1","1","1","",""
"","feedback","","html-keyboard-response","581","597449","0.0-1.0-798.0-0.0","0","0","91944","","null","","","null","88","","","","","","","","","","","","","","","",""
"","ITI","","html-keyboard-response","582","598454","0.0-1.0-801.0","0","0","91944","","null","","","null","88","","","","","","","","","","","","","","","NaN",""
