"success","ttype","start_time","trial_type","trial_index","time_elapsed","internal_node_id","warning","missed_checkup","PID","view_history","rt","responses","repeat_instructions","key_press","index","keypress_isi","keypress_S2","block","trial_num","phase","group_type","pair_type","S1_stim","S2_stim","S1_img","S2_img","S1_chosen","S1_higher","accuracy","keypress_iti","total_bonus_tally"
"true","full_screen","d03072023hr1809","fullscreen","0","8647","0.0-0.0","0","0","98207","","","","","","","","","","","","","","","","","","","","","",""
"","instructions","","instructions","1","36349","0.0-1.0-0.0-0.0","0","0","98207","[{""page_index"":0,""viewing_time"":4262},{""page_index"":1,""viewing_time"":13421},{""page_index"":2,""viewing_time"":8132},{""page_index"":3,""viewing_time"":1886}]","27701","","","","","","","","","","","","","","","","","","","",""
"","comprehension_check","","survey-multi-choice","2","59629","0.0-1.0-0.0-1.0","0","0","98207","","23277","{""Q0"":""True"",""Q1"":""K"",""Q2"":""Once the second image appears and while the screen 'MAKE A CHOICE' is shown"",""Q3"":""Green mark"",""Q4"":""either D or K""}","0","","","","","","","","","","","","","","","","","",""
"","start_exp","","html-keyboard-response","3","61577","0.0-1.0-1.0","0","0","98207","","1945","","","32","","","","","","","","","","","","","","","","",""
"","S1","","html-keyboard-response","4","61830","0.0-1.0-2.0","0","0","98207","","null","","","null","0","","","","","","","","","","","","","","","",""
"","ISI","","html-keyboard-response","5","62833","0.0-1.0-3.0","0","0","98207","","null","","","null","0","NaN","","","","","","","","","","","","","","",""
"","S2","","html-keyboard-response","6","63085","0.0-1.0-4.0","0","0","98207","","null","","","null","0","","NaN","","","","","","","","","","","","","",""
"","response","","html-keyboard-response","7","63952","0.0-1.0-5.0-0.0","0","0","98207","","866","","","68","0","","","1","0","training","adjacent","FE","6","5","P.jpg","L.jpg","0","0","1","",""
"","feedback","","html-keyboard-response","8","64966","0.0-1.0-6.0-0.0","0","0","98207","","null","","","null","0","","","","","","","","","","","","","","","",""
"","ITI","","html-keyboard-response","9","65968","0.0-1.0-9.0","0","0","98207","","null","","","null","0","","","","","","","","","","","","","","","NaN",""
"","S1","","html-keyboard-response","10","66221","0.0-1.0-11.0","0","0","98207","","null","","","null","1","","","","","","","","","","","","","","","",""
"","ISI","","html-keyboard-response","11","67224","0.0-1.0-12.0","0","0","98207","","null","","","null","1","NaN","","","","","","","","","","","","","","",""
"","S2","","html-keyboard-response","12","67476","0.0-1.0-13.0","0","0","98207","","null","","","null","1","","NaN","","","","","","","","","","","","","",""
"","response","","html-keyboard-response","13","68219","0.0-1.0-14.0-0.0","0","0","98207","","741","","","75","1","","","1","1","training","adjacent","FG","6","7","P.jpg","O.jpg","1","1","1","",""
"","feedback","","html-keyboard-response","14","69221","0.0-1.0-15.0-0.0","0","0","98207","","null","","","null","1","","","","","","","","","","","","","","","",""
"","ITI","","html-keyboard-response","15","70224","0.0-1.0-18.0","0","0","98207","","null","","","null","1","","","","","","","","","","","","","","","NaN",""
"","S1","","html-keyboard-response","16","70476","0.0-1.0-20.0","0","0","98207","","null","","","null","2","","","","","","","","","","","","","","","",""
"","ISI","","html-keyboard-response","17","71479","0.0-1.0-21.0","0","0","98207","","null","","","null","2","NaN","","","","","","","","","","","","","","",""
"","S2","","html-keyboard-response","18","71731","0.0-1.0-22.0","0","0","98207","","null","","","null","2","","NaN","","","","","","","","","","","","","",""
"","response","","html-keyboard-response","19","72084","0.0-1.0-23.0-0.0","0","0","98207","","351","","","68","2","","","1","2","training","adjacent","DE","4","5","Q.jpg","L.jpg","0","1","0","",""
"","feedback","","html-keyboard-response","20","73087","0.0-1.0-24.0-0.0","0","0","98207","","null","","","null","2","","","","","","","","","","","","","","","",""
"","time_out","","html-keyboard-response","21","75090","0.0-1.0-26.0-0.0","0","0","98207","","null","","","null","2","","","","","","","","","","","","","","","",""
"","ITI","","html-keyboard-response","22","76092","0.0-1.0-27.0","0","0","98207","","null","","","null","2","","","","","","","","","","","","","","","NaN",""
"","S1","","html-keyboard-response","23","76345","0.0-1.0-29.0","0","0","98207","","null","","","null","3","","","","","","","","","","","","","","","",""
"","ISI","","html-keyboard-response","24","77348","0.0-1.0-30.0","0","0","98207","","null","","","null","3","NaN","","","","","","","","","","","","","","",""
"","S2","","html-keyboard-response","25","77601","0.0-1.0-31.0","0","0","98207","","null","","","null","3","","NaN","","","","","","","","","","","","","",""
"","response","","html-keyboard-response","26","78081","0.0-1.0-32.0-0.0","0","0","98207","","479","","","68","3","","","1","3","training","adjacent","AB","1","2","N.jpg","R.jpg","0","1","0","",""
"","feedback","","html-keyboard-response","27","79084","0.0-1.0-33.0-0.0","0","0","98207","","null","","","null","3","","","","","","","","","","","","","","","",""
"","time_out","","html-keyboard-response","28","81085","0.0-1.0-35.0-0.0","0","0","98207","","null","","","null","3","","","","","","","","","","","","","","","",""
"","ITI","","html-keyboard-response","29","82088","0.0-1.0-36.0","0","0","98207","","null","","","null","3","","","","","","","","","","","","","","","NaN",""
"","S1","","html-keyboard-response","30","82340","0.0-1.0-38.0","0","0","98207","","null","","","null","4","","","","","","","","","","","","","","","",""
"","ISI","","html-keyboard-response","31","83342","0.0-1.0-39.0","0","0","98207","","null","","","null","4","NaN","","","","","","","","","","","","","","",""
"","S2","","html-keyboard-response","32","83594","0.0-1.0-40.0","0","0","98207","","null","","","null","4","","NaN","","","","","","","","","","","","","",""
"","response","","html-keyboard-response","33","83926","0.0-1.0-41.0-0.0","0","0","98207","","331","","","75","4","","","1","4","training","adjacent","GF","7","6","O.jpg","P.jpg","1","0","0","",""
"","feedback","","html-keyboard-response","34","84928","0.0-1.0-42.0-0.0","0","0","98207","","null","","","null","4","","","","","","","","","","","","","","","",""
"","time_out","","html-keyboard-response","35","86930","0.0-1.0-44.0-0.0","0","0","98207","","null","","","null","4","","","","","","","","","","","","","","","",""
"","ITI","","html-keyboard-response","36","87933","0.0-1.0-45.0","0","0","98207","","null","","","null","4","","","","","","","","","","","","","","","NaN",""
"","S1","","html-keyboard-response","37","88185","0.0-1.0-47.0","0","0","98207","","null","","","null","5","","","","","","","","","","","","","","","",""
"","ISI","","html-keyboard-response","38","89187","0.0-1.0-48.0","0","0","98207","","null","","","null","5","NaN","","","","","","","","","","","","","","",""
"","S2","","html-keyboard-response","39","89439","0.0-1.0-49.0","0","0","98207","","null","","","null","5","","NaN","","","","","","","","","","","","","",""
"","response","","html-keyboard-response","40","89829","0.0-1.0-50.0-0.0","0","0","98207","","388","","","68","5","","","1","5","training","adjacent","BC","2","3","R.jpg","M.jpg","0","1","0","",""
"","feedback","","html-keyboard-response","41","90832","0.0-1.0-51.0-0.0","0","0","98207","","null","","","null","5","","","","","","","","","","","","","","","",""
"","time_out","","html-keyboard-response","42","92834","0.0-1.0-53.0-0.0","0","0","98207","","null","","","null","5","","","","","","","","","","","","","","","",""
"","ITI","","html-keyboard-response","43","93839","0.0-1.0-54.0","0","0","98207","","null","","","null","5","","","","","","","","","","","","","","","NaN",""
"","S1","","html-keyboard-response","44","94092","0.0-1.0-56.0","0","0","98207","","null","","","null","6","","","","","","","","","","","","","","","",""
"","ISI","","html-keyboard-response","45","95094","0.0-1.0-57.0","0","0","98207","","null","","","null","6","NaN","","","","","","","","","","","","","","",""
"","S2","","html-keyboard-response","46","95359","0.0-1.0-58.0","0","0","98207","","null","","","null","6","","NaN","","","","","","","","","","","","","",""
"","response","","html-keyboard-response","47","95550","0.0-1.0-59.0-0.0","0","0","98207","","190","","","75","6","","","1","6","training","adjacent","ED","5","4","L.jpg","Q.jpg","1","0","0","",""
"","feedback","","html-keyboard-response","48","96552","0.0-1.0-60.0-0.0","0","0","98207","","null","","","null","6","","","","","","","","","","","","","","","",""
"","time_out","","html-keyboard-response","49","98555","0.0-1.0-62.0-0.0","0","0","98207","","null","","","null","6","","","","","","","","","","","","","","","",""
"","ITI","","html-keyboard-response","50","99557","0.0-1.0-63.0","0","0","98207","","null","","","null","6","","","","","","","","","","","","","","","NaN",""
"","S1","","html-keyboard-response","51","99809","0.0-1.0-65.0","0","0","98207","","null","","","null","7","","","","","","","","","","","","","","","",""
"","ISI","","html-keyboard-response","52","100811","0.0-1.0-66.0","0","0","98207","","null","","","null","7","NaN","","","","","","","","","","","","","","",""
"","S2","","html-keyboard-response","53","101064","0.0-1.0-67.0","0","0","98207","","null","","","null","7","","NaN","","","","","","","","","","","","","",""
"","response","","html-keyboard-response","54","101073","0.0-1.0-68.0-0.0","0","0","98207","","8","","","75","7","","","1","7","training","adjacent","AB","1","2","N.jpg","R.jpg","1","1","1","",""
"","feedback","","html-keyboard-response","55","102075","0.0-1.0-69.0-0.0","0","0","98207","","null","","","null","7","","","","","","","","","","","","","","","",""
"","ITI","","html-keyboard-response","56","103078","0.0-1.0-72.0","0","0","98207","","null","","","null","7","","","","","","","","","","","","","","","NaN",""
"","S1","","html-keyboard-response","57","103330","0.0-1.0-74.0","0","0","98207","","null","","","null","8","","","","","","","","","","","","","","","",""
"","ISI","","html-keyboard-response","58","104333","0.0-1.0-75.0","0","0","98207","","null","","","null","8","NaN","","","","","","","","","","","","","","",""
"","S2","","html-keyboard-response","59","104585","0.0-1.0-76.0","0","0","98207","","null","","","null","8","","NaN","","","","","","","","","","","","","",""
"","response","","html-keyboard-response","60","104901","0.0-1.0-77.0-0.0","0","0","98207","","315","","","68","8","","","1","8","training","adjacent","DC","4","3","Q.jpg","M.jpg","0","0","1","",""
"","feedback","","html-keyboard-response","61","105904","0.0-1.0-78.0-0.0","0","0","98207","","null","","","null","8","","","","","","","","","","","","","","","",""
"","ITI","","html-keyboard-response","62","106908","0.0-1.0-81.0","0","0","98207","","null","","","null","8","","","","","","","","","","","","","","","NaN",""
"","S1","","html-keyboard-response","63","107160","0.0-1.0-83.0","0","0","98207","","null","","","null","9","","","","","","","","","","","","","","","",""
"","ISI","","html-keyboard-response","64","108163","0.0-1.0-84.0","0","0","98207","","null","","","null","9","NaN","","","","","","","","","","","","","","",""
"","S2","","html-keyboard-response","65","108416","0.0-1.0-85.0","0","0","98207","","null","","","null","9","","NaN","","","","","","","","","","","","","",""
"","response","","html-keyboard-response","66","108757","0.0-1.0-86.0-0.0","0","0","98207","","340","","","75","9","","","1","9","training","adjacent","DE","4","5","Q.jpg","L.jpg","1","1","1","",""
"","feedback","","html-keyboard-response","67","109760","0.0-1.0-87.0-0.0","0","0","98207","","null","","","null","9","","","","","","","","","","","","","","","",""
"","ITI","","html-keyboard-response","68","110763","0.0-1.0-90.0","0","0","98207","","null","","","null","9","","","","","","","","","","","","","","","NaN",""
"","S1","","html-keyboard-response","69","111015","0.0-1.0-92.0","0","0","98207","","null","","","null","10","","","","","","","","","","","","","","","",""
"","ISI","","html-keyboard-response","70","112022","0.0-1.0-93.0","0","0","98207","","null","","","null","10","NaN","","","","","","","","","","","","","","",""
"","S2","","html-keyboard-response","71","112275","0.0-1.0-94.0","0","0","98207","","null","","","null","10","","NaN","","","","","","","","","","","","","",""
"","response","","html-keyboard-response","72","112358","0.0-1.0-95.0-0.0","0","0","98207","","82","","","75","10","","","1","10","training","adjacent","FE","6","5","P.jpg","L.jpg","1","0","0","",""
"","feedback","","html-keyboard-response","73","113360","0.0-1.0-96.0-0.0","0","0","98207","","null","","","null","10","","","","","","","","","","","","","","","",""
"","time_out","","html-keyboard-response","74","115363","0.0-1.0-98.0-0.0","0","0","98207","","null","","","null","10","","","","","","","","","","","","","","","",""
"","ITI","","html-keyboard-response","75","116365","0.0-1.0-99.0","0","0","98207","","null","","","null","10","","","","","","","","","","","","","","","NaN",""
"","S1","","html-keyboard-response","76","116617","0.0-1.0-101.0","0","0","98207","","null","","","null","11","","","","","","","","","","","","","","","",""
"","ISI","","html-keyboard-response","77","117620","0.0-1.0-102.0","0","0","98207","","null","","","null","11","NaN","","","","","","","","","","","","","","",""
"","S2","","html-keyboard-response","78","117872","0.0-1.0-103.0","0","0","98207","","null","","","null","11","","NaN","","","","","","","","","","","","","",""
"","response","","html-keyboard-response","79","118016","0.0-1.0-104.0-0.0","0","0","98207","","142","","","68","11","","","1","11","training","adjacent","CB","3","2","M.jpg","R.jpg","0","0","1","",""
"","feedback","","html-keyboard-response","80","119019","0.0-1.0-105.0-0.0","0","0","98207","","null","","","null","11","","","","","","","","","","","","","","","",""
"","ITI","","html-keyboard-response","81","120021","0.0-1.0-108.0","0","0","98207","","null","","","null","11","","","","","","","","","","","","","","","NaN",""
"","S1","","html-keyboard-response","82","120273","0.0-1.0-110.0","0","0","98207","","null","","","null","12","","","","","","","","","","","","","","","",""
"","ISI","","html-keyboard-response","83","121276","0.0-1.0-111.0","0","0","98207","","null","","","null","12","NaN","","","","","","","","","","","","","","",""
"","S2","","html-keyboard-response","84","121529","0.0-1.0-112.0","0","0","98207","","null","","","null","12","","NaN","","","","","","","","","","","","","",""
"","response","","html-keyboard-response","85","121907","0.0-1.0-113.0-0.0","0","0","98207","","377","","","75","12","","","1","12","training","adjacent","BA","2","1","R.jpg","N.jpg","1","0","0","",""
"","feedback","","html-keyboard-response","86","122910","0.0-1.0-114.0-0.0","0","0","98207","","null","","","null","12","","","","","","","","","","","","","","","",""
"","time_out","","html-keyboard-response","87","124912","0.0-1.0-116.0-0.0","0","0","98207","","null","","","null","12","","","","","","","","","","","","","","","",""
"","ITI","","html-keyboard-response","88","125915","0.0-1.0-117.0","0","0","98207","","null","","","null","12","","","","","","","","","","","","","","","NaN",""
"","S1","","html-keyboard-response","89","126170","0.0-1.0-119.0","0","0","98207","","null","","","null","13","","","","","","","","","","","","","","","",""
"","ISI","","html-keyboard-response","90","127172","0.0-1.0-120.0","0","0","98207","","null","","","null","13","NaN","","","","","","","","","","","","","","",""
"","S2","","html-keyboard-response","91","127424","0.0-1.0-121.0","0","0","98207","","null","","","null","13","","NaN","","","","","","","","","","","","","",""
"","response","","html-keyboard-response","92","127560","0.0-1.0-122.0-0.0","0","0","98207","","135","","","75","13","","","1","13","training","adjacent","DC","4","3","Q.jpg","M.jpg","1","0","0","",""
"","feedback","","html-keyboard-response","93","128562","0.0-1.0-123.0-0.0","0","0","98207","","null","","","null","13","","","","","","","","","","","","","","","",""
"","time_out","","html-keyboard-response","94","130565","0.0-1.0-125.0-0.0","0","0","98207","","null","","","null","13","","","","","","","","","","","","","","","",""
"","ITI","","html-keyboard-response","95","131568","0.0-1.0-126.0","0","0","98207","","null","","","null","13","","","","","","","","","","","","","","","NaN",""
"","S1","","html-keyboard-response","96","131821","0.0-1.0-128.0","0","0","98207","","null","","","null","14","","","","","","","","","","","","","","","",""
"","ISI","","html-keyboard-response","97","132824","0.0-1.0-129.0","0","0","98207","","null","","","null","14","NaN","","","","","","","","","","","","","","",""
"","S2","","html-keyboard-response","98","133076","0.0-1.0-130.0","0","0","98207","","null","","","null","14","","NaN","","","","","","","","","","","","","",""
"","response","","html-keyboard-response","99","133083","0.0-1.0-131.0-0.0","0","0","98207","","6","","","75","14","","","1","14","training","adjacent","EF","5","6","L.jpg","P.jpg","1","1","1","",""
"","feedback","","html-keyboard-response","100","134085","0.0-1.0-132.0-0.0","0","0","98207","","null","","","null","14","","","","","","","","","","","","","","","",""
"","ITI","","html-keyboard-response","101","135088","0.0-1.0-135.0","0","0","98207","","null","","","null","14","","","","","","","","","","","","","","","NaN",""
"","S1","","html-keyboard-response","102","135340","0.0-1.0-137.0","0","0","98207","","null","","","null","15","","","","","","","","","","","","","","","",""
"","ISI","","html-keyboard-response","103","136343","0.0-1.0-138.0","0","0","98207","","null","","","null","15","NaN","","","","","","","","","","","","","","",""
"","S2","","html-keyboard-response","104","136596","0.0-1.0-139.0","0","0","98207","","null","","","null","15","","NaN","","","","","","","","","","","","","",""
"","response","","html-keyboard-response","105","136703","0.0-1.0-140.0-0.0","0","0","98207","","106","","","68","15","","","1","15","training","adjacent","BC","2","3","R.jpg","M.jpg","0","1","0","",""
"","feedback","","html-keyboard-response","106","137706","0.0-1.0-141.0-0.0","0","0","98207","","null","","","null","15","","","","","","","","","","","","","","","",""
"","time_out","","html-keyboard-response","107","139708","0.0-1.0-143.0-0.0","0","0","98207","","null","","","null","15","","","","","","","","","","","","","","","",""
"","ITI","","html-keyboard-response","108","140711","0.0-1.0-144.0","0","0","98207","","null","","","null","15","","","","","","","","","","","","","","","NaN",""
"","S1","","html-keyboard-response","109","140963","0.0-1.0-146.0","0","0","98207","","null","","","null","16","","","","","","","","","","","","","","","",""
"","ISI","","html-keyboard-response","110","141966","0.0-1.0-147.0","0","0","98207","","null","","","null","16","NaN","","","","","","","","","","","","","","",""
"","S2","","html-keyboard-response","111","142219","0.0-1.0-148.0","0","0","98207","","null","","","null","16","","NaN","","","","","","","","","","","","","",""
"","response","","html-keyboard-response","112","142321","0.0-1.0-149.0-0.0","0","0","98207","","99","","","68","16","","","1","16","training","adjacent","FE","6","5","P.jpg","L.jpg","0","0","1","",""
"","feedback","","html-keyboard-response","113","143323","0.0-1.0-150.0-0.0","0","0","98207","","null","","","null","16","","","","","","","","","","","","","","","",""
"","ITI","","html-keyboard-response","114","144326","0.0-1.0-153.0","0","0","98207","","null","","","null","16","","","","","","","","","","","","","","","NaN",""
"","S1","","html-keyboard-response","115","144578","0.0-1.0-155.0","0","0","98207","","null","","","null","17","","","","","","","","","","","","","","","",""
"","ISI","","html-keyboard-response","116","145580","0.0-1.0-156.0","0","0","98207","","null","","","null","17","NaN","","","","","","","","","","","","","","",""
"","S2","","html-keyboard-response","117","145832","0.0-1.0-157.0","0","0","98207","","null","","","null","17","","NaN","","","","","","","","","","","","","",""
"","response","","html-keyboard-response","118","146007","0.0-1.0-158.0-0.0","0","0","98207","","174","","","75","17","","","1","17","training","adjacent","DE","4","5","Q.jpg","L.jpg","1","1","1","",""
"","feedback","","html-keyboard-response","119","147010","0.0-1.0-159.0-0.0","0","0","98207","","null","","","null","17","","","","","","","","","","","","","","","",""
"","ITI","","html-keyboard-response","120","148012","0.0-1.0-162.0","0","0","98207","","null","","","null","17","","","","","","","","","","","","","","","NaN",""
"","S1","","html-keyboard-response","121","148265","0.0-1.0-164.0","0","0","98207","","null","","","null","18","","","","","","","","","","","","","","","",""
"","ISI","","html-keyboard-response","122","149267","0.0-1.0-165.0","0","0","98207","","null","","","null","18","NaN","","","","","","","","","","","","","","",""
"","S2","","html-keyboard-response","123","149520","0.0-1.0-166.0","0","0","98207","","null","","","null","18","","NaN","","","","","","","","","","","","","",""
"","response","","html-keyboard-response","124","149622","0.0-1.0-167.0-0.0","0","0","98207","","100","","","75","18","","","1","18","training","adjacent","CB","3","2","M.jpg","R.jpg","1","0","0","",""
"","feedback","","html-keyboard-response","125","150624","0.0-1.0-168.0-0.0","0","0","98207","","null","","","null","18","","","","","","","","","","","","","","","",""
"","time_out","","html-keyboard-response","126","152627","0.0-1.0-170.0-0.0","0","0","98207","","null","","","null","18","","","","","","","","","","","","","","","",""
"","ITI","","html-keyboard-response","127","153630","0.0-1.0-171.0","0","0","98207","","null","","","null","18","","","","","","","","","","","","","","","NaN",""
"","S1","","html-keyboard-response","128","153884","0.0-1.0-173.0","0","0","98207","","null","","","null","19","","","","","","","","","","","","","","","",""
"","ISI","","html-keyboard-response","129","154886","0.0-1.0-174.0","0","0","98207","","null","","","null","19","NaN","","","","","","","","","","","","","","",""
"","S2","","html-keyboard-response","130","155139","0.0-1.0-175.0","0","0","98207","","null","","","null","19","","NaN","","","","","","","","","","","","","",""
"","response","","html-keyboard-response","131","155355","0.0-1.0-176.0-0.0","0","0","98207","","215","","","75","19","","","1","19","training","adjacent","CD","3","4","M.jpg","Q.jpg","1","1","1","",""
"","feedback","","html-keyboard-response","132","156357","0.0-1.0-177.0-0.0","0","0","98207","","null","","","null","19","","","","","","","","","","","","","","","",""
"","ITI","","html-keyboard-response","133","157359","0.0-1.0-180.0","0","0","98207","","null","","","null","19","","","","","","","","","","","","","","","NaN",""
"","S1","","html-keyboard-response","134","157611","0.0-1.0-182.0","0","0","98207","","null","","","null","20","","","","","","","","","","","","","","","",""
"","ISI","","html-keyboard-response","135","158613","0.0-1.0-183.0","0","0","98207","","null","","","null","20","NaN","","","","","","","","","","","","","","",""
"","S2","","html-keyboard-response","136","158832","0.0-1.0-184.0","0","0","98207","","218","","","75","20","","k","1","20","training","adjacent","ED","5","4","L.jpg","Q.jpg","1","0","0","",""
"","feedback","","html-keyboard-response","137","159848","0.0-1.0-186.0-0.0","0","0","98207","","null","","","null","20","","","","","","","","","","","","","","","",""
"","time_out","","html-keyboard-response","138","161851","0.0-1.0-188.0-0.0","0","0","98207","","null","","","null","20","","","","","","","","","","","","","","","",""
"","ITI","","html-keyboard-response","139","162854","0.0-1.0-189.0","0","0","98207","","null","","","null","20","","","","","","","","","","","","","","","NaN",""
"","S1","","html-keyboard-response","140","163107","0.0-1.0-191.0","0","0","98207","","null","","","null","21","","","","","","","","","","","","","","","",""
"","ISI","","html-keyboard-response","141","164109","0.0-1.0-192.0","0","0","98207","","536","","","68","21","d","","","","","","","","","","","","","","",""
"","S2","","html-keyboard-response","142","164362","0.0-1.0-193.0","0","0","98207","","null","","","null","21","","NaN","","","","","","","","","","","","","",""
"","response","","html-keyboard-response","143","164441","0.0-1.0-194.0-0.0","0","0","98207","","78","","","68","21","","","1","21","training","adjacent","ED","5","4","L.jpg","Q.jpg","0","0","1","",""
"","feedback","","html-keyboard-response","144","165443","0.0-1.0-195.0-0.0","0","0","98207","","null","","","null","21","","","","","","","","","","","","","","","",""
"","ITI","","html-keyboard-response","145","166446","0.0-1.0-198.0","0","0","98207","","null","","","null","21","","","","","","","","","","","","","","","NaN",""
"","S1","","html-keyboard-response","146","166698","0.0-1.0-200.0","0","0","98207","","null","","","null","22","","","","","","","","","","","","","","","",""
"","ISI","","html-keyboard-response","147","167701","0.0-1.0-201.0","0","0","98207","","null","","","null","22","NaN","","","","","","","","","","","","","","",""
"","S2","","html-keyboard-response","148","167954","0.0-1.0-202.0","0","0","98207","","null","","","null","22","","NaN","","","","","","","","","","","","","",""
"","response","","html-keyboard-response","149","168561","0.0-1.0-203.0-0.0","0","0","98207","","606","","","68","22","","","1","22","training","adjacent","BC","2","3","R.jpg","M.jpg","0","1","0","",""
"","feedback","","html-keyboard-response","150","169563","0.0-1.0-204.0-0.0","0","0","98207","","null","","","null","22","","","","","","","","","","","","","","","",""
"","time_out","","html-keyboard-response","151","171565","0.0-1.0-206.0-0.0","0","0","98207","","null","","","null","22","","","","","","","","","","","","","","","",""
"","ITI","","html-keyboard-response","152","172575","0.0-1.0-207.0","0","0","98207","","null","","","null","22","","","","","","","","","","","","","","","NaN",""
"","S1","","html-keyboard-response","153","172837","0.0-1.0-209.0","0","0","98207","","null","","","null","23","","","","","","","","","","","","","","","",""
"","ISI","","html-keyboard-response","154","173840","0.0-1.0-210.0","0","0","98207","","null","","","null","23","NaN","","","","","","","","","","","","","","",""
"","S2","","html-keyboard-response","155","174092","0.0-1.0-211.0","0","0","98207","","null","","","null","23","","NaN","","","","","","","","","","","","","",""
"","response","","html-keyboard-response","156","174329","0.0-1.0-212.0-0.0","0","0","98207","","236","","","75","23","","","1","23","training","adjacent","DC","4","3","Q.jpg","M.jpg","1","0","0","",""
"","feedback","","html-keyboard-response","157","175332","0.0-1.0-213.0-0.0","0","0","98207","","null","","","null","23","","","","","","","","","","","","","","","",""
"","time_out","","html-keyboard-response","158","177334","0.0-1.0-215.0-0.0","0","0","98207","","null","","","null","23","","","","","","","","","","","","","","","",""
"","ITI","","html-keyboard-response","159","178337","0.0-1.0-216.0","0","0","98207","","null","","","null","23","","","","","","","","","","","","","","","NaN",""
"","S1","","html-keyboard-response","160","178589","0.0-1.0-218.0","0","0","98207","","null","","","null","24","","","","","","","","","","","","","","","",""
"","ISI","","html-keyboard-response","161","179591","0.0-1.0-219.0","0","0","98207","","null","","","null","24","NaN","","","","","","","","","","","","","","",""
"","S2","","html-keyboard-response","162","179844","0.0-1.0-220.0","0","0","98207","","null","","","null","24","","NaN","","","","","","","","","","","","","",""
"","response","","html-keyboard-response","163","179920","0.0-1.0-221.0-0.0","0","0","98207","","75","","","75","24","","","1","24","training","adjacent","GF","7","6","O.jpg","P.jpg","1","0","0","",""
"","feedback","","html-keyboard-response","164","180923","0.0-1.0-222.0-0.0","0","0","98207","","null","","","null","24","","","","","","","","","","","","","","","",""
"","time_out","","html-keyboard-response","165","182925","0.0-1.0-224.0-0.0","0","0","98207","","null","","","null","24","","","","","","","","","","","","","","","",""
"","ITI","","html-keyboard-response","166","183927","0.0-1.0-225.0","0","0","98207","","null","","","null","24","","","","","","","","","","","","","","","NaN",""
"","S1","","html-keyboard-response","167","184180","0.0-1.0-227.0","0","0","98207","","null","","","null","25","","","","","","","","","","","","","","","",""
"","ISI","","html-keyboard-response","168","185182","0.0-1.0-228.0","0","0","98207","","null","","","null","25","NaN","","","","","","","","","","","","","","",""
"","S2","","html-keyboard-response","169","185434","0.0-1.0-229.0","0","0","98207","","null","","","null","25","","NaN","","","","","","","","","","","","","",""
"","response","","html-keyboard-response","170","185665","0.0-1.0-230.0-0.0","0","0","98207","","229","","","68","25","","","1","25","training","adjacent","FG","6","7","P.jpg","O.jpg","0","1","0","",""
"","feedback","","html-keyboard-response","171","186668","0.0-1.0-231.0-0.0","0","0","98207","","null","","","null","25","","","","","","","","","","","","","","","",""
"","time_out","","html-keyboard-response","172","188671","0.0-1.0-233.0-0.0","0","0","98207","","null","","","null","25","","","","","","","","","","","","","","","",""
"","ITI","","html-keyboard-response","173","189673","0.0-1.0-234.0","0","0","98207","","null","","","null","25","","","","","","","","","","","","","","","NaN",""
"","S1","","html-keyboard-response","174","189925","0.0-1.0-236.0","0","0","98207","","null","","","null","26","","","","","","","","","","","","","","","",""
"","ISI","","html-keyboard-response","175","190927","0.0-1.0-237.0","0","0","98207","","null","","","null","26","NaN","","","","","","","","","","","","","","",""
"","S2","","html-keyboard-response","176","191181","0.0-1.0-238.0","0","0","98207","","null","","","null","26","","NaN","","","","","","","","","","","","","",""
"","response","","html-keyboard-response","177","191740","0.0-1.0-239.0-0.0","0","0","98207","","558","","","75","26","","","1","26","training","adjacent","DC","4","3","Q.jpg","M.jpg","1","0","0","",""
"","feedback","","html-keyboard-response","178","192742","0.0-1.0-240.0-0.0","0","0","98207","","null","","","null","26","","","","","","","","","","","","","","","",""
"","time_out","","html-keyboard-response","179","194758","0.0-1.0-242.0-0.0","0","0","98207","","null","","","null","26","","","","","","","","","","","","","","","",""
"","ITI","","html-keyboard-response","180","195761","0.0-1.0-243.0","0","0","98207","","null","","","null","26","","","","","","","","","","","","","","","NaN",""
"","S1","","html-keyboard-response","181","196014","0.0-1.0-245.0","0","0","98207","","null","","","null","27","","","","","","","","","","","","","","","",""
"","ISI","","html-keyboard-response","182","197016","0.0-1.0-246.0","0","0","98207","","null","","","null","27","NaN","","","","","","","","","","","","","","",""
"","S2","","html-keyboard-response","183","197268","0.0-1.0-247.0","0","0","98207","","null","","","null","27","","NaN","","","","","","","","","","","","","",""
"","response","","html-keyboard-response","184","197338","0.0-1.0-248.0-0.0","0","0","98207","","68","","","75","27","","","1","27","training","adjacent","BC","2","3","R.jpg","M.jpg","1","1","1","",""
"","feedback","","html-keyboard-response","185","198341","0.0-1.0-249.0-0.0","0","0","98207","","null","","","null","27","","","","","","","","","","","","","","","",""
"","ITI","","html-keyboard-response","186","199344","0.0-1.0-252.0","0","0","98207","","null","","","null","27","","","","","","","","","","","","","","","NaN",""
"","S1","","html-keyboard-response","187","199596","0.0-1.0-254.0","0","0","98207","","null","","","null","28","","","","","","","","","","","","","","","",""
"","ISI","","html-keyboard-response","188","200598","0.0-1.0-255.0","0","0","98207","","null","","","null","28","NaN","","","","","","","","","","","","","","",""
"","S2","","html-keyboard-response","189","200850","0.0-1.0-256.0","0","0","98207","","null","","","null","28","","NaN","","","","","","","","","","","","","",""
"","response","","html-keyboard-response","190","201081","0.0-1.0-257.0-0.0","0","0","98207","","228","","","75","28","","","1","28","training","adjacent","CD","3","4","M.jpg","Q.jpg","1","1","1","",""
"","feedback","","html-keyboard-response","191","202083","0.0-1.0-258.0-0.0","0","0","98207","","null","","","null","28","","","","","","","","","","","","","","","",""
"","ITI","","html-keyboard-response","192","203088","0.0-1.0-261.0","0","0","98207","","null","","","null","28","","","","","","","","","","","","","","","NaN",""
"","S1","","html-keyboard-response","193","203341","0.0-1.0-263.0","0","0","98207","","null","","","null","29","","","","","","","","","","","","","","","",""
"","ISI","","html-keyboard-response","194","204343","0.0-1.0-264.0","0","0","98207","","null","","","null","29","NaN","","","","","","","","","","","","","","",""
"","S2","","html-keyboard-response","195","204595","0.0-1.0-265.0","0","0","98207","","null","","","null","29","","NaN","","","","","","","","","","","","","",""
"","response","","html-keyboard-response","196","204983","0.0-1.0-266.0-0.0","0","0","98207","","386","","","68","29","","","1","29","training","adjacent","FG","6","7","P.jpg","O.jpg","0","1","0","",""
"","feedback","","html-keyboard-response","197","205985","0.0-1.0-267.0-0.0","0","0","98207","","null","","","null","29","","","","","","","","","","","","","","","",""
"","time_out","","html-keyboard-response","198","207987","0.0-1.0-269.0-0.0","0","0","98207","","null","","","null","29","","","","","","","","","","","","","","","",""
"","ITI","","html-keyboard-response","199","208990","0.0-1.0-270.0","0","0","98207","","null","","","null","29","","","","","","","","","","","","","","","NaN",""
"","S1","","html-keyboard-response","200","209242","0.0-1.0-272.0","0","0","98207","","null","","","null","30","","","","","","","","","","","","","","","",""
"","ISI","","html-keyboard-response","201","210244","0.0-1.0-273.0","0","0","98207","","null","","","null","30","NaN","","","","","","","","","","","","","","",""
"","S2","","html-keyboard-response","202","210499","0.0-1.0-274.0","0","0","98207","","null","","","null","30","","NaN","","","","","","","","","","","","","",""
"","response","","html-keyboard-response","203","210582","0.0-1.0-275.0-0.0","0","0","98207","","81","","","75","30","","","1","30","training","adjacent","EF","5","6","L.jpg","P.jpg","1","1","1","",""
"","feedback","","html-keyboard-response","204","211585","0.0-1.0-276.0-0.0","0","0","98207","","null","","","null","30","","","","","","","","","","","","","","","",""
"","ITI","","html-keyboard-response","205","212588","0.0-1.0-279.0","0","0","98207","","null","","","null","30","","","","","","","","","","","","","","","NaN",""
"","S1","","html-keyboard-response","206","212841","0.0-1.0-281.0","0","0","98207","","null","","","null","31","","","","","","","","","","","","","","","",""
"","ISI","","html-keyboard-response","207","213843","0.0-1.0-282.0","0","0","98207","","null","","","null","31","NaN","","","","","","","","","","","","","","",""
"","S2","","html-keyboard-response","208","214096","0.0-1.0-283.0","0","0","98207","","null","","","null","31","","NaN","","","","","","","","","","","","","",""
"","response","","html-keyboard-response","209","214264","0.0-1.0-284.0-0.0","0","0","98207","","168","","","75","31","","","1","31","training","adjacent","CB","3","2","M.jpg","R.jpg","1","0","0","",""
"","feedback","","html-keyboard-response","210","215267","0.0-1.0-285.0-0.0","0","0","98207","","null","","","null","31","","","","","","","","","","","","","","","",""
"","time_out","","html-keyboard-response","211","217282","0.0-1.0-287.0-0.0","0","0","98207","","null","","","null","31","","","","","","","","","","","","","","","",""
"","ITI","","html-keyboard-response","212","218284","0.0-1.0-288.0","0","0","98207","","null","","","null","31","","","","","","","","","","","","","","","NaN",""
"","S1","","html-keyboard-response","213","218540","0.0-1.0-290.0","0","0","98207","","null","","","null","32","","","","","","","","","","","","","","","",""
"","ISI","","html-keyboard-response","214","219543","0.0-1.0-291.0","0","0","98207","","null","","","null","32","NaN","","","","","","","","","","","","","","",""
"","S2","","html-keyboard-response","215","219795","0.0-1.0-292.0","0","0","98207","","null","","","null","32","","NaN","","","","","","","","","","","","","",""
"","response","","html-keyboard-response","216","220255","0.0-1.0-293.0-0.0","0","0","98207","","460","","","75","32","","","1","32","training","adjacent","FG","6","7","P.jpg","O.jpg","1","1","1","",""
"","feedback","","html-keyboard-response","217","221259","0.0-1.0-294.0-0.0","0","0","98207","","null","","","null","32","","","","","","","","","","","","","","","",""
"","ITI","","html-keyboard-response","218","222261","0.0-1.0-297.0","0","0","98207","","null","","","null","32","","","","","","","","","","","","","","","NaN",""
"","S1","","html-keyboard-response","219","222514","0.0-1.0-299.0","0","0","98207","","null","","","null","33","","","","","","","","","","","","","","","",""
"","ISI","","html-keyboard-response","220","223517","0.0-1.0-300.0","0","0","98207","","null","","","null","33","NaN","","","","","","","","","","","","","","",""
"","S2","","html-keyboard-response","221","223769","0.0-1.0-301.0","0","0","98207","","null","","","null","33","","NaN","","","","","","","","","","","","","",""
"","response","","html-keyboard-response","222","224000","0.0-1.0-302.0-0.0","0","0","98207","","230","","","75","33","","","1","33","training","adjacent","EF","5","6","L.jpg","P.jpg","1","1","1","",""
"","feedback","","html-keyboard-response","223","225003","0.0-1.0-303.0-0.0","0","0","98207","","null","","","null","33","","","","","","","","","","","","","","","",""
"","ITI","","html-keyboard-response","224","226006","0.0-1.0-306.0","0","0","98207","","null","","","null","33","","","","","","","","","","","","","","","NaN",""
"","S1","","html-keyboard-response","225","226258","0.0-1.0-308.0","0","0","98207","","null","","","null","34","","","","","","","","","","","","","","","",""
"","ISI","","html-keyboard-response","226","227261","0.0-1.0-309.0","0","0","98207","","null","","","null","34","NaN","","","","","","","","","","","","","","",""
"","S2","","html-keyboard-response","227","227514","0.0-1.0-310.0","0","0","98207","","null","","","null","34","","NaN","","","","","","","","","","","","","",""
"","response","","html-keyboard-response","228","227822","0.0-1.0-311.0-0.0","0","0","98207","","306","","","75","34","","","1","34","training","adjacent","BA","2","1","R.jpg","N.jpg","1","0","0","",""
"","feedback","","html-keyboard-response","229","228825","0.0-1.0-312.0-0.0","0","0","98207","","null","","","null","34","","","","","","","","","","","","","","","",""
"","time_out","","html-keyboard-response","230","230827","0.0-1.0-314.0-0.0","0","0","98207","","null","","","null","34","","","","","","","","","","","","","","","",""
"","ITI","","html-keyboard-response","231","231830","0.0-1.0-315.0","0","0","98207","","null","","","null","34","","","","","","","","","","","","","","","NaN",""
"","S1","","html-keyboard-response","232","232083","0.0-1.0-317.0","0","0","98207","","null","","","null","35","","","","","","","","","","","","","","","",""
"","ISI","","html-keyboard-response","233","233086","0.0-1.0-318.0","0","0","98207","","null","","","null","35","NaN","","","","","","","","","","","","","","",""
"","S2","","html-keyboard-response","234","233339","0.0-1.0-319.0","0","0","98207","","null","","","null","35","","NaN","","","","","","","","","","","","","",""
"","response","","html-keyboard-response","235","233394","0.0-1.0-320.0-0.0","0","0","98207","","53","","","68","35","","","1","35","training","adjacent","CB","3","2","M.jpg","R.jpg","0","0","1","",""
"","feedback","","html-keyboard-response","236","234397","0.0-1.0-321.0-0.0","0","0","98207","","null","","","null","35","","","","","","","","","","","","","","","",""
"","ITI","","html-keyboard-response","237","235400","0.0-1.0-324.0","0","0","98207","","null","","","null","35","","","","","","","","","","","","","","","NaN",""
"","S1","","html-keyboard-response","238","235652","0.0-1.0-326.0","0","0","98207","","null","","","null","36","","","","","","","","","","","","","","","",""
"","ISI","","html-keyboard-response","239","236655","0.0-1.0-327.0","0","0","98207","","null","","","null","36","NaN","","","","","","","","","","","","","","",""
"","S2","","html-keyboard-response","240","236908","0.0-1.0-328.0","0","0","98207","","null","","","null","36","","NaN","","","","","","","","","","","","","",""
"","response","","html-keyboard-response","241","237008","0.0-1.0-329.0-0.0","0","0","98207","","98","","","75","36","","","1","36","training","adjacent","ED","5","4","L.jpg","Q.jpg","1","0","0","",""
"","feedback","","html-keyboard-response","242","238011","0.0-1.0-330.0-0.0","0","0","98207","","null","","","null","36","","","","","","","","","","","","","","","",""
"","time_out","","html-keyboard-response","243","240013","0.0-1.0-332.0-0.0","0","0","98207","","null","","","null","36","","","","","","","","","","","","","","","",""
"","ITI","","html-keyboard-response","244","241015","0.0-1.0-333.0","0","0","98207","","null","","","null","36","","","","","","","","","","","","","","","NaN",""
"","S1","","html-keyboard-response","245","241268","0.0-1.0-335.0","0","0","98207","","null","","","null","37","","","","","","","","","","","","","","","",""
"","ISI","","html-keyboard-response","246","242271","0.0-1.0-336.0","0","0","98207","","null","","","null","37","NaN","","","","","","","","","","","","","","",""
"","S2","","html-keyboard-response","247","242523","0.0-1.0-337.0","0","0","98207","","null","","","null","37","","NaN","","","","","","","","","","","","","",""
"","response","","html-keyboard-response","248","242846","0.0-1.0-338.0-0.0","0","0","98207","","321","","","75","37","","","1","37","training","adjacent","CD","3","4","M.jpg","Q.jpg","1","1","1","",""
"","feedback","","html-keyboard-response","249","243850","0.0-1.0-339.0-0.0","0","0","98207","","null","","","null","37","","","","","","","","","","","","","","","",""
"","ITI","","html-keyboard-response","250","244852","0.0-1.0-342.0","0","0","98207","","null","","","null","37","","","","","","","","","","","","","","","NaN",""
"","S1","","html-keyboard-response","251","245106","0.0-1.0-344.0","0","0","98207","","null","","","null","38","","","","","","","","","","","","","","","",""
"","ISI","","html-keyboard-response","252","246108","0.0-1.0-345.0","0","0","98207","","null","","","null","38","NaN","","","","","","","","","","","","","","",""
"","S2","","html-keyboard-response","253","246360","0.0-1.0-346.0","0","0","98207","","null","","","null","38","","NaN","","","","","","","","","","","","","",""
"","response","","html-keyboard-response","254","246553","0.0-1.0-347.0-0.0","0","0","98207","","192","","","68","38","","","1","38","training","adjacent","GF","7","6","O.jpg","P.jpg","0","0","1","",""
"","feedback","","html-keyboard-response","255","247556","0.0-1.0-348.0-0.0","0","0","98207","","null","","","null","38","","","","","","","","","","","","","","","",""
"","ITI","","html-keyboard-response","256","248559","0.0-1.0-351.0","0","0","98207","","null","","","null","38","","","","","","","","","","","","","","","NaN",""
"","S1","","html-keyboard-response","257","248811","0.0-1.0-353.0","0","0","98207","","null","","","null","39","","","","","","","","","","","","","","","",""
"","ISI","","html-keyboard-response","258","249813","0.0-1.0-354.0","0","0","98207","","null","","","null","39","NaN","","","","","","","","","","","","","","",""
"","S2","","html-keyboard-response","259","250066","0.0-1.0-355.0","0","0","98207","","null","","","null","39","","NaN","","","","","","","","","","","","","",""
"","response","","html-keyboard-response","260","250419","0.0-1.0-356.0-0.0","0","0","98207","","352","","","68","39","","","1","39","training","adjacent","FE","6","5","P.jpg","L.jpg","0","0","1","",""
"","feedback","","html-keyboard-response","261","251422","0.0-1.0-357.0-0.0","0","0","98207","","null","","","null","39","","","","","","","","","","","","","","","",""
"","ITI","","html-keyboard-response","262","252424","0.0-1.0-360.0","0","0","98207","","null","","","null","39","","","","","","","","","","","","","","","NaN",""
"","S1","","html-keyboard-response","263","252691","0.0-1.0-362.0","0","0","98207","","null","","","null","40","","","","","","","","","","","","","","","",""
"","ISI","","html-keyboard-response","264","253693","0.0-1.0-363.0","0","0","98207","","null","","","null","40","NaN","","","","","","","","","","","","","","",""
"","S2","","html-keyboard-response","265","253945","0.0-1.0-364.0","0","0","98207","","null","","","null","40","","NaN","","","","","","","","","","","","","",""
"","response","","html-keyboard-response","266","253972","0.0-1.0-365.0-0.0","0","0","98207","","25","","","75","40","","","1","40","training","adjacent","BA","2","1","R.jpg","N.jpg","1","0","0","",""
"","feedback","","html-keyboard-response","267","254975","0.0-1.0-366.0-0.0","0","0","98207","","null","","","null","40","","","","","","","","","","","","","","","",""
"","time_out","","html-keyboard-response","268","256978","0.0-1.0-368.0-0.0","0","0","98207","","null","","","null","40","","","","","","","","","","","","","","","",""
"","ITI","","html-keyboard-response","269","257981","0.0-1.0-369.0","0","0","98207","","null","","","null","40","","","","","","","","","","","","","","","NaN",""
"","S1","","html-keyboard-response","270","258234","0.0-1.0-371.0","0","0","98207","","null","","","null","41","","","","","","","","","","","","","","","",""
"","ISI","","html-keyboard-response","271","259236","0.0-1.0-372.0","0","0","98207","","null","","","null","41","NaN","","","","","","","","","","","","","","",""
"","S2","","html-keyboard-response","272","259488","0.0-1.0-373.0","0","0","98207","","null","","","null","41","","NaN","","","","","","","","","","","","","",""
"","response","","html-keyboard-response","273","259877","0.0-1.0-374.0-0.0","0","0","98207","","387","","","68","41","","","1","41","training","adjacent","DE","4","5","Q.jpg","L.jpg","0","1","0","",""
"","feedback","","html-keyboard-response","274","260880","0.0-1.0-375.0-0.0","0","0","98207","","null","","","null","41","","","","","","","","","","","","","","","",""
"","time_out","","html-keyboard-response","275","262883","0.0-1.0-377.0-0.0","0","0","98207","","null","","","null","41","","","","","","","","","","","","","","","",""
"","ITI","","html-keyboard-response","276","263886","0.0-1.0-378.0","0","0","98207","","null","","","null","41","","","","","","","","","","","","","","","NaN",""
"","S1","","html-keyboard-response","277","264138","0.0-1.0-380.0","0","0","98207","","null","","","null","42","","","","","","","","","","","","","","","",""
"","ISI","","html-keyboard-response","278","265143","0.0-1.0-381.0","0","0","98207","","null","","","null","42","NaN","","","","","","","","","","","","","","",""
"","S2","","html-keyboard-response","279","265396","0.0-1.0-382.0","0","0","98207","","null","","","null","42","","NaN","","","","","","","","","","","","","",""
"","response","","html-keyboard-response","280","265657","0.0-1.0-383.0-0.0","0","0","98207","","260","","","75","42","","","1","42","training","adjacent","GF","7","6","O.jpg","P.jpg","1","0","0","",""
"","feedback","","html-keyboard-response","281","266667","0.0-1.0-384.0-0.0","0","0","98207","","null","","","null","42","","","","","","","","","","","","","","","",""
"","time_out","","html-keyboard-response","282","268670","0.0-1.0-386.0-0.0","0","0","98207","","null","","","null","42","","","","","","","","","","","","","","","",""
"","ITI","","html-keyboard-response","283","269673","0.0-1.0-387.0","0","0","98207","","null","","","null","42","","","","","","","","","","","","","","","NaN",""
"","S1","","html-keyboard-response","284","269925","0.0-1.0-389.0","0","0","98207","","null","","","null","43","","","","","","","","","","","","","","","",""
"","ISI","","html-keyboard-response","285","270927","0.0-1.0-390.0","0","0","98207","","null","","","null","43","NaN","","","","","","","","","","","","","","",""
"","S2","","html-keyboard-response","286","271180","0.0-1.0-391.0","0","0","98207","","null","","","null","43","","NaN","","","","","","","","","","","","","",""
"","response","","html-keyboard-response","287","271490","0.0-1.0-392.0-0.0","0","0","98207","","309","","","68","43","","","1","43","training","adjacent","AB","1","2","N.jpg","R.jpg","0","1","0","",""
"","feedback","","html-keyboard-response","288","272493","0.0-1.0-393.0-0.0","0","0","98207","","null","","","null","43","","","","","","","","","","","","","","","",""
"","time_out","","html-keyboard-response","289","274496","0.0-1.0-395.0-0.0","0","0","98207","","null","","","null","43","","","","","","","","","","","","","","","",""
"","ITI","","html-keyboard-response","290","275498","0.0-1.0-396.0","0","0","98207","","null","","","null","43","","","","","","","","","","","","","","","NaN",""
"","S1","","html-keyboard-response","291","275750","0.0-1.0-398.0","0","0","98207","","null","","","null","44","","","","","","","","","","","","","","","",""
"","ISI","","html-keyboard-response","292","276753","0.0-1.0-399.0","0","0","98207","","null","","","null","44","NaN","","","","","","","","","","","","","","",""
"","S2","","html-keyboard-response","293","277006","0.0-1.0-400.0","0","0","98207","","null","","","null","44","","NaN","","","","","","","","","","","","","",""
"","response","","html-keyboard-response","294","277410","0.0-1.0-401.0-0.0","0","0","98207","","403","","","75","44","","","1","44","training","adjacent","EF","5","6","L.jpg","P.jpg","1","1","1","",""
"","feedback","","html-keyboard-response","295","278412","0.0-1.0-402.0-0.0","0","0","98207","","null","","","null","44","","","","","","","","","","","","","","","",""
"","ITI","","html-keyboard-response","296","279415","0.0-1.0-405.0","0","0","98207","","null","","","null","44","","","","","","","","","","","","","","","NaN",""
"","S1","","html-keyboard-response","297","279668","0.0-1.0-407.0","0","0","98207","","null","","","null","45","","","","","","","","","","","","","","","",""
"","ISI","","html-keyboard-response","298","280671","0.0-1.0-408.0","0","0","98207","","null","","","null","45","NaN","","","","","","","","","","","","","","",""
"","S2","","html-keyboard-response","299","280924","0.0-1.0-409.0","0","0","98207","","null","","","null","45","","NaN","","","","","","","","","","","","","",""
"","response","","html-keyboard-response","300","281401","0.0-1.0-410.0-0.0","0","0","98207","","475","","","68","45","","","1","45","training","adjacent","CD","3","4","M.jpg","Q.jpg","0","1","0","",""
"","feedback","","html-keyboard-response","301","282404","0.0-1.0-411.0-0.0","0","0","98207","","null","","","null","45","","","","","","","","","","","","","","","",""
"","time_out","","html-keyboard-response","302","284408","0.0-1.0-413.0-0.0","0","0","98207","","null","","","null","45","","","","","","","","","","","","","","","",""
"","ITI","","html-keyboard-response","303","285410","0.0-1.0-414.0","0","0","98207","","null","","","null","45","","","","","","","","","","","","","","","NaN",""
"","S1","","html-keyboard-response","304","285662","0.0-1.0-416.0","0","0","98207","","null","","","null","46","","","","","","","","","","","","","","","",""
"","ISI","","html-keyboard-response","305","286665","0.0-1.0-417.0","0","0","98207","","null","","","null","46","NaN","","","","","","","","","","","","","","",""
"","S2","","html-keyboard-response","306","286917","0.0-1.0-418.0","0","0","98207","","null","","","null","46","","NaN","","","","","","","","","","","","","",""
"","response","","html-keyboard-response","307","287164","0.0-1.0-419.0-0.0","0","0","98207","","244","","","75","46","","","1","46","training","adjacent","BA","2","1","R.jpg","N.jpg","1","0","0","",""
"","feedback","","html-keyboard-response","308","288166","0.0-1.0-420.0-0.0","0","0","98207","","null","","","null","46","","","","","","","","","","","","","","","",""
"","time_out","","html-keyboard-response","309","290168","0.0-1.0-422.0-0.0","0","0","98207","","null","","","null","46","","","","","","","","","","","","","","","",""
"","ITI","","html-keyboard-response","310","291171","0.0-1.0-423.0","0","0","98207","","null","","","null","46","","","","","","","","","","","","","","","NaN",""
"","S1","","html-keyboard-response","311","291422","0.0-1.0-425.0","0","0","98207","","null","","","null","47","","","","","","","","","","","","","","","",""
"","ISI","","html-keyboard-response","312","292425","0.0-1.0-426.0","0","0","98207","","null","","","null","47","NaN","","","","","","","","","","","","","","",""
"","S2","","html-keyboard-response","313","292690","0.0-1.0-427.0","0","0","98207","","null","","","null","47","","NaN","","","","","","","","","","","","","",""
"","response","","html-keyboard-response","314","293056","0.0-1.0-428.0-0.0","0","0","98207","","365","","","68","47","","","1","47","training","adjacent","AB","1","2","N.jpg","R.jpg","0","1","0","",""
"","feedback","","html-keyboard-response","315","294058","0.0-1.0-429.0-0.0","0","0","98207","","null","","","null","47","","","","","","","","","","","","","","","",""
"","time_out","","html-keyboard-response","316","296060","0.0-1.0-431.0-0.0","0","0","98207","","null","","","null","47","","","","","","","","","","","","","","","",""
"","ITI","","html-keyboard-response","317","297064","0.0-1.0-432.0","0","0","98207","","null","","","null","47","","","","","","","","","","","","","","","NaN",""
"","block_over","","html-keyboard-response","318","301694","0.0-1.0-433.0-0.0","0","0","98207","","4628","","","32","47","","","","","","","","","","","","","","","",""
"","S1","","html-keyboard-response","319","301946","0.0-1.0-434.0","0","0","98207","","null","","","null","48","","","","","","","","","","","","","","","",""
"","ISI","","html-keyboard-response","320","302949","0.0-1.0-435.0","0","0","98207","","null","","","null","48","NaN","","","","","","","","","","","","","","",""
"","S2","","html-keyboard-response","321","303201","0.0-1.0-436.0","0","0","98207","","null","","","null","48","","NaN","","","","","","","","","","","","","",""
"","response","","html-keyboard-response","322","303864","0.0-1.0-437.0-0.0","0","0","98207","","661","","","68","48","","","2","48","training","adjacent","CD","3","4","M.jpg","Q.jpg","0","1","0","",""
"","feedback","","html-keyboard-response","323","304866","0.0-1.0-438.0-0.0","0","0","98207","","null","","","null","48","","","","","","","","","","","","","","","",""
"","time_out","","html-keyboard-response","324","306869","0.0-1.0-440.0-0.0","0","0","98207","","null","","","null","48","","","","","","","","","","","","","","","",""
"","ITI","","html-keyboard-response","325","307871","0.0-1.0-441.0","0","0","98207","","null","","","null","48","","","","","","","","","","","","","","","NaN",""
"","S1","","html-keyboard-response","326","308125","0.0-1.0-443.0","0","0","98207","","null","","","null","49","","","","","","","","","","","","","","","",""
"","ISI","","html-keyboard-response","327","309127","0.0-1.0-444.0","0","0","98207","","null","","","null","49","NaN","","","","","","","","","","","","","","",""
"","S2","","html-keyboard-response","328","309380","0.0-1.0-445.0","0","0","98207","","null","","","null","49","","NaN","","","","","","","","","","","","","",""
"","response","","html-keyboard-response","329","309757","0.0-1.0-446.0-0.0","0","0","98207","","376","","","68","49","","","2","49","training","adjacent","DE","4","5","Q.jpg","L.jpg","0","1","0","",""
"","feedback","","html-keyboard-response","330","310760","0.0-1.0-447.0-0.0","0","0","98207","","null","","","null","49","","","","","","","","","","","","","","","",""
"","time_out","","html-keyboard-response","331","312768","0.0-1.0-449.0-0.0","0","0","98207","","null","","","null","49","","","","","","","","","","","","","","","",""
"","ITI","","html-keyboard-response","332","313770","0.0-1.0-450.0","0","0","98207","","null","","","null","49","","","","","","","","","","","","","","","NaN",""
"","S1","","html-keyboard-response","333","314022","0.0-1.0-452.0","0","0","98207","","null","","","null","50","","","","","","","","","","","","","","","",""
"","ISI","","html-keyboard-response","334","315025","0.0-1.0-453.0","0","0","98207","","null","","","null","50","NaN","","","","","","","","","","","","","","",""
"","S2","","html-keyboard-response","335","315277","0.0-1.0-454.0","0","0","98207","","null","","","null","50","","NaN","","","","","","","","","","","","","",""
"","response","","html-keyboard-response","336","315811","0.0-1.0-455.0-0.0","0","0","98207","","533","","","75","50","","","2","50","training","adjacent","GF","7","6","O.jpg","P.jpg","1","0","0","",""
"","feedback","","html-keyboard-response","337","316814","0.0-1.0-456.0-0.0","0","0","98207","","null","","","null","50","","","","","","","","","","","","","","","",""
"","time_out","","html-keyboard-response","338","318816","0.0-1.0-458.0-0.0","0","0","98207","","null","","","null","50","","","","","","","","","","","","","","","",""
"","ITI","","html-keyboard-response","339","319819","0.0-1.0-459.0","0","0","98207","","null","","","null","50","","","","","","","","","","","","","","","NaN",""
"","S1","","html-keyboard-response","340","320071","0.0-1.0-461.0","0","0","98207","","null","","","null","51","","","","","","","","","","","","","","","",""
"","ISI","","html-keyboard-response","341","321074","0.0-1.0-462.0","0","0","98207","","null","","","null","51","NaN","","","","","","","","","","","","","","",""
"","S2","","html-keyboard-response","342","321326","0.0-1.0-463.0","0","0","98207","","null","","","null","51","","NaN","","","","","","","","","","","","","",""
"","response","","html-keyboard-response","343","321900","0.0-1.0-464.0-0.0","0","0","98207","","573","","","68","51","","","2","51","training","adjacent","CB","3","2","M.jpg","R.jpg","0","0","1","",""
"","feedback","","html-keyboard-response","344","322902","0.0-1.0-465.0-0.0","0","0","98207","","null","","","null","51","","","","","","","","","","","","","","","",""
"","ITI","","html-keyboard-response","345","323905","0.0-1.0-468.0","0","0","98207","","null","","","null","51","","","","","","","","","","","","","","","NaN",""
"","S1","","html-keyboard-response","346","324156","0.0-1.0-470.0","0","0","98207","","null","","","null","52","","","","","","","","","","","","","","","",""
"","ISI","","html-keyboard-response","347","325160","0.0-1.0-471.0","0","0","98207","","null","","","null","52","NaN","","","","","","","","","","","","","","",""
"","S2","","html-keyboard-response","348","325413","0.0-1.0-472.0","0","0","98207","","null","","","null","52","","NaN","","","","","","","","","","","","","",""
"","response","","html-keyboard-response","349","325670","0.0-1.0-473.0-0.0","0","0","98207","","256","","","75","52","","","2","52","training","adjacent","GF","7","6","O.jpg","P.jpg","1","0","0","",""
"","feedback","","html-keyboard-response","350","326672","0.0-1.0-474.0-0.0","0","0","98207","","null","","","null","52","","","","","","","","","","","","","","","",""
"","time_out","","html-keyboard-response","351","328675","0.0-1.0-476.0-0.0","0","0","98207","","null","","","null","52","","","","","","","","","","","","","","","",""
"","ITI","","html-keyboard-response","352","329678","0.0-1.0-477.0","0","0","98207","","null","","","null","52","","","","","","","","","","","","","","","NaN",""
"","S1","","html-keyboard-response","353","329931","0.0-1.0-479.0","0","0","98207","","null","","","null","53","","","","","","","","","","","","","","","",""
"","ISI","","html-keyboard-response","354","330933","0.0-1.0-480.0","0","0","98207","","null","","","null","53","NaN","","","","","","","","","","","","","","",""
"","S2","","html-keyboard-response","355","331168","0.0-1.0-481.0","0","0","98207","","234","","","75","53","","k","2","53","training","adjacent","AB","1","2","N.jpg","R.jpg","1","1","1","",""
"","feedback","","html-keyboard-response","356","332171","0.0-1.0-483.0-0.0","0","0","98207","","null","","","null","53","","","","","","","","","","","","","","","",""
"","ITI","","html-keyboard-response","357","333174","0.0-1.0-486.0","0","0","98207","","null","","","null","53","","","","","","","","","","","","","","","NaN",""
"","S1","","html-keyboard-response","358","333426","0.0-1.0-488.0","0","0","98207","","null","","","null","54","","","","","","","","","","","","","","","",""
"","ISI","","html-keyboard-response","359","334429","0.0-1.0-489.0","0","0","98207","","null","","","null","54","NaN","","","","","","","","","","","","","","",""
"","S2","","html-keyboard-response","360","334682","0.0-1.0-490.0","0","0","98207","","null","","","null","54","","NaN","","","","","","","","","","","","","",""
"","response","","html-keyboard-response","361","334778","0.0-1.0-491.0-0.0","0","0","98207","","95","","","75","54","","","2","54","training","adjacent","GF","7","6","O.jpg","P.jpg","1","0","0","",""
"","feedback","","html-keyboard-response","362","335781","0.0-1.0-492.0-0.0","0","0","98207","","null","","","null","54","","","","","","","","","","","","","","","",""
"","time_out","","html-keyboard-response","363","337791","0.0-1.0-494.0-0.0","0","0","98207","","null","","","null","54","","","","","","","","","","","","","","","",""
"","ITI","","html-keyboard-response","364","338793","0.0-1.0-495.0","0","0","98207","","null","","","null","54","","","","","","","","","","","","","","","NaN",""
"","S1","","html-keyboard-response","365","339046","0.0-1.0-497.0","0","0","98207","","null","","","null","55","","","","","","","","","","","","","","","",""
"","ISI","","html-keyboard-response","366","340049","0.0-1.0-498.0","0","0","98207","","null","","","null","55","NaN","","","","","","","","","","","","","","",""
"","S2","","html-keyboard-response","367","340301","0.0-1.0-499.0","0","0","98207","","null","","","null","55","","NaN","","","","","","","","","","","","","",""
"","response","","html-keyboard-response","368","340705","0.0-1.0-500.0-0.0","0","0","98207","","403","","","75","55","","","2","55","training","adjacent","FG","6","7","P.jpg","O.jpg","1","1","1","",""
"","feedback","","html-keyboard-response","369","341708","0.0-1.0-501.0-0.0","0","0","98207","","null","","","null","55","","","","","","","","","","","","","","","",""
"","ITI","","html-keyboard-response","370","342711","0.0-1.0-504.0","0","0","98207","","null","","","null","55","","","","","","","","","","","","","","","NaN",""
"","S1","","html-keyboard-response","371","342963","0.0-1.0-506.0","0","0","98207","","null","","","null","56","","","","","","","","","","","","","","","",""
"","ISI","","html-keyboard-response","372","343966","0.0-1.0-507.0","0","0","98207","","null","","","null","56","NaN","","","","","","","","","","","","","","",""
"","S2","","html-keyboard-response","373","344219","0.0-1.0-508.0","0","0","98207","","null","","","null","56","","NaN","","","","","","","","","","","","","",""
"","response","","html-keyboard-response","374","344547","0.0-1.0-509.0-0.0","0","0","98207","","327","","","68","56","","","2","56","training","adjacent","BA","2","1","R.jpg","N.jpg","0","0","1","",""
"","feedback","","html-keyboard-response","375","345550","0.0-1.0-510.0-0.0","0","0","98207","","null","","","null","56","","","","","","","","","","","","","","","",""
"","ITI","","html-keyboard-response","376","346553","0.0-1.0-513.0","0","0","98207","","null","","","null","56","","","","","","","","","","","","","","","NaN",""
"","S1","","html-keyboard-response","377","346806","0.0-1.0-515.0","0","0","98207","","null","","","null","57","","","","","","","","","","","","","","","",""
"","ISI","","html-keyboard-response","378","347807","0.0-1.0-516.0","0","0","98207","","null","","","null","57","NaN","","","","","","","","","","","","","","",""
"","S2","","html-keyboard-response","379","348060","0.0-1.0-517.0","0","0","98207","","null","","","null","57","","NaN","","","","","","","","","","","","","",""
"","response","","html-keyboard-response","380","348296","0.0-1.0-518.0-0.0","0","0","98207","","235","","","75","57","","","2","57","training","adjacent","CB","3","2","M.jpg","R.jpg","1","0","0","",""
"","feedback","","html-keyboard-response","381","349300","0.0-1.0-519.0-0.0","0","0","98207","","null","","","null","57","","","","","","","","","","","","","","","",""
"","time_out","","html-keyboard-response","382","351303","0.0-1.0-521.0-0.0","0","0","98207","","null","","","null","57","","","","","","","","","","","","","","","",""
"","ITI","","html-keyboard-response","383","352305","0.0-1.0-522.0","0","0","98207","","null","","","null","57","","","","","","","","","","","","","","","NaN",""
"","S1","","html-keyboard-response","384","352557","0.0-1.0-524.0","0","0","98207","","null","","","null","58","","","","","","","","","","","","","","","",""
"","ISI","","html-keyboard-response","385","353572","0.0-1.0-525.0","0","0","98207","","null","","","null","58","NaN","","","","","","","","","","","","","","",""
"","S2","","html-keyboard-response","386","353825","0.0-1.0-526.0","0","0","98207","","null","","","null","58","","NaN","","","","","","","","","","","","","",""
"","response","","html-keyboard-response","387","354017","0.0-1.0-527.0-0.0","0","0","98207","","191","","","68","58","","","2","58","training","adjacent","FE","6","5","P.jpg","L.jpg","0","0","1","",""
"","feedback","","html-keyboard-response","388","355019","0.0-1.0-528.0-0.0","0","0","98207","","null","","","null","58","","","","","","","","","","","","","","","",""
"","ITI","","html-keyboard-response","389","356023","0.0-1.0-531.0","0","0","98207","","null","","","null","58","","","","","","","","","","","","","","","NaN",""
"","S1","","html-keyboard-response","390","356275","0.0-1.0-533.0","0","0","98207","","null","","","null","59","","","","","","","","","","","","","","","",""
"","ISI","","html-keyboard-response","391","357280","0.0-1.0-534.0","0","0","98207","","null","","","null","59","NaN","","","","","","","","","","","","","","",""
"","S2","","html-keyboard-response","392","357532","0.0-1.0-535.0","0","0","98207","","null","","","null","59","","NaN","","","","","","","","","","","","","",""
"","response","","html-keyboard-response","393","357734","0.0-1.0-536.0-0.0","0","0","98207","","201","","","68","59","","","2","59","training","adjacent","BA","2","1","R.jpg","N.jpg","0","0","1","",""
"","feedback","","html-keyboard-response","394","358737","0.0-1.0-537.0-0.0","0","0","98207","","null","","","null","59","","","","","","","","","","","","","","","",""
"","ITI","","html-keyboard-response","395","359740","0.0-1.0-540.0","0","0","98207","","null","","","null","59","","","","","","","","","","","","","","","NaN",""
"","S1","","html-keyboard-response","396","359993","0.0-1.0-542.0","0","0","98207","","null","","","null","60","","","","","","","","","","","","","","","",""
"","ISI","","html-keyboard-response","397","360997","0.0-1.0-543.0","0","0","98207","","null","","","null","60","NaN","","","","","","","","","","","","","","",""
"","S2","","html-keyboard-response","398","361250","0.0-1.0-544.0","0","0","98207","","null","","","null","60","","NaN","","","","","","","","","","","","","",""
"","response","","html-keyboard-response","399","361624","0.0-1.0-545.0-0.0","0","0","98207","","373","","","75","60","","","2","60","training","adjacent","BC","2","3","R.jpg","M.jpg","1","1","1","",""
"","feedback","","html-keyboard-response","400","362627","0.0-1.0-546.0-0.0","0","0","98207","","null","","","null","60","","","","","","","","","","","","","","","",""
"","ITI","","html-keyboard-response","401","363629","0.0-1.0-549.0","0","0","98207","","null","","","null","60","","","","","","","","","","","","","","","NaN",""
"","S1","","html-keyboard-response","402","363881","0.0-1.0-551.0","0","0","98207","","null","","","null","61","","","","","","","","","","","","","","","",""
"","ISI","","html-keyboard-response","403","364884","0.0-1.0-552.0","0","0","98207","","null","","","null","61","NaN","","","","","","","","","","","","","","",""
"","S2","","html-keyboard-response","404","365136","0.0-1.0-553.0","0","0","98207","","null","","","null","61","","NaN","","","","","","","","","","","","","",""
"","response","","html-keyboard-response","405","365260","0.0-1.0-554.0-0.0","0","0","98207","","123","","","75","61","","","2","61","training","adjacent","FE","6","5","P.jpg","L.jpg","1","0","0","",""
"","feedback","","html-keyboard-response","406","366263","0.0-1.0-555.0-0.0","0","0","98207","","null","","","null","61","","","","","","","","","","","","","","","",""
"","time_out","","html-keyboard-response","407","368265","0.0-1.0-557.0-0.0","0","0","98207","","null","","","null","61","","","","","","","","","","","","","","","",""
"","ITI","","html-keyboard-response","408","369267","0.0-1.0-558.0","0","0","98207","","null","","","null","61","","","","","","","","","","","","","","","NaN",""
"","S1","","html-keyboard-response","409","369519","0.0-1.0-560.0","0","0","98207","","null","","","null","62","","","","","","","","","","","","","","","",""
"","ISI","","html-keyboard-response","410","370522","0.0-1.0-561.0","0","0","98207","","null","","","null","62","NaN","","","","","","","","","","","","","","",""
"","S2","","html-keyboard-response","411","370774","0.0-1.0-562.0","0","0","98207","","null","","","null","62","","NaN","","","","","","","","","","","","","",""
"","response","","html-keyboard-response","412","371037","0.0-1.0-563.0-0.0","0","0","98207","","262","","","68","62","","","2","62","training","adjacent","CD","3","4","M.jpg","Q.jpg","0","1","0","",""
"","feedback","","html-keyboard-response","413","372050","0.0-1.0-564.0-0.0","0","0","98207","","null","","","null","62","","","","","","","","","","","","","","","",""
"","time_out","","html-keyboard-response","414","374052","0.0-1.0-566.0-0.0","0","0","98207","","null","","","null","62","","","","","","","","","","","","","","","",""
"","ITI","","html-keyboard-response","415","375055","0.0-1.0-567.0","0","0","98207","","null","","","null","62","","","","","","","","","","","","","","","NaN",""
"","S1","","html-keyboard-response","416","375307","0.0-1.0-569.0","0","0","98207","","null","","","null","63","","","","","","","","","","","","","","","",""
"","ISI","","html-keyboard-response","417","376310","0.0-1.0-570.0","0","0","98207","","null","","","null","63","NaN","","","","","","","","","","","","","","",""
"","S2","","html-keyboard-response","418","376563","0.0-1.0-571.0","0","0","98207","","null","","","null","63","","NaN","","","","","","","","","","","","","",""
"","response","","html-keyboard-response","419","376791","0.0-1.0-572.0-0.0","0","0","98207","","227","","","68","63","","","2","63","training","adjacent","DC","4","3","Q.jpg","M.jpg","0","0","1","",""
"","feedback","","html-keyboard-response","420","377794","0.0-1.0-573.0-0.0","0","0","98207","","null","","","null","63","","","","","","","","","","","","","","","",""
"","ITI","","html-keyboard-response","421","378797","0.0-1.0-576.0","0","0","98207","","null","","","null","63","","","","","","","","","","","","","","","NaN",""
"","S1","","html-keyboard-response","422","379050","0.0-1.0-578.0","0","0","98207","","null","","","null","64","","","","","","","","","","","","","","","",""
"","ISI","","html-keyboard-response","423","380053","0.0-1.0-579.0","0","0","98207","","null","","","null","64","NaN","","","","","","","","","","","","","","",""
"","S2","","html-keyboard-response","424","380305","0.0-1.0-580.0","0","0","98207","","null","","","null","64","","NaN","","","","","","","","","","","","","",""
"","response","","html-keyboard-response","425","380474","0.0-1.0-581.0-0.0","0","0","98207","","167","","","75","64","","","2","64","training","adjacent","CB","3","2","M.jpg","R.jpg","1","0","0","",""
"","feedback","","html-keyboard-response","426","381476","0.0-1.0-582.0-0.0","0","0","98207","","null","","","null","64","","","","","","","","","","","","","","","",""
"","time_out","","html-keyboard-response","427","383479","0.0-1.0-584.0-0.0","0","0","98207","","null","","","null","64","","","","","","","","","","","","","","","",""
"","ITI","","html-keyboard-response","428","384481","0.0-1.0-585.0","0","0","98207","","null","","","null","64","","","","","","","","","","","","","","","NaN",""
"","S1","","html-keyboard-response","429","384733","0.0-1.0-587.0","0","0","98207","","null","","","null","65","","","","","","","","","","","","","","","",""
"","ISI","","html-keyboard-response","430","385735","0.0-1.0-588.0","0","0","98207","","null","","","null","65","NaN","","","","","","","","","","","","","","",""
"","S2","","html-keyboard-response","431","385973","0.0-1.0-589.0","0","0","98207","","236","","","75","65","","k","2","65","training","adjacent","EF","5","6","L.jpg","P.jpg","1","1","1","",""
"","feedback","","html-keyboard-response","432","386976","0.0-1.0-591.0-0.0","0","0","98207","","null","","","null","65","","","","","","","","","","","","","","","",""
"","ITI","","html-keyboard-response","433","387980","0.0-1.0-594.0","0","0","98207","","null","","","null","65","","","","","","","","","","","","","","","NaN",""
"","S1","","html-keyboard-response","434","388232","0.0-1.0-596.0","0","0","98207","","null","","","null","66","","","","","","","","","","","","","","","",""
"","ISI","","html-keyboard-response","435","389242","0.0-1.0-597.0","0","0","98207","","null","","","null","66","NaN","","","","","","","","","","","","","","",""
"","S2","","html-keyboard-response","436","389495","0.0-1.0-598.0","0","0","98207","","null","","","null","66","","NaN","","","","","","","","","","","","","",""
"","response","","html-keyboard-response","437","389698","0.0-1.0-599.0-0.0","0","0","98207","","201","","","75","66","","","2","66","training","adjacent","EF","5","6","L.jpg","P.jpg","1","1","1","",""
"","feedback","","html-keyboard-response","438","390701","0.0-1.0-600.0-0.0","0","0","98207","","null","","","null","66","","","","","","","","","","","","","","","",""
"","ITI","","html-keyboard-response","439","391703","0.0-1.0-603.0","0","0","98207","","null","","","null","66","","","","","","","","","","","","","","","NaN",""
"","S1","","html-keyboard-response","440","391956","0.0-1.0-605.0","0","0","98207","","null","","","null","67","","","","","","","","","","","","","","","",""
"","ISI","","html-keyboard-response","441","392959","0.0-1.0-606.0","0","0","98207","","null","","","null","67","NaN","","","","","","","","","","","","","","",""
"","S2","","html-keyboard-response","442","393213","0.0-1.0-607.0","0","0","98207","","null","","","null","67","","NaN","","","","","","","","","","","","","",""
"","response","","html-keyboard-response","443","393452","0.0-1.0-608.0-0.0","0","0","98207","","238","","","68","67","","","2","67","training","adjacent","AB","1","2","N.jpg","R.jpg","0","1","0","",""
"","feedback","","html-keyboard-response","444","394455","0.0-1.0-609.0-0.0","0","0","98207","","null","","","null","67","","","","","","","","","","","","","","","",""
"","time_out","","html-keyboard-response","445","396459","0.0-1.0-611.0-0.0","0","0","98207","","null","","","null","67","","","","","","","","","","","","","","","",""
"","ITI","","html-keyboard-response","446","397461","0.0-1.0-612.0","0","0","98207","","null","","","null","67","","","","","","","","","","","","","","","NaN",""
"","S1","","html-keyboard-response","447","397714","0.0-1.0-614.0","0","0","98207","","null","","","null","68","","","","","","","","","","","","","","","",""
"","ISI","","html-keyboard-response","448","398716","0.0-1.0-615.0","0","0","98207","","null","","","null","68","NaN","","","","","","","","","","","","","","",""
"","S2","","html-keyboard-response","449","398970","0.0-1.0-616.0","0","0","98207","","null","","","null","68","","NaN","","","","","","","","","","","","","",""
"","response","","html-keyboard-response","450","399272","0.0-1.0-617.0-0.0","0","0","98207","","301","","","75","68","","","2","68","training","adjacent","CB","3","2","M.jpg","R.jpg","1","0","0","",""
"","feedback","","html-keyboard-response","451","400276","0.0-1.0-618.0-0.0","0","0","98207","","null","","","null","68","","","","","","","","","","","","","","","",""
"","time_out","","html-keyboard-response","452","402278","0.0-1.0-620.0-0.0","0","0","98207","","null","","","null","68","","","","","","","","","","","","","","","",""
"","ITI","","html-keyboard-response","453","403280","0.0-1.0-621.0","0","0","98207","","null","","","null","68","","","","","","","","","","","","","","","NaN",""
"","S1","","html-keyboard-response","454","403532","0.0-1.0-623.0","0","0","98207","","null","","","null","69","","","","","","","","","","","","","","","",""
"","ISI","","html-keyboard-response","455","404535","0.0-1.0-624.0","0","0","98207","","null","","","null","69","NaN","","","","","","","","","","","","","","",""
"","S2","","html-keyboard-response","456","404787","0.0-1.0-625.0","0","0","98207","","null","","","null","69","","NaN","","","","","","","","","","","","","",""
"","response","","html-keyboard-response","457","404865","0.0-1.0-626.0-0.0","0","0","98207","","76","","","75","69","","","2","69","training","adjacent","FG","6","7","P.jpg","O.jpg","1","1","1","",""
"","feedback","","html-keyboard-response","458","405868","0.0-1.0-627.0-0.0","0","0","98207","","null","","","null","69","","","","","","","","","","","","","","","",""
"","ITI","","html-keyboard-response","459","406870","0.0-1.0-630.0","0","0","98207","","null","","","null","69","","","","","","","","","","","","","","","NaN",""
"","S1","","html-keyboard-response","460","407124","0.0-1.0-632.0","0","0","98207","","null","","","null","70","","","","","","","","","","","","","","","",""
"","ISI","","html-keyboard-response","461","408126","0.0-1.0-633.0","0","0","98207","","null","","","null","70","NaN","","","","","","","","","","","","","","",""
"","S2","","html-keyboard-response","462","408379","0.0-1.0-634.0","0","0","98207","","null","","","null","70","","NaN","","","","","","","","","","","","","",""
"","response","","html-keyboard-response","463","408680","0.0-1.0-635.0-0.0","0","0","98207","","299","","","75","70","","","2","70","training","adjacent","ED","5","4","L.jpg","Q.jpg","1","0","0","",""
"","feedback","","html-keyboard-response","464","409683","0.0-1.0-636.0-0.0","0","0","98207","","null","","","null","70","","","","","","","","","","","","","","","",""
"","time_out","","html-keyboard-response","465","411686","0.0-1.0-638.0-0.0","0","0","98207","","null","","","null","70","","","","","","","","","","","","","","","",""
"","ITI","","html-keyboard-response","466","412689","0.0-1.0-639.0","0","0","98207","","null","","","null","70","","","","","","","","","","","","","","","NaN",""
"","S1","","html-keyboard-response","467","412943","0.0-1.0-641.0","0","0","98207","","null","","","null","71","","","","","","","","","","","","","","","",""
"","ISI","","html-keyboard-response","468","413945","0.0-1.0-642.0","0","0","98207","","null","","","null","71","NaN","","","","","","","","","","","","","","",""
"","S2","","html-keyboard-response","469","414197","0.0-1.0-643.0","0","0","98207","","null","","","null","71","","NaN","","","","","","","","","","","","","",""
"","response","","html-keyboard-response","470","414412","0.0-1.0-644.0-0.0","0","0","98207","","213","","","68","71","","","2","71","training","adjacent","AB","1","2","N.jpg","R.jpg","0","1","0","",""
"","feedback","","html-keyboard-response","471","415414","0.0-1.0-645.0-0.0","0","0","98207","","null","","","null","71","","","","","","","","","","","","","","","",""
"","time_out","","html-keyboard-response","472","417417","0.0-1.0-647.0-0.0","0","0","98207","","null","","","null","71","","","","","","","","","","","","","","","",""
"","ITI","","html-keyboard-response","473","418419","0.0-1.0-648.0","0","0","98207","","null","","","null","71","","","","","","","","","","","","","","","NaN",""
"","S1","","html-keyboard-response","474","418671","0.0-1.0-650.0","0","0","98207","","null","","","null","72","","","","","","","","","","","","","","","",""
"","ISI","","html-keyboard-response","475","419674","0.0-1.0-651.0","0","0","98207","","null","","","null","72","NaN","","","","","","","","","","","","","","",""
"","S2","","html-keyboard-response","476","419897","0.0-1.0-652.0","0","0","98207","","222","","","68","72","","d","2","72","training","adjacent","BA","2","1","R.jpg","N.jpg","0","0","1","",""
"","feedback","","html-keyboard-response","477","420899","0.0-1.0-654.0-0.0","0","0","98207","","null","","","null","72","","","","","","","","","","","","","","","",""
"","ITI","","html-keyboard-response","478","421902","0.0-1.0-657.0","0","0","98207","","null","","","null","72","","","","","","","","","","","","","","","NaN",""
"","S1","","html-keyboard-response","479","422156","0.0-1.0-659.0","0","0","98207","","null","","","null","73","","","","","","","","","","","","","","","",""
"","ISI","","html-keyboard-response","480","423159","0.0-1.0-660.0","0","0","98207","","null","","","null","73","NaN","","","","","","","","","","","","","","",""
"","S2","","html-keyboard-response","481","423411","0.0-1.0-661.0","0","0","98207","","null","","","null","73","","NaN","","","","","","","","","","","","","",""
"","response","","html-keyboard-response","482","423758","0.0-1.0-662.0-0.0","0","0","98207","","346","","","75","73","","","2","73","training","adjacent","FG","6","7","P.jpg","O.jpg","1","1","1","",""
"","feedback","","html-keyboard-response","483","424761","0.0-1.0-663.0-0.0","0","0","98207","","null","","","null","73","","","","","","","","","","","","","","","",""
"","ITI","","html-keyboard-response","484","425764","0.0-1.0-666.0","0","0","98207","","null","","","null","73","","","","","","","","","","","","","","","NaN",""
"","S1","","html-keyboard-response","485","426031","0.0-1.0-668.0","0","0","98207","","null","","","null","74","","","","","","","","","","","","","","","",""
"","ISI","","html-keyboard-response","486","427038","0.0-1.0-669.0","0","0","98207","","null","","","null","74","NaN","","","","","","","","","","","","","","",""
"","S2","","html-keyboard-response","487","427291","0.0-1.0-670.0","0","0","98207","","null","","","null","74","","NaN","","","","","","","","","","","","","",""
"","response","","html-keyboard-response","488","427650","0.0-1.0-671.0-0.0","0","0","98207","","358","","","75","74","","","2","74","training","adjacent","EF","5","6","L.jpg","P.jpg","1","1","1","",""
"","feedback","","html-keyboard-response","489","428653","0.0-1.0-672.0-0.0","0","0","98207","","null","","","null","74","","","","","","","","","","","","","","","",""
"","ITI","","html-keyboard-response","490","429656","0.0-1.0-675.0","0","0","98207","","null","","","null","74","","","","","","","","","","","","","","","NaN",""
"","S1","","html-keyboard-response","491","429908","0.0-1.0-677.0","0","0","98207","","null","","","null","75","","","","","","","","","","","","","","","",""
"","ISI","","html-keyboard-response","492","430910","0.0-1.0-678.0","0","0","98207","","null","","","null","75","NaN","","","","","","","","","","","","","","",""
"","S2","","html-keyboard-response","493","431163","0.0-1.0-679.0","0","0","98207","","null","","","null","75","","NaN","","","","","","","","","","","","","",""
"","response","","html-keyboard-response","494","431591","0.0-1.0-680.0-0.0","0","0","98207","","426","","","75","75","","","2","75","training","adjacent","BC","2","3","R.jpg","M.jpg","1","1","1","",""
"","feedback","","html-keyboard-response","495","432593","0.0-1.0-681.0-0.0","0","0","98207","","null","","","null","75","","","","","","","","","","","","","","","",""
"","ITI","","html-keyboard-response","496","433595","0.0-1.0-684.0","0","0","98207","","null","","","null","75","","","","","","","","","","","","","","","NaN",""
"","S1","","html-keyboard-response","497","433860","0.0-1.0-686.0","0","0","98207","","null","","","null","76","","","","","","","","","","","","","","","",""
"","ISI","","html-keyboard-response","498","434862","0.0-1.0-687.0","0","0","98207","","null","","","null","76","NaN","","","","","","","","","","","","","","",""
"","S2","","html-keyboard-response","499","435115","0.0-1.0-688.0","0","0","98207","","null","","","null","76","","NaN","","","","","","","","","","","","","",""
"","response","","html-keyboard-response","500","435347","0.0-1.0-689.0-0.0","0","0","98207","","231","","","75","76","","","2","76","training","adjacent","DE","4","5","Q.jpg","L.jpg","1","1","1","",""
"","feedback","","html-keyboard-response","501","436350","0.0-1.0-690.0-0.0","0","0","98207","","null","","","null","76","","","","","","","","","","","","","","","",""
"","ITI","","html-keyboard-response","502","437353","0.0-1.0-693.0","0","0","98207","","null","","","null","76","","","","","","","","","","","","","","","NaN",""
"","S1","","html-keyboard-response","503","437605","0.0-1.0-695.0","0","0","98207","","null","","","null","77","","","","","","","","","","","","","","","",""
"","ISI","","html-keyboard-response","504","438608","0.0-1.0-696.0","0","0","98207","","null","","","null","77","NaN","","","","","","","","","","","","","","",""
"","S2","","html-keyboard-response","505","438860","0.0-1.0-697.0","0","0","98207","","null","","","null","77","","NaN","","","","","","","","","","","","","",""
"","response","","html-keyboard-response","506","438863","0.0-1.0-698.0-0.0","0","0","98207","","2","","","68","77","","","2","77","training","adjacent","ED","5","4","L.jpg","Q.jpg","0","0","1","",""
"","feedback","","html-keyboard-response","507","439866","0.0-1.0-699.0-0.0","0","0","98207","","null","","","null","77","","","","","","","","","","","","","","","",""
"","ITI","","html-keyboard-response","508","440869","0.0-1.0-702.0","0","0","98207","","null","","","null","77","","","","","","","","","","","","","","","NaN",""
"","S1","","html-keyboard-response","509","441121","0.0-1.0-704.0","0","0","98207","","null","","","null","78","","","","","","","","","","","","","","","",""
"","ISI","","html-keyboard-response","510","442124","0.0-1.0-705.0","0","0","98207","","null","","","null","78","NaN","","","","","","","","","","","","","","",""
"","S2","","html-keyboard-response","511","442376","0.0-1.0-706.0","0","0","98207","","null","","","null","78","","NaN","","","","","","","","","","","","","",""
"","response","","html-keyboard-response","512","442500","0.0-1.0-707.0-0.0","0","0","98207","","123","","","75","78","","","2","78","training","adjacent","EF","5","6","L.jpg","P.jpg","1","1","1","",""
"","feedback","","html-keyboard-response","513","443503","0.0-1.0-708.0-0.0","0","0","98207","","null","","","null","78","","","","","","","","","","","","","","","",""
"","ITI","","html-keyboard-response","514","444505","0.0-1.0-711.0","0","0","98207","","null","","","null","78","","","","","","","","","","","","","","","NaN",""
"","S1","","html-keyboard-response","515","444757","0.0-1.0-713.0","0","0","98207","","null","","","null","79","","","","","","","","","","","","","","","",""
"","ISI","","html-keyboard-response","516","445760","0.0-1.0-714.0","0","0","98207","","null","","","null","79","NaN","","","","","","","","","","","","","","",""
"","S2","","html-keyboard-response","517","445838","0.0-1.0-715.0","0","0","98207","","77","","","75","79","","k","2","79","training","adjacent","DE","4","5","Q.jpg","L.jpg","1","1","1","",""
"","feedback","","html-keyboard-response","518","446842","0.0-1.0-717.0-0.0","0","0","98207","","null","","","null","79","","","","","","","","","","","","","","","",""
"","ITI","","html-keyboard-response","519","447844","0.0-1.0-720.0","0","0","98207","","null","","","null","79","","","","","","","","","","","","","","","NaN",""
"","S1","","html-keyboard-response","520","448097","0.0-1.0-722.0","0","0","98207","","null","","","null","80","","","","","","","","","","","","","","","",""
"","ISI","","html-keyboard-response","521","449100","0.0-1.0-723.0","0","0","98207","","null","","","null","80","NaN","","","","","","","","","","","","","","",""
"","S2","","html-keyboard-response","522","449269","0.0-1.0-724.0","0","0","98207","","168","","","75","80","","k","2","80","training","adjacent","FE","6","5","P.jpg","L.jpg","1","0","0","",""
"","feedback","","html-keyboard-response","523","450272","0.0-1.0-726.0-0.0","0","0","98207","","null","","","null","80","","","","","","","","","","","","","","","",""
"","time_out","","html-keyboard-response","524","452276","0.0-1.0-728.0-0.0","0","0","98207","","null","","","null","80","","","","","","","","","","","","","","","",""
"","ITI","","html-keyboard-response","525","453279","0.0-1.0-729.0","0","0","98207","","null","","","null","80","","","","","","","","","","","","","","","NaN",""
"","S1","","html-keyboard-response","526","453531","0.0-1.0-731.0","0","0","98207","","null","","","null","81","","","","","","","","","","","","","","","",""
"","ISI","","html-keyboard-response","527","454534","0.0-1.0-732.0","0","0","98207","","null","","","null","81","NaN","","","","","","","","","","","","","","",""
"","S2","","html-keyboard-response","528","454786","0.0-1.0-733.0","0","0","98207","","null","","","null","81","","NaN","","","","","","","","","","","","","",""
"","response","","html-keyboard-response","529","455006","0.0-1.0-734.0-0.0","0","0","98207","","218","","","75","81","","","2","81","training","adjacent","FG","6","7","P.jpg","O.jpg","1","1","1","",""
"","feedback","","html-keyboard-response","530","456010","0.0-1.0-735.0-0.0","0","0","98207","","null","","","null","81","","","","","","","","","","","","","","","",""
"","ITI","","html-keyboard-response","531","457013","0.0-1.0-738.0","0","0","98207","","null","","","null","81","","","","","","","","","","","","","","","NaN",""
"","S1","","html-keyboard-response","532","457265","0.0-1.0-740.0","0","0","98207","","null","","","null","82","","","","","","","","","","","","","","","",""
"","ISI","","html-keyboard-response","533","458267","0.0-1.0-741.0","0","0","98207","","null","","","null","82","NaN","","","","","","","","","","","","","","",""
"","S2","","html-keyboard-response","534","458520","0.0-1.0-742.0","0","0","98207","","null","","","null","82","","NaN","","","","","","","","","","","","","",""
"","response","","html-keyboard-response","535","458889","0.0-1.0-743.0-0.0","0","0","98207","","368","","","68","82","","","2","82","training","adjacent","BC","2","3","R.jpg","M.jpg","0","1","0","",""
"","feedback","","html-keyboard-response","536","459892","0.0-1.0-744.0-0.0","0","0","98207","","null","","","null","82","","","","","","","","","","","","","","","",""
"","time_out","","html-keyboard-response","537","461894","0.0-1.0-746.0-0.0","0","0","98207","","null","","","null","82","","","","","","","","","","","","","","","",""
"","ITI","","html-keyboard-response","538","462897","0.0-1.0-747.0","0","0","98207","","null","","","null","82","","","","","","","","","","","","","","","NaN",""
"","S1","","html-keyboard-response","539","463149","0.0-1.0-749.0","0","0","98207","","null","","","null","83","","","","","","","","","","","","","","","",""
"","ISI","","html-keyboard-response","540","464152","0.0-1.0-750.0","0","0","98207","","null","","","null","83","NaN","","","","","","","","","","","","","","",""
"","S2","","html-keyboard-response","541","464404","0.0-1.0-751.0","0","0","98207","","null","","","null","83","","NaN","","","","","","","","","","","","","",""
"","response","","html-keyboard-response","542","464869","0.0-1.0-752.0-0.0","0","0","98207","","464","","","68","83","","","2","83","training","adjacent","DC","4","3","Q.jpg","M.jpg","0","0","1","",""
"","feedback","","html-keyboard-response","543","465872","0.0-1.0-753.0-0.0","0","0","98207","","null","","","null","83","","","","","","","","","","","","","","","",""
"","ITI","","html-keyboard-response","544","466875","0.0-1.0-756.0","0","0","98207","","null","","","null","83","","","","","","","","","","","","","","","NaN",""
"","S1","","html-keyboard-response","545","467127","0.0-1.0-758.0","0","0","98207","","null","","","null","84","","","","","","","","","","","","","","","",""
"","ISI","","html-keyboard-response","546","468130","0.0-1.0-759.0","0","0","98207","","null","","","null","84","NaN","","","","","","","","","","","","","","",""
"","S2","","html-keyboard-response","547","468383","0.0-1.0-760.0","0","0","98207","","null","","","null","84","","NaN","","","","","","","","","","","","","",""
"","response","","html-keyboard-response","548","468856","0.0-1.0-761.0-0.0","0","0","98207","","472","","","75","84","","","2","84","training","adjacent","ED","5","4","L.jpg","Q.jpg","1","0","0","",""
"","feedback","","html-keyboard-response","549","469859","0.0-1.0-762.0-0.0","0","0","98207","","null","","","null","84","","","","","","","","","","","","","","","",""
"","time_out","","html-keyboard-response","550","471861","0.0-1.0-764.0-0.0","0","0","98207","","null","","","null","84","","","","","","","","","","","","","","","",""
"","ITI","","html-keyboard-response","551","472864","0.0-1.0-765.0","0","0","98207","","null","","","null","84","","","","","","","","","","","","","","","NaN",""
"","S1","","html-keyboard-response","552","473116","0.0-1.0-767.0","0","0","98207","","null","","","null","85","","","","","","","","","","","","","","","",""
"","ISI","","html-keyboard-response","553","474118","0.0-1.0-768.0","0","0","98207","","null","","","null","85","NaN","","","","","","","","","","","","","","",""
"","S2","","html-keyboard-response","554","474370","0.0-1.0-769.0","0","0","98207","","null","","","null","85","","NaN","","","","","","","","","","","","","",""
"","response","","html-keyboard-response","555","474763","0.0-1.0-770.0-0.0","0","0","98207","","391","","","75","85","","","2","85","training","adjacent","GF","7","6","O.jpg","P.jpg","1","0","0","",""
"","feedback","","html-keyboard-response","556","475766","0.0-1.0-771.0-0.0","0","0","98207","","null","","","null","85","","","","","","","","","","","","","","","",""
"","time_out","","html-keyboard-response","557","477767","0.0-1.0-773.0-0.0","0","0","98207","","null","","","null","85","","","","","","","","","","","","","","","",""
"","ITI","","html-keyboard-response","558","478769","0.0-1.0-774.0","0","0","98207","","null","","","null","85","","","","","","","","","","","","","","","NaN",""
"","S1","","html-keyboard-response","559","479022","0.0-1.0-776.0","0","0","98207","","null","","","null","86","","","","","","","","","","","","","","","",""
"","ISI","","html-keyboard-response","560","480024","0.0-1.0-777.0","0","0","98207","","null","","","null","86","NaN","","","","","","","","","","","","","","",""
"","S2","","html-keyboard-response","561","480276","0.0-1.0-778.0","0","0","98207","","null","","","null","86","","NaN","","","","","","","","","","","","","",""
"","response","","html-keyboard-response","562","480578","0.0-1.0-779.0-0.0","0","0","98207","","300","","","68","86","","","2","86","training","adjacent","BA","2","1","R.jpg","N.jpg","0","0","1","",""
"","feedback","","html-keyboard-response","563","481595","0.0-1.0-780.0-0.0","0","0","98207","","null","","","null","86","","","","","","","","","","","","","","","",""
"","ITI","","html-keyboard-response","564","482598","0.0-1.0-783.0","0","0","98207","","null","","","null","86","","","","","","","","","","","","","","","NaN",""
"","S1","","html-keyboard-response","565","482850","0.0-1.0-785.0","0","0","98207","","null","","","null","87","","","","","","","","","","","","","","","",""
"","ISI","","html-keyboard-response","566","483853","0.0-1.0-786.0","0","0","98207","","null","","","null","87","NaN","","","","","","","","","","","","","","",""
"","S2","","html-keyboard-response","567","484105","0.0-1.0-787.0","0","0","98207","","null","","","null","87","","NaN","","","","","","","","","","","","","",""
"","response","","html-keyboard-response","568","484431","0.0-1.0-788.0-0.0","0","0","98207","","324","","","68","87","","","2","87","training","adjacent","CD","3","4","M.jpg","Q.jpg","0","1","0","",""
"","feedback","","html-keyboard-response","569","485435","0.0-1.0-789.0-0.0","0","0","98207","","null","","","null","87","","","","","","","","","","","","","","","",""
"","time_out","","html-keyboard-response","570","487437","0.0-1.0-791.0-0.0","0","0","98207","","null","","","null","87","","","","","","","","","","","","","","","",""
"","ITI","","html-keyboard-response","571","488439","0.0-1.0-792.0","0","0","98207","","null","","","null","87","","","","","","","","","","","","","","","NaN",""
"","S1","","html-keyboard-response","572","488693","0.0-1.0-794.0","0","0","98207","","null","","","null","88","","","","","","","","","","","","","","","",""
"","ISI","","html-keyboard-response","573","489696","0.0-1.0-795.0","0","0","98207","","null","","","null","88","NaN","","","","","","","","","","","","","","",""
"","S2","","html-keyboard-response","574","489948","0.0-1.0-796.0","0","0","98207","","null","","","null","88","","NaN","","","","","","","","","","","","","",""
"","response","","html-keyboard-response","575","490299","0.0-1.0-797.0-0.0","0","0","98207","","349","","","75","88","","","2","88","training","adjacent","DC","4","3","Q.jpg","M.jpg","1","0","0","",""
"","feedback","","html-keyboard-response","576","491302","0.0-1.0-798.0-0.0","0","0","98207","","null","","","null","88","","","","","","","","","","","","","","","",""
"","time_out","","html-keyboard-response","577","493305","0.0-1.0-800.0-0.0","0","0","98207","","null","","","null","88","","","","","","","","","","","","","","","",""
"","ITI","","html-keyboard-response","578","494308","0.0-1.0-801.0","0","0","98207","","null","","","null","88","","","","","","","","","","","","","","","NaN",""
"","S1","","html-keyboard-response","579","494560","0.0-1.0-803.0","0","0","98207","","null","","","null","89","","","","","","","","","","","","","","","",""
"","ISI","","html-keyboard-response","580","495562","0.0-1.0-804.0","0","0","98207","","null","","","null","89","NaN","","","","","","","","","","","","","","",""
"","S2","","html-keyboard-response","581","495814","0.0-1.0-805.0","0","0","98207","","null","","","null","89","","NaN","","","","","","","","","","","","","",""
"","response","","html-keyboard-response","582","496028","0.0-1.0-806.0-0.0","0","0","98207","","213","","","68","89","","","2","89","training","adjacent","BC","2","3","R.jpg","M.jpg","0","1","0","",""
"","feedback","","html-keyboard-response","583","497043","0.0-1.0-807.0-0.0","0","0","98207","","null","","","null","89","","","","","","","","","","","","","","","",""
