"success","ttype","start_time","trial_type","trial_index","time_elapsed","internal_node_id","warning","missed_checkup","PID","view_history","rt","responses","repeat_instructions","key_press","index","keypress_isi","keypress_S2","block","trial_num","phase","group_type","pair_type","S1_stim","S2_stim","S1_img","S2_img","S1_chosen","S1_higher","accuracy","keypress_iti","total_bonus_tally"
"true","full_screen","d04142023hr1243","fullscreen","0","4252","0.0-0.0","0","0","96009","","","","","","","","","","","","","","","","","","","","","",""
"","instructions","","instructions","1","113889","0.0-1.0-0.0-0.0","0","0","96009","[{""page_index"":0,""viewing_time"":3307},{""page_index"":1,""viewing_time"":3603},{""page_index"":2,""viewing_time"":101215},{""page_index"":3,""viewing_time"":1500}]","109625","","","","","","","","","","","","","","","","","","","",""
"","comprehension_check","","survey-multi-choice","2","141381","0.0-1.0-0.0-1.0","0","0","96009","","27475","{""Q0"":""True"",""Q1"":""D"",""Q2"":""Once the second image appears and while the screen 'MAKE A CHOICE' is shown"",""Q3"":""Green mark"",""Q4"":""either D or K""}","1","","","","","","","","","","","","","","","","","",""
"","missed_instruction_checkup","","html-keyboard-response","3","143674","0.0-1.0-0.0-2.0-0.0","0","1","96009","","2285","","","32","","","","","","","","","","","","","","","","",""
"","instructions","","instructions","4","168461","0.0-1.0-0.1-0.1","0","0","96009","[{""page_index"":0,""viewing_time"":3834},{""page_index"":1,""viewing_time"":15478},{""page_index"":2,""viewing_time"":4592},{""page_index"":3,""viewing_time"":878}]","24782","","","","","","","","","","","","","","","","","","","",""
"","comprehension_check","","survey-multi-choice","5","178947","0.0-1.0-0.1-1.1","0","0","96009","","10475","{""Q0"":""True"",""Q1"":""K"",""Q2"":""Once the second image appears and while the screen 'MAKE A CHOICE' is shown"",""Q3"":""Green mark"",""Q4"":""either D or K""}","0","","","","","","","","","","","","","","","","","",""
"","start_exp","","html-keyboard-response","6","180323","0.0-1.0-1.0","0","0","96009","","1368","","","32","","","","","","","","","","","","","","","","",""
"","S1","","html-keyboard-response","7","180586","0.0-1.0-2.0","0","0","96009","","null","","","null","0","","","","","","","","","","","","","","","",""
"","ISI","","html-keyboard-response","8","181592","0.0-1.0-3.0","0","0","96009","","null","","","null","0","NaN","","","","","","","","","","","","","","",""
"","S2","","html-keyboard-response","9","181858","0.0-1.0-4.0","0","0","96009","","null","","","null","0","","NaN","","","","","","","","","","","","","",""
"","response","","html-keyboard-response","10","182762","0.0-1.0-5.0-0.0","0","0","96009","","898","","","68","0","","","1","0","training","adjacent","CD","3","4","R.jpg","M.jpg","0","1","0","",""
"","feedback","","html-keyboard-response","11","183772","0.0-1.0-6.0-0.0","0","0","96009","","null","","","null","0","","","","","","","","","","","","","","","",""
"","time_out","","html-keyboard-response","12","185785","0.0-1.0-8.0-0.0","0","0","96009","","null","","","null","0","","","","","","","","","","","","","","","",""
"","ITI","","html-keyboard-response","13","186795","0.0-1.0-9.0","0","0","96009","","null","","","null","0","","","","","","","","","","","","","","","NaN",""
"","S1","","html-keyboard-response","14","187059","0.0-1.0-11.0","0","0","96009","","null","","","null","1","","","","","","","","","","","","","","","",""
"","ISI","","html-keyboard-response","15","188073","0.0-1.0-12.0","0","0","96009","","null","","","null","1","NaN","","","","","","","","","","","","","","",""
"","S2","","html-keyboard-response","16","188339","0.0-1.0-13.0","0","0","96009","","null","","","null","1","","NaN","","","","","","","","","","","","","",""
"","response","","html-keyboard-response","17","190106","0.0-1.0-14.0-0.0","0","0","96009","","null","","","null","1","","","1","1","training","adjacent","GF","7","6","N.jpg","Q.jpg","NaN","0","0","",""
"","too_slow_prompt","","html-keyboard-response","18","191117","0.0-1.0-16.0-0.0","1","0","96009","","null","","","null","","","","","","","","","","","","","","","","",""
"","time_out","","html-keyboard-response","19","193132","0.0-1.0-17.0-0.0","0","0","96009","","null","","","null","1","","","","","","","","","","","","","","","",""
"","ITI","","html-keyboard-response","20","194144","0.0-1.0-18.0","0","0","96009","","null","","","null","1","","","","","","","","","","","","","","","NaN",""
"","S1","","html-keyboard-response","21","194409","0.0-1.0-20.0","0","0","96009","","null","","","null","2","","","","","","","","","","","","","","","",""
"","ISI","","html-keyboard-response","22","195425","0.0-1.0-21.0","0","0","96009","","null","","","null","2","NaN","","","","","","","","","","","","","","",""
"","S2","","html-keyboard-response","23","195693","0.0-1.0-22.0","0","0","96009","","null","","","null","2","","NaN","","","","","","","","","","","","","",""
"","response","","html-keyboard-response","24","196265","0.0-1.0-23.0-0.0","0","0","96009","","567","","","68","2","","","1","2","training","adjacent","DC","4","3","M.jpg","R.jpg","0","0","1","",""
"","feedback","","html-keyboard-response","25","197280","0.0-1.0-24.0-0.0","0","0","96009","","null","","","null","2","","","","","","","","","","","","","","","",""
"","ITI","","html-keyboard-response","26","198299","0.0-1.0-27.0","0","0","96009","","null","","","null","2","","","","","","","","","","","","","","","NaN",""
"","S1","","html-keyboard-response","27","198563","0.0-1.0-29.0","0","0","96009","","null","","","null","3","","","","","","","","","","","","","","","",""
"","ISI","","html-keyboard-response","28","199580","0.0-1.0-30.0","0","0","96009","","null","","","null","3","NaN","","","","","","","","","","","","","","",""
"","S2","","html-keyboard-response","29","199846","0.0-1.0-31.0","0","0","96009","","null","","","null","3","","NaN","","","","","","","","","","","","","",""
"","response","","html-keyboard-response","30","200529","0.0-1.0-32.0-0.0","0","0","96009","","679","","","75","3","","","1","3","training","adjacent","AB","1","2","L.jpg","O.jpg","1","1","1","",""
"","feedback","","html-keyboard-response","31","201538","0.0-1.0-33.0-0.0","0","0","96009","","null","","","null","3","","","","","","","","","","","","","","","",""
"","ITI","","html-keyboard-response","32","202549","0.0-1.0-36.0","0","0","96009","","null","","","null","3","","","","","","","","","","","","","","","NaN",""
"","S1","","html-keyboard-response","33","202816","0.0-1.0-38.0","0","0","96009","","null","","","null","4","","","","","","","","","","","","","","","",""
"","ISI","","html-keyboard-response","34","203833","0.0-1.0-39.0","0","0","96009","","null","","","null","4","NaN","","","","","","","","","","","","","","",""
"","S2","","html-keyboard-response","35","204099","0.0-1.0-40.0","0","0","96009","","null","","","null","4","","NaN","","","","","","","","","","","","","",""
"","response","","html-keyboard-response","36","204596","0.0-1.0-41.0-0.0","0","0","96009","","493","","","75","4","","","1","4","training","adjacent","GF","7","6","N.jpg","Q.jpg","1","0","0","",""
"","feedback","","html-keyboard-response","37","205618","0.0-1.0-42.0-0.0","0","0","96009","","null","","","null","4","","","","","","","","","","","","","","","",""
"","time_out","","html-keyboard-response","38","207627","0.0-1.0-44.0-0.0","0","0","96009","","null","","","null","4","","","","","","","","","","","","","","","",""
"","ITI","","html-keyboard-response","39","208642","0.0-1.0-45.0","0","0","96009","","null","","","null","4","","","","","","","","","","","","","","","NaN",""
"","S1","","html-keyboard-response","40","208912","0.0-1.0-47.0","0","0","96009","","null","","","null","5","","","","","","","","","","","","","","","",""
"","ISI","","html-keyboard-response","41","209921","0.0-1.0-48.0","0","0","96009","","null","","","null","5","NaN","","","","","","","","","","","","","","",""
"","S2","","html-keyboard-response","42","210189","0.0-1.0-49.0","0","0","96009","","null","","","null","5","","NaN","","","","","","","","","","","","","",""
"","response","","html-keyboard-response","43","210676","0.0-1.0-50.0-0.0","0","0","96009","","483","","","75","5","","","1","5","training","adjacent","CB","3","2","R.jpg","O.jpg","1","0","0","",""
"","feedback","","html-keyboard-response","44","211697","0.0-1.0-51.0-0.0","0","0","96009","","null","","","null","5","","","","","","","","","","","","","","","",""
"","time_out","","html-keyboard-response","45","213714","0.0-1.0-53.0-0.0","0","0","96009","","null","","","null","5","","","","","","","","","","","","","","","",""
"","ITI","","html-keyboard-response","46","214721","0.0-1.0-54.0","0","0","96009","","null","","","null","5","","","","","","","","","","","","","","","NaN",""
"","S1","","html-keyboard-response","47","214986","0.0-1.0-56.0","0","0","96009","","null","","","null","6","","","","","","","","","","","","","","","",""
"","ISI","","html-keyboard-response","48","216003","0.0-1.0-57.0","0","0","96009","","null","","","null","6","NaN","","","","","","","","","","","","","","",""
"","S2","","html-keyboard-response","49","216268","0.0-1.0-58.0","0","0","96009","","null","","","null","6","","NaN","","","","","","","","","","","","","",""
"","response","","html-keyboard-response","50","216693","0.0-1.0-59.0-0.0","0","0","96009","","419","","","68","6","","","1","6","training","adjacent","DE","4","5","M.jpg","P.jpg","0","1","0","",""
"","feedback","","html-keyboard-response","51","217706","0.0-1.0-60.0-0.0","0","0","96009","","null","","","null","6","","","","","","","","","","","","","","","",""
"","time_out","","html-keyboard-response","52","219712","0.0-1.0-62.0-0.0","0","0","96009","","null","","","null","6","","","","","","","","","","","","","","","",""
"","ITI","","html-keyboard-response","53","220719","0.0-1.0-63.0","0","0","96009","","null","","","null","6","","","","","","","","","","","","","","","NaN",""
"","S1","","html-keyboard-response","54","220983","0.0-1.0-65.0","0","0","96009","","null","","","null","7","","","","","","","","","","","","","","","",""
"","ISI","","html-keyboard-response","55","221992","0.0-1.0-66.0","0","0","96009","","null","","","null","7","NaN","","","","","","","","","","","","","","",""
"","S2","","html-keyboard-response","56","222256","0.0-1.0-67.0","0","0","96009","","null","","","null","7","","NaN","","","","","","","","","","","","","",""
"","response","","html-keyboard-response","57","222665","0.0-1.0-68.0-0.0","0","0","96009","","402","","","75","7","","","1","7","training","adjacent","DE","4","5","M.jpg","P.jpg","1","1","1","",""
"","feedback","","html-keyboard-response","58","223684","0.0-1.0-69.0-0.0","0","0","96009","","null","","","null","7","","","","","","","","","","","","","","","",""
"","ITI","","html-keyboard-response","59","224691","0.0-1.0-72.0","0","0","96009","","null","","","null","7","","","","","","","","","","","","","","","NaN",""
"","S1","","html-keyboard-response","60","224956","0.0-1.0-74.0","0","0","96009","","null","","","null","8","","","","","","","","","","","","","","","",""
"","ISI","","html-keyboard-response","61","225972","0.0-1.0-75.0","0","0","96009","","null","","","null","8","NaN","","","","","","","","","","","","","","",""
"","S2","","html-keyboard-response","62","226243","0.0-1.0-76.0","0","0","96009","","null","","","null","8","","NaN","","","","","","","","","","","","","",""
"","response","","html-keyboard-response","63","226714","0.0-1.0-77.0-0.0","0","0","96009","","465","","","68","8","","","1","8","training","adjacent","EF","5","6","P.jpg","Q.jpg","0","1","0","",""
"","feedback","","html-keyboard-response","64","227729","0.0-1.0-78.0-0.0","0","0","96009","","null","","","null","8","","","","","","","","","","","","","","","",""
"","time_out","","html-keyboard-response","65","229738","0.0-1.0-80.0-0.0","0","0","96009","","null","","","null","8","","","","","","","","","","","","","","","",""
"","ITI","","html-keyboard-response","66","230752","0.0-1.0-81.0","0","0","96009","","null","","","null","8","","","","","","","","","","","","","","","NaN",""
"","S1","","html-keyboard-response","67","231015","0.0-1.0-83.0","0","0","96009","","null","","","null","9","","","","","","","","","","","","","","","",""
"","ISI","","html-keyboard-response","68","232025","0.0-1.0-84.0","0","0","96009","","null","","","null","9","NaN","","","","","","","","","","","","","","",""
"","S2","","html-keyboard-response","69","232289","0.0-1.0-85.0","0","0","96009","","null","","","null","9","","NaN","","","","","","","","","","","","","",""
"","response","","html-keyboard-response","70","232750","0.0-1.0-86.0-0.0","0","0","96009","","454","","","75","9","","","1","9","training","adjacent","FG","6","7","Q.jpg","N.jpg","1","1","1","",""
"","feedback","","html-keyboard-response","71","233756","0.0-1.0-87.0-0.0","0","0","96009","","null","","","null","9","","","","","","","","","","","","","","","",""
"","ITI","","html-keyboard-response","72","234773","0.0-1.0-90.0","0","0","96009","","null","","","null","9","","","","","","","","","","","","","","","NaN",""
"","S1","","html-keyboard-response","73","235035","0.0-1.0-92.0","0","0","96009","","null","","","null","10","","","","","","","","","","","","","","","",""
"","ISI","","html-keyboard-response","74","236049","0.0-1.0-93.0","0","0","96009","","null","","","null","10","NaN","","","","","","","","","","","","","","",""
"","S2","","html-keyboard-response","75","236321","0.0-1.0-94.0","0","0","96009","","null","","","null","10","","NaN","","","","","","","","","","","","","",""
"","response","","html-keyboard-response","76","236894","0.0-1.0-95.0-0.0","0","0","96009","","566","","","75","10","","","1","10","training","adjacent","CB","3","2","R.jpg","O.jpg","1","0","0","",""
"","feedback","","html-keyboard-response","77","237910","0.0-1.0-96.0-0.0","0","0","96009","","null","","","null","10","","","","","","","","","","","","","","","",""
"","time_out","","html-keyboard-response","78","239918","0.0-1.0-98.0-0.0","0","0","96009","","null","","","null","10","","","","","","","","","","","","","","","",""
"","ITI","","html-keyboard-response","79","240929","0.0-1.0-99.0","0","0","96009","","null","","","null","10","","","","","","","","","","","","","","","NaN",""
"","S1","","html-keyboard-response","80","241194","0.0-1.0-101.0","0","0","96009","","null","","","null","11","","","","","","","","","","","","","","","",""
"","ISI","","html-keyboard-response","81","242207","0.0-1.0-102.0","0","0","96009","","null","","","null","11","NaN","","","","","","","","","","","","","","",""
"","S2","","html-keyboard-response","82","242470","0.0-1.0-103.0","0","0","96009","","null","","","null","11","","NaN","","","","","","","","","","","","","",""
"","response","","html-keyboard-response","83","242920","0.0-1.0-104.0-0.0","0","0","96009","","444","","","68","11","","","1","11","training","adjacent","BC","2","3","O.jpg","R.jpg","0","1","0","",""
"","feedback","","html-keyboard-response","84","243939","0.0-1.0-105.0-0.0","0","0","96009","","null","","","null","11","","","","","","","","","","","","","","","",""
"","time_out","","html-keyboard-response","85","245950","0.0-1.0-107.0-0.0","0","0","96009","","null","","","null","11","","","","","","","","","","","","","","","",""
"","ITI","","html-keyboard-response","86","246963","0.0-1.0-108.0","0","0","96009","","null","","","null","11","","","","","","","","","","","","","","","NaN",""
"","S1","","html-keyboard-response","87","247231","0.0-1.0-110.0","0","0","96009","","null","","","null","12","","","","","","","","","","","","","","","",""
"","ISI","","html-keyboard-response","88","248242","0.0-1.0-111.0","0","0","96009","","null","","","null","12","NaN","","","","","","","","","","","","","","",""
"","S2","","html-keyboard-response","89","248508","0.0-1.0-112.0","0","0","96009","","null","","","null","12","","NaN","","","","","","","","","","","","","",""
"","response","","html-keyboard-response","90","248811","0.0-1.0-113.0-0.0","0","0","96009","","297","","","75","12","","","1","12","training","adjacent","ED","5","4","P.jpg","M.jpg","1","0","0","",""
"","feedback","","html-keyboard-response","91","249816","0.0-1.0-114.0-0.0","0","0","96009","","null","","","null","12","","","","","","","","","","","","","","","",""
"","time_out","","html-keyboard-response","92","251827","0.0-1.0-116.0-0.0","0","0","96009","","null","","","null","12","","","","","","","","","","","","","","","",""
"","ITI","","html-keyboard-response","93","252849","0.0-1.0-117.0","0","0","96009","","null","","","null","12","","","","","","","","","","","","","","","NaN",""
"","S1","","html-keyboard-response","94","253112","0.0-1.0-119.0","0","0","96009","","null","","","null","13","","","","","","","","","","","","","","","",""
"","ISI","","html-keyboard-response","95","254130","0.0-1.0-120.0","0","0","96009","","null","","","null","13","NaN","","","","","","","","","","","","","","",""
"","S2","","html-keyboard-response","96","254396","0.0-1.0-121.0","0","0","96009","","null","","","null","13","","NaN","","","","","","","","","","","","","",""
"","response","","html-keyboard-response","97","254430","0.0-1.0-122.0-0.0","0","0","96009","","30","","","68","13","","","1","13","training","adjacent","ED","5","4","P.jpg","M.jpg","0","0","1","",""
"","feedback","","html-keyboard-response","98","255441","0.0-1.0-123.0-0.0","0","0","96009","","null","","","null","13","","","","","","","","","","","","","","","",""
"","ITI","","html-keyboard-response","99","256461","0.0-1.0-126.0","0","0","96009","","null","","","null","13","","","","","","","","","","","","","","","NaN",""
"","S1","","html-keyboard-response","100","256724","0.0-1.0-128.0","0","0","96009","","null","","","null","14","","","","","","","","","","","","","","","",""
"","ISI","","html-keyboard-response","101","257746","0.0-1.0-129.0","0","0","96009","","null","","","null","14","NaN","","","","","","","","","","","","","","",""
"","S2","","html-keyboard-response","102","258013","0.0-1.0-130.0","0","0","96009","","null","","","null","14","","NaN","","","","","","","","","","","","","",""
"","response","","html-keyboard-response","103","258388","0.0-1.0-131.0-0.0","0","0","96009","","371","","","68","14","","","1","14","training","adjacent","AB","1","2","L.jpg","O.jpg","0","1","0","",""
"","feedback","","html-keyboard-response","104","259399","0.0-1.0-132.0-0.0","0","0","96009","","null","","","null","14","","","","","","","","","","","","","","","",""
"","time_out","","html-keyboard-response","105","261414","0.0-1.0-134.0-0.0","0","0","96009","","null","","","null","14","","","","","","","","","","","","","","","",""
"","ITI","","html-keyboard-response","106","262432","0.0-1.0-135.0","0","0","96009","","null","","","null","14","","","","","","","","","","","","","","","NaN",""
"","S1","","html-keyboard-response","107","262703","0.0-1.0-137.0","0","0","96009","","null","","","null","15","","","","","","","","","","","","","","","",""
"","ISI","","html-keyboard-response","108","263719","0.0-1.0-138.0","0","0","96009","","null","","","null","15","NaN","","","","","","","","","","","","","","",""
"","S2","","html-keyboard-response","109","263986","0.0-1.0-139.0","0","0","96009","","null","","","null","15","","NaN","","","","","","","","","","","","","",""
"","response","","html-keyboard-response","110","264202","0.0-1.0-140.0-0.0","0","0","96009","","208","","","75","15","","","1","15","training","adjacent","BC","2","3","O.jpg","R.jpg","1","1","1","",""
"","feedback","","html-keyboard-response","111","265210","0.0-1.0-141.0-0.0","0","0","96009","","null","","","null","15","","","","","","","","","","","","","","","",""
"","ITI","","html-keyboard-response","112","266226","0.0-1.0-144.0","0","0","96009","","null","","","null","15","","","","","","","","","","","","","","","NaN",""
"","S1","","html-keyboard-response","113","266494","0.0-1.0-146.0","0","0","96009","","null","","","null","16","","","","","","","","","","","","","","","",""
"","ISI","","html-keyboard-response","114","267503","0.0-1.0-147.0","0","0","96009","","null","","","null","16","NaN","","","","","","","","","","","","","","",""
"","S2","","html-keyboard-response","115","267768","0.0-1.0-148.0","0","0","96009","","null","","","null","16","","NaN","","","","","","","","","","","","","",""
"","response","","html-keyboard-response","116","267888","0.0-1.0-149.0-0.0","0","0","96009","","115","","","75","16","","","1","16","training","adjacent","EF","5","6","P.jpg","Q.jpg","1","1","1","",""
"","feedback","","html-keyboard-response","117","268898","0.0-1.0-150.0-0.0","0","0","96009","","null","","","null","16","","","","","","","","","","","","","","","",""
"","ITI","","html-keyboard-response","118","269905","0.0-1.0-153.0","0","0","96009","","null","","","null","16","","","","","","","","","","","","","","","NaN",""
"","S1","","html-keyboard-response","119","270172","0.0-1.0-155.0","0","0","96009","","null","","","null","17","","","","","","","","","","","","","","","",""
"","ISI","","html-keyboard-response","120","271186","0.0-1.0-156.0","0","0","96009","","null","","","null","17","NaN","","","","","","","","","","","","","","",""
"","S2","","html-keyboard-response","121","271458","0.0-1.0-157.0","0","0","96009","","null","","","null","17","","NaN","","","","","","","","","","","","","",""
"","response","","html-keyboard-response","122","271732","0.0-1.0-158.0-0.0","0","0","96009","","269","","","75","17","","","1","17","training","adjacent","FE","6","5","Q.jpg","P.jpg","1","0","0","",""
"","feedback","","html-keyboard-response","123","272739","0.0-1.0-159.0-0.0","0","0","96009","","null","","","null","17","","","","","","","","","","","","","","","",""
"","time_out","","html-keyboard-response","124","274754","0.0-1.0-161.0-0.0","0","0","96009","","null","","","null","17","","","","","","","","","","","","","","","",""
"","ITI","","html-keyboard-response","125","275761","0.0-1.0-162.0","0","0","96009","","null","","","null","17","","","","","","","","","","","","","","","NaN",""
"","S1","","html-keyboard-response","126","276026","0.0-1.0-164.0","0","0","96009","","null","","","null","18","","","","","","","","","","","","","","","",""
"","ISI","","html-keyboard-response","127","277046","0.0-1.0-165.0","0","0","96009","","null","","","null","18","NaN","","","","","","","","","","","","","","",""
"","S2","","html-keyboard-response","128","277313","0.0-1.0-166.0","0","0","96009","","null","","","null","18","","NaN","","","","","","","","","","","","","",""
"","response","","html-keyboard-response","129","277456","0.0-1.0-167.0-0.0","0","0","96009","","136","","","68","18","","","1","18","training","adjacent","FG","6","7","Q.jpg","N.jpg","0","1","0","",""
"","feedback","","html-keyboard-response","130","278465","0.0-1.0-168.0-0.0","0","0","96009","","null","","","null","18","","","","","","","","","","","","","","","",""
"","time_out","","html-keyboard-response","131","280476","0.0-1.0-170.0-0.0","0","0","96009","","null","","","null","18","","","","","","","","","","","","","","","",""
"","ITI","","html-keyboard-response","132","281491","0.0-1.0-171.0","0","0","96009","","null","","","null","18","","","","","","","","","","","","","","","NaN",""
"","S1","","html-keyboard-response","133","281757","0.0-1.0-173.0","0","0","96009","","null","","","null","19","","","","","","","","","","","","","","","",""
"","ISI","","html-keyboard-response","134","282777","0.0-1.0-174.0","0","0","96009","","null","","","null","19","NaN","","","","","","","","","","","","","","",""
"","S2","","html-keyboard-response","135","283042","0.0-1.0-175.0","0","0","96009","","null","","","null","19","","NaN","","","","","","","","","","","","","",""
"","response","","html-keyboard-response","136","283085","0.0-1.0-176.0-0.0","0","0","96009","","38","","","75","19","","","1","19","training","adjacent","ED","5","4","P.jpg","M.jpg","1","0","0","",""
"","feedback","","html-keyboard-response","137","284098","0.0-1.0-177.0-0.0","0","0","96009","","null","","","null","19","","","","","","","","","","","","","","","",""
"","time_out","","html-keyboard-response","138","286119","0.0-1.0-179.0-0.0","0","0","96009","","null","","","null","19","","","","","","","","","","","","","","","",""
"","ITI","","html-keyboard-response","139","287137","0.0-1.0-180.0","0","0","96009","","null","","","null","19","","","","","","","","","","","","","","","NaN",""
"","S1","","html-keyboard-response","140","287393","0.0-1.0-182.0","0","0","96009","","null","","","null","20","","","","","","","","","","","","","","","",""
"","ISI","","html-keyboard-response","141","288412","0.0-1.0-183.0","0","0","96009","","null","","","null","20","NaN","","","","","","","","","","","","","","",""
"","S2","","html-keyboard-response","142","288676","0.0-1.0-184.0","0","0","96009","","null","","","null","20","","NaN","","","","","","","","","","","","","",""
"","response","","html-keyboard-response","143","289135","0.0-1.0-185.0-0.0","0","0","96009","","453","","","68","20","","","1","20","training","adjacent","FE","6","5","Q.jpg","P.jpg","0","0","1","",""
"","feedback","","html-keyboard-response","144","290145","0.0-1.0-186.0-0.0","0","0","96009","","null","","","null","20","","","","","","","","","","","","","","","",""
"","ITI","","html-keyboard-response","145","291152","0.0-1.0-189.0","0","0","96009","","null","","","null","20","","","","","","","","","","","","","","","NaN",""
"","S1","","html-keyboard-response","146","291425","0.0-1.0-191.0","0","0","96009","","null","","","null","21","","","","","","","","","","","","","","","",""
"","ISI","","html-keyboard-response","147","292443","0.0-1.0-192.0","0","0","96009","","null","","","null","21","NaN","","","","","","","","","","","","","","",""
"","S2","","html-keyboard-response","148","292709","0.0-1.0-193.0","0","0","96009","","null","","","null","21","","NaN","","","","","","","","","","","","","",""
"","response","","html-keyboard-response","149","293423","0.0-1.0-194.0-0.0","0","0","96009","","707","","","75","21","","","1","21","training","adjacent","GF","7","6","N.jpg","Q.jpg","1","0","0","",""
"","feedback","","html-keyboard-response","150","294432","0.0-1.0-195.0-0.0","0","0","96009","","null","","","null","21","","","","","","","","","","","","","","","",""
"","time_out","","html-keyboard-response","151","296440","0.0-1.0-197.0-0.0","0","0","96009","","null","","","null","21","","","","","","","","","","","","","","","",""
"","ITI","","html-keyboard-response","152","297461","0.0-1.0-198.0","0","0","96009","","null","","","null","21","","","","","","","","","","","","","","","NaN",""
"","S1","","html-keyboard-response","153","297728","0.0-1.0-200.0","0","0","96009","","null","","","null","22","","","","","","","","","","","","","","","",""
"","ISI","","html-keyboard-response","154","298735","0.0-1.0-201.0","0","0","96009","","null","","","null","22","NaN","","","","","","","","","","","","","","",""
"","S2","","html-keyboard-response","155","299003","0.0-1.0-202.0","0","0","96009","","null","","","null","22","","NaN","","","","","","","","","","","","","",""
"","response","","html-keyboard-response","156","299330","0.0-1.0-203.0-0.0","0","0","96009","","323","","","68","22","","","1","22","training","adjacent","BA","2","1","O.jpg","L.jpg","0","0","1","",""
"","feedback","","html-keyboard-response","157","300338","0.0-1.0-204.0-0.0","0","0","96009","","null","","","null","22","","","","","","","","","","","","","","","",""
"","ITI","","html-keyboard-response","158","301345","0.0-1.0-207.0","0","0","96009","","null","","","null","22","","","","","","","","","","","","","","","NaN",""
"","S1","","html-keyboard-response","159","301613","0.0-1.0-209.0","0","0","96009","","null","","","null","23","","","","","","","","","","","","","","","",""
"","ISI","","html-keyboard-response","160","302634","0.0-1.0-210.0","0","0","96009","","null","","","null","23","NaN","","","","","","","","","","","","","","",""
"","S2","","html-keyboard-response","161","302898","0.0-1.0-211.0","0","0","96009","","null","","","null","23","","NaN","","","","","","","","","","","","","",""
"","response","","html-keyboard-response","162","303552","0.0-1.0-212.0-0.0","0","0","96009","","650","","","75","23","","","1","23","training","adjacent","GF","7","6","N.jpg","Q.jpg","1","0","0","",""
"","feedback","","html-keyboard-response","163","304561","0.0-1.0-213.0-0.0","0","0","96009","","null","","","null","23","","","","","","","","","","","","","","","",""
"","time_out","","html-keyboard-response","164","306577","0.0-1.0-215.0-0.0","0","0","96009","","null","","","null","23","","","","","","","","","","","","","","","",""
"","ITI","","html-keyboard-response","165","307585","0.0-1.0-216.0","0","0","96009","","null","","","null","23","","","","","","","","","","","","","","","NaN",""
"","S1","","html-keyboard-response","166","307852","0.0-1.0-218.0","0","0","96009","","null","","","null","24","","","","","","","","","","","","","","","",""
"","ISI","","html-keyboard-response","167","308870","0.0-1.0-219.0","0","0","96009","","null","","","null","24","NaN","","","","","","","","","","","","","","",""
"","S2","","html-keyboard-response","168","309137","0.0-1.0-220.0","0","0","96009","","null","","","null","24","","NaN","","","","","","","","","","","","","",""
"","response","","html-keyboard-response","169","309236","0.0-1.0-221.0-0.0","0","0","96009","","93","","","68","24","","","1","24","training","adjacent","EF","5","6","P.jpg","Q.jpg","0","1","0","",""
"","feedback","","html-keyboard-response","170","310248","0.0-1.0-222.0-0.0","0","0","96009","","null","","","null","24","","","","","","","","","","","","","","","",""
"","time_out","","html-keyboard-response","171","312264","0.0-1.0-224.0-0.0","0","0","96009","","null","","","null","24","","","","","","","","","","","","","","","",""
"","ITI","","html-keyboard-response","172","313276","0.0-1.0-225.0","0","0","96009","","null","","","null","24","","","","","","","","","","","","","","","NaN",""
"","S1","","html-keyboard-response","173","313540","0.0-1.0-227.0","0","0","96009","","null","","","null","25","","","","","","","","","","","","","","","",""
"","ISI","","html-keyboard-response","174","314546","0.0-1.0-228.0","0","0","96009","","null","","","null","25","NaN","","","","","","","","","","","","","","",""
"","S2","","html-keyboard-response","175","314816","0.0-1.0-229.0","0","0","96009","","null","","","null","25","","NaN","","","","","","","","","","","","","",""
"","response","","html-keyboard-response","176","315596","0.0-1.0-230.0-0.0","0","0","96009","","774","","","75","25","","","1","25","training","adjacent","FE","6","5","Q.jpg","P.jpg","1","0","0","",""
"","feedback","","html-keyboard-response","177","316603","0.0-1.0-231.0-0.0","0","0","96009","","null","","","null","25","","","","","","","","","","","","","","","",""
"","time_out","","html-keyboard-response","178","318619","0.0-1.0-233.0-0.0","0","0","96009","","null","","","null","25","","","","","","","","","","","","","","","",""
"","ITI","","html-keyboard-response","179","319629","0.0-1.0-234.0","0","0","96009","","null","","","null","25","","","","","","","","","","","","","","","NaN",""
"","S1","","html-keyboard-response","180","319893","0.0-1.0-236.0","0","0","96009","","null","","","null","26","","","","","","","","","","","","","","","",""
"","ISI","","html-keyboard-response","181","320908","0.0-1.0-237.0","0","0","96009","","null","","","null","26","NaN","","","","","","","","","","","","","","",""
"","S2","","html-keyboard-response","182","321174","0.0-1.0-238.0","0","0","96009","","null","","","null","26","","NaN","","","","","","","","","","","","","",""
"","response","","html-keyboard-response","183","321503","0.0-1.0-239.0-0.0","0","0","96009","","322","","","75","26","","","1","26","training","adjacent","DE","4","5","M.jpg","P.jpg","1","1","1","",""
"","feedback","","html-keyboard-response","184","322513","0.0-1.0-240.0-0.0","0","0","96009","","null","","","null","26","","","","","","","","","","","","","","","",""
"","ITI","","html-keyboard-response","185","323534","0.0-1.0-243.0","0","0","96009","","null","","","null","26","","","","","","","","","","","","","","","NaN",""
"","S1","","html-keyboard-response","186","323798","0.0-1.0-245.0","0","0","96009","","null","","","null","27","","","","","","","","","","","","","","","",""
"","ISI","","html-keyboard-response","187","324817","0.0-1.0-246.0","0","0","96009","","null","","","null","27","NaN","","","","","","","","","","","","","","",""
"","S2","","html-keyboard-response","188","325081","0.0-1.0-247.0","0","0","96009","","null","","","null","27","","NaN","","","","","","","","","","","","","",""
"","response","","html-keyboard-response","189","325972","0.0-1.0-248.0-0.0","0","0","96009","","887","","","68","27","","","1","27","training","adjacent","FG","6","7","Q.jpg","N.jpg","0","1","0","",""
"","feedback","","html-keyboard-response","190","326984","0.0-1.0-249.0-0.0","0","0","96009","","null","","","null","27","","","","","","","","","","","","","","","",""
"","time_out","","html-keyboard-response","191","328992","0.0-1.0-251.0-0.0","0","0","96009","","null","","","null","27","","","","","","","","","","","","","","","",""
"","ITI","","html-keyboard-response","192","330003","0.0-1.0-252.0","0","0","96009","","null","","","null","27","","","","","","","","","","","","","","","NaN",""
"","S1","","html-keyboard-response","193","330273","0.0-1.0-254.0","0","0","96009","","null","","","null","28","","","","","","","","","","","","","","","",""
"","ISI","","html-keyboard-response","194","331283","0.0-1.0-255.0","0","0","96009","","null","","","null","28","NaN","","","","","","","","","","","","","","",""
"","S2","","html-keyboard-response","195","331555","0.0-1.0-256.0","0","0","96009","","null","","","null","28","","NaN","","","","","","","","","","","","","",""
"","response","","html-keyboard-response","196","331706","0.0-1.0-257.0-0.0","0","0","96009","","145","","","75","28","","","1","28","training","adjacent","DE","4","5","M.jpg","P.jpg","1","1","1","",""
"","feedback","","html-keyboard-response","197","332724","0.0-1.0-258.0-0.0","0","0","96009","","null","","","null","28","","","","","","","","","","","","","","","",""
"","ITI","","html-keyboard-response","198","333741","0.0-1.0-261.0","0","0","96009","","null","","","null","28","","","","","","","","","","","","","","","NaN",""
"","S1","","html-keyboard-response","199","334005","0.0-1.0-263.0","0","0","96009","","null","","","null","29","","","","","","","","","","","","","","","",""
"","ISI","","html-keyboard-response","200","335024","0.0-1.0-264.0","0","0","96009","","null","","","null","29","NaN","","","","","","","","","","","","","","",""
"","S2","","html-keyboard-response","201","335287","0.0-1.0-265.0","0","0","96009","","null","","","null","29","","NaN","","","","","","","","","","","","","",""
"","response","","html-keyboard-response","202","335676","0.0-1.0-266.0-0.0","0","0","96009","","382","","","75","29","","","1","29","training","adjacent","FG","6","7","Q.jpg","N.jpg","1","1","1","",""
"","feedback","","html-keyboard-response","203","336689","0.0-1.0-267.0-0.0","0","0","96009","","null","","","null","29","","","","","","","","","","","","","","","",""
"","ITI","","html-keyboard-response","204","337696","0.0-1.0-270.0","0","0","96009","","null","","","null","29","","","","","","","","","","","","","","","NaN",""
"","S1","","html-keyboard-response","205","337953","0.0-1.0-272.0","0","0","96009","","null","","","null","30","","","","","","","","","","","","","","","",""
"","ISI","","html-keyboard-response","206","338958","0.0-1.0-273.0","0","0","96009","","null","","","null","30","NaN","","","","","","","","","","","","","","",""
"","S2","","html-keyboard-response","207","339220","0.0-1.0-274.0","0","0","96009","","null","","","null","30","","NaN","","","","","","","","","","","","","",""
"","response","","html-keyboard-response","208","339643","0.0-1.0-275.0-0.0","0","0","96009","","417","","","68","30","","","1","30","training","adjacent","FE","6","5","Q.jpg","P.jpg","0","0","1","",""
"","feedback","","html-keyboard-response","209","340658","0.0-1.0-276.0-0.0","0","0","96009","","null","","","null","30","","","","","","","","","","","","","","","",""
"","ITI","","html-keyboard-response","210","341666","0.0-1.0-279.0","0","0","96009","","null","","","null","30","","","","","","","","","","","","","","","NaN",""
"","S1","","html-keyboard-response","211","341937","0.0-1.0-281.0","0","0","96009","","null","","","null","31","","","","","","","","","","","","","","","",""
"","ISI","","html-keyboard-response","212","342948","0.0-1.0-282.0","0","0","96009","","null","","","null","31","NaN","","","","","","","","","","","","","","",""
"","S2","","html-keyboard-response","213","343218","0.0-1.0-283.0","0","0","96009","","null","","","null","31","","NaN","","","","","","","","","","","","","",""
"","response","","html-keyboard-response","214","344237","0.0-1.0-284.0-0.0","0","0","96009","","1015","","","68","31","","","1","31","training","adjacent","CD","3","4","R.jpg","M.jpg","0","1","0","",""
"","feedback","","html-keyboard-response","215","345246","0.0-1.0-285.0-0.0","0","0","96009","","null","","","null","31","","","","","","","","","","","","","","","",""
"","time_out","","html-keyboard-response","216","347260","0.0-1.0-287.0-0.0","0","0","96009","","null","","","null","31","","","","","","","","","","","","","","","",""
"","ITI","","html-keyboard-response","217","348278","0.0-1.0-288.0","0","0","96009","","null","","","null","31","","","","","","","","","","","","","","","NaN",""
"","S1","","html-keyboard-response","218","348544","0.0-1.0-290.0","0","0","96009","","null","","","null","32","","","","","","","","","","","","","","","",""
"","ISI","","html-keyboard-response","219","349560","0.0-1.0-291.0","0","0","96009","","null","","","null","32","NaN","","","","","","","","","","","","","","",""
"","S2","","html-keyboard-response","220","349826","0.0-1.0-292.0","0","0","96009","","null","","","null","32","","NaN","","","","","","","","","","","","","",""
"","response","","html-keyboard-response","221","350292","0.0-1.0-293.0-0.0","0","0","96009","","461","","","68","32","","","1","32","training","adjacent","CB","3","2","R.jpg","O.jpg","0","0","1","",""
"","feedback","","html-keyboard-response","222","351301","0.0-1.0-294.0-0.0","0","0","96009","","null","","","null","32","","","","","","","","","","","","","","","",""
"","ITI","","html-keyboard-response","223","352316","0.0-1.0-297.0","0","0","96009","","null","","","null","32","","","","","","","","","","","","","","","NaN",""
"","S1","","html-keyboard-response","224","352580","0.0-1.0-299.0","0","0","96009","","null","","","null","33","","","","","","","","","","","","","","","",""
"","ISI","","html-keyboard-response","225","353597","0.0-1.0-300.0","0","0","96009","","null","","","null","33","NaN","","","","","","","","","","","","","","",""
"","S2","","html-keyboard-response","226","353861","0.0-1.0-301.0","0","0","96009","","null","","","null","33","","NaN","","","","","","","","","","","","","",""
"","response","","html-keyboard-response","227","354162","0.0-1.0-302.0-0.0","0","0","96009","","296","","","75","33","","","1","33","training","adjacent","DC","4","3","M.jpg","R.jpg","1","0","0","",""
"","feedback","","html-keyboard-response","228","355180","0.0-1.0-303.0-0.0","0","0","96009","","null","","","null","33","","","","","","","","","","","","","","","",""
"","time_out","","html-keyboard-response","229","357198","0.0-1.0-305.0-0.0","0","0","96009","","null","","","null","33","","","","","","","","","","","","","","","",""
"","ITI","","html-keyboard-response","230","358205","0.0-1.0-306.0","0","0","96009","","null","","","null","33","","","","","","","","","","","","","","","NaN",""
"","S1","","html-keyboard-response","231","358468","0.0-1.0-308.0","0","0","96009","","null","","","null","34","","","","","","","","","","","","","","","",""
"","ISI","","html-keyboard-response","232","359479","0.0-1.0-309.0","0","0","96009","","null","","","null","34","NaN","","","","","","","","","","","","","","",""
"","S2","","html-keyboard-response","233","359747","0.0-1.0-310.0","0","0","96009","","null","","","null","34","","NaN","","","","","","","","","","","","","",""
"","response","","html-keyboard-response","234","359880","0.0-1.0-311.0-0.0","0","0","96009","","130","","","68","34","","","1","34","training","adjacent","ED","5","4","P.jpg","M.jpg","0","0","1","",""
"","feedback","","html-keyboard-response","235","360899","0.0-1.0-312.0-0.0","0","0","96009","","null","","","null","34","","","","","","","","","","","","","","","",""
"","ITI","","html-keyboard-response","236","361912","0.0-1.0-315.0","0","0","96009","","null","","","null","34","","","","","","","","","","","","","","","NaN",""
"","S1","","html-keyboard-response","237","362179","0.0-1.0-317.0","0","0","96009","","null","","","null","35","","","","","","","","","","","","","","","",""
"","ISI","","html-keyboard-response","238","363196","0.0-1.0-318.0","0","0","96009","","null","","","null","35","NaN","","","","","","","","","","","","","","",""
"","S2","","html-keyboard-response","239","363458","0.0-1.0-319.0","0","0","96009","","null","","","null","35","","NaN","","","","","","","","","","","","","",""
"","response","","html-keyboard-response","240","363889","0.0-1.0-320.0-0.0","0","0","96009","","425","","","75","35","","","1","35","training","adjacent","DC","4","3","M.jpg","R.jpg","1","0","0","",""
"","feedback","","html-keyboard-response","241","364899","0.0-1.0-321.0-0.0","0","0","96009","","null","","","null","35","","","","","","","","","","","","","","","",""
"","time_out","","html-keyboard-response","242","366915","0.0-1.0-323.0-0.0","0","0","96009","","null","","","null","35","","","","","","","","","","","","","","","",""
"","ITI","","html-keyboard-response","243","367922","0.0-1.0-324.0","0","0","96009","","null","","","null","35","","","","","","","","","","","","","","","NaN",""
"","S1","","html-keyboard-response","244","368193","0.0-1.0-326.0","0","0","96009","","null","","","null","36","","","","","","","","","","","","","","","",""
"","ISI","","html-keyboard-response","245","369200","0.0-1.0-327.0","0","0","96009","","125","","","68","36","d","","","","","","","","","","","","","","",""
"","S2","","html-keyboard-response","246","369470","0.0-1.0-328.0","0","0","96009","","null","","","null","36","","NaN","","","","","","","","","","","","","",""
"","response","","html-keyboard-response","247","369475","0.0-1.0-329.0-0.0","0","0","96009","","1","","","68","36","","","1","36","training","adjacent","CD","3","4","R.jpg","M.jpg","0","1","0","",""
"","feedback","","html-keyboard-response","248","370492","0.0-1.0-330.0-0.0","0","0","96009","","null","","","null","36","","","","","","","","","","","","","","","",""
"","time_out","","html-keyboard-response","249","372499","0.0-1.0-332.0-0.0","0","0","96009","","null","","","null","36","","","","","","","","","","","","","","","",""
"","ITI","","html-keyboard-response","250","373519","0.0-1.0-333.0","0","0","96009","","null","","","null","36","","","","","","","","","","","","","","","NaN",""
"","S1","","html-keyboard-response","251","373781","0.0-1.0-335.0","0","0","96009","","null","","","null","37","","","","","","","","","","","","","","","",""
"","ISI","","html-keyboard-response","252","374802","0.0-1.0-336.0","0","0","96009","","null","","","null","37","NaN","","","","","","","","","","","","","","",""
"","S2","","html-keyboard-response","253","375070","0.0-1.0-337.0","0","0","96009","","null","","","null","37","","NaN","","","","","","","","","","","","","",""
"","response","","html-keyboard-response","254","375249","0.0-1.0-338.0-0.0","0","0","96009","","172","","","75","37","","","1","37","training","adjacent","BA","2","1","O.jpg","L.jpg","1","0","0","",""
"","feedback","","html-keyboard-response","255","376258","0.0-1.0-339.0-0.0","0","0","96009","","null","","","null","37","","","","","","","","","","","","","","","",""
"","time_out","","html-keyboard-response","256","378280","0.0-1.0-341.0-0.0","0","0","96009","","null","","","null","37","","","","","","","","","","","","","","","",""
"","ITI","","html-keyboard-response","257","379296","0.0-1.0-342.0","0","0","96009","","null","","","null","37","","","","","","","","","","","","","","","NaN",""
"","S1","","html-keyboard-response","258","379562","0.0-1.0-344.0","0","0","96009","","null","","","null","38","","","","","","","","","","","","","","","",""
"","ISI","","html-keyboard-response","259","380568","0.0-1.0-345.0","0","0","96009","","null","","","null","38","NaN","","","","","","","","","","","","","","",""
"","S2","","html-keyboard-response","260","380833","0.0-1.0-346.0","0","0","96009","","null","","","null","38","","NaN","","","","","","","","","","","","","",""
"","response","","html-keyboard-response","261","381176","0.0-1.0-347.0-0.0","0","0","96009","","336","","","68","38","","","1","38","training","adjacent","EF","5","6","P.jpg","Q.jpg","0","1","0","",""
"","feedback","","html-keyboard-response","262","382193","0.0-1.0-348.0-0.0","0","0","96009","","null","","","null","38","","","","","","","","","","","","","","","",""
"","time_out","","html-keyboard-response","263","384209","0.0-1.0-350.0-0.0","0","0","96009","","null","","","null","38","","","","","","","","","","","","","","","",""
"","ITI","","html-keyboard-response","264","385220","0.0-1.0-351.0","0","0","96009","","null","","","null","38","","","","","","","","","","","","","","","NaN",""
"","S1","","html-keyboard-response","265","385486","0.0-1.0-353.0","0","0","96009","","null","","","null","39","","","","","","","","","","","","","","","",""
"","ISI","","html-keyboard-response","266","386493","0.0-1.0-354.0","0","0","96009","","null","","","null","39","NaN","","","","","","","","","","","","","","",""
"","S2","","html-keyboard-response","267","386750","0.0-1.0-355.0","0","0","96009","","null","","","null","39","","NaN","","","","","","","","","","","","","",""
"","response","","html-keyboard-response","268","386860","0.0-1.0-356.0-0.0","0","0","96009","","107","","","75","39","","","1","39","training","adjacent","BA","2","1","O.jpg","L.jpg","1","0","0","",""
"","feedback","","html-keyboard-response","269","387867","0.0-1.0-357.0-0.0","0","0","96009","","null","","","null","39","","","","","","","","","","","","","","","",""
"","time_out","","html-keyboard-response","270","389875","0.0-1.0-359.0-0.0","0","0","96009","","null","","","null","39","","","","","","","","","","","","","","","",""
"","ITI","","html-keyboard-response","271","390894","0.0-1.0-360.0","0","0","96009","","null","","","null","39","","","","","","","","","","","","","","","NaN",""
"","S1","","html-keyboard-response","272","391161","0.0-1.0-362.0","0","0","96009","","null","","","null","40","","","","","","","","","","","","","","","",""
"","ISI","","html-keyboard-response","273","392174","0.0-1.0-363.0","0","0","96009","","null","","","null","40","NaN","","","","","","","","","","","","","","",""
"","S2","","html-keyboard-response","274","392442","0.0-1.0-364.0","0","0","96009","","null","","","null","40","","NaN","","","","","","","","","","","","","",""
"","response","","html-keyboard-response","275","392759","0.0-1.0-365.0-0.0","0","0","96009","","312","","","68","40","","","1","40","training","adjacent","AB","1","2","L.jpg","O.jpg","0","1","0","",""
"","feedback","","html-keyboard-response","276","393776","0.0-1.0-366.0-0.0","0","0","96009","","null","","","null","40","","","","","","","","","","","","","","","",""
"","time_out","","html-keyboard-response","277","395788","0.0-1.0-368.0-0.0","0","0","96009","","null","","","null","40","","","","","","","","","","","","","","","",""
"","ITI","","html-keyboard-response","278","396800","0.0-1.0-369.0","0","0","96009","","null","","","null","40","","","","","","","","","","","","","","","NaN",""
"","S1","","html-keyboard-response","279","397069","0.0-1.0-371.0","0","0","96009","","null","","","null","41","","","","","","","","","","","","","","","",""
"","ISI","","html-keyboard-response","280","398082","0.0-1.0-372.0","0","0","96009","","null","","","null","41","NaN","","","","","","","","","","","","","","",""
"","S2","","html-keyboard-response","281","398350","0.0-1.0-373.0","0","0","96009","","null","","","null","41","","NaN","","","","","","","","","","","","","",""
"","response","","html-keyboard-response","282","398415","0.0-1.0-374.0-0.0","0","0","96009","","59","","","75","41","","","1","41","training","adjacent","BC","2","3","O.jpg","R.jpg","1","1","1","",""
"","feedback","","html-keyboard-response","283","399424","0.0-1.0-375.0-0.0","0","0","96009","","null","","","null","41","","","","","","","","","","","","","","","",""
"","ITI","","html-keyboard-response","284","400436","0.0-1.0-378.0","0","0","96009","","null","","","null","41","","","","","","","","","","","","","","","NaN",""
"","S1","","html-keyboard-response","285","400702","0.0-1.0-380.0","0","0","96009","","null","","","null","42","","","","","","","","","","","","","","","",""
"","ISI","","html-keyboard-response","286","401718","0.0-1.0-381.0","0","0","96009","","null","","","null","42","NaN","","","","","","","","","","","","","","",""
"","S2","","html-keyboard-response","287","401980","0.0-1.0-382.0","0","0","96009","","null","","","null","42","","NaN","","","","","","","","","","","","","",""
"","response","","html-keyboard-response","288","402047","0.0-1.0-383.0-0.0","0","0","96009","","61","","","75","42","","","1","42","training","adjacent","BA","2","1","O.jpg","L.jpg","1","0","0","",""
"","feedback","","html-keyboard-response","289","403056","0.0-1.0-384.0-0.0","0","0","96009","","null","","","null","42","","","","","","","","","","","","","","","",""
"","time_out","","html-keyboard-response","290","405079","0.0-1.0-386.0-0.0","0","0","96009","","null","","","null","42","","","","","","","","","","","","","","","",""
"","ITI","","html-keyboard-response","291","406095","0.0-1.0-387.0","0","0","96009","","null","","","null","42","","","","","","","","","","","","","","","NaN",""
"","S1","","html-keyboard-response","292","406361","0.0-1.0-389.0","0","0","96009","","null","","","null","43","","","","","","","","","","","","","","","",""
"","ISI","","html-keyboard-response","293","407378","0.0-1.0-390.0","0","0","96009","","109","","","68","43","d","","","","","","","","","","","","","","",""
"","S2","","html-keyboard-response","294","407643","0.0-1.0-391.0","0","0","96009","","null","","","null","43","","NaN","","","","","","","","","","","","","",""
"","response","","html-keyboard-response","295","407656","0.0-1.0-392.0-0.0","0","0","96009","","7","","","68","43","","","1","43","training","adjacent","BC","2","3","O.jpg","R.jpg","0","1","0","",""
"","feedback","","html-keyboard-response","296","408666","0.0-1.0-393.0-0.0","0","0","96009","","null","","","null","43","","","","","","","","","","","","","","","",""
"","time_out","","html-keyboard-response","297","410676","0.0-1.0-395.0-0.0","0","0","96009","","null","","","null","43","","","","","","","","","","","","","","","",""
"","ITI","","html-keyboard-response","298","411693","0.0-1.0-396.0","0","0","96009","","null","","","null","43","","","","","","","","","","","","","","","NaN",""
"","S1","","html-keyboard-response","299","411959","0.0-1.0-398.0","0","0","96009","","null","","","null","44","","","","","","","","","","","","","","","",""
"","ISI","","html-keyboard-response","300","412972","0.0-1.0-399.0","0","0","96009","","null","","","null","44","NaN","","","","","","","","","","","","","","",""
"","S2","","html-keyboard-response","301","413236","0.0-1.0-400.0","0","0","96009","","null","","","null","44","","NaN","","","","","","","","","","","","","",""
"","response","","html-keyboard-response","302","413260","0.0-1.0-401.0-0.0","0","0","96009","","19","","","75","44","","","1","44","training","adjacent","AB","1","2","L.jpg","O.jpg","1","1","1","",""
"","feedback","","html-keyboard-response","303","414273","0.0-1.0-402.0-0.0","0","0","96009","","null","","","null","44","","","","","","","","","","","","","","","",""
"","ITI","","html-keyboard-response","304","415293","0.0-1.0-405.0","0","0","96009","","null","","","null","44","","","","","","","","","","","","","","","NaN",""
"","S1","","html-keyboard-response","305","415557","0.0-1.0-407.0","0","0","96009","","null","","","null","45","","","","","","","","","","","","","","","",""
"","ISI","","html-keyboard-response","306","416567","0.0-1.0-408.0","0","0","96009","","null","","","null","45","NaN","","","","","","","","","","","","","","",""
"","S2","","html-keyboard-response","307","416648","0.0-1.0-409.0","0","0","96009","","75","","","75","45","","k","1","45","training","adjacent","CD","3","4","R.jpg","M.jpg","1","1","1","",""
"","feedback","","html-keyboard-response","308","417665","0.0-1.0-411.0-0.0","0","0","96009","","null","","","null","45","","","","","","","","","","","","","","","",""
"","ITI","","html-keyboard-response","309","418672","0.0-1.0-414.0","0","0","96009","","null","","","null","45","","","","","","","","","","","","","","","NaN",""
"","S1","","html-keyboard-response","310","418942","0.0-1.0-416.0","0","0","96009","","null","","","null","46","","","","","","","","","","","","","","","",""
"","ISI","","html-keyboard-response","311","419962","0.0-1.0-417.0","0","0","96009","","453","","","75","46","k","","","","","","","","","","","","","","",""
"","S2","","html-keyboard-response","312","420227","0.0-1.0-418.0","0","0","96009","","null","","","null","46","","NaN","","","","","","","","","","","","","",""
"","response","","html-keyboard-response","313","420389","0.0-1.0-419.0-0.0","0","0","96009","","158","","","75","46","","","1","46","training","adjacent","CB","3","2","R.jpg","O.jpg","1","0","0","",""
"","feedback","","html-keyboard-response","314","421407","0.0-1.0-420.0-0.0","0","0","96009","","null","","","null","46","","","","","","","","","","","","","","","",""
"","time_out","","html-keyboard-response","315","423425","0.0-1.0-422.0-0.0","0","0","96009","","null","","","null","46","","","","","","","","","","","","","","","",""
"","ITI","","html-keyboard-response","316","424440","0.0-1.0-423.0","0","0","96009","","null","","","null","46","","","","","","","","","","","","","","","NaN",""
"","S1","","html-keyboard-response","317","424704","0.0-1.0-425.0","0","0","96009","","null","","","null","47","","","","","","","","","","","","","","","",""
"","ISI","","html-keyboard-response","318","425720","0.0-1.0-426.0","0","0","96009","","21","","","68","47","d","","","","","","","","","","","","","","",""
"","S2","","html-keyboard-response","319","425986","0.0-1.0-427.0","0","0","96009","","null","","","null","47","","NaN","","","","","","","","","","","","","",""
"","response","","html-keyboard-response","320","426117","0.0-1.0-428.0-0.0","0","0","96009","","125","","","75","47","","","1","47","training","adjacent","DC","4","3","M.jpg","R.jpg","1","0","0","",""
"","feedback","","html-keyboard-response","321","427125","0.0-1.0-429.0-0.0","0","0","96009","","null","","","null","47","","","","","","","","","","","","","","","",""
"","time_out","","html-keyboard-response","322","429145","0.0-1.0-431.0-0.0","0","0","96009","","null","","","null","47","","","","","","","","","","","","","","","",""
"","ITI","","html-keyboard-response","323","430156","0.0-1.0-432.0","0","0","96009","","null","","","null","47","","","","","","","","","","","","","","","NaN",""
"","block_over","","html-keyboard-response","324","433755","0.0-1.0-433.0-0.0","0","0","96009","","3591","","","32","47","","","","","","","","","","","","","","","",""
"","S1","","html-keyboard-response","325","434012","0.0-1.0-434.0","0","0","96009","","null","","","null","48","","","","","","","","","","","","","","","",""
"","ISI","","html-keyboard-response","326","435024","0.0-1.0-435.0","0","0","96009","","null","","","null","48","NaN","","","","","","","","","","","","","","",""
"","S2","","html-keyboard-response","327","435286","0.0-1.0-436.0","0","0","96009","","null","","","null","48","","NaN","","","","","","","","","","","","","",""
"","response","","html-keyboard-response","328","435374","0.0-1.0-437.0-0.0","0","0","96009","","81","","","68","48","","","2","48","training","adjacent","CD","3","4","R.jpg","M.jpg","0","1","0","",""
"","feedback","","html-keyboard-response","329","436385","0.0-1.0-438.0-0.0","0","0","96009","","null","","","null","48","","","","","","","","","","","","","","","",""
"","time_out","","html-keyboard-response","330","438407","0.0-1.0-440.0-0.0","0","0","96009","","null","","","null","48","","","","","","","","","","","","","","","",""
"","ITI","","html-keyboard-response","331","439418","0.0-1.0-441.0","0","0","96009","","null","","","null","48","","","","","","","","","","","","","","","NaN",""
"","S1","","html-keyboard-response","332","439684","0.0-1.0-443.0","0","0","96009","","null","","","null","49","","","","","","","","","","","","","","","",""
"","ISI","","html-keyboard-response","333","440698","0.0-1.0-444.0","0","0","96009","","162","","","75","49","k","","","","","","","","","","","","","","",""
"","S2","","html-keyboard-response","334","440962","0.0-1.0-445.0","0","0","96009","","null","","","null","49","","NaN","","","","","","","","","","","","","",""
"","response","","html-keyboard-response","335","441245","0.0-1.0-446.0-0.0","0","0","96009","","279","","","75","49","","","2","49","training","adjacent","BC","2","3","O.jpg","R.jpg","1","1","1","",""
"","feedback","","html-keyboard-response","336","442267","0.0-1.0-447.0-0.0","0","0","96009","","null","","","null","49","","","","","","","","","","","","","","","",""
"","ITI","","html-keyboard-response","337","443274","0.0-1.0-450.0","0","0","96009","","null","","","null","49","","","","","","","","","","","","","","","NaN",""
"","S1","","html-keyboard-response","338","443541","0.0-1.0-452.0","0","0","96009","","null","","","null","50","","","","","","","","","","","","","","","",""
"","ISI","","html-keyboard-response","339","444554","0.0-1.0-453.0","0","0","96009","","null","","","null","50","NaN","","","","","","","","","","","","","","",""
"","S2","","html-keyboard-response","340","444818","0.0-1.0-454.0","0","0","96009","","null","","","null","50","","NaN","","","","","","","","","","","","","",""
"","response","","html-keyboard-response","341","444938","0.0-1.0-455.0-0.0","0","0","96009","","109","","","75","50","","","2","50","training","adjacent","BA","2","1","O.jpg","L.jpg","1","0","0","",""
"","feedback","","html-keyboard-response","342","445957","0.0-1.0-456.0-0.0","0","0","96009","","null","","","null","50","","","","","","","","","","","","","","","",""
"","time_out","","html-keyboard-response","343","447970","0.0-1.0-458.0-0.0","0","0","96009","","null","","","null","50","","","","","","","","","","","","","","","",""
"","ITI","","html-keyboard-response","344","448986","0.0-1.0-459.0","0","0","96009","","null","","","null","50","","","","","","","","","","","","","","","NaN",""
"","S1","","html-keyboard-response","345","449249","0.0-1.0-461.0","0","0","96009","","null","","","null","51","","","","","","","","","","","","","","","",""
"","ISI","","html-keyboard-response","346","450266","0.0-1.0-462.0","0","0","96009","","93","","","68","51","d","","","","","","","","","","","","","","",""
"","S2","","html-keyboard-response","347","450530","0.0-1.0-463.0","0","0","96009","","null","","","null","51","","NaN","","","","","","","","","","","","","",""
"","response","","html-keyboard-response","348","450687","0.0-1.0-464.0-0.0","0","0","96009","","151","","","68","51","","","2","51","training","adjacent","FG","6","7","Q.jpg","N.jpg","0","1","0","",""
"","feedback","","html-keyboard-response","349","451703","0.0-1.0-465.0-0.0","0","0","96009","","null","","","null","51","","","","","","","","","","","","","","","",""
"","time_out","","html-keyboard-response","350","453721","0.0-1.0-467.0-0.0","0","0","96009","","null","","","null","51","","","","","","","","","","","","","","","",""
"","ITI","","html-keyboard-response","351","454737","0.0-1.0-468.0","0","0","96009","","null","","","null","51","","","","","","","","","","","","","","","NaN",""
"","S1","","html-keyboard-response","352","455004","0.0-1.0-470.0","0","0","96009","","null","","","null","52","","","","","","","","","","","","","","","",""
"","ISI","","html-keyboard-response","353","456017","0.0-1.0-471.0","0","0","96009","","66","","","75","52","k","","","","","","","","","","","","","","",""
"","S2","","html-keyboard-response","354","456282","0.0-1.0-472.0","0","0","96009","","259","","","75","52","","k","2","52","training","adjacent","EF","5","6","P.jpg","Q.jpg","1","1","1","",""
"","feedback","","html-keyboard-response","355","457298","0.0-1.0-474.0-0.0","0","0","96009","","null","","","null","52","","","","","","","","","","","","","","","",""
"","ITI","","html-keyboard-response","356","458309","0.0-1.0-477.0","0","0","96009","","null","","","null","52","","","","","","","","","","","","","","","NaN",""
"","S1","","html-keyboard-response","357","458580","0.0-1.0-479.0","0","0","96009","","null","","","null","53","","","","","","","","","","","","","","","",""
"","ISI","","html-keyboard-response","358","459587","0.0-1.0-480.0","0","0","96009","","null","","","null","53","NaN","","","","","","","","","","","","","","",""
"","S2","","html-keyboard-response","359","459857","0.0-1.0-481.0","0","0","96009","","null","","","null","53","","NaN","","","","","","","","","","","","","",""
"","response","","html-keyboard-response","360","459946","0.0-1.0-482.0-0.0","0","0","96009","","85","","","75","53","","","2","53","training","adjacent","FE","6","5","Q.jpg","P.jpg","1","0","0","",""
"","feedback","","html-keyboard-response","361","460964","0.0-1.0-483.0-0.0","0","0","96009","","null","","","null","53","","","","","","","","","","","","","","","",""
"","time_out","","html-keyboard-response","362","462971","0.0-1.0-485.0-0.0","0","0","96009","","null","","","null","53","","","","","","","","","","","","","","","",""
"","ITI","","html-keyboard-response","363","463989","0.0-1.0-486.0","0","0","96009","","null","","","null","53","","","","","","","","","","","","","","","NaN",""
"","S1","","html-keyboard-response","364","464258","0.0-1.0-488.0","0","0","96009","","null","","","null","54","","","","","","","","","","","","","","","",""
"","ISI","","html-keyboard-response","365","465265","0.0-1.0-489.0","0","0","96009","","null","","","null","54","NaN","","","","","","","","","","","","","","",""
"","S2","","html-keyboard-response","366","465537","0.0-1.0-490.0","0","0","96009","","null","","","null","54","","NaN","","","","","","","","","","","","","",""
"","response","","html-keyboard-response","367","465621","0.0-1.0-491.0-0.0","0","0","96009","","78","","","68","54","","","2","54","training","adjacent","ED","5","4","P.jpg","M.jpg","0","0","1","",""
"","feedback","","html-keyboard-response","368","466635","0.0-1.0-492.0-0.0","0","0","96009","","null","","","null","54","","","","","","","","","","","","","","","",""
"","ITI","","html-keyboard-response","369","467655","0.0-1.0-495.0","0","0","96009","","null","","","null","54","","","","","","","","","","","","","","","NaN",""
"","S1","","html-keyboard-response","370","467923","0.0-1.0-497.0","0","0","96009","","null","","","null","55","","","","","","","","","","","","","","","",""
"","ISI","","html-keyboard-response","371","468937","0.0-1.0-498.0","0","0","96009","","116","","","68","55","d","","","","","","","","","","","","","","",""
"","S2","","html-keyboard-response","372","469201","0.0-1.0-499.0","0","0","96009","","null","","","null","55","","NaN","","","","","","","","","","","","","",""
"","response","","html-keyboard-response","373","469285","0.0-1.0-500.0-0.0","0","0","96009","","79","","","68","55","","","2","55","training","adjacent","DC","4","3","M.jpg","R.jpg","0","0","1","",""
"","feedback","","html-keyboard-response","374","470307","0.0-1.0-501.0-0.0","0","0","96009","","null","","","null","55","","","","","","","","","","","","","","","",""
"","ITI","","html-keyboard-response","375","471329","0.0-1.0-504.0","0","0","96009","","null","","","null","55","","","","","","","","","","","","","","","NaN",""
"","S1","","html-keyboard-response","376","471594","0.0-1.0-506.0","0","0","96009","","null","","","null","56","","","","","","","","","","","","","","","",""
"","ISI","","html-keyboard-response","377","472609","0.0-1.0-507.0","0","0","96009","","null","","","null","56","NaN","","","","","","","","","","","","","","",""
"","S2","","html-keyboard-response","378","472876","0.0-1.0-508.0","0","0","96009","","null","","","null","56","","NaN","","","","","","","","","","","","","",""
"","response","","html-keyboard-response","379","473042","0.0-1.0-509.0-0.0","0","0","96009","","161","","","68","56","","","2","56","training","adjacent","BC","2","3","O.jpg","R.jpg","0","1","0","",""
"","feedback","","html-keyboard-response","380","474063","0.0-1.0-510.0-0.0","0","0","96009","","null","","","null","56","","","","","","","","","","","","","","","",""
"","time_out","","html-keyboard-response","381","476071","0.0-1.0-512.0-0.0","0","0","96009","","null","","","null","56","","","","","","","","","","","","","","","",""
"","ITI","","html-keyboard-response","382","477089","0.0-1.0-513.0","0","0","96009","","null","","","null","56","","","","","","","","","","","","","","","NaN",""
"","S1","","html-keyboard-response","383","477351","0.0-1.0-515.0","0","0","96009","","null","","","null","57","","","","","","","","","","","","","","","",""
"","ISI","","html-keyboard-response","384","478368","0.0-1.0-516.0","0","0","96009","","null","","","null","57","NaN","","","","","","","","","","","","","","",""
"","S2","","html-keyboard-response","385","478639","0.0-1.0-517.0","0","0","96009","","null","","","null","57","","NaN","","","","","","","","","","","","","",""
"","response","","html-keyboard-response","386","478715","0.0-1.0-518.0-0.0","0","0","96009","","70","","","75","57","","","2","57","training","adjacent","AB","1","2","L.jpg","O.jpg","1","1","1","",""
"","feedback","","html-keyboard-response","387","479730","0.0-1.0-519.0-0.0","0","0","96009","","null","","","null","57","","","","","","","","","","","","","","","",""
"","ITI","","html-keyboard-response","388","480742","0.0-1.0-522.0","0","0","96009","","null","","","null","57","","","","","","","","","","","","","","","NaN",""
"","S1","","html-keyboard-response","389","481008","0.0-1.0-524.0","0","0","96009","","null","","","null","58","","","","","","","","","","","","","","","",""
"","ISI","","html-keyboard-response","390","482016","0.0-1.0-525.0","0","0","96009","","null","","","null","58","NaN","","","","","","","","","","","","","","",""
"","S2","","html-keyboard-response","391","482288","0.0-1.0-526.0","0","0","96009","","null","","","null","58","","NaN","","","","","","","","","","","","","",""
"","response","","html-keyboard-response","392","482332","0.0-1.0-527.0-0.0","0","0","96009","","38","","","75","58","","","2","58","training","adjacent","FE","6","5","Q.jpg","P.jpg","1","0","0","",""
"","feedback","","html-keyboard-response","393","483341","0.0-1.0-528.0-0.0","0","0","96009","","null","","","null","58","","","","","","","","","","","","","","","",""
"","time_out","","html-keyboard-response","394","485359","0.0-1.0-530.0-0.0","0","0","96009","","null","","","null","58","","","","","","","","","","","","","","","",""
"","ITI","","html-keyboard-response","395","486368","0.0-1.0-531.0","0","0","96009","","null","","","null","58","","","","","","","","","","","","","","","NaN",""
"","S1","","html-keyboard-response","396","486633","0.0-1.0-533.0","0","0","96009","","null","","","null","59","","","","","","","","","","","","","","","",""
"","ISI","","html-keyboard-response","397","487648","0.0-1.0-534.0","0","0","96009","","null","","","null","59","NaN","","","","","","","","","","","","","","",""
"","S2","","html-keyboard-response","398","487911","0.0-1.0-535.0","0","0","96009","","null","","","null","59","","NaN","","","","","","","","","","","","","",""
"","response","","html-keyboard-response","399","488303","0.0-1.0-536.0-0.0","0","0","96009","","386","","","75","59","","","2","59","training","adjacent","DE","4","5","M.jpg","P.jpg","1","1","1","",""
"","feedback","","html-keyboard-response","400","489320","0.0-1.0-537.0-0.0","0","0","96009","","null","","","null","59","","","","","","","","","","","","","","","",""
"","ITI","","html-keyboard-response","401","490341","0.0-1.0-540.0","0","0","96009","","null","","","null","59","","","","","","","","","","","","","","","NaN",""
"","S1","","html-keyboard-response","402","490610","0.0-1.0-542.0","0","0","96009","","null","","","null","60","","","","","","","","","","","","","","","",""
"","ISI","","html-keyboard-response","403","491617","0.0-1.0-543.0","0","0","96009","","null","","","null","60","NaN","","","","","","","","","","","","","","",""
"","S2","","html-keyboard-response","404","491880","0.0-1.0-544.0","0","0","96009","","null","","","null","60","","NaN","","","","","","","","","","","","","",""
"","response","","html-keyboard-response","405","491990","0.0-1.0-545.0-0.0","0","0","96009","","105","","","75","60","","","2","60","training","adjacent","CD","3","4","R.jpg","M.jpg","1","1","1","",""
"","feedback","","html-keyboard-response","406","493008","0.0-1.0-546.0-0.0","0","0","96009","","null","","","null","60","","","","","","","","","","","","","","","",""
"","ITI","","html-keyboard-response","407","494021","0.0-1.0-549.0","0","0","96009","","null","","","null","60","","","","","","","","","","","","","","","NaN",""
"","S1","","html-keyboard-response","408","494289","0.0-1.0-551.0","0","0","96009","","null","","","null","61","","","","","","","","","","","","","","","",""
"","ISI","","html-keyboard-response","409","495300","0.0-1.0-552.0","0","0","96009","","null","","","null","61","NaN","","","","","","","","","","","","","","",""
"","S2","","html-keyboard-response","410","495567","0.0-1.0-553.0","0","0","96009","","null","","","null","61","","NaN","","","","","","","","","","","","","",""
"","response","","html-keyboard-response","411","495672","0.0-1.0-554.0-0.0","0","0","96009","","98","","","68","61","","","2","61","training","adjacent","FE","6","5","Q.jpg","P.jpg","0","0","1","",""
"","feedback","","html-keyboard-response","412","496688","0.0-1.0-555.0-0.0","0","0","96009","","null","","","null","61","","","","","","","","","","","","","","","",""
"","ITI","","html-keyboard-response","413","497701","0.0-1.0-558.0","0","0","96009","","null","","","null","61","","","","","","","","","","","","","","","NaN",""
"","S1","","html-keyboard-response","414","497969","0.0-1.0-560.0","0","0","96009","","null","","","null","62","","","","","","","","","","","","","","","",""
"","ISI","","html-keyboard-response","415","498980","0.0-1.0-561.0","0","0","96009","","null","","","null","62","NaN","","","","","","","","","","","","","","",""
"","S2","","html-keyboard-response","416","499249","0.0-1.0-562.0","0","0","96009","","null","","","null","62","","NaN","","","","","","","","","","","","","",""
"","response","","html-keyboard-response","417","500690","0.0-1.0-563.0-0.0","0","0","96009","","1436","","","75","62","","","2","62","training","adjacent","CB","3","2","R.jpg","O.jpg","1","0","0","",""
"","feedback","","html-keyboard-response","418","501700","0.0-1.0-564.0-0.0","0","0","96009","","null","","","null","62","","","","","","","","","","","","","","","",""
"","time_out","","html-keyboard-response","419","503706","0.0-1.0-566.0-0.0","0","0","96009","","null","","","null","62","","","","","","","","","","","","","","","",""
"","ITI","","html-keyboard-response","420","504722","0.0-1.0-567.0","0","0","96009","","null","","","null","62","","","","","","","","","","","","","","","NaN",""
"","S1","","html-keyboard-response","421","504986","0.0-1.0-569.0","0","0","96009","","null","","","null","63","","","","","","","","","","","","","","","",""
"","ISI","","html-keyboard-response","422","506006","0.0-1.0-570.0","0","0","96009","","69","","","68","63","d","","","","","","","","","","","","","","",""
"","S2","","html-keyboard-response","423","506273","0.0-1.0-571.0","0","0","96009","","null","","","null","63","","NaN","","","","","","","","","","","","","",""
"","response","","html-keyboard-response","424","506286","0.0-1.0-572.0-0.0","0","0","96009","","9","","","68","63","","","2","63","training","adjacent","FG","6","7","Q.jpg","N.jpg","0","1","0","",""
"","feedback","","html-keyboard-response","425","507296","0.0-1.0-573.0-0.0","0","0","96009","","null","","","null","63","","","","","","","","","","","","","","","",""
"","time_out","","html-keyboard-response","426","509318","0.0-1.0-575.0-0.0","0","0","96009","","null","","","null","63","","","","","","","","","","","","","","","",""
"","ITI","","html-keyboard-response","427","510326","0.0-1.0-576.0","0","0","96009","","null","","","null","63","","","","","","","","","","","","","","","NaN",""
"","S1","","html-keyboard-response","428","510594","0.0-1.0-578.0","0","0","96009","","null","","","null","64","","","","","","","","","","","","","","","",""
"","ISI","","html-keyboard-response","429","511602","0.0-1.0-579.0","0","0","96009","","80","","","75","64","k","","","","","","","","","","","","","","",""
"","S2","","html-keyboard-response","430","511873","0.0-1.0-580.0","0","0","96009","","null","","","null","64","","NaN","","","","","","","","","","","","","",""
"","response","","html-keyboard-response","431","511989","0.0-1.0-581.0-0.0","0","0","96009","","112","","","75","64","","","2","64","training","adjacent","CB","3","2","R.jpg","O.jpg","1","0","0","",""
"","feedback","","html-keyboard-response","432","513008","0.0-1.0-582.0-0.0","0","0","96009","","null","","","null","64","","","","","","","","","","","","","","","",""
"","time_out","","html-keyboard-response","433","515031","0.0-1.0-584.0-0.0","0","0","96009","","null","","","null","64","","","","","","","","","","","","","","","",""
"","ITI","","html-keyboard-response","434","516045","0.0-1.0-585.0","0","0","96009","","853","","","68","64","","","","","","","","","","","","","","","d",""
"","S1","","html-keyboard-response","435","516309","0.0-1.0-587.0","0","0","96009","","null","","","null","65","","","","","","","","","","","","","","","",""
"","ISI","","html-keyboard-response","436","517326","0.0-1.0-588.0","0","0","96009","","310","","","68","65","d","","","","","","","","","","","","","","",""
"","S2","","html-keyboard-response","437","517589","0.0-1.0-589.0","0","0","96009","","null","","","null","65","","NaN","","","","","","","","","","","","","",""
"","response","","html-keyboard-response","438","517699","0.0-1.0-590.0-0.0","0","0","96009","","98","","","75","65","","","2","65","training","adjacent","EF","5","6","P.jpg","Q.jpg","1","1","1","",""
"","feedback","","html-keyboard-response","439","518723","0.0-1.0-591.0-0.0","0","0","96009","","null","","","null","65","","","","","","","","","","","","","","","",""
"","ITI","","html-keyboard-response","440","519743","0.0-1.0-594.0","0","0","96009","","null","","","null","65","","","","","","","","","","","","","","","NaN",""
"","S1","","html-keyboard-response","441","520007","0.0-1.0-596.0","0","0","96009","","null","","","null","66","","","","","","","","","","","","","","","",""
"","ISI","","html-keyboard-response","442","521016","0.0-1.0-597.0","0","0","96009","","null","","","null","66","NaN","","","","","","","","","","","","","","",""
"","S2","","html-keyboard-response","443","521282","0.0-1.0-598.0","0","0","96009","","null","","","null","66","","NaN","","","","","","","","","","","","","",""
"","response","","html-keyboard-response","444","521422","0.0-1.0-599.0-0.0","0","0","96009","","135","","","68","66","","","2","66","training","adjacent","FG","6","7","Q.jpg","N.jpg","0","1","0","",""
"","feedback","","html-keyboard-response","445","522430","0.0-1.0-600.0-0.0","0","0","96009","","null","","","null","66","","","","","","","","","","","","","","","",""
"","time_out","","html-keyboard-response","446","524448","0.0-1.0-602.0-0.0","0","0","96009","","null","","","null","66","","","","","","","","","","","","","","","",""
"","ITI","","html-keyboard-response","447","525465","0.0-1.0-603.0","0","0","96009","","null","","","null","66","","","","","","","","","","","","","","","NaN",""
"","S1","","html-keyboard-response","448","525730","0.0-1.0-605.0","0","0","96009","","null","","","null","67","","","","","","","","","","","","","","","",""
"","ISI","","html-keyboard-response","449","526737","0.0-1.0-606.0","0","0","96009","","null","","","null","67","NaN","","","","","","","","","","","","","","",""
"","S2","","html-keyboard-response","450","527008","0.0-1.0-607.0","0","0","96009","","null","","","null","67","","NaN","","","","","","","","","","","","","",""
"","response","","html-keyboard-response","451","527022","0.0-1.0-608.0-0.0","0","0","96009","","9","","","75","67","","","2","67","training","adjacent","EF","5","6","P.jpg","Q.jpg","1","1","1","",""
"","feedback","","html-keyboard-response","452","528034","0.0-1.0-609.0-0.0","0","0","96009","","null","","","null","67","","","","","","","","","","","","","","","",""
"","ITI","","html-keyboard-response","453","529046","0.0-1.0-612.0","0","0","96009","","null","","","null","67","","","","","","","","","","","","","","","NaN",""
"","S1","","html-keyboard-response","454","529311","0.0-1.0-614.0","0","0","96009","","null","","","null","68","","","","","","","","","","","","","","","",""
"","ISI","","html-keyboard-response","455","530329","0.0-1.0-615.0","0","0","96009","","null","","","null","68","NaN","","","","","","","","","","","","","","",""
"","S2","","html-keyboard-response","456","530594","0.0-1.0-616.0","0","0","96009","","null","","","null","68","","NaN","","","","","","","","","","","","","",""
"","response","","html-keyboard-response","457","530642","0.0-1.0-617.0-0.0","0","0","96009","","42","","","75","68","","","2","68","training","adjacent","FE","6","5","Q.jpg","P.jpg","1","0","0","",""
"","feedback","","html-keyboard-response","458","531663","0.0-1.0-618.0-0.0","0","0","96009","","null","","","null","68","","","","","","","","","","","","","","","",""
"","time_out","","html-keyboard-response","459","533683","0.0-1.0-620.0-0.0","0","0","96009","","null","","","null","68","","","","","","","","","","","","","","","",""
"","ITI","","html-keyboard-response","460","534690","0.0-1.0-621.0","0","0","96009","","null","","","null","68","","","","","","","","","","","","","","","NaN",""
"","S1","","html-keyboard-response","461","534954","0.0-1.0-623.0","0","0","96009","","null","","","null","69","","","","","","","","","","","","","","","",""
"","ISI","","html-keyboard-response","462","535969","0.0-1.0-624.0","0","0","96009","","null","","","null","69","NaN","","","","","","","","","","","","","","",""
"","S2","","html-keyboard-response","463","536237","0.0-1.0-625.0","0","0","96009","","null","","","null","69","","NaN","","","","","","","","","","","","","",""
"","response","","html-keyboard-response","464","536329","0.0-1.0-626.0-0.0","0","0","96009","","85","","","68","69","","","2","69","training","adjacent","AB","1","2","L.jpg","O.jpg","0","1","0","",""
"","feedback","","html-keyboard-response","465","537346","0.0-1.0-627.0-0.0","0","0","96009","","null","","","null","69","","","","","","","","","","","","","","","",""
"","time_out","","html-keyboard-response","466","539362","0.0-1.0-629.0-0.0","0","0","96009","","null","","","null","69","","","","","","","","","","","","","","","",""
"","ITI","","html-keyboard-response","467","540369","0.0-1.0-630.0","0","0","96009","","null","","","null","69","","","","","","","","","","","","","","","NaN",""
"","S1","","html-keyboard-response","468","540637","0.0-1.0-632.0","0","0","96009","","null","","","null","70","","","","","","","","","","","","","","","",""
"","ISI","","html-keyboard-response","469","541643","0.0-1.0-633.0","0","0","96009","","null","","","null","70","NaN","","","","","","","","","","","","","","",""
"","S2","","html-keyboard-response","470","541906","0.0-1.0-634.0","0","0","96009","","null","","","null","70","","NaN","","","","","","","","","","","","","",""
"","response","","html-keyboard-response","471","542074","0.0-1.0-635.0-0.0","0","0","96009","","162","","","75","70","","","2","70","training","adjacent","AB","1","2","L.jpg","O.jpg","1","1","1","",""
"","feedback","","html-keyboard-response","472","543089","0.0-1.0-636.0-0.0","0","0","96009","","null","","","null","70","","","","","","","","","","","","","","","",""
"","ITI","","html-keyboard-response","473","544096","0.0-1.0-639.0","0","0","96009","","null","","","null","70","","","","","","","","","","","","","","","NaN",""
"","S1","","html-keyboard-response","474","544353","0.0-1.0-641.0","0","0","96009","","null","","","null","71","","","","","","","","","","","","","","","",""
"","ISI","","html-keyboard-response","475","545360","0.0-1.0-642.0","0","0","96009","","null","","","null","71","NaN","","","","","","","","","","","","","","",""
"","S2","","html-keyboard-response","476","545629","0.0-1.0-643.0","0","0","96009","","null","","","null","71","","NaN","","","","","","","","","","","","","",""
"","response","","html-keyboard-response","477","545931","0.0-1.0-644.0-0.0","0","0","96009","","298","","","75","71","","","2","71","training","adjacent","DE","4","5","M.jpg","P.jpg","1","1","1","",""
"","feedback","","html-keyboard-response","478","546940","0.0-1.0-645.0-0.0","0","0","96009","","null","","","null","71","","","","","","","","","","","","","","","",""
"","ITI","","html-keyboard-response","479","547955","0.0-1.0-648.0","0","0","96009","","null","","","null","71","","","","","","","","","","","","","","","NaN",""
"","S1","","html-keyboard-response","480","548221","0.0-1.0-650.0","0","0","96009","","null","","","null","72","","","","","","","","","","","","","","","",""
"","ISI","","html-keyboard-response","481","549235","0.0-1.0-651.0","0","0","96009","","null","","","null","72","NaN","","","","","","","","","","","","","","",""
"","S2","","html-keyboard-response","482","549498","0.0-1.0-652.0","0","0","96009","","null","","","null","72","","NaN","","","","","","","","","","","","","",""
"","response","","html-keyboard-response","483","549724","0.0-1.0-653.0-0.0","0","0","96009","","222","","","68","72","","","2","72","training","adjacent","BA","2","1","O.jpg","L.jpg","0","0","1","",""
"","feedback","","html-keyboard-response","484","550739","0.0-1.0-654.0-0.0","0","0","96009","","null","","","null","72","","","","","","","","","","","","","","","",""
"","ITI","","html-keyboard-response","485","551747","0.0-1.0-657.0","0","0","96009","","null","","","null","72","","","","","","","","","","","","","","","NaN",""
"","S1","","html-keyboard-response","486","552017","0.0-1.0-659.0","0","0","96009","","null","","","null","73","","","","","","","","","","","","","","","",""
"","ISI","","html-keyboard-response","487","553035","0.0-1.0-660.0","0","0","96009","","null","","","null","73","NaN","","","","","","","","","","","","","","",""
"","S2","","html-keyboard-response","488","553299","0.0-1.0-661.0","0","0","96009","","null","","","null","73","","NaN","","","","","","","","","","","","","",""
"","response","","html-keyboard-response","489","553398","0.0-1.0-662.0-0.0","0","0","96009","","94","","","75","73","","","2","73","training","adjacent","CB","3","2","R.jpg","O.jpg","1","0","0","",""
"","feedback","","html-keyboard-response","490","554414","0.0-1.0-663.0-0.0","0","0","96009","","null","","","null","73","","","","","","","","","","","","","","","",""
"","time_out","","html-keyboard-response","491","556432","0.0-1.0-665.0-0.0","0","0","96009","","null","","","null","73","","","","","","","","","","","","","","","",""
"","ITI","","html-keyboard-response","492","557445","0.0-1.0-666.0","0","0","96009","","null","","","null","73","","","","","","","","","","","","","","","NaN",""
"","S1","","html-keyboard-response","493","557711","0.0-1.0-668.0","0","0","96009","","null","","","null","74","","","","","","","","","","","","","","","",""
"","ISI","","html-keyboard-response","494","558721","0.0-1.0-669.0","0","0","96009","","null","","","null","74","NaN","","","","","","","","","","","","","","",""
"","S2","","html-keyboard-response","495","558989","0.0-1.0-670.0","0","0","96009","","null","","","null","74","","NaN","","","","","","","","","","","","","",""
"","response","","html-keyboard-response","496","559044","0.0-1.0-671.0-0.0","0","0","96009","","51","","","68","74","","","2","74","training","adjacent","ED","5","4","P.jpg","M.jpg","0","0","1","",""
"","feedback","","html-keyboard-response","497","560066","0.0-1.0-672.0-0.0","0","0","96009","","null","","","null","74","","","","","","","","","","","","","","","",""
"","ITI","","html-keyboard-response","498","561073","0.0-1.0-675.0","0","0","96009","","null","","","null","74","","","","","","","","","","","","","","","NaN",""
"","S1","","html-keyboard-response","499","561345","0.0-1.0-677.0","0","0","96009","","null","","","null","75","","","","","","","","","","","","","","","",""
"","ISI","","html-keyboard-response","500","562359","0.0-1.0-678.0","0","0","96009","","null","","","null","75","NaN","","","","","","","","","","","","","","",""
"","S2","","html-keyboard-response","501","562623","0.0-1.0-679.0","0","0","96009","","null","","","null","75","","NaN","","","","","","","","","","","","","",""
"","response","","html-keyboard-response","502","563052","0.0-1.0-680.0-0.0","0","0","96009","","423","","","75","75","","","2","75","training","adjacent","BC","2","3","O.jpg","R.jpg","1","1","1","",""
"","feedback","","html-keyboard-response","503","564066","0.0-1.0-681.0-0.0","0","0","96009","","null","","","null","75","","","","","","","","","","","","","","","",""
"","ITI","","html-keyboard-response","504","565075","0.0-1.0-684.0","0","0","96009","","null","","","null","75","","","","","","","","","","","","","","","NaN",""
"","S1","","html-keyboard-response","505","565342","0.0-1.0-686.0","0","0","96009","","null","","","null","76","","","","","","","","","","","","","","","",""
"","ISI","","html-keyboard-response","506","566357","0.0-1.0-687.0","0","0","96009","","null","","","null","76","NaN","","","","","","","","","","","","","","",""
"","S2","","html-keyboard-response","507","566621","0.0-1.0-688.0","0","0","96009","","null","","","null","76","","NaN","","","","","","","","","","","","","",""
"","response","","html-keyboard-response","508","566782","0.0-1.0-689.0-0.0","0","0","96009","","148","","","68","76","","","2","76","training","adjacent","GF","7","6","N.jpg","Q.jpg","0","0","1","",""
"","feedback","","html-keyboard-response","509","567806","0.0-1.0-690.0-0.0","0","0","96009","","null","","","null","76","","","","","","","","","","","","","","","",""
"","ITI","","html-keyboard-response","510","568826","0.0-1.0-693.0","0","0","96009","","null","","","null","76","","","","","","","","","","","","","","","NaN",""
"","S1","","html-keyboard-response","511","569089","0.0-1.0-695.0","0","0","96009","","null","","","null","77","","","","","","","","","","","","","","","",""
"","ISI","","html-keyboard-response","512","570095","0.0-1.0-696.0","0","0","96009","","null","","","null","77","NaN","","","","","","","","","","","","","","",""
"","S2","","html-keyboard-response","513","570358","0.0-1.0-697.0","0","0","96009","","null","","","null","77","","NaN","","","","","","","","","","","","","",""
"","response","","html-keyboard-response","514","570683","0.0-1.0-698.0-0.0","0","0","96009","","318","","","75","77","","","2","77","training","adjacent","DC","4","3","M.jpg","R.jpg","1","0","0","",""
"","feedback","","html-keyboard-response","515","571697","0.0-1.0-699.0-0.0","0","0","96009","","null","","","null","77","","","","","","","","","","","","","","","",""
"","time_out","","html-keyboard-response","516","573711","0.0-1.0-701.0-0.0","0","0","96009","","null","","","null","77","","","","","","","","","","","","","","","",""
"","ITI","","html-keyboard-response","517","574721","0.0-1.0-702.0","0","0","96009","","null","","","null","77","","","","","","","","","","","","","","","NaN",""
"","S1","","html-keyboard-response","518","574993","0.0-1.0-704.0","0","0","96009","","null","","","null","78","","","","","","","","","","","","","","","",""
"","ISI","","html-keyboard-response","519","576002","0.0-1.0-705.0","0","0","96009","","null","","","null","78","NaN","","","","","","","","","","","","","","",""
"","S2","","html-keyboard-response","520","576272","0.0-1.0-706.0","0","0","96009","","null","","","null","78","","NaN","","","","","","","","","","","","","",""
"","response","","html-keyboard-response","521","576672","0.0-1.0-707.0-0.0","0","0","96009","","393","","","68","78","","","2","78","training","adjacent","AB","1","2","L.jpg","O.jpg","0","1","0","",""
"","feedback","","html-keyboard-response","522","577682","0.0-1.0-708.0-0.0","0","0","96009","","null","","","null","78","","","","","","","","","","","","","","","",""
"","time_out","","html-keyboard-response","523","579697","0.0-1.0-710.0-0.0","0","0","96009","","null","","","null","78","","","","","","","","","","","","","","","",""
"","ITI","","html-keyboard-response","524","580705","0.0-1.0-711.0","0","0","96009","","null","","","null","78","","","","","","","","","","","","","","","NaN",""
"","S1","","html-keyboard-response","525","580977","0.0-1.0-713.0","0","0","96009","","null","","","null","79","","","","","","","","","","","","","","","",""
"","ISI","","html-keyboard-response","526","581986","0.0-1.0-714.0","0","0","96009","","null","","","null","79","NaN","","","","","","","","","","","","","","",""
"","S2","","html-keyboard-response","527","582257","0.0-1.0-715.0","0","0","96009","","null","","","null","79","","NaN","","","","","","","","","","","","","",""
"","response","","html-keyboard-response","528","582573","0.0-1.0-716.0-0.0","0","0","96009","","311","","","75","79","","","2","79","training","adjacent","FG","6","7","Q.jpg","N.jpg","1","1","1","",""
"","feedback","","html-keyboard-response","529","583589","0.0-1.0-717.0-0.0","0","0","96009","","null","","","null","79","","","","","","","","","","","","","","","",""
"","ITI","","html-keyboard-response","530","584600","0.0-1.0-720.0","0","0","96009","","null","","","null","79","","","","","","","","","","","","","","","NaN",""
"","S1","","html-keyboard-response","531","584865","0.0-1.0-722.0","0","0","96009","","null","","","null","80","","","","","","","","","","","","","","","",""
"","ISI","","html-keyboard-response","532","585879","0.0-1.0-723.0","0","0","96009","","null","","","null","80","NaN","","","","","","","","","","","","","","",""
"","S2","","html-keyboard-response","533","586145","0.0-1.0-724.0","0","0","96009","","null","","","null","80","","NaN","","","","","","","","","","","","","",""
"","response","","html-keyboard-response","534","586467","0.0-1.0-725.0-0.0","0","0","96009","","317","","","75","80","","","2","80","training","adjacent","DE","4","5","M.jpg","P.jpg","1","1","1","",""
"","feedback","","html-keyboard-response","535","587487","0.0-1.0-726.0-0.0","0","0","96009","","null","","","null","80","","","","","","","","","","","","","","","",""
"","ITI","","html-keyboard-response","536","588504","0.0-1.0-729.0","0","0","96009","","null","","","null","80","","","","","","","","","","","","","","","NaN",""
"","S1","","html-keyboard-response","537","588770","0.0-1.0-731.0","0","0","96009","","null","","","null","81","","","","","","","","","","","","","","","",""
"","ISI","","html-keyboard-response","538","589777","0.0-1.0-732.0","0","0","96009","","null","","","null","81","NaN","","","","","","","","","","","","","","",""
"","S2","","html-keyboard-response","539","590049","0.0-1.0-733.0","0","0","96009","","null","","","null","81","","NaN","","","","","","","","","","","","","",""
"","response","","html-keyboard-response","540","590346","0.0-1.0-734.0-0.0","0","0","96009","","291","","","75","81","","","2","81","training","adjacent","ED","5","4","P.jpg","M.jpg","1","0","0","",""
"","feedback","","html-keyboard-response","541","591360","0.0-1.0-735.0-0.0","0","0","96009","","null","","","null","81","","","","","","","","","","","","","","","",""
"","time_out","","html-keyboard-response","542","593377","0.0-1.0-737.0-0.0","0","0","96009","","null","","","null","81","","","","","","","","","","","","","","","",""
"","ITI","","html-keyboard-response","543","594384","0.0-1.0-738.0","0","0","96009","","null","","","null","81","","","","","","","","","","","","","","","NaN",""
"","S1","","html-keyboard-response","544","594649","0.0-1.0-740.0","0","0","96009","","null","","","null","82","","","","","","","","","","","","","","","",""
"","ISI","","html-keyboard-response","545","595669","0.0-1.0-741.0","0","0","96009","","70","","","68","82","d","","","","","","","","","","","","","","",""
"","S2","","html-keyboard-response","546","595936","0.0-1.0-742.0","0","0","96009","","null","","","null","82","","NaN","","","","","","","","","","","","","",""
"","response","","html-keyboard-response","547","595966","0.0-1.0-743.0-0.0","0","0","96009","","24","","","68","82","","","2","82","training","adjacent","DC","4","3","M.jpg","R.jpg","0","0","1","",""
"","feedback","","html-keyboard-response","548","596982","0.0-1.0-744.0-0.0","0","0","96009","","null","","","null","82","","","","","","","","","","","","","","","",""
"","ITI","","html-keyboard-response","549","598004","0.0-1.0-747.0","0","0","96009","","null","","","null","82","","","","","","","","","","","","","","","NaN",""
"","S1","","html-keyboard-response","550","598274","0.0-1.0-749.0","0","0","96009","","null","","","null","83","","","","","","","","","","","","","","","",""
"","ISI","","html-keyboard-response","551","599282","0.0-1.0-750.0","0","0","96009","","null","","","null","83","NaN","","","","","","","","","","","","","","",""
"","S2","","html-keyboard-response","552","599551","0.0-1.0-751.0","0","0","96009","","null","","","null","83","","NaN","","","","","","","","","","","","","",""
"","response","","html-keyboard-response","553","599576","0.0-1.0-752.0-0.0","0","0","96009","","18","","","75","83","","","2","83","training","adjacent","EF","5","6","P.jpg","Q.jpg","1","1","1","",""
"","feedback","","html-keyboard-response","554","600598","0.0-1.0-753.0-0.0","0","0","96009","","null","","","null","83","","","","","","","","","","","","","","","",""
"","ITI","","html-keyboard-response","555","601611","0.0-1.0-756.0","0","0","96009","","null","","","null","83","","","","","","","","","","","","","","","NaN",""
"","S1","","html-keyboard-response","556","601875","0.0-1.0-758.0","0","0","96009","","null","","","null","84","","","","","","","","","","","","","","","",""
"","ISI","","html-keyboard-response","557","602891","0.0-1.0-759.0","0","0","96009","","610","","","75","84","k","","","","","","","","","","","","","","",""
"","S2","","html-keyboard-response","558","603158","0.0-1.0-760.0","0","0","96009","","null","","","null","84","","NaN","","","","","","","","","","","","","",""
"","response","","html-keyboard-response","559","604150","0.0-1.0-761.0-0.0","0","0","96009","","988","","","75","84","","","2","84","training","adjacent","GF","7","6","N.jpg","Q.jpg","1","0","0","",""
"","feedback","","html-keyboard-response","560","605161","0.0-1.0-762.0-0.0","0","0","96009","","null","","","null","84","","","","","","","","","","","","","","","",""
"","time_out","","html-keyboard-response","561","607176","0.0-1.0-764.0-0.0","0","0","96009","","null","","","null","84","","","","","","","","","","","","","","","",""
"","ITI","","html-keyboard-response","562","608191","0.0-1.0-765.0","0","0","96009","","null","","","null","84","","","","","","","","","","","","","","","NaN",""
"","S1","","html-keyboard-response","563","608455","0.0-1.0-767.0","0","0","96009","","null","","","null","85","","","","","","","","","","","","","","","",""
"","ISI","","html-keyboard-response","564","609468","0.0-1.0-768.0","0","0","96009","","108","","","68","85","d","","","","","","","","","","","","","","",""
"","S2","","html-keyboard-response","565","609732","0.0-1.0-769.0","0","0","96009","","null","","","null","85","","NaN","","","","","","","","","","","","","",""
"","response","","html-keyboard-response","566","610115","0.0-1.0-770.0-0.0","0","0","96009","","379","","","75","85","","","2","85","training","adjacent","DE","4","5","M.jpg","P.jpg","1","1","1","",""
"","feedback","","html-keyboard-response","567","611126","0.0-1.0-771.0-0.0","0","0","96009","","null","","","null","85","","","","","","","","","","","","","","","",""
"","ITI","","html-keyboard-response","568","612140","0.0-1.0-774.0","0","0","96009","","null","","","null","85","","","","","","","","","","","","","","","NaN",""
"","S1","","html-keyboard-response","569","612404","0.0-1.0-776.0","0","0","96009","","null","","","null","86","","","","","","","","","","","","","","","",""
"","ISI","","html-keyboard-response","570","613422","0.0-1.0-777.0","0","0","96009","","null","","","null","86","NaN","","","","","","","","","","","","","","",""
"","S2","","html-keyboard-response","571","613686","0.0-1.0-778.0","0","0","96009","","null","","","null","86","","NaN","","","","","","","","","","","","","",""
"","response","","html-keyboard-response","572","614111","0.0-1.0-779.0-0.0","0","0","96009","","420","","","75","86","","","2","86","training","adjacent","DC","4","3","M.jpg","R.jpg","1","0","0","",""
"","feedback","","html-keyboard-response","573","615119","0.0-1.0-780.0-0.0","0","0","96009","","null","","","null","86","","","","","","","","","","","","","","","",""
"","time_out","","html-keyboard-response","574","617138","0.0-1.0-782.0-0.0","0","0","96009","","null","","","null","86","","","","","","","","","","","","","","","",""
"","ITI","","html-keyboard-response","575","618156","0.0-1.0-783.0","0","0","96009","","null","","","null","86","","","","","","","","","","","","","","","NaN",""
"","S1","","html-keyboard-response","576","618420","0.0-1.0-785.0","0","0","96009","","null","","","null","87","","","","","","","","","","","","","","","",""
"","ISI","","html-keyboard-response","577","619440","0.0-1.0-786.0","0","0","96009","","null","","","null","87","NaN","","","","","","","","","","","","","","",""
"","S2","","html-keyboard-response","578","619703","0.0-1.0-787.0","0","0","96009","","null","","","null","87","","NaN","","","","","","","","","","","","","",""
"","response","","html-keyboard-response","579","619767","0.0-1.0-788.0-0.0","0","0","96009","","58","","","68","87","","","2","87","training","adjacent","CB","3","2","R.jpg","O.jpg","0","0","1","",""
"","feedback","","html-keyboard-response","580","620784","0.0-1.0-789.0-0.0","0","0","96009","","null","","","null","87","","","","","","","","","","","","","","","",""
"","ITI","","html-keyboard-response","581","621795","0.0-1.0-792.0","0","0","96009","","null","","","null","87","","","","","","","","","","","","","","","NaN",""
