"success","ttype","start_time","trial_type","trial_index","time_elapsed","internal_node_id","warning","missed_checkup","PID","view_history","rt","responses","repeat_instructions","key_press","index","keypress_isi","keypress_S2","block","trial_num","phase","group_type","pair_type","S1_stim","S2_stim","S1_img","S2_img","S1_chosen","S1_higher","accuracy","keypress_iti","total_bonus_tally"
"true","full_screen","d04062023hr1838","fullscreen","0","22879","0.0-0.0","0","0","33270","","","","","","","","","","","","","","","","","","","","","",""
"","instructions","","instructions","1","59034","0.0-1.0-0.0-0.0","0","0","33270","[{""page_index"":0,""viewing_time"":5373},{""page_index"":1,""viewing_time"":16999},{""page_index"":2,""viewing_time"":11739},{""page_index"":3,""viewing_time"":2042}]","36153","","","","","","","","","","","","","","","","","","","",""
"","comprehension_check","","survey-multi-choice","2","89022","0.0-1.0-0.0-1.0","0","0","33270","","29985","{""Q0"":""True"",""Q1"":""D"",""Q2"":""Only when the screen 'MAKE A CHOICE' is shown"",""Q3"":""Green mark"",""Q4"":""either D or K""}","1","","","","","","","","","","","","","","","","","",""
"","missed_instruction_checkup","","html-keyboard-response","3","92052","0.0-1.0-0.0-2.0-0.0","0","1","33270","","3027","","","32","","","","","","","","","","","","","","","","",""
"","instructions","","instructions","4","111654","0.0-1.0-0.1-0.1","0","0","33270","[{""page_index"":0,""viewing_time"":3161},{""page_index"":1,""viewing_time"":12746},{""page_index"":2,""viewing_time"":2500},{""page_index"":3,""viewing_time"":1194}]","19602","","","","","","","","","","","","","","","","","","","",""
"","comprehension_check","","survey-multi-choice","5","125789","0.0-1.0-0.1-1.1","0","0","33270","","14132","{""Q0"":""True"",""Q1"":""D"",""Q2"":""Once the second image appears and while the screen 'MAKE A CHOICE' is shown"",""Q3"":""Green mark"",""Q4"":""either D or K""}","0","","","","","","","","","","","","","","","","","",""
"","start_exp","","html-keyboard-response","6","128301","0.0-1.0-1.0","0","0","33270","","2509","","","32","","","","","","","","","","","","","","","","",""
"","S1","","html-keyboard-response","7","128454","0.0-1.0-2.0","0","0","33270","","null","","","null","0","","","","","","","","","","","","","","","",""
"","ISI","","html-keyboard-response","8","130457","0.0-1.0-3.0","0","0","33270","","null","","","null","0","NaN","","","","","","","","","","","","","","",""
"","S2","","html-keyboard-response","9","130610","0.0-1.0-4.0","0","0","33270","","null","","","null","0","","NaN","","","","","","","","","","","","","",""
"","response","","html-keyboard-response","10","131969","0.0-1.0-5.0-0.0","0","0","33270","","1358","","","75","0","","","1","0","training","adjacent","ED","5","4","O.jpg","R.jpg","0","0","1","",""
"","feedback","","html-keyboard-response","11","132972","0.0-1.0-6.0-0.0","0","0","33270","","null","","","null","0","","","","","","","","","","","","","","","",""
"","ITI","","html-keyboard-response","12","133974","0.0-1.0-9.0","0","0","33270","","null","","","null","0","","","","","","","","","","","","","","","NaN",""
"","S1","","html-keyboard-response","13","134127","0.0-1.0-11.0","0","0","33270","","null","","","null","1","","","","","","","","","","","","","","","",""
"","ISI","","html-keyboard-response","14","136129","0.0-1.0-12.0","0","0","33270","","null","","","null","1","NaN","","","","","","","","","","","","","","",""
"","S2","","html-keyboard-response","15","136282","0.0-1.0-13.0","0","0","33270","","null","","","null","1","","NaN","","","","","","","","","","","","","",""
"","response","","html-keyboard-response","16","136996","0.0-1.0-14.0-0.0","0","0","33270","","712","","","75","1","","","1","1","training","adjacent","GF","7","6","P.jpg","M.jpg","0","0","1","",""
"","feedback","","html-keyboard-response","17","137999","0.0-1.0-15.0-0.0","0","0","33270","","null","","","null","1","","","","","","","","","","","","","","","",""
"","ITI","","html-keyboard-response","18","139001","0.0-1.0-18.0","0","0","33270","","null","","","null","1","","","","","","","","","","","","","","","NaN",""
"","S1","","html-keyboard-response","19","139154","0.0-1.0-20.0","0","0","33270","","null","","","null","2","","","","","","","","","","","","","","","",""
"","ISI","","html-keyboard-response","20","141156","0.0-1.0-21.0","0","0","33270","","null","","","null","2","NaN","","","","","","","","","","","","","","",""
"","S2","","html-keyboard-response","21","141309","0.0-1.0-22.0","0","0","33270","","null","","","null","2","","NaN","","","","","","","","","","","","","",""
"","response","","html-keyboard-response","22","142050","0.0-1.0-23.0-0.0","0","0","33270","","740","","","68","2","","","1","2","training","adjacent","DC","4","3","R.jpg","N.jpg","1","0","0","",""
"","feedback","","html-keyboard-response","23","143053","0.0-1.0-24.0-0.0","0","0","33270","","null","","","null","2","","","","","","","","","","","","","","","",""
"","time_out","","html-keyboard-response","24","145055","0.0-1.0-26.0-0.0","0","0","33270","","null","","","null","2","","","","","","","","","","","","","","","",""
"","ITI","","html-keyboard-response","25","146057","0.0-1.0-27.0","0","0","33270","","null","","","null","2","","","","","","","","","","","","","","","NaN",""
"","S1","","html-keyboard-response","26","146210","0.0-1.0-29.0","0","0","33270","","null","","","null","3","","","","","","","","","","","","","","","",""
"","ISI","","html-keyboard-response","27","148213","0.0-1.0-30.0","0","0","33270","","null","","","null","3","NaN","","","","","","","","","","","","","","",""
"","S2","","html-keyboard-response","28","148365","0.0-1.0-31.0","0","0","33270","","null","","","null","3","","NaN","","","","","","","","","","","","","",""
"","response","","html-keyboard-response","29","149229","0.0-1.0-32.0-0.0","0","0","33270","","863","","","75","3","","","1","3","training","adjacent","GF","7","6","P.jpg","M.jpg","0","0","1","",""
"","feedback","","html-keyboard-response","30","150231","0.0-1.0-33.0-0.0","0","0","33270","","null","","","null","3","","","","","","","","","","","","","","","",""
"","ITI","","html-keyboard-response","31","151233","0.0-1.0-36.0","0","0","33270","","null","","","null","3","","","","","","","","","","","","","","","NaN",""
"","S1","","html-keyboard-response","32","151386","0.0-1.0-38.0","0","0","33270","","null","","","null","4","","","","","","","","","","","","","","","",""
"","ISI","","html-keyboard-response","33","153388","0.0-1.0-39.0","0","0","33270","","null","","","null","4","NaN","","","","","","","","","","","","","","",""
"","S2","","html-keyboard-response","34","153540","0.0-1.0-40.0","0","0","33270","","null","","","null","4","","NaN","","","","","","","","","","","","","",""
"","response","","html-keyboard-response","35","154535","0.0-1.0-41.0-0.0","0","0","33270","","994","","","75","4","","","1","4","training","adjacent","FG","6","7","M.jpg","P.jpg","0","1","0","",""
"","feedback","","html-keyboard-response","36","155538","0.0-1.0-42.0-0.0","0","0","33270","","null","","","null","4","","","","","","","","","","","","","","","",""
"","time_out","","html-keyboard-response","37","157541","0.0-1.0-44.0-0.0","0","0","33270","","null","","","null","4","","","","","","","","","","","","","","","",""
"","ITI","","html-keyboard-response","38","158543","0.0-1.0-45.0","0","0","33270","","null","","","null","4","","","","","","","","","","","","","","","NaN",""
"","S1","","html-keyboard-response","39","158695","0.0-1.0-47.0","0","0","33270","","null","","","null","5","","","","","","","","","","","","","","","",""
"","ISI","","html-keyboard-response","40","160698","0.0-1.0-48.0","0","0","33270","","null","","","null","5","NaN","","","","","","","","","","","","","","",""
"","S2","","html-keyboard-response","41","160851","0.0-1.0-49.0","0","0","33270","","null","","","null","5","","NaN","","","","","","","","","","","","","",""
"","response","","html-keyboard-response","42","161937","0.0-1.0-50.0-0.0","0","0","33270","","1085","","","68","5","","","1","5","training","adjacent","CB","3","2","N.jpg","L.jpg","1","0","0","",""
"","feedback","","html-keyboard-response","43","162940","0.0-1.0-51.0-0.0","0","0","33270","","null","","","null","5","","","","","","","","","","","","","","","",""
"","time_out","","html-keyboard-response","44","164941","0.0-1.0-53.0-0.0","0","0","33270","","null","","","null","5","","","","","","","","","","","","","","","",""
"","ITI","","html-keyboard-response","45","165943","0.0-1.0-54.0","0","0","33270","","null","","","null","5","","","","","","","","","","","","","","","NaN",""
"","S1","","html-keyboard-response","46","166094","0.0-1.0-56.0","0","0","33270","","null","","","null","6","","","","","","","","","","","","","","","",""
"","ISI","","html-keyboard-response","47","168096","0.0-1.0-57.0","0","0","33270","","null","","","null","6","NaN","","","","","","","","","","","","","","",""
"","S2","","html-keyboard-response","48","168248","0.0-1.0-58.0","0","0","33270","","null","","","null","6","","NaN","","","","","","","","","","","","","",""
"","response","","html-keyboard-response","49","168948","0.0-1.0-59.0-0.0","0","0","33270","","698","","","75","6","","","1","6","training","adjacent","ED","5","4","O.jpg","R.jpg","0","0","1","",""
"","feedback","","html-keyboard-response","50","169950","0.0-1.0-60.0-0.0","0","0","33270","","null","","","null","6","","","","","","","","","","","","","","","",""
"","ITI","","html-keyboard-response","51","170953","0.0-1.0-63.0","0","0","33270","","null","","","null","6","","","","","","","","","","","","","","","NaN",""
"","S1","","html-keyboard-response","52","171105","0.0-1.0-65.0","0","0","33270","","null","","","null","7","","","","","","","","","","","","","","","",""
"","ISI","","html-keyboard-response","53","173108","0.0-1.0-66.0","0","0","33270","","null","","","null","7","NaN","","","","","","","","","","","","","","",""
"","S2","","html-keyboard-response","54","173260","0.0-1.0-67.0","0","0","33270","","null","","","null","7","","NaN","","","","","","","","","","","","","",""
"","response","","html-keyboard-response","55","173974","0.0-1.0-68.0-0.0","0","0","33270","","712","","","68","7","","","1","7","training","adjacent","FE","6","5","M.jpg","O.jpg","1","0","0","",""
"","feedback","","html-keyboard-response","56","174976","0.0-1.0-69.0-0.0","0","0","33270","","null","","","null","7","","","","","","","","","","","","","","","",""
"","time_out","","html-keyboard-response","57","176978","0.0-1.0-71.0-0.0","0","0","33270","","null","","","null","7","","","","","","","","","","","","","","","",""
"","ITI","","html-keyboard-response","58","177980","0.0-1.0-72.0","0","0","33270","","null","","","null","7","","","","","","","","","","","","","","","NaN",""
"","S1","","html-keyboard-response","59","178133","0.0-1.0-74.0","0","0","33270","","null","","","null","8","","","","","","","","","","","","","","","",""
"","ISI","","html-keyboard-response","60","180135","0.0-1.0-75.0","0","0","33270","","null","","","null","8","NaN","","","","","","","","","","","","","","",""
"","S2","","html-keyboard-response","61","180288","0.0-1.0-76.0","0","0","33270","","null","","","null","8","","NaN","","","","","","","","","","","","","",""
"","response","","html-keyboard-response","62","181138","0.0-1.0-77.0-0.0","0","0","33270","","849","","","75","8","","","1","8","training","adjacent","EF","5","6","O.jpg","M.jpg","0","1","0","",""
"","feedback","","html-keyboard-response","63","182140","0.0-1.0-78.0-0.0","0","0","33270","","null","","","null","8","","","","","","","","","","","","","","","",""
"","time_out","","html-keyboard-response","64","184142","0.0-1.0-80.0-0.0","0","0","33270","","null","","","null","8","","","","","","","","","","","","","","","",""
"","ITI","","html-keyboard-response","65","185144","0.0-1.0-81.0","0","0","33270","","null","","","null","8","","","","","","","","","","","","","","","NaN",""
"","S1","","html-keyboard-response","66","185297","0.0-1.0-83.0","0","0","33270","","null","","","null","9","","","","","","","","","","","","","","","",""
"","ISI","","html-keyboard-response","67","187300","0.0-1.0-84.0","0","0","33270","","null","","","null","9","NaN","","","","","","","","","","","","","","",""
"","S2","","html-keyboard-response","68","187452","0.0-1.0-85.0","0","0","33270","","null","","","null","9","","NaN","","","","","","","","","","","","","",""
"","response","","html-keyboard-response","69","188846","0.0-1.0-86.0-0.0","0","0","33270","","1393","","","68","9","","","1","9","training","adjacent","CB","3","2","N.jpg","L.jpg","1","0","0","",""
"","feedback","","html-keyboard-response","70","189848","0.0-1.0-87.0-0.0","0","0","33270","","null","","","null","9","","","","","","","","","","","","","","","",""
"","time_out","","html-keyboard-response","71","191850","0.0-1.0-89.0-0.0","0","0","33270","","null","","","null","9","","","","","","","","","","","","","","","",""
"","ITI","","html-keyboard-response","72","192853","0.0-1.0-90.0","0","0","33270","","null","","","null","9","","","","","","","","","","","","","","","NaN",""
"","S1","","html-keyboard-response","73","193005","0.0-1.0-92.0","0","0","33270","","null","","","null","10","","","","","","","","","","","","","","","",""
"","ISI","","html-keyboard-response","74","195008","0.0-1.0-93.0","0","0","33270","","null","","","null","10","NaN","","","","","","","","","","","","","","",""
"","S2","","html-keyboard-response","75","195161","0.0-1.0-94.0","0","0","33270","","null","","","null","10","","NaN","","","","","","","","","","","","","",""
"","response","","html-keyboard-response","76","195775","0.0-1.0-95.0-0.0","0","0","33270","","613","","","68","10","","","1","10","training","adjacent","ED","5","4","O.jpg","R.jpg","1","0","0","",""
"","feedback","","html-keyboard-response","77","196778","0.0-1.0-96.0-0.0","0","0","33270","","null","","","null","10","","","","","","","","","","","","","","","",""
"","time_out","","html-keyboard-response","78","198781","0.0-1.0-98.0-0.0","0","0","33270","","null","","","null","10","","","","","","","","","","","","","","","",""
"","ITI","","html-keyboard-response","79","199784","0.0-1.0-99.0","0","0","33270","","null","","","null","10","","","","","","","","","","","","","","","NaN",""
"","S1","","html-keyboard-response","80","199936","0.0-1.0-101.0","0","0","33270","","null","","","null","11","","","","","","","","","","","","","","","",""
"","ISI","","html-keyboard-response","81","201939","0.0-1.0-102.0","0","0","33270","","null","","","null","11","NaN","","","","","","","","","","","","","","",""
"","S2","","html-keyboard-response","82","202091","0.0-1.0-103.0","0","0","33270","","null","","","null","11","","NaN","","","","","","","","","","","","","",""
"","response","","html-keyboard-response","83","203003","0.0-1.0-104.0-0.0","0","0","33270","","911","","","75","11","","","1","11","training","adjacent","DC","4","3","R.jpg","N.jpg","0","0","1","",""
"","feedback","","html-keyboard-response","84","204006","0.0-1.0-105.0-0.0","0","0","33270","","null","","","null","11","","","","","","","","","","","","","","","",""
"","ITI","","html-keyboard-response","85","205008","0.0-1.0-108.0","0","0","33270","","null","","","null","11","","","","","","","","","","","","","","","NaN",""
"","S1","","html-keyboard-response","86","205161","0.0-1.0-110.0","0","0","33270","","null","","","null","12","","","","","","","","","","","","","","","",""
"","ISI","","html-keyboard-response","87","207163","0.0-1.0-111.0","0","0","33270","","null","","","null","12","NaN","","","","","","","","","","","","","","",""
"","S2","","html-keyboard-response","88","207316","0.0-1.0-112.0","0","0","33270","","null","","","null","12","","NaN","","","","","","","","","","","","","",""
"","response","","html-keyboard-response","89","208095","0.0-1.0-113.0-0.0","0","0","33270","","778","","","75","12","","","1","12","training","adjacent","FG","6","7","M.jpg","P.jpg","0","1","0","",""
"","feedback","","html-keyboard-response","90","209097","0.0-1.0-114.0-0.0","0","0","33270","","null","","","null","12","","","","","","","","","","","","","","","",""
"","time_out","","html-keyboard-response","91","211100","0.0-1.0-116.0-0.0","0","0","33270","","null","","","null","12","","","","","","","","","","","","","","","",""
"","ITI","","html-keyboard-response","92","212101","0.0-1.0-117.0","0","0","33270","","null","","","null","12","","","","","","","","","","","","","","","NaN",""
"","S1","","html-keyboard-response","93","212254","0.0-1.0-119.0","0","0","33270","","null","","","null","13","","","","","","","","","","","","","","","",""
"","ISI","","html-keyboard-response","94","214256","0.0-1.0-120.0","0","0","33270","","null","","","null","13","NaN","","","","","","","","","","","","","","",""
"","S2","","html-keyboard-response","95","214408","0.0-1.0-121.0","0","0","33270","","null","","","null","13","","NaN","","","","","","","","","","","","","",""
"","response","","html-keyboard-response","96","215152","0.0-1.0-122.0-0.0","0","0","33270","","743","","","75","13","","","1","13","training","adjacent","BA","2","1","L.jpg","Q.jpg","0","0","1","",""
"","feedback","","html-keyboard-response","97","216155","0.0-1.0-123.0-0.0","0","0","33270","","null","","","null","13","","","","","","","","","","","","","","","",""
"","ITI","","html-keyboard-response","98","217157","0.0-1.0-126.0","0","0","33270","","null","","","null","13","","","","","","","","","","","","","","","NaN",""
"","S1","","html-keyboard-response","99","217310","0.0-1.0-128.0","0","0","33270","","null","","","null","14","","","","","","","","","","","","","","","",""
"","ISI","","html-keyboard-response","100","219313","0.0-1.0-129.0","0","0","33270","","null","","","null","14","NaN","","","","","","","","","","","","","","",""
"","S2","","html-keyboard-response","101","219465","0.0-1.0-130.0","0","0","33270","","null","","","null","14","","NaN","","","","","","","","","","","","","",""
"","response","","html-keyboard-response","102","221218","0.0-1.0-131.0-0.0","0","0","33270","","1751","","","75","14","","","1","14","training","adjacent","BA","2","1","L.jpg","Q.jpg","0","0","1","",""
"","feedback","","html-keyboard-response","103","222221","0.0-1.0-132.0-0.0","0","0","33270","","null","","","null","14","","","","","","","","","","","","","","","",""
"","ITI","","html-keyboard-response","104","223234","0.0-1.0-135.0","0","0","33270","","null","","","null","14","","","","","","","","","","","","","","","NaN",""
"","S1","","html-keyboard-response","105","223387","0.0-1.0-137.0","0","0","33270","","null","","","null","15","","","","","","","","","","","","","","","",""
"","ISI","","html-keyboard-response","106","225389","0.0-1.0-138.0","0","0","33270","","null","","","null","15","NaN","","","","","","","","","","","","","","",""
"","S2","","html-keyboard-response","107","225542","0.0-1.0-139.0","0","0","33270","","null","","","null","15","","NaN","","","","","","","","","","","","","",""
"","response","","html-keyboard-response","108","226304","0.0-1.0-140.0-0.0","0","0","33270","","761","","","75","15","","","1","15","training","adjacent","BC","2","3","L.jpg","N.jpg","0","1","0","",""
"","feedback","","html-keyboard-response","109","227306","0.0-1.0-141.0-0.0","0","0","33270","","null","","","null","15","","","","","","","","","","","","","","","",""
"","time_out","","html-keyboard-response","110","229308","0.0-1.0-143.0-0.0","0","0","33270","","null","","","null","15","","","","","","","","","","","","","","","",""
"","ITI","","html-keyboard-response","111","230309","0.0-1.0-144.0","0","0","33270","","null","","","null","15","","","","","","","","","","","","","","","NaN",""
"","S1","","html-keyboard-response","112","230461","0.0-1.0-146.0","0","0","33270","","null","","","null","16","","","","","","","","","","","","","","","",""
"","ISI","","html-keyboard-response","113","232463","0.0-1.0-147.0","0","0","33270","","null","","","null","16","NaN","","","","","","","","","","","","","","",""
"","S2","","html-keyboard-response","114","232616","0.0-1.0-148.0","0","0","33270","","null","","","null","16","","NaN","","","","","","","","","","","","","",""
"","response","","html-keyboard-response","115","233272","0.0-1.0-149.0-0.0","0","0","33270","","654","","","75","16","","","1","16","training","adjacent","EF","5","6","O.jpg","M.jpg","0","1","0","",""
"","feedback","","html-keyboard-response","116","234274","0.0-1.0-150.0-0.0","0","0","33270","","null","","","null","16","","","","","","","","","","","","","","","",""
"","time_out","","html-keyboard-response","117","236277","0.0-1.0-152.0-0.0","0","0","33270","","null","","","null","16","","","","","","","","","","","","","","","",""
"","ITI","","html-keyboard-response","118","237279","0.0-1.0-153.0","0","0","33270","","null","","","null","16","","","","","","","","","","","","","","","NaN",""
"","S1","","html-keyboard-response","119","237432","0.0-1.0-155.0","0","0","33270","","null","","","null","17","","","","","","","","","","","","","","","",""
"","ISI","","html-keyboard-response","120","239435","0.0-1.0-156.0","0","0","33270","","null","","","null","17","NaN","","","","","","","","","","","","","","",""
"","S2","","html-keyboard-response","121","239587","0.0-1.0-157.0","0","0","33270","","null","","","null","17","","NaN","","","","","","","","","","","","","",""
"","response","","html-keyboard-response","122","240406","0.0-1.0-158.0-0.0","0","0","33270","","818","","","75","17","","","1","17","training","adjacent","BC","2","3","L.jpg","N.jpg","0","1","0","",""
"","feedback","","html-keyboard-response","123","241408","0.0-1.0-159.0-0.0","0","0","33270","","null","","","null","17","","","","","","","","","","","","","","","",""
"","time_out","","html-keyboard-response","124","243410","0.0-1.0-161.0-0.0","0","0","33270","","null","","","null","17","","","","","","","","","","","","","","","",""
"","ITI","","html-keyboard-response","125","244413","0.0-1.0-162.0","0","0","33270","","null","","","null","17","","","","","","","","","","","","","","","NaN",""
"","S1","","html-keyboard-response","126","244565","0.0-1.0-164.0","0","0","33270","","null","","","null","18","","","","","","","","","","","","","","","",""
"","ISI","","html-keyboard-response","127","246567","0.0-1.0-165.0","0","0","33270","","null","","","null","18","NaN","","","","","","","","","","","","","","",""
"","S2","","html-keyboard-response","128","246720","0.0-1.0-166.0","0","0","33270","","null","","","null","18","","NaN","","","","","","","","","","","","","",""
"","response","","html-keyboard-response","129","248061","0.0-1.0-167.0-0.0","0","0","33270","","1339","","","75","18","","","1","18","training","adjacent","AB","1","2","Q.jpg","L.jpg","0","1","0","",""
"","feedback","","html-keyboard-response","130","249064","0.0-1.0-168.0-0.0","0","0","33270","","null","","","null","18","","","","","","","","","","","","","","","",""
"","time_out","","html-keyboard-response","131","251066","0.0-1.0-170.0-0.0","0","0","33270","","null","","","null","18","","","","","","","","","","","","","","","",""
"","ITI","","html-keyboard-response","132","252069","0.0-1.0-171.0","0","0","33270","","null","","","null","18","","","","","","","","","","","","","","","NaN",""
"","S1","","html-keyboard-response","133","252222","0.0-1.0-173.0","0","0","33270","","null","","","null","19","","","","","","","","","","","","","","","",""
"","ISI","","html-keyboard-response","134","254225","0.0-1.0-174.0","0","0","33270","","null","","","null","19","NaN","","","","","","","","","","","","","","",""
"","S2","","html-keyboard-response","135","254376","0.0-1.0-175.0","0","0","33270","","null","","","null","19","","NaN","","","","","","","","","","","","","",""
"","response","","html-keyboard-response","136","255029","0.0-1.0-176.0-0.0","0","0","33270","","651","","","68","19","","","1","19","training","adjacent","CD","3","4","N.jpg","R.jpg","1","1","1","",""
"","feedback","","html-keyboard-response","137","256032","0.0-1.0-177.0-0.0","0","0","33270","","null","","","null","19","","","","","","","","","","","","","","","",""
"","ITI","","html-keyboard-response","138","257034","0.0-1.0-180.0","0","0","33270","","null","","","null","19","","","","","","","","","","","","","","","NaN",""
"","S1","","html-keyboard-response","139","257186","0.0-1.0-182.0","0","0","33270","","null","","","null","20","","","","","","","","","","","","","","","",""
"","ISI","","html-keyboard-response","140","259188","0.0-1.0-183.0","0","0","33270","","null","","","null","20","NaN","","","","","","","","","","","","","","",""
"","S2","","html-keyboard-response","141","259341","0.0-1.0-184.0","0","0","33270","","null","","","null","20","","NaN","","","","","","","","","","","","","",""
"","response","","html-keyboard-response","142","260059","0.0-1.0-185.0-0.0","0","0","33270","","717","","","75","20","","","1","20","training","adjacent","AB","1","2","Q.jpg","L.jpg","0","1","0","",""
"","feedback","","html-keyboard-response","143","261062","0.0-1.0-186.0-0.0","0","0","33270","","null","","","null","20","","","","","","","","","","","","","","","",""
"","time_out","","html-keyboard-response","144","263065","0.0-1.0-188.0-0.0","0","0","33270","","null","","","null","20","","","","","","","","","","","","","","","",""
"","ITI","","html-keyboard-response","145","264067","0.0-1.0-189.0","0","0","33270","","null","","","null","20","","","","","","","","","","","","","","","NaN",""
"","S1","","html-keyboard-response","146","264220","0.0-1.0-191.0","0","0","33270","","null","","","null","21","","","","","","","","","","","","","","","",""
"","ISI","","html-keyboard-response","147","266223","0.0-1.0-192.0","0","0","33270","","null","","","null","21","NaN","","","","","","","","","","","","","","",""
"","S2","","html-keyboard-response","148","266375","0.0-1.0-193.0","0","0","33270","","null","","","null","21","","NaN","","","","","","","","","","","","","",""
"","response","","html-keyboard-response","149","266984","0.0-1.0-194.0-0.0","0","0","33270","","607","","","68","21","","","1","21","training","adjacent","BA","2","1","L.jpg","Q.jpg","1","0","0","",""
"","feedback","","html-keyboard-response","150","267987","0.0-1.0-195.0-0.0","0","0","33270","","null","","","null","21","","","","","","","","","","","","","","","",""
"","time_out","","html-keyboard-response","151","269989","0.0-1.0-197.0-0.0","0","0","33270","","null","","","null","21","","","","","","","","","","","","","","","",""
"","ITI","","html-keyboard-response","152","270991","0.0-1.0-198.0","0","0","33270","","null","","","null","21","","","","","","","","","","","","","","","NaN",""
"","S1","","html-keyboard-response","153","271143","0.0-1.0-200.0","0","0","33270","","null","","","null","22","","","","","","","","","","","","","","","",""
"","ISI","","html-keyboard-response","154","273146","0.0-1.0-201.0","0","0","33270","","null","","","null","22","NaN","","","","","","","","","","","","","","",""
"","S2","","html-keyboard-response","155","273299","0.0-1.0-202.0","0","0","33270","","null","","","null","22","","NaN","","","","","","","","","","","","","",""
"","response","","html-keyboard-response","156","274391","0.0-1.0-203.0-0.0","0","0","33270","","1091","","","68","22","","","1","22","training","adjacent","CD","3","4","N.jpg","R.jpg","1","1","1","",""
"","feedback","","html-keyboard-response","157","275393","0.0-1.0-204.0-0.0","0","0","33270","","null","","","null","22","","","","","","","","","","","","","","","",""
"","ITI","","html-keyboard-response","158","276396","0.0-1.0-207.0","0","0","33270","","null","","","null","22","","","","","","","","","","","","","","","NaN",""
"","S1","","html-keyboard-response","159","276549","0.0-1.0-209.0","0","0","33270","","null","","","null","23","","","","","","","","","","","","","","","",""
"","ISI","","html-keyboard-response","160","278550","0.0-1.0-210.0","0","0","33270","","null","","","null","23","NaN","","","","","","","","","","","","","","",""
"","S2","","html-keyboard-response","161","278702","0.0-1.0-211.0","0","0","33270","","null","","","null","23","","NaN","","","","","","","","","","","","","",""
"","response","","html-keyboard-response","162","279451","0.0-1.0-212.0-0.0","0","0","33270","","747","","","75","23","","","1","23","training","adjacent","FE","6","5","M.jpg","O.jpg","0","0","1","",""
"","feedback","","html-keyboard-response","163","280455","0.0-1.0-213.0-0.0","0","0","33270","","null","","","null","23","","","","","","","","","","","","","","","",""
"","ITI","","html-keyboard-response","164","281457","0.0-1.0-216.0","0","0","33270","","null","","","null","23","","","","","","","","","","","","","","","NaN",""
"","S1","","html-keyboard-response","165","281610","0.0-1.0-218.0","0","0","33270","","null","","","null","24","","","","","","","","","","","","","","","",""
"","ISI","","html-keyboard-response","166","283612","0.0-1.0-219.0","0","0","33270","","null","","","null","24","NaN","","","","","","","","","","","","","","",""
"","S2","","html-keyboard-response","167","283765","0.0-1.0-220.0","0","0","33270","","null","","","null","24","","NaN","","","","","","","","","","","","","",""
"","response","","html-keyboard-response","168","284455","0.0-1.0-221.0-0.0","0","0","33270","","689","","","75","24","","","1","24","training","adjacent","CD","3","4","N.jpg","R.jpg","0","1","0","",""
"","feedback","","html-keyboard-response","169","285458","0.0-1.0-222.0-0.0","0","0","33270","","null","","","null","24","","","","","","","","","","","","","","","",""
"","time_out","","html-keyboard-response","170","287460","0.0-1.0-224.0-0.0","0","0","33270","","null","","","null","24","","","","","","","","","","","","","","","",""
"","ITI","","html-keyboard-response","171","288462","0.0-1.0-225.0","0","0","33270","","null","","","null","24","","","","","","","","","","","","","","","NaN",""
"","S1","","html-keyboard-response","172","288615","0.0-1.0-227.0","0","0","33270","","null","","","null","25","","","","","","","","","","","","","","","",""
"","ISI","","html-keyboard-response","173","290618","0.0-1.0-228.0","0","0","33270","","null","","","null","25","NaN","","","","","","","","","","","","","","",""
"","S2","","html-keyboard-response","174","290771","0.0-1.0-229.0","0","0","33270","","null","","","null","25","","NaN","","","","","","","","","","","","","",""
"","response","","html-keyboard-response","175","291336","0.0-1.0-230.0-0.0","0","0","33270","","564","","","68","25","","","1","25","training","adjacent","ED","5","4","O.jpg","R.jpg","1","0","0","",""
"","feedback","","html-keyboard-response","176","292339","0.0-1.0-231.0-0.0","0","0","33270","","null","","","null","25","","","","","","","","","","","","","","","",""
"","time_out","","html-keyboard-response","177","294341","0.0-1.0-233.0-0.0","0","0","33270","","null","","","null","25","","","","","","","","","","","","","","","",""
"","ITI","","html-keyboard-response","178","295344","0.0-1.0-234.0","0","0","33270","","null","","","null","25","","","","","","","","","","","","","","","NaN",""
"","S1","","html-keyboard-response","179","295496","0.0-1.0-236.0","0","0","33270","","null","","","null","26","","","","","","","","","","","","","","","",""
"","ISI","","html-keyboard-response","180","297499","0.0-1.0-237.0","0","0","33270","","null","","","null","26","NaN","","","","","","","","","","","","","","",""
"","S2","","html-keyboard-response","181","297652","0.0-1.0-238.0","0","0","33270","","null","","","null","26","","NaN","","","","","","","","","","","","","",""
"","response","","html-keyboard-response","182","297965","0.0-1.0-239.0-0.0","0","0","33270","","313","","","75","26","","","1","26","training","adjacent","EF","5","6","O.jpg","M.jpg","0","1","0","",""
"","feedback","","html-keyboard-response","183","298968","0.0-1.0-240.0-0.0","0","0","33270","","null","","","null","26","","","","","","","","","","","","","","","",""
"","time_out","","html-keyboard-response","184","300970","0.0-1.0-242.0-0.0","0","0","33270","","null","","","null","26","","","","","","","","","","","","","","","",""
"","ITI","","html-keyboard-response","185","301971","0.0-1.0-243.0","0","0","33270","","null","","","null","26","","","","","","","","","","","","","","","NaN",""
"","S1","","html-keyboard-response","186","302124","0.0-1.0-245.0","0","0","33270","","null","","","null","27","","","","","","","","","","","","","","","",""
"","ISI","","html-keyboard-response","187","304126","0.0-1.0-246.0","0","0","33270","","null","","","null","27","NaN","","","","","","","","","","","","","","",""
"","S2","","html-keyboard-response","188","304289","0.0-1.0-247.0","0","0","33270","","null","","","null","27","","NaN","","","","","","","","","","","","","",""
"","response","","html-keyboard-response","189","305479","0.0-1.0-248.0-0.0","0","0","33270","","1189","","","75","27","","","1","27","training","adjacent","DE","4","5","R.jpg","O.jpg","0","1","0","",""
"","feedback","","html-keyboard-response","190","306481","0.0-1.0-249.0-0.0","0","0","33270","","null","","","null","27","","","","","","","","","","","","","","","",""
"","time_out","","html-keyboard-response","191","308484","0.0-1.0-251.0-0.0","0","0","33270","","null","","","null","27","","","","","","","","","","","","","","","",""
"","ITI","","html-keyboard-response","192","309486","0.0-1.0-252.0","0","0","33270","","null","","","null","27","","","","","","","","","","","","","","","NaN",""
"","S1","","html-keyboard-response","193","309639","0.0-1.0-254.0","0","0","33270","","null","","","null","28","","","","","","","","","","","","","","","",""
"","ISI","","html-keyboard-response","194","311641","0.0-1.0-255.0","0","0","33270","","null","","","null","28","NaN","","","","","","","","","","","","","","",""
"","S2","","html-keyboard-response","195","311794","0.0-1.0-256.0","0","0","33270","","null","","","null","28","","NaN","","","","","","","","","","","","","",""
"","response","","html-keyboard-response","196","312760","0.0-1.0-257.0-0.0","0","0","33270","","965","","","68","28","","","1","28","training","adjacent","FE","6","5","M.jpg","O.jpg","1","0","0","",""
"","feedback","","html-keyboard-response","197","313763","0.0-1.0-258.0-0.0","0","0","33270","","null","","","null","28","","","","","","","","","","","","","","","",""
"","time_out","","html-keyboard-response","198","315765","0.0-1.0-260.0-0.0","0","0","33270","","null","","","null","28","","","","","","","","","","","","","","","",""
"","ITI","","html-keyboard-response","199","316767","0.0-1.0-261.0","0","0","33270","","null","","","null","28","","","","","","","","","","","","","","","NaN",""
"","S1","","html-keyboard-response","200","316919","0.0-1.0-263.0","0","0","33270","","null","","","null","29","","","","","","","","","","","","","","","",""
"","ISI","","html-keyboard-response","201","318921","0.0-1.0-264.0","0","0","33270","","null","","","null","29","NaN","","","","","","","","","","","","","","",""
"","S2","","html-keyboard-response","202","319074","0.0-1.0-265.0","0","0","33270","","null","","","null","29","","NaN","","","","","","","","","","","","","",""
"","response","","html-keyboard-response","203","319956","0.0-1.0-266.0-0.0","0","0","33270","","881","","","75","29","","","1","29","training","adjacent","AB","1","2","Q.jpg","L.jpg","0","1","0","",""
"","feedback","","html-keyboard-response","204","320959","0.0-1.0-267.0-0.0","0","0","33270","","null","","","null","29","","","","","","","","","","","","","","","",""
"","time_out","","html-keyboard-response","205","322961","0.0-1.0-269.0-0.0","0","0","33270","","null","","","null","29","","","","","","","","","","","","","","","",""
"","ITI","","html-keyboard-response","206","323963","0.0-1.0-270.0","0","0","33270","","null","","","null","29","","","","","","","","","","","","","","","NaN",""
"","S1","","html-keyboard-response","207","324116","0.0-1.0-272.0","0","0","33270","","null","","","null","30","","","","","","","","","","","","","","","",""
"","ISI","","html-keyboard-response","208","326117","0.0-1.0-273.0","0","0","33270","","null","","","null","30","NaN","","","","","","","","","","","","","","",""
"","S2","","html-keyboard-response","209","326269","0.0-1.0-274.0","0","0","33270","","null","","","null","30","","NaN","","","","","","","","","","","","","",""
"","response","","html-keyboard-response","210","327220","0.0-1.0-275.0-0.0","0","0","33270","","948","","","75","30","","","1","30","training","adjacent","CB","3","2","N.jpg","L.jpg","0","0","1","",""
"","feedback","","html-keyboard-response","211","328222","0.0-1.0-276.0-0.0","0","0","33270","","null","","","null","30","","","","","","","","","","","","","","","",""
"","ITI","","html-keyboard-response","212","329225","0.0-1.0-279.0","0","0","33270","","null","","","null","30","","","","","","","","","","","","","","","NaN",""
"","S1","","html-keyboard-response","213","329377","0.0-1.0-281.0","0","0","33270","","null","","","null","31","","","","","","","","","","","","","","","",""
"","ISI","","html-keyboard-response","214","331379","0.0-1.0-282.0","0","0","33270","","null","","","null","31","NaN","","","","","","","","","","","","","","",""
"","S2","","html-keyboard-response","215","331532","0.0-1.0-283.0","0","0","33270","","null","","","null","31","","NaN","","","","","","","","","","","","","",""
"","response","","html-keyboard-response","216","332044","0.0-1.0-284.0-0.0","0","0","33270","","511","","","75","31","","","1","31","training","adjacent","CB","3","2","N.jpg","L.jpg","0","0","1","",""
"","feedback","","html-keyboard-response","217","333047","0.0-1.0-285.0-0.0","0","0","33270","","null","","","null","31","","","","","","","","","","","","","","","",""
"","ITI","","html-keyboard-response","218","334049","0.0-1.0-288.0","0","0","33270","","null","","","null","31","","","","","","","","","","","","","","","NaN",""
"","S1","","html-keyboard-response","219","334201","0.0-1.0-290.0","0","0","33270","","null","","","null","32","","","","","","","","","","","","","","","",""
"","ISI","","html-keyboard-response","220","336203","0.0-1.0-291.0","0","0","33270","","null","","","null","32","NaN","","","","","","","","","","","","","","",""
"","S2","","html-keyboard-response","221","336356","0.0-1.0-292.0","0","0","33270","","null","","","null","32","","NaN","","","","","","","","","","","","","",""
"","response","","html-keyboard-response","222","336893","0.0-1.0-293.0-0.0","0","0","33270","","535","","","75","32","","","1","32","training","adjacent","BC","2","3","L.jpg","N.jpg","0","1","0","",""
"","feedback","","html-keyboard-response","223","337894","0.0-1.0-294.0-0.0","0","0","33270","","null","","","null","32","","","","","","","","","","","","","","","",""
"","time_out","","html-keyboard-response","224","339896","0.0-1.0-296.0-0.0","0","0","33270","","null","","","null","32","","","","","","","","","","","","","","","",""
"","ITI","","html-keyboard-response","225","340899","0.0-1.0-297.0","0","0","33270","","null","","","null","32","","","","","","","","","","","","","","","NaN",""
"","S1","","html-keyboard-response","226","341051","0.0-1.0-299.0","0","0","33270","","null","","","null","33","","","","","","","","","","","","","","","",""
"","ISI","","html-keyboard-response","227","343053","0.0-1.0-300.0","0","0","33270","","null","","","null","33","NaN","","","","","","","","","","","","","","",""
"","S2","","html-keyboard-response","228","343206","0.0-1.0-301.0","0","0","33270","","null","","","null","33","","NaN","","","","","","","","","","","","","",""
"","response","","html-keyboard-response","229","344339","0.0-1.0-302.0-0.0","0","0","33270","","1132","","","68","33","","","1","33","training","adjacent","FE","6","5","M.jpg","O.jpg","1","0","0","",""
"","feedback","","html-keyboard-response","230","345341","0.0-1.0-303.0-0.0","0","0","33270","","null","","","null","33","","","","","","","","","","","","","","","",""
"","time_out","","html-keyboard-response","231","347343","0.0-1.0-305.0-0.0","0","0","33270","","null","","","null","33","","","","","","","","","","","","","","","",""
"","ITI","","html-keyboard-response","232","348346","0.0-1.0-306.0","0","0","33270","","null","","","null","33","","","","","","","","","","","","","","","NaN",""
"","S1","","html-keyboard-response","233","348504","0.0-1.0-308.0","0","0","33270","","null","","","null","34","","","","","","","","","","","","","","","",""
"","ISI","","html-keyboard-response","234","350507","0.0-1.0-309.0","0","0","33270","","null","","","null","34","NaN","","","","","","","","","","","","","","",""
"","S2","","html-keyboard-response","235","350660","0.0-1.0-310.0","0","0","33270","","null","","","null","34","","NaN","","","","","","","","","","","","","",""
"","response","","html-keyboard-response","236","351212","0.0-1.0-311.0-0.0","0","0","33270","","551","","","75","34","","","1","34","training","adjacent","DC","4","3","R.jpg","N.jpg","0","0","1","",""
"","feedback","","html-keyboard-response","237","352215","0.0-1.0-312.0-0.0","0","0","33270","","null","","","null","34","","","","","","","","","","","","","","","",""
"","ITI","","html-keyboard-response","238","353217","0.0-1.0-315.0","0","0","33270","","null","","","null","34","","","","","","","","","","","","","","","NaN",""
"","S1","","html-keyboard-response","239","353381","0.0-1.0-317.0","0","0","33270","","null","","","null","35","","","","","","","","","","","","","","","",""
"","ISI","","html-keyboard-response","240","355383","0.0-1.0-318.0","0","0","33270","","null","","","null","35","NaN","","","","","","","","","","","","","","",""
"","S2","","html-keyboard-response","241","355535","0.0-1.0-319.0","0","0","33270","","null","","","null","35","","NaN","","","","","","","","","","","","","",""
"","response","","html-keyboard-response","242","356308","0.0-1.0-320.0-0.0","0","0","33270","","771","","","75","35","","","1","35","training","adjacent","FG","6","7","M.jpg","P.jpg","0","1","0","",""
"","feedback","","html-keyboard-response","243","357311","0.0-1.0-321.0-0.0","0","0","33270","","null","","","null","35","","","","","","","","","","","","","","","",""
"","time_out","","html-keyboard-response","244","359313","0.0-1.0-323.0-0.0","0","0","33270","","null","","","null","35","","","","","","","","","","","","","","","",""
"","ITI","","html-keyboard-response","245","360315","0.0-1.0-324.0","0","0","33270","","null","","","null","35","","","","","","","","","","","","","","","NaN",""
"","S1","","html-keyboard-response","246","360467","0.0-1.0-326.0","0","0","33270","","null","","","null","36","","","","","","","","","","","","","","","",""
"","ISI","","html-keyboard-response","247","362475","0.0-1.0-327.0","0","0","33270","","null","","","null","36","NaN","","","","","","","","","","","","","","",""
"","S2","","html-keyboard-response","248","362627","0.0-1.0-328.0","0","0","33270","","null","","","null","36","","NaN","","","","","","","","","","","","","",""
"","response","","html-keyboard-response","249","363359","0.0-1.0-329.0-0.0","0","0","33270","","730","","","75","36","","","1","36","training","adjacent","DC","4","3","R.jpg","N.jpg","0","0","1","",""
"","feedback","","html-keyboard-response","250","364362","0.0-1.0-330.0-0.0","0","0","33270","","null","","","null","36","","","","","","","","","","","","","","","",""
"","ITI","","html-keyboard-response","251","365364","0.0-1.0-333.0","0","0","33270","","null","","","null","36","","","","","","","","","","","","","","","NaN",""
"","S1","","html-keyboard-response","252","365517","0.0-1.0-335.0","0","0","33270","","null","","","null","37","","","","","","","","","","","","","","","",""
"","ISI","","html-keyboard-response","253","367519","0.0-1.0-336.0","0","0","33270","","null","","","null","37","NaN","","","","","","","","","","","","","","",""
"","S2","","html-keyboard-response","254","367672","0.0-1.0-337.0","0","0","33270","","null","","","null","37","","NaN","","","","","","","","","","","","","",""
"","response","","html-keyboard-response","255","368562","0.0-1.0-338.0-0.0","0","0","33270","","889","","","68","37","","","1","37","training","adjacent","DE","4","5","R.jpg","O.jpg","1","1","1","",""
"","feedback","","html-keyboard-response","256","369566","0.0-1.0-339.0-0.0","0","0","33270","","null","","","null","37","","","","","","","","","","","","","","","",""
"","ITI","","html-keyboard-response","257","370569","0.0-1.0-342.0","0","0","33270","","null","","","null","37","","","","","","","","","","","","","","","NaN",""
"","S1","","html-keyboard-response","258","370720","0.0-1.0-344.0","0","0","33270","","null","","","null","38","","","","","","","","","","","","","","","",""
"","ISI","","html-keyboard-response","259","372722","0.0-1.0-345.0","0","0","33270","","null","","","null","38","NaN","","","","","","","","","","","","","","",""
"","S2","","html-keyboard-response","260","372875","0.0-1.0-346.0","0","0","33270","","null","","","null","38","","NaN","","","","","","","","","","","","","",""
"","response","","html-keyboard-response","261","373711","0.0-1.0-347.0-0.0","0","0","33270","","835","","","75","38","","","1","38","training","adjacent","FG","6","7","M.jpg","P.jpg","0","1","0","",""
"","feedback","","html-keyboard-response","262","374713","0.0-1.0-348.0-0.0","0","0","33270","","null","","","null","38","","","","","","","","","","","","","","","",""
"","time_out","","html-keyboard-response","263","376715","0.0-1.0-350.0-0.0","0","0","33270","","null","","","null","38","","","","","","","","","","","","","","","",""
"","ITI","","html-keyboard-response","264","377718","0.0-1.0-351.0","0","0","33270","","null","","","null","38","","","","","","","","","","","","","","","NaN",""
"","S1","","html-keyboard-response","265","377870","0.0-1.0-353.0","0","0","33270","","null","","","null","39","","","","","","","","","","","","","","","",""
"","ISI","","html-keyboard-response","266","379872","0.0-1.0-354.0","0","0","33270","","null","","","null","39","NaN","","","","","","","","","","","","","","",""
"","S2","","html-keyboard-response","267","380025","0.0-1.0-355.0","0","0","33270","","null","","","null","39","","NaN","","","","","","","","","","","","","",""
"","response","","html-keyboard-response","268","380539","0.0-1.0-356.0-0.0","0","0","33270","","513","","","68","39","","","1","39","training","adjacent","CD","3","4","N.jpg","R.jpg","1","1","1","",""
"","feedback","","html-keyboard-response","269","381541","0.0-1.0-357.0-0.0","0","0","33270","","null","","","null","39","","","","","","","","","","","","","","","",""
"","ITI","","html-keyboard-response","270","382543","0.0-1.0-360.0","0","0","33270","","null","","","null","39","","","","","","","","","","","","","","","NaN",""
"","S1","","html-keyboard-response","271","382697","0.0-1.0-362.0","0","0","33270","","null","","","null","40","","","","","","","","","","","","","","","",""
"","ISI","","html-keyboard-response","272","384698","0.0-1.0-363.0","0","0","33270","","null","","","null","40","NaN","","","","","","","","","","","","","","",""
"","S2","","html-keyboard-response","273","384851","0.0-1.0-364.0","0","0","33270","","null","","","null","40","","NaN","","","","","","","","","","","","","",""
"","response","","html-keyboard-response","274","385852","0.0-1.0-365.0-0.0","0","0","33270","","1000","","","75","40","","","1","40","training","adjacent","BA","2","1","L.jpg","Q.jpg","0","0","1","",""
"","feedback","","html-keyboard-response","275","386854","0.0-1.0-366.0-0.0","0","0","33270","","null","","","null","40","","","","","","","","","","","","","","","",""
"","ITI","","html-keyboard-response","276","387857","0.0-1.0-369.0","0","0","33270","","null","","","null","40","","","","","","","","","","","","","","","NaN",""
"","S1","","html-keyboard-response","277","388009","0.0-1.0-371.0","0","0","33270","","null","","","null","41","","","","","","","","","","","","","","","",""
"","ISI","","html-keyboard-response","278","390011","0.0-1.0-372.0","0","0","33270","","null","","","null","41","NaN","","","","","","","","","","","","","","",""
"","S2","","html-keyboard-response","279","390163","0.0-1.0-373.0","0","0","33270","","null","","","null","41","","NaN","","","","","","","","","","","","","",""
"","response","","html-keyboard-response","280","391084","0.0-1.0-374.0-0.0","0","0","33270","","919","","","68","41","","","1","41","training","adjacent","DE","4","5","R.jpg","O.jpg","1","1","1","",""
"","feedback","","html-keyboard-response","281","392087","0.0-1.0-375.0-0.0","0","0","33270","","null","","","null","41","","","","","","","","","","","","","","","",""
"","ITI","","html-keyboard-response","282","393089","0.0-1.0-378.0","0","0","33270","","null","","","null","41","","","","","","","","","","","","","","","NaN",""
"","S1","","html-keyboard-response","283","393242","0.0-1.0-380.0","0","0","33270","","null","","","null","42","","","","","","","","","","","","","","","",""
"","ISI","","html-keyboard-response","284","395244","0.0-1.0-381.0","0","0","33270","","null","","","null","42","NaN","","","","","","","","","","","","","","",""
"","S2","","html-keyboard-response","285","395397","0.0-1.0-382.0","0","0","33270","","null","","","null","42","","NaN","","","","","","","","","","","","","",""
"","response","","html-keyboard-response","286","396225","0.0-1.0-383.0-0.0","0","0","33270","","827","","","75","42","","","1","42","training","adjacent","AB","1","2","Q.jpg","L.jpg","0","1","0","",""
"","feedback","","html-keyboard-response","287","397228","0.0-1.0-384.0-0.0","0","0","33270","","null","","","null","42","","","","","","","","","","","","","","","",""
"","time_out","","html-keyboard-response","288","399232","0.0-1.0-386.0-0.0","0","0","33270","","null","","","null","42","","","","","","","","","","","","","","","",""
"","ITI","","html-keyboard-response","289","400234","0.0-1.0-387.0","0","0","33270","","null","","","null","42","","","","","","","","","","","","","","","NaN",""
"","S1","","html-keyboard-response","290","400386","0.0-1.0-389.0","0","0","33270","","null","","","null","43","","","","","","","","","","","","","","","",""
"","ISI","","html-keyboard-response","291","402388","0.0-1.0-390.0","0","0","33270","","null","","","null","43","NaN","","","","","","","","","","","","","","",""
"","S2","","html-keyboard-response","292","402541","0.0-1.0-391.0","0","0","33270","","null","","","null","43","","NaN","","","","","","","","","","","","","",""
"","response","","html-keyboard-response","293","403292","0.0-1.0-392.0-0.0","0","0","33270","","750","","","68","43","","","1","43","training","adjacent","EF","5","6","O.jpg","M.jpg","1","1","1","",""
"","feedback","","html-keyboard-response","294","404295","0.0-1.0-393.0-0.0","0","0","33270","","null","","","null","43","","","","","","","","","","","","","","","",""
"","ITI","","html-keyboard-response","295","405297","0.0-1.0-396.0","0","0","33270","","null","","","null","43","","","","","","","","","","","","","","","NaN",""
"","S1","","html-keyboard-response","296","405449","0.0-1.0-398.0","0","0","33270","","null","","","null","44","","","","","","","","","","","","","","","",""
"","ISI","","html-keyboard-response","297","407451","0.0-1.0-399.0","0","0","33270","","null","","","null","44","NaN","","","","","","","","","","","","","","",""
"","S2","","html-keyboard-response","298","407603","0.0-1.0-400.0","0","0","33270","","null","","","null","44","","NaN","","","","","","","","","","","","","",""
"","response","","html-keyboard-response","299","408345","0.0-1.0-401.0-0.0","0","0","33270","","740","","","75","44","","","1","44","training","adjacent","BC","2","3","L.jpg","N.jpg","0","1","0","",""
"","feedback","","html-keyboard-response","300","409346","0.0-1.0-402.0-0.0","0","0","33270","","null","","","null","44","","","","","","","","","","","","","","","",""
"","time_out","","html-keyboard-response","301","411349","0.0-1.0-404.0-0.0","0","0","33270","","null","","","null","44","","","","","","","","","","","","","","","",""
"","ITI","","html-keyboard-response","302","412351","0.0-1.0-405.0","0","0","33270","","null","","","null","44","","","","","","","","","","","","","","","NaN",""
"","S1","","html-keyboard-response","303","412504","0.0-1.0-407.0","0","0","33270","","null","","","null","45","","","","","","","","","","","","","","","",""
"","ISI","","html-keyboard-response","304","414506","0.0-1.0-408.0","0","0","33270","","null","","","null","45","NaN","","","","","","","","","","","","","","",""
"","S2","","html-keyboard-response","305","414659","0.0-1.0-409.0","0","0","33270","","null","","","null","45","","NaN","","","","","","","","","","","","","",""
"","response","","html-keyboard-response","306","415327","0.0-1.0-410.0-0.0","0","0","33270","","667","","","75","45","","","1","45","training","adjacent","GF","7","6","P.jpg","M.jpg","0","0","1","",""
"","feedback","","html-keyboard-response","307","416330","0.0-1.0-411.0-0.0","0","0","33270","","null","","","null","45","","","","","","","","","","","","","","","",""
"","ITI","","html-keyboard-response","308","417332","0.0-1.0-414.0","0","0","33270","","null","","","null","45","","","","","","","","","","","","","","","NaN",""
"","S1","","html-keyboard-response","309","417485","0.0-1.0-416.0","0","0","33270","","null","","","null","46","","","","","","","","","","","","","","","",""
"","ISI","","html-keyboard-response","310","419487","0.0-1.0-417.0","0","0","33270","","null","","","null","46","NaN","","","","","","","","","","","","","","",""
"","S2","","html-keyboard-response","311","419639","0.0-1.0-418.0","0","0","33270","","null","","","null","46","","NaN","","","","","","","","","","","","","",""
"","response","","html-keyboard-response","312","420765","0.0-1.0-419.0-0.0","0","0","33270","","1124","","","75","46","","","1","46","training","adjacent","GF","7","6","P.jpg","M.jpg","0","0","1","",""
"","feedback","","html-keyboard-response","313","421767","0.0-1.0-420.0-0.0","0","0","33270","","null","","","null","46","","","","","","","","","","","","","","","",""
"","ITI","","html-keyboard-response","314","422769","0.0-1.0-423.0","0","0","33270","","null","","","null","46","","","","","","","","","","","","","","","NaN",""
"","S1","","html-keyboard-response","315","422922","0.0-1.0-425.0","0","0","33270","","null","","","null","47","","","","","","","","","","","","","","","",""
"","ISI","","html-keyboard-response","316","424924","0.0-1.0-426.0","0","0","33270","","null","","","null","47","NaN","","","","","","","","","","","","","","",""
"","S2","","html-keyboard-response","317","425076","0.0-1.0-427.0","0","0","33270","","null","","","null","47","","NaN","","","","","","","","","","","","","",""
"","response","","html-keyboard-response","318","426025","0.0-1.0-428.0-0.0","0","0","33270","","948","","","68","47","","","1","47","training","adjacent","DE","4","5","R.jpg","O.jpg","1","1","1","",""
"","feedback","","html-keyboard-response","319","427028","0.0-1.0-429.0-0.0","0","0","33270","","null","","","null","47","","","","","","","","","","","","","","","",""
"","ITI","","html-keyboard-response","320","428031","0.0-1.0-432.0","0","0","33270","","null","","","null","47","","","","","","","","","","","","","","","NaN",""
"","block_over","","html-keyboard-response","321","439847","0.0-1.0-433.0-0.0","0","0","33270","","11815","","","32","47","","","","","","","","","","","","","","","",""
"","S1","","html-keyboard-response","322","439999","0.0-1.0-434.0","0","0","33270","","null","","","null","48","","","","","","","","","","","","","","","",""
"","ISI","","html-keyboard-response","323","442001","0.0-1.0-435.0","0","0","33270","","null","","","null","48","NaN","","","","","","","","","","","","","","",""
"","S2","","html-keyboard-response","324","442153","0.0-1.0-436.0","0","0","33270","","null","","","null","48","","NaN","","","","","","","","","","","","","",""
"","response","","html-keyboard-response","325","443015","0.0-1.0-437.0-0.0","0","0","33270","","860","","","75","48","","","2","48","training","adjacent","AB","1","2","Q.jpg","L.jpg","0","1","0","",""
"","feedback","","html-keyboard-response","326","444018","0.0-1.0-438.0-0.0","0","0","33270","","null","","","null","48","","","","","","","","","","","","","","","",""
"","time_out","","html-keyboard-response","327","446021","0.0-1.0-440.0-0.0","0","0","33270","","null","","","null","48","","","","","","","","","","","","","","","",""
"","ITI","","html-keyboard-response","328","447023","0.0-1.0-441.0","0","0","33270","","null","","","null","48","","","","","","","","","","","","","","","NaN",""
"","S1","","html-keyboard-response","329","447176","0.0-1.0-443.0","0","0","33270","","null","","","null","49","","","","","","","","","","","","","","","",""
"","ISI","","html-keyboard-response","330","449178","0.0-1.0-444.0","0","0","33270","","null","","","null","49","NaN","","","","","","","","","","","","","","",""
"","S2","","html-keyboard-response","331","449330","0.0-1.0-445.0","0","0","33270","","null","","","null","49","","NaN","","","","","","","","","","","","","",""
"","response","","html-keyboard-response","332","449995","0.0-1.0-446.0-0.0","0","0","33270","","664","","","68","49","","","2","49","training","adjacent","CB","3","2","N.jpg","L.jpg","1","0","0","",""
"","feedback","","html-keyboard-response","333","450997","0.0-1.0-447.0-0.0","0","0","33270","","null","","","null","49","","","","","","","","","","","","","","","",""
"","time_out","","html-keyboard-response","334","453000","0.0-1.0-449.0-0.0","0","0","33270","","null","","","null","49","","","","","","","","","","","","","","","",""
"","ITI","","html-keyboard-response","335","454002","0.0-1.0-450.0","0","0","33270","","null","","","null","49","","","","","","","","","","","","","","","NaN",""
"","S1","","html-keyboard-response","336","454155","0.0-1.0-452.0","0","0","33270","","null","","","null","50","","","","","","","","","","","","","","","",""
"","ISI","","html-keyboard-response","337","456158","0.0-1.0-453.0","0","0","33270","","null","","","null","50","NaN","","","","","","","","","","","","","","",""
"","S2","","html-keyboard-response","338","456310","0.0-1.0-454.0","0","0","33270","","null","","","null","50","","NaN","","","","","","","","","","","","","",""
"","response","","html-keyboard-response","339","457221","0.0-1.0-455.0-0.0","0","0","33270","","910","","","75","50","","","2","50","training","adjacent","BC","2","3","L.jpg","N.jpg","0","1","0","",""
"","feedback","","html-keyboard-response","340","458224","0.0-1.0-456.0-0.0","0","0","33270","","null","","","null","50","","","","","","","","","","","","","","","",""
"","time_out","","html-keyboard-response","341","460227","0.0-1.0-458.0-0.0","0","0","33270","","null","","","null","50","","","","","","","","","","","","","","","",""
"","ITI","","html-keyboard-response","342","461228","0.0-1.0-459.0","0","0","33270","","null","","","null","50","","","","","","","","","","","","","","","NaN",""
"","S1","","html-keyboard-response","343","461381","0.0-1.0-461.0","0","0","33270","","null","","","null","51","","","","","","","","","","","","","","","",""
"","ISI","","html-keyboard-response","344","463383","0.0-1.0-462.0","0","0","33270","","null","","","null","51","NaN","","","","","","","","","","","","","","",""
"","S2","","html-keyboard-response","345","463536","0.0-1.0-463.0","0","0","33270","","null","","","null","51","","NaN","","","","","","","","","","","","","",""
"","response","","html-keyboard-response","346","464955","0.0-1.0-464.0-0.0","0","0","33270","","1419","","","75","51","","","2","51","training","adjacent","EF","5","6","O.jpg","M.jpg","0","1","0","",""
"","feedback","","html-keyboard-response","347","465958","0.0-1.0-465.0-0.0","0","0","33270","","null","","","null","51","","","","","","","","","","","","","","","",""
"","time_out","","html-keyboard-response","348","467961","0.0-1.0-467.0-0.0","0","0","33270","","null","","","null","51","","","","","","","","","","","","","","","",""
"","ITI","","html-keyboard-response","349","468964","0.0-1.0-468.0","0","0","33270","","null","","","null","51","","","","","","","","","","","","","","","NaN",""
"","S1","","html-keyboard-response","350","469117","0.0-1.0-470.0","0","0","33270","","null","","","null","52","","","","","","","","","","","","","","","",""
"","ISI","","html-keyboard-response","351","471119","0.0-1.0-471.0","0","0","33270","","null","","","null","52","NaN","","","","","","","","","","","","","","",""
"","S2","","html-keyboard-response","352","471272","0.0-1.0-472.0","0","0","33270","","null","","","null","52","","NaN","","","","","","","","","","","","","",""
"","response","","html-keyboard-response","353","472069","0.0-1.0-473.0-0.0","0","0","33270","","796","","","68","52","","","2","52","training","adjacent","FG","6","7","M.jpg","P.jpg","1","1","1","",""
"","feedback","","html-keyboard-response","354","473071","0.0-1.0-474.0-0.0","0","0","33270","","null","","","null","52","","","","","","","","","","","","","","","",""
"","ITI","","html-keyboard-response","355","474073","0.0-1.0-477.0","0","0","33270","","null","","","null","52","","","","","","","","","","","","","","","NaN",""
"","S1","","html-keyboard-response","356","474226","0.0-1.0-479.0","0","0","33270","","null","","","null","53","","","","","","","","","","","","","","","",""
"","ISI","","html-keyboard-response","357","476228","0.0-1.0-480.0","0","0","33270","","null","","","null","53","NaN","","","","","","","","","","","","","","",""
"","S2","","html-keyboard-response","358","476381","0.0-1.0-481.0","0","0","33270","","null","","","null","53","","NaN","","","","","","","","","","","","","",""
"","response","","html-keyboard-response","359","477365","0.0-1.0-482.0-0.0","0","0","33270","","983","","","68","53","","","2","53","training","adjacent","DC","4","3","R.jpg","N.jpg","1","0","0","",""
"","feedback","","html-keyboard-response","360","478368","0.0-1.0-483.0-0.0","0","0","33270","","null","","","null","53","","","","","","","","","","","","","","","",""
"","time_out","","html-keyboard-response","361","480370","0.0-1.0-485.0-0.0","0","0","33270","","null","","","null","53","","","","","","","","","","","","","","","",""
"","ITI","","html-keyboard-response","362","481372","0.0-1.0-486.0","0","0","33270","","null","","","null","53","","","","","","","","","","","","","","","NaN",""
"","S1","","html-keyboard-response","363","481525","0.0-1.0-488.0","0","0","33270","","null","","","null","54","","","","","","","","","","","","","","","",""
"","ISI","","html-keyboard-response","364","483528","0.0-1.0-489.0","0","0","33270","","null","","","null","54","NaN","","","","","","","","","","","","","","",""
"","S2","","html-keyboard-response","365","483680","0.0-1.0-490.0","0","0","33270","","null","","","null","54","","NaN","","","","","","","","","","","","","",""
"","response","","html-keyboard-response","366","484345","0.0-1.0-491.0-0.0","0","0","33270","","664","","","75","54","","","2","54","training","adjacent","FG","6","7","M.jpg","P.jpg","0","1","0","",""
"","feedback","","html-keyboard-response","367","485347","0.0-1.0-492.0-0.0","0","0","33270","","null","","","null","54","","","","","","","","","","","","","","","",""
"","time_out","","html-keyboard-response","368","487350","0.0-1.0-494.0-0.0","0","0","33270","","null","","","null","54","","","","","","","","","","","","","","","",""
"","ITI","","html-keyboard-response","369","488352","0.0-1.0-495.0","0","0","33270","","null","","","null","54","","","","","","","","","","","","","","","NaN",""
"","S1","","html-keyboard-response","370","488505","0.0-1.0-497.0","0","0","33270","","null","","","null","55","","","","","","","","","","","","","","","",""
"","ISI","","html-keyboard-response","371","490507","0.0-1.0-498.0","0","0","33270","","null","","","null","55","NaN","","","","","","","","","","","","","","",""
"","S2","","html-keyboard-response","372","490660","0.0-1.0-499.0","0","0","33270","","null","","","null","55","","NaN","","","","","","","","","","","","","",""
"","response","","html-keyboard-response","373","491312","0.0-1.0-500.0-0.0","0","0","33270","","651","","","75","55","","","2","55","training","adjacent","BC","2","3","L.jpg","N.jpg","0","1","0","",""
"","feedback","","html-keyboard-response","374","492315","0.0-1.0-501.0-0.0","0","0","33270","","null","","","null","55","","","","","","","","","","","","","","","",""
"","time_out","","html-keyboard-response","375","494318","0.0-1.0-503.0-0.0","0","0","33270","","null","","","null","55","","","","","","","","","","","","","","","",""
"","ITI","","html-keyboard-response","376","495319","0.0-1.0-504.0","0","0","33270","","null","","","null","55","","","","","","","","","","","","","","","NaN",""
"","S1","","html-keyboard-response","377","495472","0.0-1.0-506.0","0","0","33270","","null","","","null","56","","","","","","","","","","","","","","","",""
"","ISI","","html-keyboard-response","378","497473","0.0-1.0-507.0","0","0","33270","","null","","","null","56","NaN","","","","","","","","","","","","","","",""
"","S2","","html-keyboard-response","379","497626","0.0-1.0-508.0","0","0","33270","","null","","","null","56","","NaN","","","","","","","","","","","","","",""
"","response","","html-keyboard-response","380","498354","0.0-1.0-509.0-0.0","0","0","33270","","727","","","75","56","","","2","56","training","adjacent","DC","4","3","R.jpg","N.jpg","0","0","1","",""
"","feedback","","html-keyboard-response","381","499356","0.0-1.0-510.0-0.0","0","0","33270","","null","","","null","56","","","","","","","","","","","","","","","",""
"","ITI","","html-keyboard-response","382","500359","0.0-1.0-513.0","0","0","33270","","null","","","null","56","","","","","","","","","","","","","","","NaN",""
"","S1","","html-keyboard-response","383","500521","0.0-1.0-515.0","0","0","33270","","null","","","null","57","","","","","","","","","","","","","","","",""
"","ISI","","html-keyboard-response","384","502523","0.0-1.0-516.0","0","0","33270","","null","","","null","57","NaN","","","","","","","","","","","","","","",""
"","S2","","html-keyboard-response","385","502676","0.0-1.0-517.0","0","0","33270","","null","","","null","57","","NaN","","","","","","","","","","","","","",""
"","response","","html-keyboard-response","386","503528","0.0-1.0-518.0-0.0","0","0","33270","","851","","","68","57","","","2","57","training","adjacent","FG","6","7","M.jpg","P.jpg","1","1","1","",""
"","feedback","","html-keyboard-response","387","504535","0.0-1.0-519.0-0.0","0","0","33270","","null","","","null","57","","","","","","","","","","","","","","","",""
"","ITI","","html-keyboard-response","388","505538","0.0-1.0-522.0","0","0","33270","","null","","","null","57","","","","","","","","","","","","","","","NaN",""
"","S1","","html-keyboard-response","389","505698","0.0-1.0-524.0","0","0","33270","","null","","","null","58","","","","","","","","","","","","","","","",""
"","ISI","","html-keyboard-response","390","507700","0.0-1.0-525.0","0","0","33270","","null","","","null","58","NaN","","","","","","","","","","","","","","",""
"","S2","","html-keyboard-response","391","507853","0.0-1.0-526.0","0","0","33270","","null","","","null","58","","NaN","","","","","","","","","","","","","",""
"","response","","html-keyboard-response","392","508513","0.0-1.0-527.0-0.0","0","0","33270","","659","","","75","58","","","2","58","training","adjacent","CD","3","4","N.jpg","R.jpg","0","1","0","",""
"","feedback","","html-keyboard-response","393","509516","0.0-1.0-528.0-0.0","0","0","33270","","null","","","null","58","","","","","","","","","","","","","","","",""
"","time_out","","html-keyboard-response","394","511518","0.0-1.0-530.0-0.0","0","0","33270","","null","","","null","58","","","","","","","","","","","","","","","",""
"","ITI","","html-keyboard-response","395","512521","0.0-1.0-531.0","0","0","33270","","null","","","null","58","","","","","","","","","","","","","","","NaN",""
"","S1","","html-keyboard-response","396","512673","0.0-1.0-533.0","0","0","33270","","null","","","null","59","","","","","","","","","","","","","","","",""
"","ISI","","html-keyboard-response","397","514676","0.0-1.0-534.0","0","0","33270","","null","","","null","59","NaN","","","","","","","","","","","","","","",""
"","S2","","html-keyboard-response","398","514828","0.0-1.0-535.0","0","0","33270","","null","","","null","59","","NaN","","","","","","","","","","","","","",""
"","response","","html-keyboard-response","399","515487","0.0-1.0-536.0-0.0","0","0","33270","","657","","","68","59","","","2","59","training","adjacent","BA","2","1","L.jpg","Q.jpg","1","0","0","",""
"","feedback","","html-keyboard-response","400","516490","0.0-1.0-537.0-0.0","0","0","33270","","null","","","null","59","","","","","","","","","","","","","","","",""
"","time_out","","html-keyboard-response","401","518492","0.0-1.0-539.0-0.0","0","0","33270","","null","","","null","59","","","","","","","","","","","","","","","",""
"","ITI","","html-keyboard-response","402","519496","0.0-1.0-540.0","0","0","33270","","null","","","null","59","","","","","","","","","","","","","","","NaN",""
"","S1","","html-keyboard-response","403","519648","0.0-1.0-542.0","0","0","33270","","null","","","null","60","","","","","","","","","","","","","","","",""
"","ISI","","html-keyboard-response","404","521651","0.0-1.0-543.0","0","0","33270","","null","","","null","60","NaN","","","","","","","","","","","","","","",""
"","S2","","html-keyboard-response","405","521804","0.0-1.0-544.0","0","0","33270","","null","","","null","60","","NaN","","","","","","","","","","","","","",""
"","response","","html-keyboard-response","406","522489","0.0-1.0-545.0-0.0","0","0","33270","","684","","","75","60","","","2","60","training","adjacent","GF","7","6","P.jpg","M.jpg","0","0","1","",""
"","feedback","","html-keyboard-response","407","523491","0.0-1.0-546.0-0.0","0","0","33270","","null","","","null","60","","","","","","","","","","","","","","","",""
"","ITI","","html-keyboard-response","408","524494","0.0-1.0-549.0","0","0","33270","","null","","","null","60","","","","","","","","","","","","","","","NaN",""
"","S1","","html-keyboard-response","409","524646","0.0-1.0-551.0","0","0","33270","","null","","","null","61","","","","","","","","","","","","","","","",""
"","ISI","","html-keyboard-response","410","526649","0.0-1.0-552.0","0","0","33270","","null","","","null","61","NaN","","","","","","","","","","","","","","",""
"","S2","","html-keyboard-response","411","526802","0.0-1.0-553.0","0","0","33270","","null","","","null","61","","NaN","","","","","","","","","","","","","",""
"","response","","html-keyboard-response","412","527455","0.0-1.0-554.0-0.0","0","0","33270","","652","","","68","61","","","2","61","training","adjacent","DE","4","5","R.jpg","O.jpg","1","1","1","",""
"","feedback","","html-keyboard-response","413","528457","0.0-1.0-555.0-0.0","0","0","33270","","null","","","null","61","","","","","","","","","","","","","","","",""
"","ITI","","html-keyboard-response","414","529459","0.0-1.0-558.0","0","0","33270","","null","","","null","61","","","","","","","","","","","","","","","NaN",""
"","S1","","html-keyboard-response","415","529611","0.0-1.0-560.0","0","0","33270","","null","","","null","62","","","","","","","","","","","","","","","",""
"","ISI","","html-keyboard-response","416","531613","0.0-1.0-561.0","0","0","33270","","null","","","null","62","NaN","","","","","","","","","","","","","","",""
"","S2","","html-keyboard-response","417","531766","0.0-1.0-562.0","0","0","33270","","null","","","null","62","","NaN","","","","","","","","","","","","","",""
"","response","","html-keyboard-response","418","532519","0.0-1.0-563.0-0.0","0","0","33270","","752","","","75","62","","","2","62","training","adjacent","BA","2","1","L.jpg","Q.jpg","0","0","1","",""
"","feedback","","html-keyboard-response","419","533522","0.0-1.0-564.0-0.0","0","0","33270","","null","","","null","62","","","","","","","","","","","","","","","",""
"","ITI","","html-keyboard-response","420","534524","0.0-1.0-567.0","0","0","33270","","null","","","null","62","","","","","","","","","","","","","","","NaN",""
"","S1","","html-keyboard-response","421","534677","0.0-1.0-569.0","0","0","33270","","null","","","null","63","","","","","","","","","","","","","","","",""
"","ISI","","html-keyboard-response","422","536679","0.0-1.0-570.0","0","0","33270","","null","","","null","63","NaN","","","","","","","","","","","","","","",""
"","S2","","html-keyboard-response","423","536831","0.0-1.0-571.0","0","0","33270","","null","","","null","63","","NaN","","","","","","","","","","","","","",""
"","response","","html-keyboard-response","424","537396","0.0-1.0-572.0-0.0","0","0","33270","","563","","","68","63","","","2","63","training","adjacent","CB","3","2","N.jpg","L.jpg","1","0","0","",""
"","feedback","","html-keyboard-response","425","538398","0.0-1.0-573.0-0.0","0","0","33270","","null","","","null","63","","","","","","","","","","","","","","","",""
"","time_out","","html-keyboard-response","426","540400","0.0-1.0-575.0-0.0","0","0","33270","","null","","","null","63","","","","","","","","","","","","","","","",""
"","ITI","","html-keyboard-response","427","541402","0.0-1.0-576.0","0","0","33270","","null","","","null","63","","","","","","","","","","","","","","","NaN",""
"","S1","","html-keyboard-response","428","541554","0.0-1.0-578.0","0","0","33270","","null","","","null","64","","","","","","","","","","","","","","","",""
"","ISI","","html-keyboard-response","429","543556","0.0-1.0-579.0","0","0","33270","","null","","","null","64","NaN","","","","","","","","","","","","","","",""
"","S2","","html-keyboard-response","430","543709","0.0-1.0-580.0","0","0","33270","","null","","","null","64","","NaN","","","","","","","","","","","","","",""
"","response","","html-keyboard-response","431","544236","0.0-1.0-581.0-0.0","0","0","33270","","525","","","75","64","","","2","64","training","adjacent","DC","4","3","R.jpg","N.jpg","0","0","1","",""
"","feedback","","html-keyboard-response","432","545238","0.0-1.0-582.0-0.0","0","0","33270","","null","","","null","64","","","","","","","","","","","","","","","",""
"","ITI","","html-keyboard-response","433","546240","0.0-1.0-585.0","0","0","33270","","null","","","null","64","","","","","","","","","","","","","","","NaN",""
"","S1","","html-keyboard-response","434","546393","0.0-1.0-587.0","0","0","33270","","null","","","null","65","","","","","","","","","","","","","","","",""
"","ISI","","html-keyboard-response","435","548397","0.0-1.0-588.0","0","0","33270","","null","","","null","65","NaN","","","","","","","","","","","","","","",""
"","S2","","html-keyboard-response","436","548550","0.0-1.0-589.0","0","0","33270","","null","","","null","65","","NaN","","","","","","","","","","","","","",""
"","response","","html-keyboard-response","437","549596","0.0-1.0-590.0-0.0","0","0","33270","","1045","","","68","65","","","2","65","training","adjacent","BA","2","1","L.jpg","Q.jpg","1","0","0","",""
"","feedback","","html-keyboard-response","438","550600","0.0-1.0-591.0-0.0","0","0","33270","","null","","","null","65","","","","","","","","","","","","","","","",""
"","time_out","","html-keyboard-response","439","552603","0.0-1.0-593.0-0.0","0","0","33270","","null","","","null","65","","","","","","","","","","","","","","","",""
"","ITI","","html-keyboard-response","440","553605","0.0-1.0-594.0","0","0","33270","","null","","","null","65","","","","","","","","","","","","","","","NaN",""
"","S1","","html-keyboard-response","441","553757","0.0-1.0-596.0","0","0","33270","","null","","","null","66","","","","","","","","","","","","","","","",""
"","ISI","","html-keyboard-response","442","555759","0.0-1.0-597.0","0","0","33270","","null","","","null","66","NaN","","","","","","","","","","","","","","",""
"","S2","","html-keyboard-response","443","555912","0.0-1.0-598.0","0","0","33270","","null","","","null","66","","NaN","","","","","","","","","","","","","",""
"","response","","html-keyboard-response","444","556539","0.0-1.0-599.0-0.0","0","0","33270","","626","","","75","66","","","2","66","training","adjacent","BC","2","3","L.jpg","N.jpg","0","1","0","",""
"","feedback","","html-keyboard-response","445","557542","0.0-1.0-600.0-0.0","0","0","33270","","null","","","null","66","","","","","","","","","","","","","","","",""
"","time_out","","html-keyboard-response","446","559543","0.0-1.0-602.0-0.0","0","0","33270","","null","","","null","66","","","","","","","","","","","","","","","",""
"","ITI","","html-keyboard-response","447","560546","0.0-1.0-603.0","0","0","33270","","null","","","null","66","","","","","","","","","","","","","","","NaN",""
"","S1","","html-keyboard-response","448","560699","0.0-1.0-605.0","0","0","33270","","null","","","null","67","","","","","","","","","","","","","","","",""
"","ISI","","html-keyboard-response","449","562701","0.0-1.0-606.0","0","0","33270","","null","","","null","67","NaN","","","","","","","","","","","","","","",""
"","S2","","html-keyboard-response","450","562854","0.0-1.0-607.0","0","0","33270","","null","","","null","67","","NaN","","","","","","","","","","","","","",""
"","response","","html-keyboard-response","451","563410","0.0-1.0-608.0-0.0","0","0","33270","","554","","","75","67","","","2","67","training","adjacent","EF","5","6","O.jpg","M.jpg","0","1","0","",""
"","feedback","","html-keyboard-response","452","564412","0.0-1.0-609.0-0.0","0","0","33270","","null","","","null","67","","","","","","","","","","","","","","","",""
"","time_out","","html-keyboard-response","453","566414","0.0-1.0-611.0-0.0","0","0","33270","","null","","","null","67","","","","","","","","","","","","","","","",""
"","ITI","","html-keyboard-response","454","567417","0.0-1.0-612.0","0","0","33270","","null","","","null","67","","","","","","","","","","","","","","","NaN",""
"","S1","","html-keyboard-response","455","567570","0.0-1.0-614.0","0","0","33270","","null","","","null","68","","","","","","","","","","","","","","","",""
"","ISI","","html-keyboard-response","456","569572","0.0-1.0-615.0","0","0","33270","","null","","","null","68","NaN","","","","","","","","","","","","","","",""
"","S2","","html-keyboard-response","457","569724","0.0-1.0-616.0","0","0","33270","","null","","","null","68","","NaN","","","","","","","","","","","","","",""
"","response","","html-keyboard-response","458","570265","0.0-1.0-617.0-0.0","0","0","33270","","539","","","68","68","","","2","68","training","adjacent","ED","5","4","O.jpg","R.jpg","1","0","0","",""
"","feedback","","html-keyboard-response","459","571267","0.0-1.0-618.0-0.0","0","0","33270","","null","","","null","68","","","","","","","","","","","","","","","",""
"","time_out","","html-keyboard-response","460","573270","0.0-1.0-620.0-0.0","0","0","33270","","null","","","null","68","","","","","","","","","","","","","","","",""
"","ITI","","html-keyboard-response","461","574271","0.0-1.0-621.0","0","0","33270","","null","","","null","68","","","","","","","","","","","","","","","NaN",""
"","S1","","html-keyboard-response","462","574423","0.0-1.0-623.0","0","0","33270","","null","","","null","69","","","","","","","","","","","","","","","",""
"","ISI","","html-keyboard-response","463","576426","0.0-1.0-624.0","0","0","33270","","null","","","null","69","NaN","","","","","","","","","","","","","","",""
"","S2","","html-keyboard-response","464","576578","0.0-1.0-625.0","0","0","33270","","null","","","null","69","","NaN","","","","","","","","","","","","","",""
"","response","","html-keyboard-response","465","577200","0.0-1.0-626.0-0.0","0","0","33270","","621","","","75","69","","","2","69","training","adjacent","DC","4","3","R.jpg","N.jpg","0","0","1","",""
"","feedback","","html-keyboard-response","466","578202","0.0-1.0-627.0-0.0","0","0","33270","","null","","","null","69","","","","","","","","","","","","","","","",""
"","ITI","","html-keyboard-response","467","579204","0.0-1.0-630.0","0","0","33270","","null","","","null","69","","","","","","","","","","","","","","","NaN",""
"","S1","","html-keyboard-response","468","579356","0.0-1.0-632.0","0","0","33270","","null","","","null","70","","","","","","","","","","","","","","","",""
"","ISI","","html-keyboard-response","469","581359","0.0-1.0-633.0","0","0","33270","","null","","","null","70","NaN","","","","","","","","","","","","","","",""
"","S2","","html-keyboard-response","470","581511","0.0-1.0-634.0","0","0","33270","","null","","","null","70","","NaN","","","","","","","","","","","","","",""
"","response","","html-keyboard-response","471","582601","0.0-1.0-635.0-0.0","0","0","33270","","1088","","","68","70","","","2","70","training","adjacent","DE","4","5","R.jpg","O.jpg","1","1","1","",""
"","feedback","","html-keyboard-response","472","583604","0.0-1.0-636.0-0.0","0","0","33270","","null","","","null","70","","","","","","","","","","","","","","","",""
"","ITI","","html-keyboard-response","473","584606","0.0-1.0-639.0","0","0","33270","","null","","","null","70","","","","","","","","","","","","","","","NaN",""
"","S1","","html-keyboard-response","474","584759","0.0-1.0-641.0","0","0","33270","","null","","","null","71","","","","","","","","","","","","","","","",""
"","ISI","","html-keyboard-response","475","586761","0.0-1.0-642.0","0","0","33270","","null","","","null","71","NaN","","","","","","","","","","","","","","",""
"","S2","","html-keyboard-response","476","586914","0.0-1.0-643.0","0","0","33270","","null","","","null","71","","NaN","","","","","","","","","","","","","",""
"","response","","html-keyboard-response","477","587767","0.0-1.0-644.0-0.0","0","0","33270","","851","","","75","71","","","2","71","training","adjacent","EF","5","6","O.jpg","M.jpg","0","1","0","",""
"","feedback","","html-keyboard-response","478","588770","0.0-1.0-645.0-0.0","0","0","33270","","null","","","null","71","","","","","","","","","","","","","","","",""
"","time_out","","html-keyboard-response","479","590773","0.0-1.0-647.0-0.0","0","0","33270","","null","","","null","71","","","","","","","","","","","","","","","",""
"","ITI","","html-keyboard-response","480","591774","0.0-1.0-648.0","0","0","33270","","null","","","null","71","","","","","","","","","","","","","","","NaN",""
"","S1","","html-keyboard-response","481","591928","0.0-1.0-650.0","0","0","33270","","null","","","null","72","","","","","","","","","","","","","","","",""
"","ISI","","html-keyboard-response","482","593931","0.0-1.0-651.0","0","0","33270","","null","","","null","72","NaN","","","","","","","","","","","","","","",""
"","S2","","html-keyboard-response","483","594084","0.0-1.0-652.0","0","0","33270","","null","","","null","72","","NaN","","","","","","","","","","","","","",""
"","response","","html-keyboard-response","484","594758","0.0-1.0-653.0-0.0","0","0","33270","","673","","","75","72","","","2","72","training","adjacent","GF","7","6","P.jpg","M.jpg","0","0","1","",""
"","feedback","","html-keyboard-response","485","595760","0.0-1.0-654.0-0.0","0","0","33270","","null","","","null","72","","","","","","","","","","","","","","","",""
"","ITI","","html-keyboard-response","486","596762","0.0-1.0-657.0","0","0","33270","","null","","","null","72","","","","","","","","","","","","","","","NaN",""
"","S1","","html-keyboard-response","487","596915","0.0-1.0-659.0","0","0","33270","","null","","","null","73","","","","","","","","","","","","","","","",""
"","ISI","","html-keyboard-response","488","598917","0.0-1.0-660.0","0","0","33270","","null","","","null","73","NaN","","","","","","","","","","","","","","",""
"","S2","","html-keyboard-response","489","599083","0.0-1.0-661.0","0","0","33270","","null","","","null","73","","NaN","","","","","","","","","","","","","",""
"","response","","html-keyboard-response","490","599921","0.0-1.0-662.0-0.0","0","0","33270","","836","","","75","73","","","2","73","training","adjacent","DE","4","5","R.jpg","O.jpg","0","1","0","",""
"","feedback","","html-keyboard-response","491","600924","0.0-1.0-663.0-0.0","0","0","33270","","null","","","null","73","","","","","","","","","","","","","","","",""
"","time_out","","html-keyboard-response","492","602927","0.0-1.0-665.0-0.0","0","0","33270","","null","","","null","73","","","","","","","","","","","","","","","",""
"","ITI","","html-keyboard-response","493","603928","0.0-1.0-666.0","0","0","33270","","null","","","null","73","","","","","","","","","","","","","","","NaN",""
"","S1","","html-keyboard-response","494","604080","0.0-1.0-668.0","0","0","33270","","null","","","null","74","","","","","","","","","","","","","","","",""
"","ISI","","html-keyboard-response","495","606082","0.0-1.0-669.0","0","0","33270","","null","","","null","74","NaN","","","","","","","","","","","","","","",""
"","S2","","html-keyboard-response","496","606235","0.0-1.0-670.0","0","0","33270","","null","","","null","74","","NaN","","","","","","","","","","","","","",""
"","response","","html-keyboard-response","497","607278","0.0-1.0-671.0-0.0","0","0","33270","","1042","","","68","74","","","2","74","training","adjacent","FE","6","5","M.jpg","O.jpg","1","0","0","",""
"","feedback","","html-keyboard-response","498","608281","0.0-1.0-672.0-0.0","0","0","33270","","null","","","null","74","","","","","","","","","","","","","","","",""
"","time_out","","html-keyboard-response","499","610283","0.0-1.0-674.0-0.0","0","0","33270","","null","","","null","74","","","","","","","","","","","","","","","",""
"","ITI","","html-keyboard-response","500","611285","0.0-1.0-675.0","0","0","33270","","null","","","null","74","","","","","","","","","","","","","","","NaN",""
"","S1","","html-keyboard-response","501","611438","0.0-1.0-677.0","0","0","33270","","null","","","null","75","","","","","","","","","","","","","","","",""
"","ISI","","html-keyboard-response","502","613440","0.0-1.0-678.0","0","0","33270","","null","","","null","75","NaN","","","","","","","","","","","","","","",""
"","S2","","html-keyboard-response","503","613592","0.0-1.0-679.0","0","0","33270","","null","","","null","75","","NaN","","","","","","","","","","","","","",""
"","response","","html-keyboard-response","504","614456","0.0-1.0-680.0-0.0","0","0","33270","","862","","","68","75","","","2","75","training","adjacent","ED","5","4","O.jpg","R.jpg","1","0","0","",""
"","feedback","","html-keyboard-response","505","615459","0.0-1.0-681.0-0.0","0","0","33270","","null","","","null","75","","","","","","","","","","","","","","","",""
"","time_out","","html-keyboard-response","506","617462","0.0-1.0-683.0-0.0","0","0","33270","","null","","","null","75","","","","","","","","","","","","","","","",""
"","ITI","","html-keyboard-response","507","618464","0.0-1.0-684.0","0","0","33270","","null","","","null","75","","","","","","","","","","","","","","","NaN",""
"","S1","","html-keyboard-response","508","618617","0.0-1.0-686.0","0","0","33270","","null","","","null","76","","","","","","","","","","","","","","","",""
"","ISI","","html-keyboard-response","509","620619","0.0-1.0-687.0","0","0","33270","","null","","","null","76","NaN","","","","","","","","","","","","","","",""
"","S2","","html-keyboard-response","510","620771","0.0-1.0-688.0","0","0","33270","","null","","","null","76","","NaN","","","","","","","","","","","","","",""
"","response","","html-keyboard-response","511","621452","0.0-1.0-689.0-0.0","0","0","33270","","679","","","68","76","","","2","76","training","adjacent","CB","3","2","N.jpg","L.jpg","1","0","0","",""
"","feedback","","html-keyboard-response","512","622455","0.0-1.0-690.0-0.0","0","0","33270","","null","","","null","76","","","","","","","","","","","","","","","",""
"","time_out","","html-keyboard-response","513","624457","0.0-1.0-692.0-0.0","0","0","33270","","null","","","null","76","","","","","","","","","","","","","","","",""
"","ITI","","html-keyboard-response","514","625459","0.0-1.0-693.0","0","0","33270","","null","","","null","76","","","","","","","","","","","","","","","NaN",""
"","S1","","html-keyboard-response","515","625612","0.0-1.0-695.0","0","0","33270","","null","","","null","77","","","","","","","","","","","","","","","",""
"","ISI","","html-keyboard-response","516","627614","0.0-1.0-696.0","0","0","33270","","null","","","null","77","NaN","","","","","","","","","","","","","","",""
"","S2","","html-keyboard-response","517","627767","0.0-1.0-697.0","0","0","33270","","null","","","null","77","","NaN","","","","","","","","","","","","","",""
"","response","","html-keyboard-response","518","628858","0.0-1.0-698.0-0.0","0","0","33270","","1090","","","75","77","","","2","77","training","adjacent","GF","7","6","P.jpg","M.jpg","0","0","1","",""
"","feedback","","html-keyboard-response","519","629873","0.0-1.0-699.0-0.0","0","0","33270","","null","","","null","77","","","","","","","","","","","","","","","",""
"","ITI","","html-keyboard-response","520","630875","0.0-1.0-702.0","0","0","33270","","null","","","null","77","","","","","","","","","","","","","","","NaN",""
"","S1","","html-keyboard-response","521","631027","0.0-1.0-704.0","0","0","33270","","null","","","null","78","","","","","","","","","","","","","","","",""
"","ISI","","html-keyboard-response","522","633030","0.0-1.0-705.0","0","0","33270","","null","","","null","78","NaN","","","","","","","","","","","","","","",""
"","S2","","html-keyboard-response","523","633183","0.0-1.0-706.0","0","0","33270","","null","","","null","78","","NaN","","","","","","","","","","","","","",""
"","response","","html-keyboard-response","524","634151","0.0-1.0-707.0-0.0","0","0","33270","","966","","","75","78","","","2","78","training","adjacent","FE","6","5","M.jpg","O.jpg","0","0","1","",""
"","feedback","","html-keyboard-response","525","635154","0.0-1.0-708.0-0.0","0","0","33270","","null","","","null","78","","","","","","","","","","","","","","","",""
"","ITI","","html-keyboard-response","526","636156","0.0-1.0-711.0","0","0","33270","","null","","","null","78","","","","","","","","","","","","","","","NaN",""
"","S1","","html-keyboard-response","527","636309","0.0-1.0-713.0","0","0","33270","","null","","","null","79","","","","","","","","","","","","","","","",""
"","ISI","","html-keyboard-response","528","638311","0.0-1.0-714.0","0","0","33270","","null","","","null","79","NaN","","","","","","","","","","","","","","",""
"","S2","","html-keyboard-response","529","638464","0.0-1.0-715.0","0","0","33270","","null","","","null","79","","NaN","","","","","","","","","","","","","",""
"","response","","html-keyboard-response","530","639231","0.0-1.0-716.0-0.0","0","0","33270","","766","","","68","79","","","2","79","training","adjacent","FG","6","7","M.jpg","P.jpg","1","1","1","",""
"","feedback","","html-keyboard-response","531","640233","0.0-1.0-717.0-0.0","0","0","33270","","null","","","null","79","","","","","","","","","","","","","","","",""
"","ITI","","html-keyboard-response","532","641236","0.0-1.0-720.0","0","0","33270","","null","","","null","79","","","","","","","","","","","","","","","NaN",""
"","S1","","html-keyboard-response","533","641389","0.0-1.0-722.0","0","0","33270","","null","","","null","80","","","","","","","","","","","","","","","",""
"","ISI","","html-keyboard-response","534","643391","0.0-1.0-723.0","0","0","33270","","null","","","null","80","NaN","","","","","","","","","","","","","","",""
"","S2","","html-keyboard-response","535","643544","0.0-1.0-724.0","0","0","33270","","null","","","null","80","","NaN","","","","","","","","","","","","","",""
"","response","","html-keyboard-response","536","644308","0.0-1.0-725.0-0.0","0","0","33270","","763","","","75","80","","","2","80","training","adjacent","DE","4","5","R.jpg","O.jpg","0","1","0","",""
"","feedback","","html-keyboard-response","537","645310","0.0-1.0-726.0-0.0","0","0","33270","","null","","","null","80","","","","","","","","","","","","","","","",""
"","time_out","","html-keyboard-response","538","647313","0.0-1.0-728.0-0.0","0","0","33270","","null","","","null","80","","","","","","","","","","","","","","","",""
"","ITI","","html-keyboard-response","539","648315","0.0-1.0-729.0","0","0","33270","","null","","","null","80","","","","","","","","","","","","","","","NaN",""
"","S1","","html-keyboard-response","540","648468","0.0-1.0-731.0","0","0","33270","","null","","","null","81","","","","","","","","","","","","","","","",""
"","ISI","","html-keyboard-response","541","650470","0.0-1.0-732.0","0","0","33270","","null","","","null","81","NaN","","","","","","","","","","","","","","",""
"","S2","","html-keyboard-response","542","650623","0.0-1.0-733.0","0","0","33270","","null","","","null","81","","NaN","","","","","","","","","","","","","",""
"","response","","html-keyboard-response","543","651663","0.0-1.0-734.0-0.0","0","0","33270","","1039","","","75","81","","","2","81","training","adjacent","BC","2","3","L.jpg","N.jpg","0","1","0","",""
"","feedback","","html-keyboard-response","544","652667","0.0-1.0-735.0-0.0","0","0","33270","","null","","","null","81","","","","","","","","","","","","","","","",""
"","time_out","","html-keyboard-response","545","654669","0.0-1.0-737.0-0.0","0","0","33270","","null","","","null","81","","","","","","","","","","","","","","","",""
"","ITI","","html-keyboard-response","546","655672","0.0-1.0-738.0","0","0","33270","","null","","","null","81","","","","","","","","","","","","","","","NaN",""
"","S1","","html-keyboard-response","547","655824","0.0-1.0-740.0","0","0","33270","","null","","","null","82","","","","","","","","","","","","","","","",""
"","ISI","","html-keyboard-response","548","657827","0.0-1.0-741.0","0","0","33270","","null","","","null","82","NaN","","","","","","","","","","","","","","",""
"","S2","","html-keyboard-response","549","657979","0.0-1.0-742.0","0","0","33270","","null","","","null","82","","NaN","","","","","","","","","","","","","",""
"","response","","html-keyboard-response","550","659076","0.0-1.0-743.0-0.0","0","0","33270","","1095","","","75","82","","","2","82","training","adjacent","ED","5","4","O.jpg","R.jpg","0","0","1","",""
"","feedback","","html-keyboard-response","551","660078","0.0-1.0-744.0-0.0","0","0","33270","","null","","","null","82","","","","","","","","","","","","","","","",""
"","ITI","","html-keyboard-response","552","661081","0.0-1.0-747.0","0","0","33270","","null","","","null","82","","","","","","","","","","","","","","","NaN",""
"","S1","","html-keyboard-response","553","661233","0.0-1.0-749.0","0","0","33270","","null","","","null","83","","","","","","","","","","","","","","","",""
"","ISI","","html-keyboard-response","554","663236","0.0-1.0-750.0","0","0","33270","","null","","","null","83","NaN","","","","","","","","","","","","","","",""
"","S2","","html-keyboard-response","555","663388","0.0-1.0-751.0","0","0","33270","","null","","","null","83","","NaN","","","","","","","","","","","","","",""
"","response","","html-keyboard-response","556","664151","0.0-1.0-752.0-0.0","0","0","33270","","761","","","75","83","","","2","83","training","adjacent","CD","3","4","N.jpg","R.jpg","0","1","0","",""
"","feedback","","html-keyboard-response","557","665154","0.0-1.0-753.0-0.0","0","0","33270","","null","","","null","83","","","","","","","","","","","","","","","",""
"","time_out","","html-keyboard-response","558","667156","0.0-1.0-755.0-0.0","0","0","33270","","null","","","null","83","","","","","","","","","","","","","","","",""
"","ITI","","html-keyboard-response","559","668158","0.0-1.0-756.0","0","0","33270","","null","","","null","83","","","","","","","","","","","","","","","NaN",""
"","S1","","html-keyboard-response","560","668309","0.0-1.0-758.0","0","0","33270","","null","","","null","84","","","","","","","","","","","","","","","",""
"","ISI","","html-keyboard-response","561","670311","0.0-1.0-759.0","0","0","33270","","null","","","null","84","NaN","","","","","","","","","","","","","","",""
"","S2","","html-keyboard-response","562","670464","0.0-1.0-760.0","0","0","33270","","null","","","null","84","","NaN","","","","","","","","","","","","","",""
"","response","","html-keyboard-response","563","670943","0.0-1.0-761.0-0.0","0","0","33270","","478","","","75","84","","","2","84","training","adjacent","EF","5","6","O.jpg","M.jpg","0","1","0","",""
"","feedback","","html-keyboard-response","564","671944","0.0-1.0-762.0-0.0","0","0","33270","","null","","","null","84","","","","","","","","","","","","","","","",""
"","time_out","","html-keyboard-response","565","673946","0.0-1.0-764.0-0.0","0","0","33270","","null","","","null","84","","","","","","","","","","","","","","","",""
"","ITI","","html-keyboard-response","566","674947","0.0-1.0-765.0","0","0","33270","","null","","","null","84","","","","","","","","","","","","","","","NaN",""
"","S1","","html-keyboard-response","567","675115","0.0-1.0-767.0","0","0","33270","","null","","","null","85","","","","","","","","","","","","","","","",""
"","ISI","","html-keyboard-response","568","677117","0.0-1.0-768.0","0","0","33270","","null","","","null","85","NaN","","","","","","","","","","","","","","",""
"","S2","","html-keyboard-response","569","677269","0.0-1.0-769.0","0","0","33270","","null","","","null","85","","NaN","","","","","","","","","","","","","",""
"","response","","html-keyboard-response","570","678051","0.0-1.0-770.0-0.0","0","0","33270","","780","","","68","85","","","2","85","training","adjacent","GF","7","6","P.jpg","M.jpg","1","0","0","",""
"","feedback","","html-keyboard-response","571","679054","0.0-1.0-771.0-0.0","0","0","33270","","null","","","null","85","","","","","","","","","","","","","","","",""
"","time_out","","html-keyboard-response","572","681057","0.0-1.0-773.0-0.0","0","0","33270","","null","","","null","85","","","","","","","","","","","","","","","",""
"","ITI","","html-keyboard-response","573","682059","0.0-1.0-774.0","0","0","33270","","null","","","null","85","","","","","","","","","","","","","","","NaN",""
"","S1","","html-keyboard-response","574","682211","0.0-1.0-776.0","0","0","33270","","null","","","null","86","","","","","","","","","","","","","","","",""
"","ISI","","html-keyboard-response","575","684214","0.0-1.0-777.0","0","0","33270","","null","","","null","86","NaN","","","","","","","","","","","","","","",""
"","S2","","html-keyboard-response","576","684367","0.0-1.0-778.0","0","0","33270","","null","","","null","86","","NaN","","","","","","","","","","","","","",""
"","response","","html-keyboard-response","577","684955","0.0-1.0-779.0-0.0","0","0","33270","","587","","","75","86","","","2","86","training","adjacent","CB","3","2","N.jpg","L.jpg","0","0","1","",""
"","feedback","","html-keyboard-response","578","685957","0.0-1.0-780.0-0.0","0","0","33270","","null","","","null","86","","","","","","","","","","","","","","","",""
"","ITI","","html-keyboard-response","579","686960","0.0-1.0-783.0","0","0","33270","","null","","","null","86","","","","","","","","","","","","","","","NaN",""
"","S1","","html-keyboard-response","580","687112","0.0-1.0-785.0","0","0","33270","","null","","","null","87","","","","","","","","","","","","","","","",""
