"success","ttype","start_time","trial_type","trial_index","time_elapsed","internal_node_id","warning","missed_checkup","PID","view_history","rt","responses","repeat_instructions","key_press","index","keypress_isi","keypress_S2","block","trial_num","phase","group_type","pair_type","S1_stim","S2_stim","S1_img","S2_img","S1_chosen","S1_higher","accuracy","keypress_iti","total_bonus_tally"
"true","full_screen","d03072023hr1750","fullscreen","0","22631","0.0-0.0","0","0","59996","","","","","","","","","","","","","","","","","","","","","",""
"","instructions","","instructions","1","98183","0.0-1.0-0.0-0.0","0","0","59996","[{""page_index"":0,""viewing_time"":7008},{""page_index"":1,""viewing_time"":47672},{""page_index"":2,""viewing_time"":18335},{""page_index"":3,""viewing_time"":2533}]","75549","","","","","","","","","","","","","","","","","","","",""
"","comprehension_check","","survey-multi-choice","2","135413","0.0-1.0-0.0-1.0","0","0","59996","","37225","{""Q0"":""True"",""Q1"":""D"",""Q2"":""Once the second image appears and while the screen 'MAKE A CHOICE' is shown"",""Q3"":""Green mark"",""Q4"":""either D or K""}","0","","","","","","","","","","","","","","","","","",""
"","start_exp","","html-keyboard-response","3","138543","0.0-1.0-1.0","0","0","59996","","3125","","","32","","","","","","","","","","","","","","","","",""
"","S1","","html-keyboard-response","4","138797","0.0-1.0-2.0","0","0","59996","","null","","","null","0","","","","","","","","","","","","","","","",""
"","ISI","","html-keyboard-response","5","139801","0.0-1.0-3.0","0","0","59996","","null","","","null","0","NaN","","","","","","","","","","","","","","",""
"","S2","","html-keyboard-response","6","140054","0.0-1.0-4.0","0","0","59996","","null","","","null","0","","NaN","","","","","","","","","","","","","",""
"","response","","html-keyboard-response","7","140232","0.0-1.0-5.0-0.0","0","0","59996","","175","","","75","0","","","1","0","training","adjacent","ED","5","4","Q.jpg","N.jpg","0","0","1","",""
"","feedback","","html-keyboard-response","8","141236","0.0-1.0-6.0-0.0","0","0","59996","","null","","","null","0","","","","","","","","","","","","","","","",""
"","ITI","","html-keyboard-response","9","142239","0.0-1.0-9.0","0","0","59996","","null","","","null","0","","","","","","","","","","","","","","","NaN",""
"","S1","","html-keyboard-response","10","142491","0.0-1.0-11.0","0","0","59996","","null","","","null","1","","","","","","","","","","","","","","","",""
"","ISI","","html-keyboard-response","11","143493","0.0-1.0-12.0","0","0","59996","","222","","","68","1","d","","","","","","","","","","","","","","",""
"","S2","","html-keyboard-response","12","143747","0.0-1.0-13.0","0","0","59996","","null","","","null","1","","NaN","","","","","","","","","","","","","",""
"","response","","html-keyboard-response","13","143903","0.0-1.0-14.0-0.0","0","0","59996","","154","","","68","1","","","1","1","training","adjacent","EF","5","6","Q.jpg","M.jpg","1","1","1","",""
"","feedback","","html-keyboard-response","14","144906","0.0-1.0-15.0-0.0","0","0","59996","","null","","","null","1","","","","","","","","","","","","","","","",""
"","ITI","","html-keyboard-response","15","145908","0.0-1.0-18.0","0","0","59996","","null","","","null","1","","","","","","","","","","","","","","","NaN",""
"","S1","","html-keyboard-response","16","146161","0.0-1.0-20.0","0","0","59996","","null","","","null","2","","","","","","","","","","","","","","","",""
"","ISI","","html-keyboard-response","17","147164","0.0-1.0-21.0","0","0","59996","","235","","","75","2","k","","","","","","","","","","","","","","",""
"","S2","","html-keyboard-response","18","147418","0.0-1.0-22.0","0","0","59996","","null","","","null","2","","NaN","","","","","","","","","","","","","",""
"","response","","html-keyboard-response","19","147472","0.0-1.0-23.0-0.0","0","0","59996","","51","","","75","2","","","1","2","training","adjacent","AB","1","2","L.jpg","O.jpg","0","1","0","",""
"","feedback","","html-keyboard-response","20","148475","0.0-1.0-24.0-0.0","0","0","59996","","null","","","null","2","","","","","","","","","","","","","","","",""
"","time_out","","html-keyboard-response","21","150477","0.0-1.0-26.0-0.0","0","0","59996","","null","","","null","2","","","","","","","","","","","","","","","",""
"","ITI","","html-keyboard-response","22","151480","0.0-1.0-27.0","0","0","59996","","null","","","null","2","","","","","","","","","","","","","","","NaN",""
"","S1","","html-keyboard-response","23","151733","0.0-1.0-29.0","0","0","59996","","null","","","null","3","","","","","","","","","","","","","","","",""
"","ISI","","html-keyboard-response","24","152736","0.0-1.0-30.0","0","0","59996","","null","","","null","3","NaN","","","","","","","","","","","","","","",""
"","S2","","html-keyboard-response","25","152988","0.0-1.0-31.0","0","0","59996","","null","","","null","3","","NaN","","","","","","","","","","","","","",""
"","response","","html-keyboard-response","26","153306","0.0-1.0-32.0-0.0","0","0","59996","","315","","","68","3","","","1","3","training","adjacent","FG","6","7","M.jpg","R.jpg","1","1","1","",""
"","feedback","","html-keyboard-response","27","154309","0.0-1.0-33.0-0.0","0","0","59996","","null","","","null","3","","","","","","","","","","","","","","","",""
"","ITI","","html-keyboard-response","28","155312","0.0-1.0-36.0","0","0","59996","","null","","","null","3","","","","","","","","","","","","","","","NaN",""
"","S1","","html-keyboard-response","29","155566","0.0-1.0-38.0","0","0","59996","","null","","","null","4","","","","","","","","","","","","","","","",""
"","ISI","","html-keyboard-response","30","156569","0.0-1.0-39.0","0","0","59996","","null","","","null","4","NaN","","","","","","","","","","","","","","",""
"","S2","","html-keyboard-response","31","156821","0.0-1.0-40.0","0","0","59996","","null","","","null","4","","NaN","","","","","","","","","","","","","",""
"","response","","html-keyboard-response","32","157253","0.0-1.0-41.0-0.0","0","0","59996","","430","","","75","4","","","1","4","training","adjacent","DE","4","5","N.jpg","Q.jpg","0","1","0","",""
"","feedback","","html-keyboard-response","33","158256","0.0-1.0-42.0-0.0","0","0","59996","","null","","","null","4","","","","","","","","","","","","","","","",""
"","time_out","","html-keyboard-response","34","160259","0.0-1.0-44.0-0.0","0","0","59996","","null","","","null","4","","","","","","","","","","","","","","","",""
"","ITI","","html-keyboard-response","35","161262","0.0-1.0-45.0","0","0","59996","","null","","","null","4","","","","","","","","","","","","","","","NaN",""
"","S1","","html-keyboard-response","36","161515","0.0-1.0-47.0","0","0","59996","","null","","","null","5","","","","","","","","","","","","","","","",""
"","ISI","","html-keyboard-response","37","162518","0.0-1.0-48.0","0","0","59996","","null","","","null","5","NaN","","","","","","","","","","","","","","",""
"","S2","","html-keyboard-response","38","162771","0.0-1.0-49.0","0","0","59996","","null","","","null","5","","NaN","","","","","","","","","","","","","",""
"","response","","html-keyboard-response","39","163128","0.0-1.0-50.0-0.0","0","0","59996","","355","","","68","5","","","1","5","training","adjacent","GF","7","6","R.jpg","M.jpg","1","0","0","",""
"","feedback","","html-keyboard-response","40","164130","0.0-1.0-51.0-0.0","0","0","59996","","null","","","null","5","","","","","","","","","","","","","","","",""
"","time_out","","html-keyboard-response","41","166133","0.0-1.0-53.0-0.0","0","0","59996","","null","","","null","5","","","","","","","","","","","","","","","",""
"","ITI","","html-keyboard-response","42","167136","0.0-1.0-54.0","0","0","59996","","null","","","null","5","","","","","","","","","","","","","","","NaN",""
"","S1","","html-keyboard-response","43","167389","0.0-1.0-56.0","0","0","59996","","null","","","null","6","","","","","","","","","","","","","","","",""
"","ISI","","html-keyboard-response","44","168392","0.0-1.0-57.0","0","0","59996","","null","","","null","6","NaN","","","","","","","","","","","","","","",""
"","S2","","html-keyboard-response","45","168646","0.0-1.0-58.0","0","0","59996","","null","","","null","6","","NaN","","","","","","","","","","","","","",""
"","response","","html-keyboard-response","46","168833","0.0-1.0-59.0-0.0","0","0","59996","","185","","","75","6","","","1","6","training","adjacent","ED","5","4","Q.jpg","N.jpg","0","0","1","",""
"","feedback","","html-keyboard-response","47","169836","0.0-1.0-60.0-0.0","0","0","59996","","null","","","null","6","","","","","","","","","","","","","","","",""
"","ITI","","html-keyboard-response","48","170839","0.0-1.0-63.0","0","0","59996","","null","","","null","6","","","","","","","","","","","","","","","NaN",""
"","S1","","html-keyboard-response","49","171093","0.0-1.0-65.0","0","0","59996","","null","","","null","7","","","","","","","","","","","","","","","",""
"","ISI","","html-keyboard-response","50","172096","0.0-1.0-66.0","0","0","59996","","null","","","null","7","NaN","","","","","","","","","","","","","","",""
"","S2","","html-keyboard-response","51","172349","0.0-1.0-67.0","0","0","59996","","null","","","null","7","","NaN","","","","","","","","","","","","","",""
"","response","","html-keyboard-response","52","172560","0.0-1.0-68.0-0.0","0","0","59996","","210","","","68","7","","","1","7","training","adjacent","FE","6","5","M.jpg","Q.jpg","1","0","0","",""
"","feedback","","html-keyboard-response","53","173563","0.0-1.0-69.0-0.0","0","0","59996","","null","","","null","7","","","","","","","","","","","","","","","",""
"","time_out","","html-keyboard-response","54","175566","0.0-1.0-71.0-0.0","0","0","59996","","null","","","null","7","","","","","","","","","","","","","","","",""
"","ITI","","html-keyboard-response","55","176568","0.0-1.0-72.0","0","0","59996","","null","","","null","7","","","","","","","","","","","","","","","NaN",""
"","S1","","html-keyboard-response","56","176821","0.0-1.0-74.0","0","0","59996","","null","","","null","8","","","","","","","","","","","","","","","",""
"","ISI","","html-keyboard-response","57","177824","0.0-1.0-75.0","0","0","59996","","null","","","null","8","NaN","","","","","","","","","","","","","","",""
"","S2","","html-keyboard-response","58","178077","0.0-1.0-76.0","0","0","59996","","null","","","null","8","","NaN","","","","","","","","","","","","","",""
"","response","","html-keyboard-response","59","178323","0.0-1.0-77.0-0.0","0","0","59996","","244","","","68","8","","","1","8","training","adjacent","FG","6","7","M.jpg","R.jpg","1","1","1","",""
"","feedback","","html-keyboard-response","60","179326","0.0-1.0-78.0-0.0","0","0","59996","","null","","","null","8","","","","","","","","","","","","","","","",""
"","ITI","","html-keyboard-response","61","180328","0.0-1.0-81.0","0","0","59996","","null","","","null","8","","","","","","","","","","","","","","","NaN",""
"","S1","","html-keyboard-response","62","180581","0.0-1.0-83.0","0","0","59996","","null","","","null","9","","","","","","","","","","","","","","","",""
"","ISI","","html-keyboard-response","63","181584","0.0-1.0-84.0","0","0","59996","","null","","","null","9","NaN","","","","","","","","","","","","","","",""
"","S2","","html-keyboard-response","64","181837","0.0-1.0-85.0","0","0","59996","","null","","","null","9","","NaN","","","","","","","","","","","","","",""
"","response","","html-keyboard-response","65","181917","0.0-1.0-86.0-0.0","0","0","59996","","78","","","75","9","","","1","9","training","adjacent","DC","4","3","N.jpg","P.jpg","0","0","1","",""
"","feedback","","html-keyboard-response","66","182920","0.0-1.0-87.0-0.0","0","0","59996","","null","","","null","9","","","","","","","","","","","","","","","",""
"","ITI","","html-keyboard-response","67","183937","0.0-1.0-90.0","0","0","59996","","null","","","null","9","","","","","","","","","","","","","","","NaN",""
"","S1","","html-keyboard-response","68","184190","0.0-1.0-92.0","0","0","59996","","null","","","null","10","","","","","","","","","","","","","","","",""
"","ISI","","html-keyboard-response","69","185192","0.0-1.0-93.0","0","0","59996","","null","","","null","10","NaN","","","","","","","","","","","","","","",""
"","S2","","html-keyboard-response","70","185446","0.0-1.0-94.0","0","0","59996","","null","","","null","10","","NaN","","","","","","","","","","","","","",""
"","response","","html-keyboard-response","71","185576","0.0-1.0-95.0-0.0","0","0","59996","","129","","","68","10","","","1","10","training","adjacent","DC","4","3","N.jpg","P.jpg","1","0","0","",""
"","feedback","","html-keyboard-response","72","186579","0.0-1.0-96.0-0.0","0","0","59996","","null","","","null","10","","","","","","","","","","","","","","","",""
"","time_out","","html-keyboard-response","73","188581","0.0-1.0-98.0-0.0","0","0","59996","","null","","","null","10","","","","","","","","","","","","","","","",""
"","ITI","","html-keyboard-response","74","189584","0.0-1.0-99.0","0","0","59996","","null","","","null","10","","","","","","","","","","","","","","","NaN",""
"","S1","","html-keyboard-response","75","189837","0.0-1.0-101.0","0","0","59996","","null","","","null","11","","","","","","","","","","","","","","","",""
"","ISI","","html-keyboard-response","76","190839","0.0-1.0-102.0","0","0","59996","","null","","","null","11","NaN","","","","","","","","","","","","","","",""
"","S2","","html-keyboard-response","77","191092","0.0-1.0-103.0","0","0","59996","","null","","","null","11","","NaN","","","","","","","","","","","","","",""
"","response","","html-keyboard-response","78","191381","0.0-1.0-104.0-0.0","0","0","59996","","286","","","75","11","","","1","11","training","adjacent","CB","3","2","P.jpg","O.jpg","0","0","1","",""
"","feedback","","html-keyboard-response","79","192384","0.0-1.0-105.0-0.0","0","0","59996","","null","","","null","11","","","","","","","","","","","","","","","",""
"","ITI","","html-keyboard-response","80","193387","0.0-1.0-108.0","0","0","59996","","null","","","null","11","","","","","","","","","","","","","","","NaN",""
"","S1","","html-keyboard-response","81","193640","0.0-1.0-110.0","0","0","59996","","null","","","null","12","","","","","","","","","","","","","","","",""
"","ISI","","html-keyboard-response","82","194642","0.0-1.0-111.0","0","0","59996","","null","","","null","12","NaN","","","","","","","","","","","","","","",""
"","S2","","html-keyboard-response","83","194896","0.0-1.0-112.0","0","0","59996","","null","","","null","12","","NaN","","","","","","","","","","","","","",""
"","response","","html-keyboard-response","84","195121","0.0-1.0-113.0-0.0","0","0","59996","","223","","","75","12","","","1","12","training","adjacent","AB","1","2","L.jpg","O.jpg","0","1","0","",""
"","feedback","","html-keyboard-response","85","196124","0.0-1.0-114.0-0.0","0","0","59996","","null","","","null","12","","","","","","","","","","","","","","","",""
"","time_out","","html-keyboard-response","86","198128","0.0-1.0-116.0-0.0","0","0","59996","","null","","","null","12","","","","","","","","","","","","","","","",""
"","ITI","","html-keyboard-response","87","199130","0.0-1.0-117.0","0","0","59996","","null","","","null","12","","","","","","","","","","","","","","","NaN",""
"","S1","","html-keyboard-response","88","199383","0.0-1.0-119.0","0","0","59996","","null","","","null","13","","","","","","","","","","","","","","","",""
"","ISI","","html-keyboard-response","89","200385","0.0-1.0-120.0","0","0","59996","","null","","","null","13","NaN","","","","","","","","","","","","","","",""
"","S2","","html-keyboard-response","90","200638","0.0-1.0-121.0","0","0","59996","","null","","","null","13","","NaN","","","","","","","","","","","","","",""
"","response","","html-keyboard-response","91","200950","0.0-1.0-122.0-0.0","0","0","59996","","309","","","75","13","","","1","13","training","adjacent","CD","3","4","P.jpg","N.jpg","0","1","0","",""
"","feedback","","html-keyboard-response","92","201953","0.0-1.0-123.0-0.0","0","0","59996","","null","","","null","13","","","","","","","","","","","","","","","",""
"","time_out","","html-keyboard-response","93","203956","0.0-1.0-125.0-0.0","0","0","59996","","null","","","null","13","","","","","","","","","","","","","","","",""
"","ITI","","html-keyboard-response","94","204959","0.0-1.0-126.0","0","0","59996","","null","","","null","13","","","","","","","","","","","","","","","NaN",""
"","S1","","html-keyboard-response","95","205212","0.0-1.0-128.0","0","0","59996","","null","","","null","14","","","","","","","","","","","","","","","",""
"","ISI","","html-keyboard-response","96","206215","0.0-1.0-129.0","0","0","59996","","null","","","null","14","NaN","","","","","","","","","","","","","","",""
"","S2","","html-keyboard-response","97","206469","0.0-1.0-130.0","0","0","59996","","null","","","null","14","","NaN","","","","","","","","","","","","","",""
"","response","","html-keyboard-response","98","206928","0.0-1.0-131.0-0.0","0","0","59996","","456","","","75","14","","","1","14","training","adjacent","DE","4","5","N.jpg","Q.jpg","0","1","0","",""
"","feedback","","html-keyboard-response","99","207932","0.0-1.0-132.0-0.0","0","0","59996","","null","","","null","14","","","","","","","","","","","","","","","",""
"","time_out","","html-keyboard-response","100","209934","0.0-1.0-134.0-0.0","0","0","59996","","null","","","null","14","","","","","","","","","","","","","","","",""
"","ITI","","html-keyboard-response","101","210938","0.0-1.0-135.0","0","0","59996","","null","","","null","14","","","","","","","","","","","","","","","NaN",""
"","S1","","html-keyboard-response","102","211190","0.0-1.0-137.0","0","0","59996","","null","","","null","15","","","","","","","","","","","","","","","",""
"","ISI","","html-keyboard-response","103","212193","0.0-1.0-138.0","0","0","59996","","null","","","null","15","NaN","","","","","","","","","","","","","","",""
"","S2","","html-keyboard-response","104","212445","0.0-1.0-139.0","0","0","59996","","null","","","null","15","","NaN","","","","","","","","","","","","","",""
"","response","","html-keyboard-response","105","212699","0.0-1.0-140.0-0.0","0","0","59996","","251","","","68","15","","","1","15","training","adjacent","DC","4","3","N.jpg","P.jpg","1","0","0","",""
"","feedback","","html-keyboard-response","106","213702","0.0-1.0-141.0-0.0","0","0","59996","","null","","","null","15","","","","","","","","","","","","","","","",""
"","time_out","","html-keyboard-response","107","215705","0.0-1.0-143.0-0.0","0","0","59996","","null","","","null","15","","","","","","","","","","","","","","","",""
"","ITI","","html-keyboard-response","108","216708","0.0-1.0-144.0","0","0","59996","","null","","","null","15","","","","","","","","","","","","","","","NaN",""
"","S1","","html-keyboard-response","109","216961","0.0-1.0-146.0","0","0","59996","","null","","","null","16","","","","","","","","","","","","","","","",""
"","ISI","","html-keyboard-response","110","217964","0.0-1.0-147.0","0","0","59996","","null","","","null","16","NaN","","","","","","","","","","","","","","",""
"","S2","","html-keyboard-response","111","218217","0.0-1.0-148.0","0","0","59996","","null","","","null","16","","NaN","","","","","","","","","","","","","",""
"","response","","html-keyboard-response","112","218573","0.0-1.0-149.0-0.0","0","0","59996","","354","","","68","16","","","1","16","training","adjacent","CD","3","4","P.jpg","N.jpg","1","1","1","",""
"","feedback","","html-keyboard-response","113","219576","0.0-1.0-150.0-0.0","0","0","59996","","null","","","null","16","","","","","","","","","","","","","","","",""
"","ITI","","html-keyboard-response","114","220579","0.0-1.0-153.0","0","0","59996","","null","","","null","16","","","","","","","","","","","","","","","NaN",""
"","S1","","html-keyboard-response","115","220831","0.0-1.0-155.0","0","0","59996","","null","","","null","17","","","","","","","","","","","","","","","",""
"","ISI","","html-keyboard-response","116","221834","0.0-1.0-156.0","0","0","59996","","null","","","null","17","NaN","","","","","","","","","","","","","","",""
"","S2","","html-keyboard-response","117","222087","0.0-1.0-157.0","0","0","59996","","null","","","null","17","","NaN","","","","","","","","","","","","","",""
"","response","","html-keyboard-response","118","222496","0.0-1.0-158.0-0.0","0","0","59996","","407","","","75","17","","","1","17","training","adjacent","ED","5","4","Q.jpg","N.jpg","0","0","1","",""
"","feedback","","html-keyboard-response","119","223499","0.0-1.0-159.0-0.0","0","0","59996","","null","","","null","17","","","","","","","","","","","","","","","",""
"","ITI","","html-keyboard-response","120","224502","0.0-1.0-162.0","0","0","59996","","null","","","null","17","","","","","","","","","","","","","","","NaN",""
"","S1","","html-keyboard-response","121","224756","0.0-1.0-164.0","0","0","59996","","null","","","null","18","","","","","","","","","","","","","","","",""
"","ISI","","html-keyboard-response","122","225759","0.0-1.0-165.0","0","0","59996","","null","","","null","18","NaN","","","","","","","","","","","","","","",""
"","S2","","html-keyboard-response","123","226013","0.0-1.0-166.0","0","0","59996","","null","","","null","18","","NaN","","","","","","","","","","","","","",""
"","response","","html-keyboard-response","124","226229","0.0-1.0-167.0-0.0","0","0","59996","","215","","","68","18","","","1","18","training","adjacent","FG","6","7","M.jpg","R.jpg","1","1","1","",""
"","feedback","","html-keyboard-response","125","227245","0.0-1.0-168.0-0.0","0","0","59996","","null","","","null","18","","","","","","","","","","","","","","","",""
"","ITI","","html-keyboard-response","126","228247","0.0-1.0-171.0","0","0","59996","","null","","","null","18","","","","","","","","","","","","","","","NaN",""
"","S1","","html-keyboard-response","127","228500","0.0-1.0-173.0","0","0","59996","","null","","","null","19","","","","","","","","","","","","","","","",""
"","ISI","","html-keyboard-response","128","229503","0.0-1.0-174.0","0","0","59996","","null","","","null","19","NaN","","","","","","","","","","","","","","",""
"","S2","","html-keyboard-response","129","229756","0.0-1.0-175.0","0","0","59996","","null","","","null","19","","NaN","","","","","","","","","","","","","",""
"","response","","html-keyboard-response","130","230048","0.0-1.0-176.0-0.0","0","0","59996","","289","","","68","19","","","1","19","training","adjacent","FG","6","7","M.jpg","R.jpg","1","1","1","",""
"","feedback","","html-keyboard-response","131","231052","0.0-1.0-177.0-0.0","0","0","59996","","null","","","null","19","","","","","","","","","","","","","","","",""
"","ITI","","html-keyboard-response","132","232054","0.0-1.0-180.0","0","0","59996","","null","","","null","19","","","","","","","","","","","","","","","NaN",""
"","S1","","html-keyboard-response","133","232306","0.0-1.0-182.0","0","0","59996","","null","","","null","20","","","","","","","","","","","","","","","",""
"","ISI","","html-keyboard-response","134","233309","0.0-1.0-183.0","0","0","59996","","null","","","null","20","NaN","","","","","","","","","","","","","","",""
"","S2","","html-keyboard-response","135","233563","0.0-1.0-184.0","0","0","59996","","null","","","null","20","","NaN","","","","","","","","","","","","","",""
"","response","","html-keyboard-response","136","233911","0.0-1.0-185.0-0.0","0","0","59996","","345","","","68","20","","","1","20","training","adjacent","CD","3","4","P.jpg","N.jpg","1","1","1","",""
"","feedback","","html-keyboard-response","137","234915","0.0-1.0-186.0-0.0","0","0","59996","","null","","","null","20","","","","","","","","","","","","","","","",""
"","ITI","","html-keyboard-response","138","235918","0.0-1.0-189.0","0","0","59996","","null","","","null","20","","","","","","","","","","","","","","","NaN",""
"","S1","","html-keyboard-response","139","236171","0.0-1.0-191.0","0","0","59996","","null","","","null","21","","","","","","","","","","","","","","","",""
"","ISI","","html-keyboard-response","140","237175","0.0-1.0-192.0","0","0","59996","","null","","","null","21","NaN","","","","","","","","","","","","","","",""
"","S2","","html-keyboard-response","141","237429","0.0-1.0-193.0","0","0","59996","","null","","","null","21","","NaN","","","","","","","","","","","","","",""
"","response","","html-keyboard-response","142","237680","0.0-1.0-194.0-0.0","0","0","59996","","250","","","68","21","","","1","21","training","adjacent","FE","6","5","M.jpg","Q.jpg","1","0","0","",""
"","feedback","","html-keyboard-response","143","238682","0.0-1.0-195.0-0.0","0","0","59996","","null","","","null","21","","","","","","","","","","","","","","","",""
"","time_out","","html-keyboard-response","144","240685","0.0-1.0-197.0-0.0","0","0","59996","","null","","","null","21","","","","","","","","","","","","","","","",""
"","ITI","","html-keyboard-response","145","241687","0.0-1.0-198.0","0","0","59996","","null","","","null","21","","","","","","","","","","","","","","","NaN",""
"","S1","","html-keyboard-response","146","241941","0.0-1.0-200.0","0","0","59996","","null","","","null","22","","","","","","","","","","","","","","","",""
"","ISI","","html-keyboard-response","147","242944","0.0-1.0-201.0","0","0","59996","","null","","","null","22","NaN","","","","","","","","","","","","","","",""
"","S2","","html-keyboard-response","148","243196","0.0-1.0-202.0","0","0","59996","","null","","","null","22","","NaN","","","","","","","","","","","","","",""
"","response","","html-keyboard-response","149","243306","0.0-1.0-203.0-0.0","0","0","59996","","108","","","75","22","","","1","22","training","adjacent","BC","2","3","O.jpg","P.jpg","0","1","0","",""
"","feedback","","html-keyboard-response","150","244309","0.0-1.0-204.0-0.0","0","0","59996","","null","","","null","22","","","","","","","","","","","","","","","",""
"","time_out","","html-keyboard-response","151","246312","0.0-1.0-206.0-0.0","0","0","59996","","null","","","null","22","","","","","","","","","","","","","","","",""
"","ITI","","html-keyboard-response","152","247314","0.0-1.0-207.0","0","0","59996","","null","","","null","22","","","","","","","","","","","","","","","NaN",""
"","S1","","html-keyboard-response","153","247567","0.0-1.0-209.0","0","0","59996","","null","","","null","23","","","","","","","","","","","","","","","",""
"","ISI","","html-keyboard-response","154","248569","0.0-1.0-210.0","0","0","59996","","null","","","null","23","NaN","","","","","","","","","","","","","","",""
"","S2","","html-keyboard-response","155","248822","0.0-1.0-211.0","0","0","59996","","null","","","null","23","","NaN","","","","","","","","","","","","","",""
"","response","","html-keyboard-response","156","249106","0.0-1.0-212.0-0.0","0","0","59996","","282","","","68","23","","","1","23","training","adjacent","BC","2","3","O.jpg","P.jpg","1","1","1","",""
"","feedback","","html-keyboard-response","157","250110","0.0-1.0-213.0-0.0","0","0","59996","","null","","","null","23","","","","","","","","","","","","","","","",""
"","ITI","","html-keyboard-response","158","251113","0.0-1.0-216.0","0","0","59996","","null","","","null","23","","","","","","","","","","","","","","","NaN",""
"","S1","","html-keyboard-response","159","251366","0.0-1.0-218.0","0","0","59996","","null","","","null","24","","","","","","","","","","","","","","","",""
"","ISI","","html-keyboard-response","160","252370","0.0-1.0-219.0","0","0","59996","","null","","","null","24","NaN","","","","","","","","","","","","","","",""
"","S2","","html-keyboard-response","161","252623","0.0-1.0-220.0","0","0","59996","","null","","","null","24","","NaN","","","","","","","","","","","","","",""
"","response","","html-keyboard-response","162","252840","0.0-1.0-221.0-0.0","0","0","59996","","216","","","68","24","","","1","24","training","adjacent","BA","2","1","O.jpg","L.jpg","1","0","0","",""
"","feedback","","html-keyboard-response","163","253842","0.0-1.0-222.0-0.0","0","0","59996","","null","","","null","24","","","","","","","","","","","","","","","",""
"","time_out","","html-keyboard-response","164","255846","0.0-1.0-224.0-0.0","0","0","59996","","null","","","null","24","","","","","","","","","","","","","","","",""
"","ITI","","html-keyboard-response","165","256848","0.0-1.0-225.0","0","0","59996","","null","","","null","24","","","","","","","","","","","","","","","NaN",""
"","S1","","html-keyboard-response","166","257101","0.0-1.0-227.0","0","0","59996","","null","","","null","25","","","","","","","","","","","","","","","",""
"","ISI","","html-keyboard-response","167","258104","0.0-1.0-228.0","0","0","59996","","null","","","null","25","NaN","","","","","","","","","","","","","","",""
"","S2","","html-keyboard-response","168","258365","0.0-1.0-229.0","0","0","59996","","null","","","null","25","","NaN","","","","","","","","","","","","","",""
"","response","","html-keyboard-response","169","258506","0.0-1.0-230.0-0.0","0","0","59996","","140","","","75","25","","","1","25","training","adjacent","EF","5","6","Q.jpg","M.jpg","0","1","0","",""
"","feedback","","html-keyboard-response","170","259508","0.0-1.0-231.0-0.0","0","0","59996","","null","","","null","25","","","","","","","","","","","","","","","",""
"","time_out","","html-keyboard-response","171","261512","0.0-1.0-233.0-0.0","0","0","59996","","null","","","null","25","","","","","","","","","","","","","","","",""
"","ITI","","html-keyboard-response","172","262514","0.0-1.0-234.0","0","0","59996","","null","","","null","25","","","","","","","","","","","","","","","NaN",""
"","S1","","html-keyboard-response","173","262768","0.0-1.0-236.0","0","0","59996","","null","","","null","26","","","","","","","","","","","","","","","",""
"","ISI","","html-keyboard-response","174","263770","0.0-1.0-237.0","0","0","59996","","null","","","null","26","NaN","","","","","","","","","","","","","","",""
"","S2","","html-keyboard-response","175","264023","0.0-1.0-238.0","0","0","59996","","null","","","null","26","","NaN","","","","","","","","","","","","","",""
"","response","","html-keyboard-response","176","264717","0.0-1.0-239.0-0.0","0","0","59996","","692","","","75","26","","","1","26","training","adjacent","GF","7","6","R.jpg","M.jpg","0","0","1","",""
"","feedback","","html-keyboard-response","177","265719","0.0-1.0-240.0-0.0","0","0","59996","","null","","","null","26","","","","","","","","","","","","","","","",""
"","ITI","","html-keyboard-response","178","266722","0.0-1.0-243.0","0","0","59996","","null","","","null","26","","","","","","","","","","","","","","","NaN",""
"","S1","","html-keyboard-response","179","266974","0.0-1.0-245.0","0","0","59996","","null","","","null","27","","","","","","","","","","","","","","","",""
"","ISI","","html-keyboard-response","180","267977","0.0-1.0-246.0","0","0","59996","","null","","","null","27","NaN","","","","","","","","","","","","","","",""
"","S2","","html-keyboard-response","181","268230","0.0-1.0-247.0","0","0","59996","","null","","","null","27","","NaN","","","","","","","","","","","","","",""
"","response","","html-keyboard-response","182","268473","0.0-1.0-248.0-0.0","0","0","59996","","241","","","75","27","","","1","27","training","adjacent","DC","4","3","N.jpg","P.jpg","0","0","1","",""
"","feedback","","html-keyboard-response","183","269476","0.0-1.0-249.0-0.0","0","0","59996","","null","","","null","27","","","","","","","","","","","","","","","",""
"","ITI","","html-keyboard-response","184","270479","0.0-1.0-252.0","0","0","59996","","null","","","null","27","","","","","","","","","","","","","","","NaN",""
"","S1","","html-keyboard-response","185","270732","0.0-1.0-254.0","0","0","59996","","null","","","null","28","","","","","","","","","","","","","","","",""
"","ISI","","html-keyboard-response","186","271735","0.0-1.0-255.0","0","0","59996","","null","","","null","28","NaN","","","","","","","","","","","","","","",""
"","S2","","html-keyboard-response","187","271988","0.0-1.0-256.0","0","0","59996","","null","","","null","28","","NaN","","","","","","","","","","","","","",""
"","response","","html-keyboard-response","188","272326","0.0-1.0-257.0-0.0","0","0","59996","","336","","","68","28","","","1","28","training","adjacent","AB","1","2","L.jpg","O.jpg","1","1","1","",""
"","feedback","","html-keyboard-response","189","273329","0.0-1.0-258.0-0.0","0","0","59996","","null","","","null","28","","","","","","","","","","","","","","","",""
"","ITI","","html-keyboard-response","190","274331","0.0-1.0-261.0","0","0","59996","","null","","","null","28","","","","","","","","","","","","","","","NaN",""
"","S1","","html-keyboard-response","191","274585","0.0-1.0-263.0","0","0","59996","","null","","","null","29","","","","","","","","","","","","","","","",""
"","ISI","","html-keyboard-response","192","275588","0.0-1.0-264.0","0","0","59996","","null","","","null","29","NaN","","","","","","","","","","","","","","",""
"","S2","","html-keyboard-response","193","275841","0.0-1.0-265.0","0","0","59996","","null","","","null","29","","NaN","","","","","","","","","","","","","",""
"","response","","html-keyboard-response","194","275982","0.0-1.0-266.0-0.0","0","0","59996","","138","","","68","29","","","1","29","training","adjacent","DE","4","5","N.jpg","Q.jpg","1","1","1","",""
"","feedback","","html-keyboard-response","195","276986","0.0-1.0-267.0-0.0","0","0","59996","","null","","","null","29","","","","","","","","","","","","","","","",""
"","ITI","","html-keyboard-response","196","277988","0.0-1.0-270.0","0","0","59996","","null","","","null","29","","","","","","","","","","","","","","","NaN",""
"","S1","","html-keyboard-response","197","278241","0.0-1.0-272.0","0","0","59996","","null","","","null","30","","","","","","","","","","","","","","","",""
"","ISI","","html-keyboard-response","198","279245","0.0-1.0-273.0","0","0","59996","","null","","","null","30","NaN","","","","","","","","","","","","","","",""
"","S2","","html-keyboard-response","199","279499","0.0-1.0-274.0","0","0","59996","","null","","","null","30","","NaN","","","","","","","","","","","","","",""
"","response","","html-keyboard-response","200","279755","0.0-1.0-275.0-0.0","0","0","59996","","253","","","75","30","","","1","30","training","adjacent","BC","2","3","O.jpg","P.jpg","0","1","0","",""
"","feedback","","html-keyboard-response","201","280758","0.0-1.0-276.0-0.0","0","0","59996","","null","","","null","30","","","","","","","","","","","","","","","",""
"","time_out","","html-keyboard-response","202","282761","0.0-1.0-278.0-0.0","0","0","59996","","null","","","null","30","","","","","","","","","","","","","","","",""
"","ITI","","html-keyboard-response","203","283764","0.0-1.0-279.0","0","0","59996","","null","","","null","30","","","","","","","","","","","","","","","NaN",""
"","S1","","html-keyboard-response","204","284018","0.0-1.0-281.0","0","0","59996","","null","","","null","31","","","","","","","","","","","","","","","",""
"","ISI","","html-keyboard-response","205","285021","0.0-1.0-282.0","0","0","59996","","null","","","null","31","NaN","","","","","","","","","","","","","","",""
"","S2","","html-keyboard-response","206","285275","0.0-1.0-283.0","0","0","59996","","null","","","null","31","","NaN","","","","","","","","","","","","","",""
"","response","","html-keyboard-response","207","285625","0.0-1.0-284.0-0.0","0","0","59996","","347","","","68","31","","","1","31","training","adjacent","GF","7","6","R.jpg","M.jpg","1","0","0","",""
"","feedback","","html-keyboard-response","208","286629","0.0-1.0-285.0-0.0","0","0","59996","","null","","","null","31","","","","","","","","","","","","","","","",""
"","time_out","","html-keyboard-response","209","288632","0.0-1.0-287.0-0.0","0","0","59996","","null","","","null","31","","","","","","","","","","","","","","","",""
"","ITI","","html-keyboard-response","210","289634","0.0-1.0-288.0","0","0","59996","","null","","","null","31","","","","","","","","","","","","","","","NaN",""
"","S1","","html-keyboard-response","211","289888","0.0-1.0-290.0","0","0","59996","","null","","","null","32","","","","","","","","","","","","","","","",""
"","ISI","","html-keyboard-response","212","290891","0.0-1.0-291.0","0","0","59996","","null","","","null","32","NaN","","","","","","","","","","","","","","",""
"","S2","","html-keyboard-response","213","291144","0.0-1.0-292.0","0","0","59996","","null","","","null","32","","NaN","","","","","","","","","","","","","",""
"","response","","html-keyboard-response","214","291256","0.0-1.0-293.0-0.0","0","0","59996","","110","","","75","32","","","1","32","training","adjacent","BA","2","1","O.jpg","L.jpg","0","0","1","",""
"","feedback","","html-keyboard-response","215","292259","0.0-1.0-294.0-0.0","0","0","59996","","null","","","null","32","","","","","","","","","","","","","","","",""
"","ITI","","html-keyboard-response","216","293261","0.0-1.0-297.0","0","0","59996","","null","","","null","32","","","","","","","","","","","","","","","NaN",""
"","S1","","html-keyboard-response","217","293515","0.0-1.0-299.0","0","0","59996","","null","","","null","33","","","","","","","","","","","","","","","",""
"","ISI","","html-keyboard-response","218","294517","0.0-1.0-300.0","0","0","59996","","null","","","null","33","NaN","","","","","","","","","","","","","","",""
"","S2","","html-keyboard-response","219","294770","0.0-1.0-301.0","0","0","59996","","null","","","null","33","","NaN","","","","","","","","","","","","","",""
"","response","","html-keyboard-response","220","294985","0.0-1.0-302.0-0.0","0","0","59996","","214","","","75","33","","","1","33","training","adjacent","ED","5","4","Q.jpg","N.jpg","0","0","1","",""
"","feedback","","html-keyboard-response","221","295988","0.0-1.0-303.0-0.0","0","0","59996","","null","","","null","33","","","","","","","","","","","","","","","",""
"","ITI","","html-keyboard-response","222","296990","0.0-1.0-306.0","0","0","59996","","null","","","null","33","","","","","","","","","","","","","","","NaN",""
"","S1","","html-keyboard-response","223","297242","0.0-1.0-308.0","0","0","59996","","null","","","null","34","","","","","","","","","","","","","","","",""
"","ISI","","html-keyboard-response","224","298245","0.0-1.0-309.0","0","0","59996","","null","","","null","34","NaN","","","","","","","","","","","","","","",""
"","S2","","html-keyboard-response","225","298498","0.0-1.0-310.0","0","0","59996","","null","","","null","34","","NaN","","","","","","","","","","","","","",""
"","response","","html-keyboard-response","226","298620","0.0-1.0-311.0-0.0","0","0","59996","","120","","","75","34","","","1","34","training","adjacent","CB","3","2","P.jpg","O.jpg","0","0","1","",""
"","feedback","","html-keyboard-response","227","299623","0.0-1.0-312.0-0.0","0","0","59996","","null","","","null","34","","","","","","","","","","","","","","","",""
"","ITI","","html-keyboard-response","228","300627","0.0-1.0-315.0","0","0","59996","","null","","","null","34","","","","","","","","","","","","","","","NaN",""
"","S1","","html-keyboard-response","229","300880","0.0-1.0-317.0","0","0","59996","","null","","","null","35","","","","","","","","","","","","","","","",""
"","ISI","","html-keyboard-response","230","301883","0.0-1.0-318.0","0","0","59996","","null","","","null","35","NaN","","","","","","","","","","","","","","",""
"","S2","","html-keyboard-response","231","302148","0.0-1.0-319.0","0","0","59996","","null","","","null","35","","NaN","","","","","","","","","","","","","",""
"","response","","html-keyboard-response","232","302305","0.0-1.0-320.0-0.0","0","0","59996","","155","","","68","35","","","1","35","training","adjacent","FE","6","5","M.jpg","Q.jpg","1","0","0","",""
"","feedback","","html-keyboard-response","233","303308","0.0-1.0-321.0-0.0","0","0","59996","","null","","","null","35","","","","","","","","","","","","","","","",""
"","time_out","","html-keyboard-response","234","305311","0.0-1.0-323.0-0.0","0","0","59996","","null","","","null","35","","","","","","","","","","","","","","","",""
"","ITI","","html-keyboard-response","235","306315","0.0-1.0-324.0","0","0","59996","","null","","","null","35","","","","","","","","","","","","","","","NaN",""
"","S1","","html-keyboard-response","236","306569","0.0-1.0-326.0","0","0","59996","","null","","","null","36","","","","","","","","","","","","","","","",""
"","ISI","","html-keyboard-response","237","307571","0.0-1.0-327.0","0","0","59996","","null","","","null","36","NaN","","","","","","","","","","","","","","",""
"","S2","","html-keyboard-response","238","307823","0.0-1.0-328.0","0","0","59996","","null","","","null","36","","NaN","","","","","","","","","","","","","",""
"","response","","html-keyboard-response","239","307926","0.0-1.0-329.0-0.0","0","0","59996","","100","","","75","36","","","1","36","training","adjacent","GF","7","6","R.jpg","M.jpg","0","0","1","",""
"","feedback","","html-keyboard-response","240","308930","0.0-1.0-330.0-0.0","0","0","59996","","null","","","null","36","","","","","","","","","","","","","","","",""
"","ITI","","html-keyboard-response","241","309932","0.0-1.0-333.0","0","0","59996","","null","","","null","36","","","","","","","","","","","","","","","NaN",""
"","S1","","html-keyboard-response","242","310185","0.0-1.0-335.0","0","0","59996","","null","","","null","37","","","","","","","","","","","","","","","",""
"","ISI","","html-keyboard-response","243","311188","0.0-1.0-336.0","0","0","59996","","null","","","null","37","NaN","","","","","","","","","","","","","","",""
"","S2","","html-keyboard-response","244","311440","0.0-1.0-337.0","0","0","59996","","null","","","null","37","","NaN","","","","","","","","","","","","","",""
"","response","","html-keyboard-response","245","311550","0.0-1.0-338.0-0.0","0","0","59996","","108","","","68","37","","","1","37","training","adjacent","CB","3","2","P.jpg","O.jpg","1","0","0","",""
"","feedback","","html-keyboard-response","246","312554","0.0-1.0-339.0-0.0","0","0","59996","","null","","","null","37","","","","","","","","","","","","","","","",""
"","time_out","","html-keyboard-response","247","314556","0.0-1.0-341.0-0.0","0","0","59996","","null","","","null","37","","","","","","","","","","","","","","","",""
"","ITI","","html-keyboard-response","248","315558","0.0-1.0-342.0","0","0","59996","","null","","","null","37","","","","","","","","","","","","","","","NaN",""
"","S1","","html-keyboard-response","249","315811","0.0-1.0-344.0","0","0","59996","","null","","","null","38","","","","","","","","","","","","","","","",""
"","ISI","","html-keyboard-response","250","316814","0.0-1.0-345.0","0","0","59996","","null","","","null","38","NaN","","","","","","","","","","","","","","",""
"","S2","","html-keyboard-response","251","317067","0.0-1.0-346.0","0","0","59996","","null","","","null","38","","NaN","","","","","","","","","","","","","",""
"","response","","html-keyboard-response","252","317205","0.0-1.0-347.0-0.0","0","0","59996","","136","","","68","38","","","1","38","training","adjacent","AB","1","2","L.jpg","O.jpg","1","1","1","",""
"","feedback","","html-keyboard-response","253","318206","0.0-1.0-348.0-0.0","0","0","59996","","null","","","null","38","","","","","","","","","","","","","","","",""
"","ITI","","html-keyboard-response","254","319209","0.0-1.0-351.0","0","0","59996","","null","","","null","38","","","","","","","","","","","","","","","NaN",""
"","S1","","html-keyboard-response","255","319461","0.0-1.0-353.0","0","0","59996","","null","","","null","39","","","","","","","","","","","","","","","",""
"","ISI","","html-keyboard-response","256","320463","0.0-1.0-354.0","0","0","59996","","null","","","null","39","NaN","","","","","","","","","","","","","","",""
"","S2","","html-keyboard-response","257","320716","0.0-1.0-355.0","0","0","59996","","null","","","null","39","","NaN","","","","","","","","","","","","","",""
"","response","","html-keyboard-response","258","320880","0.0-1.0-356.0-0.0","0","0","59996","","163","","","75","39","","","1","39","training","adjacent","EF","5","6","Q.jpg","M.jpg","0","1","0","",""
"","feedback","","html-keyboard-response","259","321883","0.0-1.0-357.0-0.0","0","0","59996","","null","","","null","39","","","","","","","","","","","","","","","",""
"","time_out","","html-keyboard-response","260","323885","0.0-1.0-359.0-0.0","0","0","59996","","null","","","null","39","","","","","","","","","","","","","","","",""
"","ITI","","html-keyboard-response","261","324888","0.0-1.0-360.0","0","0","59996","","null","","","null","39","","","","","","","","","","","","","","","NaN",""
"","S1","","html-keyboard-response","262","325141","0.0-1.0-362.0","0","0","59996","","null","","","null","40","","","","","","","","","","","","","","","",""
"","ISI","","html-keyboard-response","263","326144","0.0-1.0-363.0","0","0","59996","","null","","","null","40","NaN","","","","","","","","","","","","","","",""
"","S2","","html-keyboard-response","264","326398","0.0-1.0-364.0","0","0","59996","","null","","","null","40","","NaN","","","","","","","","","","","","","",""
"","response","","html-keyboard-response","265","326402","0.0-1.0-365.0-0.0","0","0","59996","","2","","","68","40","","","1","40","training","adjacent","CD","3","4","P.jpg","N.jpg","1","1","1","",""
"","feedback","","html-keyboard-response","266","327406","0.0-1.0-366.0-0.0","0","0","59996","","null","","","null","40","","","","","","","","","","","","","","","",""
"","ITI","","html-keyboard-response","267","328409","0.0-1.0-369.0","0","0","59996","","null","","","null","40","","","","","","","","","","","","","","","NaN",""
"","S1","","html-keyboard-response","268","328662","0.0-1.0-371.0","0","0","59996","","null","","","null","41","","","","","","","","","","","","","","","",""
"","ISI","","html-keyboard-response","269","329664","0.0-1.0-372.0","0","0","59996","","null","","","null","41","NaN","","","","","","","","","","","","","","",""
"","S2","","html-keyboard-response","270","329930","0.0-1.0-373.0","0","0","59996","","null","","","null","41","","NaN","","","","","","","","","","","","","",""
"","response","","html-keyboard-response","271","330022","0.0-1.0-374.0-0.0","0","0","59996","","90","","","68","41","","","1","41","training","adjacent","EF","5","6","Q.jpg","M.jpg","1","1","1","",""
"","feedback","","html-keyboard-response","272","331025","0.0-1.0-375.0-0.0","0","0","59996","","null","","","null","41","","","","","","","","","","","","","","","",""
"","ITI","","html-keyboard-response","273","332028","0.0-1.0-378.0","0","0","59996","","null","","","null","41","","","","","","","","","","","","","","","NaN",""
"","S1","","html-keyboard-response","274","332281","0.0-1.0-380.0","0","0","59996","","null","","","null","42","","","","","","","","","","","","","","","",""
"","ISI","","html-keyboard-response","275","333284","0.0-1.0-381.0","0","0","59996","","null","","","null","42","NaN","","","","","","","","","","","","","","",""
"","S2","","html-keyboard-response","276","333536","0.0-1.0-382.0","0","0","59996","","null","","","null","42","","NaN","","","","","","","","","","","","","",""
"","response","","html-keyboard-response","277","333568","0.0-1.0-383.0-0.0","0","0","59996","","29","","","68","42","","","1","42","training","adjacent","DE","4","5","N.jpg","Q.jpg","1","1","1","",""
"","feedback","","html-keyboard-response","278","334572","0.0-1.0-384.0-0.0","0","0","59996","","null","","","null","42","","","","","","","","","","","","","","","",""
"","ITI","","html-keyboard-response","279","335576","0.0-1.0-387.0","0","0","59996","","null","","","null","42","","","","","","","","","","","","","","","NaN",""
"","S1","","html-keyboard-response","280","335829","0.0-1.0-389.0","0","0","59996","","null","","","null","43","","","","","","","","","","","","","","","",""
"","ISI","","html-keyboard-response","281","336831","0.0-1.0-390.0","0","0","59996","","null","","","null","43","NaN","","","","","","","","","","","","","","",""
"","S2","","html-keyboard-response","282","337084","0.0-1.0-391.0","0","0","59996","","null","","","null","43","","NaN","","","","","","","","","","","","","",""
"","response","","html-keyboard-response","283","337479","0.0-1.0-392.0-0.0","0","0","59996","","394","","","68","43","","","1","43","training","adjacent","FE","6","5","M.jpg","Q.jpg","1","0","0","",""
"","feedback","","html-keyboard-response","284","338482","0.0-1.0-393.0-0.0","0","0","59996","","null","","","null","43","","","","","","","","","","","","","","","",""
"","time_out","","html-keyboard-response","285","340486","0.0-1.0-395.0-0.0","0","0","59996","","null","","","null","43","","","","","","","","","","","","","","","",""
"","ITI","","html-keyboard-response","286","341489","0.0-1.0-396.0","0","0","59996","","null","","","null","43","","","","","","","","","","","","","","","NaN",""
"","S1","","html-keyboard-response","287","341742","0.0-1.0-398.0","0","0","59996","","null","","","null","44","","","","","","","","","","","","","","","",""
"","ISI","","html-keyboard-response","288","342744","0.0-1.0-399.0","0","0","59996","","null","","","null","44","NaN","","","","","","","","","","","","","","",""
"","S2","","html-keyboard-response","289","342998","0.0-1.0-400.0","0","0","59996","","null","","","null","44","","NaN","","","","","","","","","","","","","",""
"","response","","html-keyboard-response","290","343151","0.0-1.0-401.0-0.0","0","0","59996","","150","","","68","44","","","1","44","training","adjacent","CB","3","2","P.jpg","O.jpg","1","0","0","",""
"","feedback","","html-keyboard-response","291","344155","0.0-1.0-402.0-0.0","0","0","59996","","null","","","null","44","","","","","","","","","","","","","","","",""
"","time_out","","html-keyboard-response","292","346158","0.0-1.0-404.0-0.0","0","0","59996","","null","","","null","44","","","","","","","","","","","","","","","",""
"","ITI","","html-keyboard-response","293","347161","0.0-1.0-405.0","0","0","59996","","null","","","null","44","","","","","","","","","","","","","","","NaN",""
"","S1","","html-keyboard-response","294","347413","0.0-1.0-407.0","0","0","59996","","null","","","null","45","","","","","","","","","","","","","","","",""
"","ISI","","html-keyboard-response","295","348429","0.0-1.0-408.0","0","0","59996","","null","","","null","45","NaN","","","","","","","","","","","","","","",""
"","S2","","html-keyboard-response","296","348682","0.0-1.0-409.0","0","0","59996","","null","","","null","45","","NaN","","","","","","","","","","","","","",""
"","response","","html-keyboard-response","297","348792","0.0-1.0-410.0-0.0","0","0","59996","","109","","","75","45","","","1","45","training","adjacent","BA","2","1","O.jpg","L.jpg","0","0","1","",""
"","feedback","","html-keyboard-response","298","349797","0.0-1.0-411.0-0.0","0","0","59996","","null","","","null","45","","","","","","","","","","","","","","","",""
"","ITI","","html-keyboard-response","299","350800","0.0-1.0-414.0","0","0","59996","","null","","","null","45","","","","","","","","","","","","","","","NaN",""
"","S1","","html-keyboard-response","300","351055","0.0-1.0-416.0","0","0","59996","","null","","","null","46","","","","","","","","","","","","","","","",""
"","ISI","","html-keyboard-response","301","352057","0.0-1.0-417.0","0","0","59996","","null","","","null","46","NaN","","","","","","","","","","","","","","",""
"","S2","","html-keyboard-response","302","352310","0.0-1.0-418.0","0","0","59996","","null","","","null","46","","NaN","","","","","","","","","","","","","",""
"","response","","html-keyboard-response","303","352377","0.0-1.0-419.0-0.0","0","0","59996","","64","","","75","46","","","1","46","training","adjacent","BC","2","3","O.jpg","P.jpg","0","1","0","",""
"","feedback","","html-keyboard-response","304","353379","0.0-1.0-420.0-0.0","0","0","59996","","null","","","null","46","","","","","","","","","","","","","","","",""
"","time_out","","html-keyboard-response","305","355382","0.0-1.0-422.0-0.0","0","0","59996","","null","","","null","46","","","","","","","","","","","","","","","",""
"","ITI","","html-keyboard-response","306","356386","0.0-1.0-423.0","0","0","59996","","null","","","null","46","","","","","","","","","","","","","","","NaN",""
"","S1","","html-keyboard-response","307","356638","0.0-1.0-425.0","0","0","59996","","null","","","null","47","","","","","","","","","","","","","","","",""
"","ISI","","html-keyboard-response","308","357640","0.0-1.0-426.0","0","0","59996","","null","","","null","47","NaN","","","","","","","","","","","","","","",""
"","S2","","html-keyboard-response","309","357892","0.0-1.0-427.0","0","0","59996","","null","","","null","47","","NaN","","","","","","","","","","","","","",""
"","response","","html-keyboard-response","310","357939","0.0-1.0-428.0-0.0","0","0","59996","","44","","","75","47","","","1","47","training","adjacent","BA","2","1","O.jpg","L.jpg","0","0","1","",""
"","feedback","","html-keyboard-response","311","358942","0.0-1.0-429.0-0.0","0","0","59996","","null","","","null","47","","","","","","","","","","","","","","","",""
"","ITI","","html-keyboard-response","312","359946","0.0-1.0-432.0","0","0","59996","","null","","","null","47","","","","","","","","","","","","","","","NaN",""
"","block_over","","html-keyboard-response","313","371867","0.0-1.0-433.0-0.0","0","0","59996","","11919","","","32","47","","","","","","","","","","","","","","","",""
"","S1","","html-keyboard-response","314","372126","0.0-1.0-434.0","0","0","59996","","null","","","null","48","","","","","","","","","","","","","","","",""
"","ISI","","html-keyboard-response","315","373129","0.0-1.0-435.0","0","0","59996","","null","","","null","48","NaN","","","","","","","","","","","","","","",""
"","S2","","html-keyboard-response","316","373382","0.0-1.0-436.0","0","0","59996","","null","","","null","48","","NaN","","","","","","","","","","","","","",""
"","response","","html-keyboard-response","317","373725","0.0-1.0-437.0-0.0","0","0","59996","","341","","","75","48","","","2","48","training","adjacent","CD","3","4","P.jpg","N.jpg","0","1","0","",""
"","feedback","","html-keyboard-response","318","374728","0.0-1.0-438.0-0.0","0","0","59996","","null","","","null","48","","","","","","","","","","","","","","","",""
"","time_out","","html-keyboard-response","319","376731","0.0-1.0-440.0-0.0","0","0","59996","","null","","","null","48","","","","","","","","","","","","","","","",""
"","ITI","","html-keyboard-response","320","377733","0.0-1.0-441.0","0","0","59996","","null","","","null","48","","","","","","","","","","","","","","","NaN",""
"","S1","","html-keyboard-response","321","377986","0.0-1.0-443.0","0","0","59996","","null","","","null","49","","","","","","","","","","","","","","","",""
"","ISI","","html-keyboard-response","322","378989","0.0-1.0-444.0","0","0","59996","","null","","","null","49","NaN","","","","","","","","","","","","","","",""
"","S2","","html-keyboard-response","323","379241","0.0-1.0-445.0","0","0","59996","","null","","","null","49","","NaN","","","","","","","","","","","","","",""
"","response","","html-keyboard-response","324","379539","0.0-1.0-446.0-0.0","0","0","59996","","296","","","68","49","","","2","49","training","adjacent","DE","4","5","N.jpg","Q.jpg","1","1","1","",""
"","feedback","","html-keyboard-response","325","380542","0.0-1.0-447.0-0.0","0","0","59996","","null","","","null","49","","","","","","","","","","","","","","","",""
"","ITI","","html-keyboard-response","326","381545","0.0-1.0-450.0","0","0","59996","","null","","","null","49","","","","","","","","","","","","","","","NaN",""
"","S1","","html-keyboard-response","327","381799","0.0-1.0-452.0","0","0","59996","","null","","","null","50","","","","","","","","","","","","","","","",""
"","ISI","","html-keyboard-response","328","382801","0.0-1.0-453.0","0","0","59996","","null","","","null","50","NaN","","","","","","","","","","","","","","",""
"","S2","","html-keyboard-response","329","383054","0.0-1.0-454.0","0","0","59996","","null","","","null","50","","NaN","","","","","","","","","","","","","",""
"","response","","html-keyboard-response","330","383189","0.0-1.0-455.0-0.0","0","0","59996","","134","","","75","50","","","2","50","training","adjacent","BC","2","3","O.jpg","P.jpg","0","1","0","",""
"","feedback","","html-keyboard-response","331","384193","0.0-1.0-456.0-0.0","0","0","59996","","null","","","null","50","","","","","","","","","","","","","","","",""
"","time_out","","html-keyboard-response","332","386197","0.0-1.0-458.0-0.0","0","0","59996","","null","","","null","50","","","","","","","","","","","","","","","",""
"","ITI","","html-keyboard-response","333","387200","0.0-1.0-459.0","0","0","59996","","null","","","null","50","","","","","","","","","","","","","","","NaN",""
"","S1","","html-keyboard-response","334","387454","0.0-1.0-461.0","0","0","59996","","null","","","null","51","","","","","","","","","","","","","","","",""
"","ISI","","html-keyboard-response","335","388456","0.0-1.0-462.0","0","0","59996","","null","","","null","51","NaN","","","","","","","","","","","","","","",""
"","S2","","html-keyboard-response","336","388709","0.0-1.0-463.0","0","0","59996","","null","","","null","51","","NaN","","","","","","","","","","","","","",""
"","response","","html-keyboard-response","337","388825","0.0-1.0-464.0-0.0","0","0","59996","","113","","","68","51","","","2","51","training","adjacent","DC","4","3","N.jpg","P.jpg","1","0","0","",""
"","feedback","","html-keyboard-response","338","389829","0.0-1.0-465.0-0.0","0","0","59996","","null","","","null","51","","","","","","","","","","","","","","","",""
"","time_out","","html-keyboard-response","339","391833","0.0-1.0-467.0-0.0","0","0","59996","","null","","","null","51","","","","","","","","","","","","","","","",""
"","ITI","","html-keyboard-response","340","392836","0.0-1.0-468.0","0","0","59996","","null","","","null","51","","","","","","","","","","","","","","","NaN",""
"","S1","","html-keyboard-response","341","393089","0.0-1.0-470.0","0","0","59996","","null","","","null","52","","","","","","","","","","","","","","","",""
"","ISI","","html-keyboard-response","342","394091","0.0-1.0-471.0","0","0","59996","","null","","","null","52","NaN","","","","","","","","","","","","","","",""
"","S2","","html-keyboard-response","343","394344","0.0-1.0-472.0","0","0","59996","","null","","","null","52","","NaN","","","","","","","","","","","","","",""
"","response","","html-keyboard-response","344","394640","0.0-1.0-473.0-0.0","0","0","59996","","294","","","75","52","","","2","52","training","adjacent","FE","6","5","M.jpg","Q.jpg","0","0","1","",""
"","feedback","","html-keyboard-response","345","395642","0.0-1.0-474.0-0.0","0","0","59996","","null","","","null","52","","","","","","","","","","","","","","","",""
"","ITI","","html-keyboard-response","346","396645","0.0-1.0-477.0","0","0","59996","","null","","","null","52","","","","","","","","","","","","","","","NaN",""
"","S1","","html-keyboard-response","347","396898","0.0-1.0-479.0","0","0","59996","","null","","","null","53","","","","","","","","","","","","","","","",""
"","ISI","","html-keyboard-response","348","397901","0.0-1.0-480.0","0","0","59996","","null","","","null","53","NaN","","","","","","","","","","","","","","",""
"","S2","","html-keyboard-response","349","398153","0.0-1.0-481.0","0","0","59996","","null","","","null","53","","NaN","","","","","","","","","","","","","",""
"","response","","html-keyboard-response","350","398315","0.0-1.0-482.0-0.0","0","0","59996","","159","","","75","53","","","2","53","training","adjacent","BA","2","1","O.jpg","L.jpg","0","0","1","",""
"","feedback","","html-keyboard-response","351","399318","0.0-1.0-483.0-0.0","0","0","59996","","null","","","null","53","","","","","","","","","","","","","","","",""
"","ITI","","html-keyboard-response","352","400321","0.0-1.0-486.0","0","0","59996","","null","","","null","53","","","","","","","","","","","","","","","NaN",""
"","S1","","html-keyboard-response","353","400574","0.0-1.0-488.0","0","0","59996","","null","","","null","54","","","","","","","","","","","","","","","",""
"","ISI","","html-keyboard-response","354","401577","0.0-1.0-489.0","0","0","59996","","null","","","null","54","NaN","","","","","","","","","","","","","","",""
"","S2","","html-keyboard-response","355","401829","0.0-1.0-490.0","0","0","59996","","null","","","null","54","","NaN","","","","","","","","","","","","","",""
"","response","","html-keyboard-response","356","402109","0.0-1.0-491.0-0.0","0","0","59996","","278","","","75","54","","","2","54","training","adjacent","EF","5","6","Q.jpg","M.jpg","0","1","0","",""
"","feedback","","html-keyboard-response","357","403112","0.0-1.0-492.0-0.0","0","0","59996","","null","","","null","54","","","","","","","","","","","","","","","",""
"","time_out","","html-keyboard-response","358","405114","0.0-1.0-494.0-0.0","0","0","59996","","null","","","null","54","","","","","","","","","","","","","","","",""
"","ITI","","html-keyboard-response","359","406116","0.0-1.0-495.0","0","0","59996","","null","","","null","54","","","","","","","","","","","","","","","NaN",""
"","S1","","html-keyboard-response","360","406369","0.0-1.0-497.0","0","0","59996","","null","","","null","55","","","","","","","","","","","","","","","",""
"","ISI","","html-keyboard-response","361","407372","0.0-1.0-498.0","0","0","59996","","null","","","null","55","NaN","","","","","","","","","","","","","","",""
"","S2","","html-keyboard-response","362","407625","0.0-1.0-499.0","0","0","59996","","null","","","null","55","","NaN","","","","","","","","","","","","","",""
"","response","","html-keyboard-response","363","407805","0.0-1.0-500.0-0.0","0","0","59996","","177","","","75","55","","","2","55","training","adjacent","GF","7","6","R.jpg","M.jpg","0","0","1","",""
"","feedback","","html-keyboard-response","364","408808","0.0-1.0-501.0-0.0","0","0","59996","","null","","","null","55","","","","","","","","","","","","","","","",""
"","ITI","","html-keyboard-response","365","409811","0.0-1.0-504.0","0","0","59996","","null","","","null","55","","","","","","","","","","","","","","","NaN",""
"","S1","","html-keyboard-response","366","410063","0.0-1.0-506.0","0","0","59996","","null","","","null","56","","","","","","","","","","","","","","","",""
"","ISI","","html-keyboard-response","367","411065","0.0-1.0-507.0","0","0","59996","","null","","","null","56","NaN","","","","","","","","","","","","","","",""
"","S2","","html-keyboard-response","368","411318","0.0-1.0-508.0","0","0","59996","","null","","","null","56","","NaN","","","","","","","","","","","","","",""
"","response","","html-keyboard-response","369","411617","0.0-1.0-509.0-0.0","0","0","59996","","298","","","68","56","","","2","56","training","adjacent","CD","3","4","P.jpg","N.jpg","1","1","1","",""
"","feedback","","html-keyboard-response","370","412620","0.0-1.0-510.0-0.0","0","0","59996","","null","","","null","56","","","","","","","","","","","","","","","",""
"","ITI","","html-keyboard-response","371","413625","0.0-1.0-513.0","0","0","59996","","null","","","null","56","","","","","","","","","","","","","","","NaN",""
"","S1","","html-keyboard-response","372","413878","0.0-1.0-515.0","0","0","59996","","null","","","null","57","","","","","","","","","","","","","","","",""
"","ISI","","html-keyboard-response","373","414881","0.0-1.0-516.0","0","0","59996","","null","","","null","57","NaN","","","","","","","","","","","","","","",""
"","S2","","html-keyboard-response","374","415134","0.0-1.0-517.0","0","0","59996","","null","","","null","57","","NaN","","","","","","","","","","","","","",""
"","response","","html-keyboard-response","375","415436","0.0-1.0-518.0-0.0","0","0","59996","","299","","","68","57","","","2","57","training","adjacent","AB","1","2","L.jpg","O.jpg","1","1","1","",""
"","feedback","","html-keyboard-response","376","416439","0.0-1.0-519.0-0.0","0","0","59996","","null","","","null","57","","","","","","","","","","","","","","","",""
"","ITI","","html-keyboard-response","377","417442","0.0-1.0-522.0","0","0","59996","","null","","","null","57","","","","","","","","","","","","","","","NaN",""
"","S1","","html-keyboard-response","378","417696","0.0-1.0-524.0","0","0","59996","","null","","","null","58","","","","","","","","","","","","","","","",""
"","ISI","","html-keyboard-response","379","418698","0.0-1.0-525.0","0","0","59996","","null","","","null","58","NaN","","","","","","","","","","","","","","",""
"","S2","","html-keyboard-response","380","418951","0.0-1.0-526.0","0","0","59996","","null","","","null","58","","NaN","","","","","","","","","","","","","",""
"","response","","html-keyboard-response","381","419159","0.0-1.0-527.0-0.0","0","0","59996","","206","","","68","58","","","2","58","training","adjacent","AB","1","2","L.jpg","O.jpg","1","1","1","",""
"","feedback","","html-keyboard-response","382","420162","0.0-1.0-528.0-0.0","0","0","59996","","null","","","null","58","","","","","","","","","","","","","","","",""
"","ITI","","html-keyboard-response","383","421165","0.0-1.0-531.0","0","0","59996","","null","","","null","58","","","","","","","","","","","","","","","NaN",""
"","S1","","html-keyboard-response","384","421418","0.0-1.0-533.0","0","0","59996","","null","","","null","59","","","","","","","","","","","","","","","",""
"","ISI","","html-keyboard-response","385","422421","0.0-1.0-534.0","0","0","59996","","null","","","null","59","NaN","","","","","","","","","","","","","","",""
"","S2","","html-keyboard-response","386","422674","0.0-1.0-535.0","0","0","59996","","null","","","null","59","","NaN","","","","","","","","","","","","","",""
"","response","","html-keyboard-response","387","423226","0.0-1.0-536.0-0.0","0","0","59996","","550","","","75","59","","","2","59","training","adjacent","CD","3","4","P.jpg","N.jpg","0","1","0","",""
"","feedback","","html-keyboard-response","388","424228","0.0-1.0-537.0-0.0","0","0","59996","","null","","","null","59","","","","","","","","","","","","","","","",""
"","time_out","","html-keyboard-response","389","426232","0.0-1.0-539.0-0.0","0","0","59996","","null","","","null","59","","","","","","","","","","","","","","","",""
"","ITI","","html-keyboard-response","390","427233","0.0-1.0-540.0","0","0","59996","","null","","","null","59","","","","","","","","","","","","","","","NaN",""
"","S1","","html-keyboard-response","391","427497","0.0-1.0-542.0","0","0","59996","","null","","","null","60","","","","","","","","","","","","","","","",""
"","ISI","","html-keyboard-response","392","428500","0.0-1.0-543.0","0","0","59996","","null","","","null","60","NaN","","","","","","","","","","","","","","",""
"","S2","","html-keyboard-response","393","428753","0.0-1.0-544.0","0","0","59996","","null","","","null","60","","NaN","","","","","","","","","","","","","",""
"","response","","html-keyboard-response","394","428883","0.0-1.0-545.0-0.0","0","0","59996","","128","","","68","60","","","2","60","training","adjacent","CB","3","2","P.jpg","O.jpg","1","0","0","",""
"","feedback","","html-keyboard-response","395","429887","0.0-1.0-546.0-0.0","0","0","59996","","null","","","null","60","","","","","","","","","","","","","","","",""
"","time_out","","html-keyboard-response","396","431889","0.0-1.0-548.0-0.0","0","0","59996","","null","","","null","60","","","","","","","","","","","","","","","",""
"","ITI","","html-keyboard-response","397","432891","0.0-1.0-549.0","0","0","59996","","null","","","null","60","","","","","","","","","","","","","","","NaN",""
"","S1","","html-keyboard-response","398","433145","0.0-1.0-551.0","0","0","59996","","null","","","null","61","","","","","","","","","","","","","","","",""
"","ISI","","html-keyboard-response","399","434148","0.0-1.0-552.0","0","0","59996","","null","","","null","61","NaN","","","","","","","","","","","","","","",""
"","S2","","html-keyboard-response","400","434400","0.0-1.0-553.0","0","0","59996","","null","","","null","61","","NaN","","","","","","","","","","","","","",""
"","response","","html-keyboard-response","401","434499","0.0-1.0-554.0-0.0","0","0","59996","","97","","","75","61","","","2","61","training","adjacent","BC","2","3","O.jpg","P.jpg","0","1","0","",""
"","feedback","","html-keyboard-response","402","435502","0.0-1.0-555.0-0.0","0","0","59996","","null","","","null","61","","","","","","","","","","","","","","","",""
"","time_out","","html-keyboard-response","403","437505","0.0-1.0-557.0-0.0","0","0","59996","","null","","","null","61","","","","","","","","","","","","","","","",""
"","ITI","","html-keyboard-response","404","438507","0.0-1.0-558.0","0","0","59996","","null","","","null","61","","","","","","","","","","","","","","","NaN",""
"","S1","","html-keyboard-response","405","438760","0.0-1.0-560.0","0","0","59996","","null","","","null","62","","","","","","","","","","","","","","","",""
"","ISI","","html-keyboard-response","406","439764","0.0-1.0-561.0","0","0","59996","","null","","","null","62","NaN","","","","","","","","","","","","","","",""
"","S2","","html-keyboard-response","407","440016","0.0-1.0-562.0","0","0","59996","","null","","","null","62","","NaN","","","","","","","","","","","","","",""
"","response","","html-keyboard-response","408","440166","0.0-1.0-563.0-0.0","0","0","59996","","147","","","68","62","","","2","62","training","adjacent","CD","3","4","P.jpg","N.jpg","1","1","1","",""
"","feedback","","html-keyboard-response","409","441169","0.0-1.0-564.0-0.0","0","0","59996","","null","","","null","62","","","","","","","","","","","","","","","",""
"","ITI","","html-keyboard-response","410","442172","0.0-1.0-567.0","0","0","59996","","null","","","null","62","","","","","","","","","","","","","","","NaN",""
"","S1","","html-keyboard-response","411","442425","0.0-1.0-569.0","0","0","59996","","null","","","null","63","","","","","","","","","","","","","","","",""
"","ISI","","html-keyboard-response","412","443427","0.0-1.0-570.0","0","0","59996","","null","","","null","63","NaN","","","","","","","","","","","","","","",""
"","S2","","html-keyboard-response","413","443680","0.0-1.0-571.0","0","0","59996","","null","","","null","63","","NaN","","","","","","","","","","","","","",""
"","response","","html-keyboard-response","414","443806","0.0-1.0-572.0-0.0","0","0","59996","","124","","","68","63","","","2","63","training","adjacent","FG","6","7","M.jpg","R.jpg","1","1","1","",""
"","feedback","","html-keyboard-response","415","444808","0.0-1.0-573.0-0.0","0","0","59996","","null","","","null","63","","","","","","","","","","","","","","","",""
"","ITI","","html-keyboard-response","416","445812","0.0-1.0-576.0","0","0","59996","","null","","","null","63","","","","","","","","","","","","","","","NaN",""
"","S1","","html-keyboard-response","417","446080","0.0-1.0-578.0","0","0","59996","","null","","","null","64","","","","","","","","","","","","","","","",""
"","ISI","","html-keyboard-response","418","447083","0.0-1.0-579.0","0","0","59996","","null","","","null","64","NaN","","","","","","","","","","","","","","",""
"","S2","","html-keyboard-response","419","447336","0.0-1.0-580.0","0","0","59996","","null","","","null","64","","NaN","","","","","","","","","","","","","",""
"","response","","html-keyboard-response","420","447385","0.0-1.0-581.0-0.0","0","0","59996","","47","","","68","64","","","2","64","training","adjacent","FE","6","5","M.jpg","Q.jpg","1","0","0","",""
"","feedback","","html-keyboard-response","421","448389","0.0-1.0-582.0-0.0","0","0","59996","","null","","","null","64","","","","","","","","","","","","","","","",""
"","time_out","","html-keyboard-response","422","450392","0.0-1.0-584.0-0.0","0","0","59996","","null","","","null","64","","","","","","","","","","","","","","","",""
"","ITI","","html-keyboard-response","423","451394","0.0-1.0-585.0","0","0","59996","","null","","","null","64","","","","","","","","","","","","","","","NaN",""
"","S1","","html-keyboard-response","424","451647","0.0-1.0-587.0","0","0","59996","","null","","","null","65","","","","","","","","","","","","","","","",""
"","ISI","","html-keyboard-response","425","452650","0.0-1.0-588.0","0","0","59996","","null","","","null","65","NaN","","","","","","","","","","","","","","",""
"","S2","","html-keyboard-response","426","452903","0.0-1.0-589.0","0","0","59996","","null","","","null","65","","NaN","","","","","","","","","","","","","",""
"","response","","html-keyboard-response","427","453026","0.0-1.0-590.0-0.0","0","0","59996","","121","","","75","65","","","2","65","training","adjacent","ED","5","4","Q.jpg","N.jpg","0","0","1","",""
"","feedback","","html-keyboard-response","428","454029","0.0-1.0-591.0-0.0","0","0","59996","","null","","","null","65","","","","","","","","","","","","","","","",""
"","ITI","","html-keyboard-response","429","455032","0.0-1.0-594.0","0","0","59996","","null","","","null","65","","","","","","","","","","","","","","","NaN",""
"","S1","","html-keyboard-response","430","455286","0.0-1.0-596.0","0","0","59996","","null","","","null","66","","","","","","","","","","","","","","","",""
"","ISI","","html-keyboard-response","431","456288","0.0-1.0-597.0","0","0","59996","","null","","","null","66","NaN","","","","","","","","","","","","","","",""
"","S2","","html-keyboard-response","432","456541","0.0-1.0-598.0","0","0","59996","","null","","","null","66","","NaN","","","","","","","","","","","","","",""
"","response","","html-keyboard-response","433","456741","0.0-1.0-599.0-0.0","0","0","59996","","198","","","75","66","","","2","66","training","adjacent","DE","4","5","N.jpg","Q.jpg","0","1","0","",""
"","feedback","","html-keyboard-response","434","457744","0.0-1.0-600.0-0.0","0","0","59996","","null","","","null","66","","","","","","","","","","","","","","","",""
"","time_out","","html-keyboard-response","435","459747","0.0-1.0-602.0-0.0","0","0","59996","","null","","","null","66","","","","","","","","","","","","","","","",""
"","ITI","","html-keyboard-response","436","460750","0.0-1.0-603.0","0","0","59996","","null","","","null","66","","","","","","","","","","","","","","","NaN",""
"","S1","","html-keyboard-response","437","461002","0.0-1.0-605.0","0","0","59996","","null","","","null","67","","","","","","","","","","","","","","","",""
"","ISI","","html-keyboard-response","438","462004","0.0-1.0-606.0","0","0","59996","","null","","","null","67","NaN","","","","","","","","","","","","","","",""
"","S2","","html-keyboard-response","439","462257","0.0-1.0-607.0","0","0","59996","","null","","","null","67","","NaN","","","","","","","","","","","","","",""
"","response","","html-keyboard-response","440","462312","0.0-1.0-608.0-0.0","0","0","59996","","52","","","68","67","","","2","67","training","adjacent","FG","6","7","M.jpg","R.jpg","1","1","1","",""
"","feedback","","html-keyboard-response","441","463316","0.0-1.0-609.0-0.0","0","0","59996","","null","","","null","67","","","","","","","","","","","","","","","",""
"","ITI","","html-keyboard-response","442","464319","0.0-1.0-612.0","0","0","59996","","null","","","null","67","","","","","","","","","","","","","","","NaN",""
"","S1","","html-keyboard-response","443","464572","0.0-1.0-614.0","0","0","59996","","null","","","null","68","","","","","","","","","","","","","","","",""
"","ISI","","html-keyboard-response","444","465574","0.0-1.0-615.0","0","0","59996","","null","","","null","68","NaN","","","","","","","","","","","","","","",""
"","S2","","html-keyboard-response","445","465827","0.0-1.0-616.0","0","0","59996","","null","","","null","68","","NaN","","","","","","","","","","","","","",""
"","response","","html-keyboard-response","446","465916","0.0-1.0-617.0-0.0","0","0","59996","","87","","","75","68","","","2","68","training","adjacent","GF","7","6","R.jpg","M.jpg","0","0","1","",""
"","feedback","","html-keyboard-response","447","466919","0.0-1.0-618.0-0.0","0","0","59996","","null","","","null","68","","","","","","","","","","","","","","","",""
"","ITI","","html-keyboard-response","448","467922","0.0-1.0-621.0","0","0","59996","","null","","","null","68","","","","","","","","","","","","","","","NaN",""
"","S1","","html-keyboard-response","449","468176","0.0-1.0-623.0","0","0","59996","","null","","","null","69","","","","","","","","","","","","","","","",""
"","ISI","","html-keyboard-response","450","469179","0.0-1.0-624.0","0","0","59996","","null","","","null","69","NaN","","","","","","","","","","","","","","",""
"","S2","","html-keyboard-response","451","469427","0.0-1.0-625.0","0","0","59996","","246","","","68","69","","d","2","69","training","adjacent","AB","1","2","L.jpg","O.jpg","1","1","1","",""
"","feedback","","html-keyboard-response","452","470432","0.0-1.0-627.0-0.0","0","0","59996","","null","","","null","69","","","","","","","","","","","","","","","",""
"","ITI","","html-keyboard-response","453","471435","0.0-1.0-630.0","0","0","59996","","null","","","null","69","","","","","","","","","","","","","","","NaN",""
"","S1","","html-keyboard-response","454","471688","0.0-1.0-632.0","0","0","59996","","null","","","null","70","","","","","","","","","","","","","","","",""
"","ISI","","html-keyboard-response","455","472691","0.0-1.0-633.0","0","0","59996","","null","","","null","70","NaN","","","","","","","","","","","","","","",""
"","S2","","html-keyboard-response","456","472944","0.0-1.0-634.0","0","0","59996","","null","","","null","70","","NaN","","","","","","","","","","","","","",""
"","response","","html-keyboard-response","457","473231","0.0-1.0-635.0-0.0","0","0","59996","","285","","","75","70","","","2","70","training","adjacent","GF","7","6","R.jpg","M.jpg","0","0","1","",""
"","feedback","","html-keyboard-response","458","474234","0.0-1.0-636.0-0.0","0","0","59996","","null","","","null","70","","","","","","","","","","","","","","","",""
"","ITI","","html-keyboard-response","459","475238","0.0-1.0-639.0","0","0","59996","","null","","","null","70","","","","","","","","","","","","","","","NaN",""
"","S1","","html-keyboard-response","460","475490","0.0-1.0-641.0","0","0","59996","","null","","","null","71","","","","","","","","","","","","","","","",""
"","ISI","","html-keyboard-response","461","476493","0.0-1.0-642.0","0","0","59996","","null","","","null","71","NaN","","","","","","","","","","","","","","",""
"","S2","","html-keyboard-response","462","476758","0.0-1.0-643.0","0","0","59996","","null","","","null","71","","NaN","","","","","","","","","","","","","",""
"","response","","html-keyboard-response","463","477089","0.0-1.0-644.0-0.0","0","0","59996","","329","","","75","71","","","2","71","training","adjacent","DC","4","3","N.jpg","P.jpg","0","0","1","",""
"","feedback","","html-keyboard-response","464","478092","0.0-1.0-645.0-0.0","0","0","59996","","null","","","null","71","","","","","","","","","","","","","","","",""
"","ITI","","html-keyboard-response","465","479095","0.0-1.0-648.0","0","0","59996","","null","","","null","71","","","","","","","","","","","","","","","NaN",""
"","S1","","html-keyboard-response","466","479348","0.0-1.0-650.0","0","0","59996","","null","","","null","72","","","","","","","","","","","","","","","",""
"","ISI","","html-keyboard-response","467","480351","0.0-1.0-651.0","0","0","59996","","null","","","null","72","NaN","","","","","","","","","","","","","","",""
"","S2","","html-keyboard-response","468","480604","0.0-1.0-652.0","0","0","59996","","null","","","null","72","","NaN","","","","","","","","","","","","","",""
"","response","","html-keyboard-response","469","480684","0.0-1.0-653.0-0.0","0","0","59996","","78","","","68","72","","","2","72","training","adjacent","FG","6","7","M.jpg","R.jpg","1","1","1","",""
"","feedback","","html-keyboard-response","470","481688","0.0-1.0-654.0-0.0","0","0","59996","","null","","","null","72","","","","","","","","","","","","","","","",""
"","ITI","","html-keyboard-response","471","482691","0.0-1.0-657.0","0","0","59996","","null","","","null","72","","","","","","","","","","","","","","","NaN",""
"","S1","","html-keyboard-response","472","482944","0.0-1.0-659.0","0","0","59996","","null","","","null","73","","","","","","","","","","","","","","","",""
"","ISI","","html-keyboard-response","473","483947","0.0-1.0-660.0","0","0","59996","","null","","","null","73","NaN","","","","","","","","","","","","","","",""
"","S2","","html-keyboard-response","474","484200","0.0-1.0-661.0","0","0","59996","","null","","","null","73","","NaN","","","","","","","","","","","","","",""
"","response","","html-keyboard-response","475","484294","0.0-1.0-662.0-0.0","0","0","59996","","93","","","68","73","","","2","73","training","adjacent","ED","5","4","Q.jpg","N.jpg","1","0","0","",""
"","feedback","","html-keyboard-response","476","485298","0.0-1.0-663.0-0.0","0","0","59996","","null","","","null","73","","","","","","","","","","","","","","","",""
"","time_out","","html-keyboard-response","477","487301","0.0-1.0-665.0-0.0","0","0","59996","","null","","","null","73","","","","","","","","","","","","","","","",""
"","ITI","","html-keyboard-response","478","488304","0.0-1.0-666.0","0","0","59996","","null","","","null","73","","","","","","","","","","","","","","","NaN",""
"","S1","","html-keyboard-response","479","488567","0.0-1.0-668.0","0","0","59996","","null","","","null","74","","","","","","","","","","","","","","","",""
"","ISI","","html-keyboard-response","480","489570","0.0-1.0-669.0","0","0","59996","","null","","","null","74","NaN","","","","","","","","","","","","","","",""
"","S2","","html-keyboard-response","481","489823","0.0-1.0-670.0","0","0","59996","","null","","","null","74","","NaN","","","","","","","","","","","","","",""
"","response","","html-keyboard-response","482","489965","0.0-1.0-671.0-0.0","0","0","59996","","140","","","75","74","","","2","74","training","adjacent","DC","4","3","N.jpg","P.jpg","0","0","1","",""
"","feedback","","html-keyboard-response","483","490968","0.0-1.0-672.0-0.0","0","0","59996","","null","","","null","74","","","","","","","","","","","","","","","",""
"","ITI","","html-keyboard-response","484","491971","0.0-1.0-675.0","0","0","59996","","null","","","null","74","","","","","","","","","","","","","","","NaN",""
"","S1","","html-keyboard-response","485","492225","0.0-1.0-677.0","0","0","59996","","null","","","null","75","","","","","","","","","","","","","","","",""
"","ISI","","html-keyboard-response","486","493227","0.0-1.0-678.0","0","0","59996","","null","","","null","75","NaN","","","","","","","","","","","","","","",""
"","S2","","html-keyboard-response","487","493480","0.0-1.0-679.0","0","0","59996","","null","","","null","75","","NaN","","","","","","","","","","","","","",""
"","response","","html-keyboard-response","488","493664","0.0-1.0-680.0-0.0","0","0","59996","","182","","","68","75","","","2","75","training","adjacent","CB","3","2","P.jpg","O.jpg","1","0","0","",""
"","feedback","","html-keyboard-response","489","494668","0.0-1.0-681.0-0.0","0","0","59996","","null","","","null","75","","","","","","","","","","","","","","","",""
"","time_out","","html-keyboard-response","490","496672","0.0-1.0-683.0-0.0","0","0","59996","","null","","","null","75","","","","","","","","","","","","","","","",""
"","ITI","","html-keyboard-response","491","497675","0.0-1.0-684.0","0","0","59996","","null","","","null","75","","","","","","","","","","","","","","","NaN",""
"","S1","","html-keyboard-response","492","497928","0.0-1.0-686.0","0","0","59996","","null","","","null","76","","","","","","","","","","","","","","","",""
"","ISI","","html-keyboard-response","493","498930","0.0-1.0-687.0","0","0","59996","","null","","","null","76","NaN","","","","","","","","","","","","","","",""
"","S2","","html-keyboard-response","494","499182","0.0-1.0-688.0","0","0","59996","","null","","","null","76","","NaN","","","","","","","","","","","","","",""
"","response","","html-keyboard-response","495","499270","0.0-1.0-689.0-0.0","0","0","59996","","86","","","68","76","","","2","76","training","adjacent","CB","3","2","P.jpg","O.jpg","1","0","0","",""
"","feedback","","html-keyboard-response","496","500274","0.0-1.0-690.0-0.0","0","0","59996","","null","","","null","76","","","","","","","","","","","","","","","",""
"","time_out","","html-keyboard-response","497","502276","0.0-1.0-692.0-0.0","0","0","59996","","null","","","null","76","","","","","","","","","","","","","","","",""
"","ITI","","html-keyboard-response","498","503280","0.0-1.0-693.0","0","0","59996","","null","","","null","76","","","","","","","","","","","","","","","NaN",""
"","S1","","html-keyboard-response","499","503533","0.0-1.0-695.0","0","0","59996","","null","","","null","77","","","","","","","","","","","","","","","",""
"","ISI","","html-keyboard-response","500","504538","0.0-1.0-696.0","0","0","59996","","null","","","null","77","NaN","","","","","","","","","","","","","","",""
"","S2","","html-keyboard-response","501","504791","0.0-1.0-697.0","0","0","59996","","null","","","null","77","","NaN","","","","","","","","","","","","","",""
"","response","","html-keyboard-response","502","504848","0.0-1.0-698.0-0.0","0","0","59996","","54","","","75","77","","","2","77","training","adjacent","ED","5","4","Q.jpg","N.jpg","0","0","1","",""
"","feedback","","html-keyboard-response","503","505851","0.0-1.0-699.0-0.0","0","0","59996","","null","","","null","77","","","","","","","","","","","","","","","",""
"","ITI","","html-keyboard-response","504","506854","0.0-1.0-702.0","0","0","59996","","null","","","null","77","","","","","","","","","","","","","","","NaN",""
"","S1","","html-keyboard-response","505","507108","0.0-1.0-704.0","0","0","59996","","null","","","null","78","","","","","","","","","","","","","","","",""
"","ISI","","html-keyboard-response","506","508110","0.0-1.0-705.0","0","0","59996","","null","","","null","78","NaN","","","","","","","","","","","","","","",""
"","S2","","html-keyboard-response","507","508363","0.0-1.0-706.0","0","0","59996","","null","","","null","78","","NaN","","","","","","","","","","","","","",""
"","response","","html-keyboard-response","508","508547","0.0-1.0-707.0-0.0","0","0","59996","","181","","","75","78","","","2","78","training","adjacent","EF","5","6","Q.jpg","M.jpg","0","1","0","",""
"","feedback","","html-keyboard-response","509","509550","0.0-1.0-708.0-0.0","0","0","59996","","null","","","null","78","","","","","","","","","","","","","","","",""
"","time_out","","html-keyboard-response","510","511553","0.0-1.0-710.0-0.0","0","0","59996","","null","","","null","78","","","","","","","","","","","","","","","",""
"","ITI","","html-keyboard-response","511","512556","0.0-1.0-711.0","0","0","59996","","null","","","null","78","","","","","","","","","","","","","","","NaN",""
"","S1","","html-keyboard-response","512","512809","0.0-1.0-713.0","0","0","59996","","null","","","null","79","","","","","","","","","","","","","","","",""
"","ISI","","html-keyboard-response","513","513812","0.0-1.0-714.0","0","0","59996","","null","","","null","79","NaN","","","","","","","","","","","","","","",""
"","S2","","html-keyboard-response","514","514065","0.0-1.0-715.0","0","0","59996","","null","","","null","79","","NaN","","","","","","","","","","","","","",""
"","response","","html-keyboard-response","515","514208","0.0-1.0-716.0-0.0","0","0","59996","","140","","","68","79","","","2","79","training","adjacent","CB","3","2","P.jpg","O.jpg","1","0","0","",""
"","feedback","","html-keyboard-response","516","515211","0.0-1.0-717.0-0.0","0","0","59996","","null","","","null","79","","","","","","","","","","","","","","","",""
"","time_out","","html-keyboard-response","517","517215","0.0-1.0-719.0-0.0","0","0","59996","","null","","","null","79","","","","","","","","","","","","","","","",""
"","ITI","","html-keyboard-response","518","518218","0.0-1.0-720.0","0","0","59996","","null","","","null","79","","","","","","","","","","","","","","","NaN",""
"","S1","","html-keyboard-response","519","518471","0.0-1.0-722.0","0","0","59996","","null","","","null","80","","","","","","","","","","","","","","","",""
"","ISI","","html-keyboard-response","520","519473","0.0-1.0-723.0","0","0","59996","","null","","","null","80","NaN","","","","","","","","","","","","","","",""
"","S2","","html-keyboard-response","521","519726","0.0-1.0-724.0","0","0","59996","","null","","","null","80","","NaN","","","","","","","","","","","","","",""
"","response","","html-keyboard-response","522","519800","0.0-1.0-725.0-0.0","0","0","59996","","71","","","75","80","","","2","80","training","adjacent","BA","2","1","O.jpg","L.jpg","0","0","1","",""
"","feedback","","html-keyboard-response","523","520803","0.0-1.0-726.0-0.0","0","0","59996","","null","","","null","80","","","","","","","","","","","","","","","",""
"","ITI","","html-keyboard-response","524","521806","0.0-1.0-729.0","0","0","59996","","null","","","null","80","","","","","","","","","","","","","","","NaN",""
"","S1","","html-keyboard-response","525","522059","0.0-1.0-731.0","0","0","59996","","null","","","null","81","","","","","","","","","","","","","","","",""
"","ISI","","html-keyboard-response","526","523061","0.0-1.0-732.0","0","0","59996","","null","","","null","81","NaN","","","","","","","","","","","","","","",""
"","S2","","html-keyboard-response","527","523314","0.0-1.0-733.0","0","0","59996","","null","","","null","81","","NaN","","","","","","","","","","","","","",""
"","response","","html-keyboard-response","528","523823","0.0-1.0-734.0-0.0","0","0","59996","","506","","","68","81","","","2","81","training","adjacent","BC","2","3","O.jpg","P.jpg","1","1","1","",""
"","feedback","","html-keyboard-response","529","524826","0.0-1.0-735.0-0.0","0","0","59996","","null","","","null","81","","","","","","","","","","","","","","","",""
"","ITI","","html-keyboard-response","530","525829","0.0-1.0-738.0","0","0","59996","","null","","","null","81","","","","","","","","","","","","","","","NaN",""
"","S1","","html-keyboard-response","531","526083","0.0-1.0-740.0","0","0","59996","","null","","","null","82","","","","","","","","","","","","","","","",""
"","ISI","","html-keyboard-response","532","527086","0.0-1.0-741.0","0","0","59996","","null","","","null","82","NaN","","","","","","","","","","","","","","",""
"","S2","","html-keyboard-response","533","527339","0.0-1.0-742.0","0","0","59996","","null","","","null","82","","NaN","","","","","","","","","","","","","",""
"","response","","html-keyboard-response","534","527766","0.0-1.0-743.0-0.0","0","0","59996","","424","","","68","82","","","2","82","training","adjacent","DC","4","3","N.jpg","P.jpg","1","0","0","",""
"","feedback","","html-keyboard-response","535","528770","0.0-1.0-744.0-0.0","0","0","59996","","null","","","null","82","","","","","","","","","","","","","","","",""
"","time_out","","html-keyboard-response","536","530772","0.0-1.0-746.0-0.0","0","0","59996","","null","","","null","82","","","","","","","","","","","","","","","",""
"","ITI","","html-keyboard-response","537","531776","0.0-1.0-747.0","0","0","59996","","null","","","null","82","","","","","","","","","","","","","","","NaN",""
"","S1","","html-keyboard-response","538","532029","0.0-1.0-749.0","0","0","59996","","null","","","null","83","","","","","","","","","","","","","","","",""
"","ISI","","html-keyboard-response","539","533032","0.0-1.0-750.0","0","0","59996","","null","","","null","83","NaN","","","","","","","","","","","","","","",""
"","S2","","html-keyboard-response","540","533285","0.0-1.0-751.0","0","0","59996","","null","","","null","83","","NaN","","","","","","","","","","","","","",""
"","response","","html-keyboard-response","541","533491","0.0-1.0-752.0-0.0","0","0","59996","","204","","","75","83","","","2","83","training","adjacent","DE","4","5","N.jpg","Q.jpg","0","1","0","",""
"","feedback","","html-keyboard-response","542","534494","0.0-1.0-753.0-0.0","0","0","59996","","null","","","null","83","","","","","","","","","","","","","","","",""
"","time_out","","html-keyboard-response","543","536497","0.0-1.0-755.0-0.0","0","0","59996","","null","","","null","83","","","","","","","","","","","","","","","",""
"","ITI","","html-keyboard-response","544","537500","0.0-1.0-756.0","0","0","59996","","null","","","null","83","","","","","","","","","","","","","","","NaN",""
"","S1","","html-keyboard-response","545","537753","0.0-1.0-758.0","0","0","59996","","null","","","null","84","","","","","","","","","","","","","","","",""
"","ISI","","html-keyboard-response","546","538756","0.0-1.0-759.0","0","0","59996","","null","","","null","84","NaN","","","","","","","","","","","","","","",""
"","S2","","html-keyboard-response","547","539010","0.0-1.0-760.0","0","0","59996","","null","","","null","84","","NaN","","","","","","","","","","","","","",""
"","response","","html-keyboard-response","548","539043","0.0-1.0-761.0-0.0","0","0","59996","","30","","","75","84","","","2","84","training","adjacent","AB","1","2","L.jpg","O.jpg","0","1","0","",""
"","feedback","","html-keyboard-response","549","540046","0.0-1.0-762.0-0.0","0","0","59996","","null","","","null","84","","","","","","","","","","","","","","","",""
"","time_out","","html-keyboard-response","550","542049","0.0-1.0-764.0-0.0","0","0","59996","","null","","","null","84","","","","","","","","","","","","","","","",""
"","ITI","","html-keyboard-response","551","543052","0.0-1.0-765.0","0","0","59996","","null","","","null","84","","","","","","","","","","","","","","","NaN",""
"","S1","","html-keyboard-response","552","543305","0.0-1.0-767.0","0","0","59996","","null","","","null","85","","","","","","","","","","","","","","","",""
"","ISI","","html-keyboard-response","553","544308","0.0-1.0-768.0","0","0","59996","","null","","","null","85","NaN","","","","","","","","","","","","","","",""
"","S2","","html-keyboard-response","554","544561","0.0-1.0-769.0","0","0","59996","","null","","","null","85","","NaN","","","","","","","","","","","","","",""
"","response","","html-keyboard-response","555","544675","0.0-1.0-770.0-0.0","0","0","59996","","111","","","68","85","","","2","85","training","adjacent","BC","2","3","O.jpg","P.jpg","1","1","1","",""
"","feedback","","html-keyboard-response","556","545678","0.0-1.0-771.0-0.0","0","0","59996","","null","","","null","85","","","","","","","","","","","","","","","",""
"","ITI","","html-keyboard-response","557","546682","0.0-1.0-774.0","0","0","59996","","null","","","null","85","","","","","","","","","","","","","","","NaN",""
"","S1","","html-keyboard-response","558","546934","0.0-1.0-776.0","0","0","59996","","null","","","null","86","","","","","","","","","","","","","","","",""
"","ISI","","html-keyboard-response","559","547937","0.0-1.0-777.0","0","0","59996","","null","","","null","86","NaN","","","","","","","","","","","","","","",""
"","S2","","html-keyboard-response","560","548190","0.0-1.0-778.0","0","0","59996","","null","","","null","86","","NaN","","","","","","","","","","","","","",""
"","response","","html-keyboard-response","561","548239","0.0-1.0-779.0-0.0","0","0","59996","","47","","","68","86","","","2","86","training","adjacent","BA","2","1","O.jpg","L.jpg","1","0","0","",""
"","feedback","","html-keyboard-response","562","549241","0.0-1.0-780.0-0.0","0","0","59996","","null","","","null","86","","","","","","","","","","","","","","","",""
"","time_out","","html-keyboard-response","563","551244","0.0-1.0-782.0-0.0","0","0","59996","","null","","","null","86","","","","","","","","","","","","","","","",""
"","ITI","","html-keyboard-response","564","552246","0.0-1.0-783.0","0","0","59996","","null","","","null","86","","","","","","","","","","","","","","","NaN",""
"","S1","","html-keyboard-response","565","552499","0.0-1.0-785.0","0","0","59996","","null","","","null","87","","","","","","","","","","","","","","","",""
"","ISI","","html-keyboard-response","566","553502","0.0-1.0-786.0","0","0","59996","","null","","","null","87","NaN","","","","","","","","","","","","","","",""
"","S2","","html-keyboard-response","567","553754","0.0-1.0-787.0","0","0","59996","","null","","","null","87","","NaN","","","","","","","","","","","","","",""
"","response","","html-keyboard-response","568","554036","0.0-1.0-788.0-0.0","0","0","59996","","279","","","68","87","","","2","87","training","adjacent","DE","4","5","N.jpg","Q.jpg","1","1","1","",""
"","feedback","","html-keyboard-response","569","555039","0.0-1.0-789.0-0.0","0","0","59996","","null","","","null","87","","","","","","","","","","","","","","","",""
"","ITI","","html-keyboard-response","570","556043","0.0-1.0-792.0","0","0","59996","","null","","","null","87","","","","","","","","","","","","","","","NaN",""
"","S1","","html-keyboard-response","571","556297","0.0-1.0-794.0","0","0","59996","","null","","","null","88","","","","","","","","","","","","","","","",""
"","ISI","","html-keyboard-response","572","557299","0.0-1.0-795.0","0","0","59996","","null","","","null","88","NaN","","","","","","","","","","","","","","",""
"","S2","","html-keyboard-response","573","557553","0.0-1.0-796.0","0","0","59996","","null","","","null","88","","NaN","","","","","","","","","","","","","",""
"","response","","html-keyboard-response","574","557799","0.0-1.0-797.0-0.0","0","0","59996","","244","","","75","88","","","2","88","training","adjacent","ED","5","4","Q.jpg","N.jpg","0","0","1","",""
"","feedback","","html-keyboard-response","575","558802","0.0-1.0-798.0-0.0","0","0","59996","","null","","","null","88","","","","","","","","","","","","","","","",""
"","ITI","","html-keyboard-response","576","559805","0.0-1.0-801.0","0","0","59996","","null","","","null","88","","","","","","","","","","","","","","","NaN",""
"","S1","","html-keyboard-response","577","560059","0.0-1.0-803.0","0","0","59996","","null","","","null","89","","","","","","","","","","","","","","","",""
"","ISI","","html-keyboard-response","578","561062","0.0-1.0-804.0","0","0","59996","","null","","","null","89","NaN","","","","","","","","","","","","","","",""
"","S2","","html-keyboard-response","579","561314","0.0-1.0-805.0","0","0","59996","","null","","","null","89","","NaN","","","","","","","","","","","","","",""
"","response","","html-keyboard-response","580","561543","0.0-1.0-806.0-0.0","0","0","59996","","227","","","68","89","","","2","89","training","adjacent","FE","6","5","M.jpg","Q.jpg","1","0","0","",""
"","feedback","","html-keyboard-response","581","562546","0.0-1.0-807.0-0.0","0","0","59996","","null","","","null","89","","","","","","","","","","","","","","","",""
"","time_out","","html-keyboard-response","582","564549","0.0-1.0-809.0-0.0","0","0","59996","","null","","","null","89","","","","","","","","","","","","","","","",""
