"success","ttype","start_time","trial_type","trial_index","time_elapsed","internal_node_id","warning","missed_checkup","PID","view_history","rt","responses","repeat_instructions","key_press","index","keypress_isi","keypress_S2","block","trial_num","phase","group_type","pair_type","S1_stim","S2_stim","S1_img","S2_img","S1_chosen","S1_higher","accuracy","keypress_iti","total_bonus_tally"
"true","full_screen","d04072023hr0009","fullscreen","0","3199","0.0-0.0","0","0","40164","","","","","","","","","","","","","","","","","","","","","",""
"","instructions","","instructions","1","45263","0.0-1.0-0.0-0.0","0","0","40164","[{""page_index"":0,""viewing_time"":5746},{""page_index"":1,""viewing_time"":24006},{""page_index"":2,""viewing_time"":9394},{""page_index"":3,""viewing_time"":2913}]","42060","","","","","","","","","","","","","","","","","","","",""
"","comprehension_check","","survey-multi-choice","2","72335","0.0-1.0-0.0-1.0","0","0","40164","","27061","{""Q0"":""True"",""Q1"":""D"",""Q2"":""Once the second image appears and while the screen 'MAKE A CHOICE' is shown"",""Q3"":""Green mark"",""Q4"":""either D or K""}","0","","","","","","","","","","","","","","","","","",""
"","start_exp","","html-keyboard-response","3","75907","0.0-1.0-1.0","0","0","40164","","3565","","","32","","","","","","","","","","","","","","","","",""
"","S1","","html-keyboard-response","4","76062","0.0-1.0-2.0","0","0","40164","","null","","","null","0","","","","","","","","","","","","","","","",""
"","ISI","","html-keyboard-response","5","78070","0.0-1.0-3.0","0","0","40164","","null","","","null","0","NaN","","","","","","","","","","","","","","",""
"","S2","","html-keyboard-response","6","78231","0.0-1.0-4.0","0","0","40164","","null","","","null","0","","NaN","","","","","","","","","","","","","",""
"","response","","html-keyboard-response","7","78695","0.0-1.0-5.0-0.0","0","0","40164","","460","","","68","0","","","1","0","training","adjacent","EF","5","6","P.jpg","Q.jpg","1","1","1","",""
"","feedback","","html-keyboard-response","8","79703","0.0-1.0-6.0-0.0","0","0","40164","","null","","","null","0","","","","","","","","","","","","","","","",""
"","ITI","","html-keyboard-response","9","80709","0.0-1.0-9.0","0","0","40164","","null","","","null","0","","","","","","","","","","","","","","","NaN",""
"","S1","","html-keyboard-response","10","80870","0.0-1.0-11.0","0","0","40164","","null","","","null","1","","","","","","","","","","","","","","","",""
"","ISI","","html-keyboard-response","11","82878","0.0-1.0-12.0","0","0","40164","","null","","","null","1","NaN","","","","","","","","","","","","","","",""
"","S2","","html-keyboard-response","12","83038","0.0-1.0-13.0","0","0","40164","","null","","","null","1","","NaN","","","","","","","","","","","","","",""
"","response","","html-keyboard-response","13","83217","0.0-1.0-14.0-0.0","0","0","40164","","176","","","75","1","","","1","1","training","adjacent","ED","5","4","P.jpg","N.jpg","0","0","1","",""
"","feedback","","html-keyboard-response","14","84230","0.0-1.0-15.0-0.0","0","0","40164","","null","","","null","1","","","","","","","","","","","","","","","",""
"","ITI","","html-keyboard-response","15","85238","0.0-1.0-18.0","0","0","40164","","null","","","null","1","","","","","","","","","","","","","","","NaN",""
"","S1","","html-keyboard-response","16","85398","0.0-1.0-20.0","0","0","40164","","null","","","null","2","","","","","","","","","","","","","","","",""
"","ISI","","html-keyboard-response","17","87406","0.0-1.0-21.0","0","0","40164","","134","","","68","2","d","","","","","","","","","","","","","","",""
"","S2","","html-keyboard-response","18","87566","0.0-1.0-22.0","0","0","40164","","null","","","null","2","","NaN","","","","","","","","","","","","","",""
"","response","","html-keyboard-response","19","87699","0.0-1.0-23.0-0.0","0","0","40164","","128","","","68","2","","","1","2","training","adjacent","ED","5","4","P.jpg","N.jpg","1","0","0","",""
"","feedback","","html-keyboard-response","20","88710","0.0-1.0-24.0-0.0","0","0","40164","","null","","","null","2","","","","","","","","","","","","","","","",""
"","time_out","","html-keyboard-response","21","90719","0.0-1.0-26.0-0.0","0","0","40164","","null","","","null","2","","","","","","","","","","","","","","","",""
"","ITI","","html-keyboard-response","22","91726","0.0-1.0-27.0","0","0","40164","","null","","","null","2","","","","","","","","","","","","","","","NaN",""
"","S1","","html-keyboard-response","23","91887","0.0-1.0-29.0","0","0","40164","","null","","","null","3","","","","","","","","","","","","","","","",""
"","ISI","","html-keyboard-response","24","93894","0.0-1.0-30.0","0","0","40164","","null","","","null","3","NaN","","","","","","","","","","","","","","",""
"","S2","","html-keyboard-response","25","94055","0.0-1.0-31.0","0","0","40164","","null","","","null","3","","NaN","","","","","","","","","","","","","",""
"","response","","html-keyboard-response","26","94181","0.0-1.0-32.0-0.0","0","0","40164","","122","","","75","3","","","1","3","training","adjacent","BA","2","1","O.jpg","M.jpg","0","0","1","",""
"","feedback","","html-keyboard-response","27","95190","0.0-1.0-33.0-0.0","0","0","40164","","null","","","null","3","","","","","","","","","","","","","","","",""
"","ITI","","html-keyboard-response","28","96198","0.0-1.0-36.0","0","0","40164","","null","","","null","3","","","","","","","","","","","","","","","NaN",""
"","S1","","html-keyboard-response","29","96358","0.0-1.0-38.0","0","0","40164","","null","","","null","4","","","","","","","","","","","","","","","",""
"","ISI","","html-keyboard-response","30","98366","0.0-1.0-39.0","0","0","40164","","null","","","null","4","NaN","","","","","","","","","","","","","","",""
"","S2","","html-keyboard-response","31","98526","0.0-1.0-40.0","0","0","40164","","null","","","null","4","","NaN","","","","","","","","","","","","","",""
"","response","","html-keyboard-response","32","98562","0.0-1.0-41.0-0.0","0","0","40164","","32","","","75","4","","","1","4","training","adjacent","GF","7","6","L.jpg","Q.jpg","0","0","1","",""
"","feedback","","html-keyboard-response","33","99574","0.0-1.0-42.0-0.0","0","0","40164","","null","","","null","4","","","","","","","","","","","","","","","",""
"","ITI","","html-keyboard-response","34","100582","0.0-1.0-45.0","0","0","40164","","null","","","null","4","","","","","","","","","","","","","","","NaN",""
"","S1","","html-keyboard-response","35","100742","0.0-1.0-47.0","0","0","40164","","null","","","null","5","","","","","","","","","","","","","","","",""
"","ISI","","html-keyboard-response","36","102750","0.0-1.0-48.0","0","0","40164","","null","","","null","5","NaN","","","","","","","","","","","","","","",""
"","S2","","html-keyboard-response","37","102911","0.0-1.0-49.0","0","0","40164","","null","","","null","5","","NaN","","","","","","","","","","","","","",""
"","response","","html-keyboard-response","38","103221","0.0-1.0-50.0-0.0","0","0","40164","","306","","","75","5","","","1","5","training","adjacent","GF","7","6","L.jpg","Q.jpg","0","0","1","",""
"","feedback","","html-keyboard-response","39","104230","0.0-1.0-51.0-0.0","0","0","40164","","null","","","null","5","","","","","","","","","","","","","","","",""
"","ITI","","html-keyboard-response","40","105238","0.0-1.0-54.0","0","0","40164","","null","","","null","5","","","","","","","","","","","","","","","NaN",""
"","S1","","html-keyboard-response","41","105398","0.0-1.0-56.0","0","0","40164","","null","","","null","6","","","","","","","","","","","","","","","",""
"","ISI","","html-keyboard-response","42","107406","0.0-1.0-57.0","0","0","40164","","null","","","null","6","NaN","","","","","","","","","","","","","","",""
"","S2","","html-keyboard-response","43","107565","0.0-1.0-58.0","0","0","40164","","null","","","null","6","","NaN","","","","","","","","","","","","","",""
"","response","","html-keyboard-response","44","107674","0.0-1.0-59.0-0.0","0","0","40164","","105","","","75","6","","","1","6","training","adjacent","ED","5","4","P.jpg","N.jpg","0","0","1","",""
"","feedback","","html-keyboard-response","45","108687","0.0-1.0-60.0-0.0","0","0","40164","","null","","","null","6","","","","","","","","","","","","","","","",""
"","ITI","","html-keyboard-response","46","109694","0.0-1.0-63.0","0","0","40164","","null","","","null","6","","","","","","","","","","","","","","","NaN",""
"","S1","","html-keyboard-response","47","109854","0.0-1.0-65.0","0","0","40164","","null","","","null","7","","","","","","","","","","","","","","","",""
"","ISI","","html-keyboard-response","48","111863","0.0-1.0-66.0","0","0","40164","","null","","","null","7","NaN","","","","","","","","","","","","","","",""
"","S2","","html-keyboard-response","49","112024","0.0-1.0-67.0","0","0","40164","","null","","","null","7","","NaN","","","","","","","","","","","","","",""
"","response","","html-keyboard-response","50","112219","0.0-1.0-68.0-0.0","0","0","40164","","191","","","75","7","","","1","7","training","adjacent","BC","2","3","O.jpg","R.jpg","0","1","0","",""
"","feedback","","html-keyboard-response","51","113230","0.0-1.0-69.0-0.0","0","0","40164","","null","","","null","7","","","","","","","","","","","","","","","",""
"","time_out","","html-keyboard-response","52","115239","0.0-1.0-71.0-0.0","0","0","40164","","null","","","null","7","","","","","","","","","","","","","","","",""
"","ITI","","html-keyboard-response","53","116246","0.0-1.0-72.0","0","0","40164","","null","","","null","7","","","","","","","","","","","","","","","NaN",""
"","S1","","html-keyboard-response","54","116406","0.0-1.0-74.0","0","0","40164","","null","","","null","8","","","","","","","","","","","","","","","",""
"","ISI","","html-keyboard-response","55","118414","0.0-1.0-75.0","0","0","40164","","null","","","null","8","NaN","","","","","","","","","","","","","","",""
"","S2","","html-keyboard-response","56","118574","0.0-1.0-76.0","0","0","40164","","null","","","null","8","","NaN","","","","","","","","","","","","","",""
"","response","","html-keyboard-response","57","118803","0.0-1.0-77.0-0.0","0","0","40164","","225","","","68","8","","","1","8","training","adjacent","EF","5","6","P.jpg","Q.jpg","1","1","1","",""
"","feedback","","html-keyboard-response","58","119814","0.0-1.0-78.0-0.0","0","0","40164","","null","","","null","8","","","","","","","","","","","","","","","",""
"","ITI","","html-keyboard-response","59","120822","0.0-1.0-81.0","0","0","40164","","null","","","null","8","","","","","","","","","","","","","","","NaN",""
"","S1","","html-keyboard-response","60","120982","0.0-1.0-83.0","0","0","40164","","null","","","null","9","","","","","","","","","","","","","","","",""
"","ISI","","html-keyboard-response","61","122990","0.0-1.0-84.0","0","0","40164","","null","","","null","9","NaN","","","","","","","","","","","","","","",""
"","S2","","html-keyboard-response","62","123149","0.0-1.0-85.0","0","0","40164","","null","","","null","9","","NaN","","","","","","","","","","","","","",""
"","response","","html-keyboard-response","63","123254","0.0-1.0-86.0-0.0","0","0","40164","","100","","","75","9","","","1","9","training","adjacent","CB","3","2","R.jpg","O.jpg","0","0","1","",""
"","feedback","","html-keyboard-response","64","124262","0.0-1.0-87.0-0.0","0","0","40164","","null","","","null","9","","","","","","","","","","","","","","","",""
"","ITI","","html-keyboard-response","65","125269","0.0-1.0-90.0","0","0","40164","","null","","","null","9","","","","","","","","","","","","","","","NaN",""
"","S1","","html-keyboard-response","66","125429","0.0-1.0-92.0","0","0","40164","","null","","","null","10","","","","","","","","","","","","","","","",""
"","ISI","","html-keyboard-response","67","127438","0.0-1.0-93.0","0","0","40164","","null","","","null","10","NaN","","","","","","","","","","","","","","",""
"","S2","","html-keyboard-response","68","127598","0.0-1.0-94.0","0","0","40164","","null","","","null","10","","NaN","","","","","","","","","","","","","",""
"","response","","html-keyboard-response","69","127694","0.0-1.0-95.0-0.0","0","0","40164","","93","","","75","10","","","1","10","training","adjacent","CD","3","4","R.jpg","N.jpg","0","1","0","",""
"","feedback","","html-keyboard-response","70","128702","0.0-1.0-96.0-0.0","0","0","40164","","null","","","null","10","","","","","","","","","","","","","","","",""
"","time_out","","html-keyboard-response","71","130710","0.0-1.0-98.0-0.0","0","0","40164","","null","","","null","10","","","","","","","","","","","","","","","",""
"","ITI","","html-keyboard-response","72","131718","0.0-1.0-99.0","0","0","40164","","null","","","null","10","","","","","","","","","","","","","","","NaN",""
"","S1","","html-keyboard-response","73","131878","0.0-1.0-101.0","0","0","40164","","null","","","null","11","","","","","","","","","","","","","","","",""
"","ISI","","html-keyboard-response","74","133886","0.0-1.0-102.0","0","0","40164","","null","","","null","11","NaN","","","","","","","","","","","","","","",""
"","S2","","html-keyboard-response","75","134046","0.0-1.0-103.0","0","0","40164","","null","","","null","11","","NaN","","","","","","","","","","","","","",""
"","response","","html-keyboard-response","76","134150","0.0-1.0-104.0-0.0","0","0","40164","","100","","","75","11","","","1","11","training","adjacent","DC","4","3","N.jpg","R.jpg","0","0","1","",""
"","feedback","","html-keyboard-response","77","135158","0.0-1.0-105.0-0.0","0","0","40164","","null","","","null","11","","","","","","","","","","","","","","","",""
"","ITI","","html-keyboard-response","78","136166","0.0-1.0-108.0","0","0","40164","","null","","","null","11","","","","","","","","","","","","","","","NaN",""
"","S1","","html-keyboard-response","79","136326","0.0-1.0-110.0","0","0","40164","","null","","","null","12","","","","","","","","","","","","","","","",""
"","ISI","","html-keyboard-response","80","138334","0.0-1.0-111.0","0","0","40164","","null","","","null","12","NaN","","","","","","","","","","","","","","",""
"","S2","","html-keyboard-response","81","138494","0.0-1.0-112.0","0","0","40164","","null","","","null","12","","NaN","","","","","","","","","","","","","",""
"","response","","html-keyboard-response","82","138573","0.0-1.0-113.0-0.0","0","0","40164","","75","","","75","12","","","1","12","training","adjacent","BC","2","3","O.jpg","R.jpg","0","1","0","",""
"","feedback","","html-keyboard-response","83","139582","0.0-1.0-114.0-0.0","0","0","40164","","null","","","null","12","","","","","","","","","","","","","","","",""
"","time_out","","html-keyboard-response","84","141590","0.0-1.0-116.0-0.0","0","0","40164","","null","","","null","12","","","","","","","","","","","","","","","",""
"","ITI","","html-keyboard-response","85","142598","0.0-1.0-117.0","0","0","40164","","null","","","null","12","","","","","","","","","","","","","","","NaN",""
"","S1","","html-keyboard-response","86","142757","0.0-1.0-119.0","0","0","40164","","null","","","null","13","","","","","","","","","","","","","","","",""
"","ISI","","html-keyboard-response","87","144766","0.0-1.0-120.0","0","0","40164","","null","","","null","13","NaN","","","","","","","","","","","","","","",""
"","S2","","html-keyboard-response","88","144926","0.0-1.0-121.0","0","0","40164","","null","","","null","13","","NaN","","","","","","","","","","","","","",""
"","response","","html-keyboard-response","89","145042","0.0-1.0-122.0-0.0","0","0","40164","","110","","","75","13","","","1","13","training","adjacent","AB","1","2","M.jpg","O.jpg","0","1","0","",""
"","feedback","","html-keyboard-response","90","146054","0.0-1.0-123.0-0.0","0","0","40164","","null","","","null","13","","","","","","","","","","","","","","","",""
"","time_out","","html-keyboard-response","91","148062","0.0-1.0-125.0-0.0","0","0","40164","","null","","","null","13","","","","","","","","","","","","","","","",""
"","ITI","","html-keyboard-response","92","149070","0.0-1.0-126.0","0","0","40164","","null","","","null","13","","","","","","","","","","","","","","","NaN",""
"","S1","","html-keyboard-response","93","149230","0.0-1.0-128.0","0","0","40164","","null","","","null","14","","","","","","","","","","","","","","","",""
"","ISI","","html-keyboard-response","94","151238","0.0-1.0-129.0","0","0","40164","","null","","","null","14","NaN","","","","","","","","","","","","","","",""
"","S2","","html-keyboard-response","95","151398","0.0-1.0-130.0","0","0","40164","","null","","","null","14","","NaN","","","","","","","","","","","","","",""
"","response","","html-keyboard-response","96","151527","0.0-1.0-131.0-0.0","0","0","40164","","124","","","75","14","","","1","14","training","adjacent","FG","6","7","Q.jpg","L.jpg","0","1","0","",""
"","feedback","","html-keyboard-response","97","152535","0.0-1.0-132.0-0.0","0","0","40164","","null","","","null","14","","","","","","","","","","","","","","","",""
"","time_out","","html-keyboard-response","98","154542","0.0-1.0-134.0-0.0","0","0","40164","","null","","","null","14","","","","","","","","","","","","","","","",""
"","ITI","","html-keyboard-response","99","155550","0.0-1.0-135.0","0","0","40164","","null","","","null","14","","","","","","","","","","","","","","","NaN",""
"","S1","","html-keyboard-response","100","155710","0.0-1.0-137.0","0","0","40164","","null","","","null","15","","","","","","","","","","","","","","","",""
"","ISI","","html-keyboard-response","101","157718","0.0-1.0-138.0","0","0","40164","","null","","","null","15","NaN","","","","","","","","","","","","","","",""
"","S2","","html-keyboard-response","102","157878","0.0-1.0-139.0","0","0","40164","","null","","","null","15","","NaN","","","","","","","","","","","","","",""
"","response","","html-keyboard-response","103","157966","0.0-1.0-140.0-0.0","0","0","40164","","85","","","75","15","","","1","15","training","adjacent","FE","6","5","Q.jpg","P.jpg","0","0","1","",""
"","feedback","","html-keyboard-response","104","158974","0.0-1.0-141.0-0.0","0","0","40164","","null","","","null","15","","","","","","","","","","","","","","","",""
"","ITI","","html-keyboard-response","105","159982","0.0-1.0-144.0","0","0","40164","","null","","","null","15","","","","","","","","","","","","","","","NaN",""
"","S1","","html-keyboard-response","106","160142","0.0-1.0-146.0","0","0","40164","","null","","","null","16","","","","","","","","","","","","","","","",""
"","ISI","","html-keyboard-response","107","162150","0.0-1.0-147.0","0","0","40164","","null","","","null","16","NaN","","","","","","","","","","","","","","",""
"","S2","","html-keyboard-response","108","162310","0.0-1.0-148.0","0","0","40164","","null","","","null","16","","NaN","","","","","","","","","","","","","",""
"","response","","html-keyboard-response","109","162529","0.0-1.0-149.0-0.0","0","0","40164","","215","","","68","16","","","1","16","training","adjacent","DC","4","3","N.jpg","R.jpg","1","0","0","",""
"","feedback","","html-keyboard-response","110","163534","0.0-1.0-150.0-0.0","0","0","40164","","null","","","null","16","","","","","","","","","","","","","","","",""
"","time_out","","html-keyboard-response","111","165542","0.0-1.0-152.0-0.0","0","0","40164","","null","","","null","16","","","","","","","","","","","","","","","",""
"","ITI","","html-keyboard-response","112","166551","0.0-1.0-153.0","0","0","40164","","null","","","null","16","","","","","","","","","","","","","","","NaN",""
"","S1","","html-keyboard-response","113","166710","0.0-1.0-155.0","0","0","40164","","null","","","null","17","","","","","","","","","","","","","","","",""
"","ISI","","html-keyboard-response","114","168718","0.0-1.0-156.0","0","0","40164","","null","","","null","17","NaN","","","","","","","","","","","","","","",""
"","S2","","html-keyboard-response","115","168878","0.0-1.0-157.0","0","0","40164","","null","","","null","17","","NaN","","","","","","","","","","","","","",""
"","response","","html-keyboard-response","116","169024","0.0-1.0-158.0-0.0","0","0","40164","","141","","","68","17","","","1","17","training","adjacent","FG","6","7","Q.jpg","L.jpg","1","1","1","",""
"","feedback","","html-keyboard-response","117","170030","0.0-1.0-159.0-0.0","0","0","40164","","null","","","null","17","","","","","","","","","","","","","","","",""
"","ITI","","html-keyboard-response","118","171038","0.0-1.0-162.0","0","0","40164","","null","","","null","17","","","","","","","","","","","","","","","NaN",""
"","S1","","html-keyboard-response","119","171198","0.0-1.0-164.0","0","0","40164","","null","","","null","18","","","","","","","","","","","","","","","",""
"","ISI","","html-keyboard-response","120","173207","0.0-1.0-165.0","0","0","40164","","null","","","null","18","NaN","","","","","","","","","","","","","","",""
"","S2","","html-keyboard-response","121","173366","0.0-1.0-166.0","0","0","40164","","null","","","null","18","","NaN","","","","","","","","","","","","","",""
"","response","","html-keyboard-response","122","173456","0.0-1.0-167.0-0.0","0","0","40164","","86","","","75","18","","","1","18","training","adjacent","GF","7","6","L.jpg","Q.jpg","0","0","1","",""
"","feedback","","html-keyboard-response","123","174462","0.0-1.0-168.0-0.0","0","0","40164","","null","","","null","18","","","","","","","","","","","","","","","",""
"","ITI","","html-keyboard-response","124","175470","0.0-1.0-171.0","0","0","40164","","null","","","null","18","","","","","","","","","","","","","","","NaN",""
"","S1","","html-keyboard-response","125","175630","0.0-1.0-173.0","0","0","40164","","null","","","null","19","","","","","","","","","","","","","","","",""
"","ISI","","html-keyboard-response","126","177638","0.0-1.0-174.0","0","0","40164","","null","","","null","19","NaN","","","","","","","","","","","","","","",""
"","S2","","html-keyboard-response","127","177799","0.0-1.0-175.0","0","0","40164","","null","","","null","19","","NaN","","","","","","","","","","","","","",""
"","response","","html-keyboard-response","128","177913","0.0-1.0-176.0-0.0","0","0","40164","","111","","","68","19","","","1","19","training","adjacent","AB","1","2","M.jpg","O.jpg","1","1","1","",""
"","feedback","","html-keyboard-response","129","178918","0.0-1.0-177.0-0.0","0","0","40164","","null","","","null","19","","","","","","","","","","","","","","","",""
"","ITI","","html-keyboard-response","130","179926","0.0-1.0-180.0","0","0","40164","","null","","","null","19","","","","","","","","","","","","","","","NaN",""
"","S1","","html-keyboard-response","131","180086","0.0-1.0-182.0","0","0","40164","","null","","","null","20","","","","","","","","","","","","","","","",""
"","ISI","","html-keyboard-response","132","182094","0.0-1.0-183.0","0","0","40164","","null","","","null","20","NaN","","","","","","","","","","","","","","",""
"","S2","","html-keyboard-response","133","182254","0.0-1.0-184.0","0","0","40164","","null","","","null","20","","NaN","","","","","","","","","","","","","",""
"","response","","html-keyboard-response","134","182369","0.0-1.0-185.0-0.0","0","0","40164","","111","","","68","20","","","1","20","training","adjacent","GF","7","6","L.jpg","Q.jpg","1","0","0","",""
"","feedback","","html-keyboard-response","135","183374","0.0-1.0-186.0-0.0","0","0","40164","","null","","","null","20","","","","","","","","","","","","","","","",""
"","time_out","","html-keyboard-response","136","185383","0.0-1.0-188.0-0.0","0","0","40164","","null","","","null","20","","","","","","","","","","","","","","","",""
"","ITI","","html-keyboard-response","137","186390","0.0-1.0-189.0","0","0","40164","","null","","","null","20","","","","","","","","","","","","","","","NaN",""
"","S1","","html-keyboard-response","138","186550","0.0-1.0-191.0","0","0","40164","","null","","","null","21","","","","","","","","","","","","","","","",""
"","ISI","","html-keyboard-response","139","188558","0.0-1.0-192.0","0","0","40164","","null","","","null","21","NaN","","","","","","","","","","","","","","",""
"","S2","","html-keyboard-response","140","188718","0.0-1.0-193.0","0","0","40164","","null","","","null","21","","NaN","","","","","","","","","","","","","",""
"","response","","html-keyboard-response","141","188777","0.0-1.0-194.0-0.0","0","0","40164","","55","","","75","21","","","1","21","training","adjacent","BA","2","1","O.jpg","M.jpg","0","0","1","",""
"","feedback","","html-keyboard-response","142","189790","0.0-1.0-195.0-0.0","0","0","40164","","null","","","null","21","","","","","","","","","","","","","","","",""
"","ITI","","html-keyboard-response","143","190798","0.0-1.0-198.0","0","0","40164","","null","","","null","21","","","","","","","","","","","","","","","NaN",""
"","S1","","html-keyboard-response","144","190959","0.0-1.0-200.0","0","0","40164","","null","","","null","22","","","","","","","","","","","","","","","",""
"","ISI","","html-keyboard-response","145","192966","0.0-1.0-201.0","0","0","40164","","null","","","null","22","NaN","","","","","","","","","","","","","","",""
"","S2","","html-keyboard-response","146","193126","0.0-1.0-202.0","0","0","40164","","null","","","null","22","","NaN","","","","","","","","","","","","","",""
"","response","","html-keyboard-response","147","193375","0.0-1.0-203.0-0.0","0","0","40164","","245","","","75","22","","","1","22","training","adjacent","BC","2","3","O.jpg","R.jpg","0","1","0","",""
"","feedback","","html-keyboard-response","148","194382","0.0-1.0-204.0-0.0","0","0","40164","","null","","","null","22","","","","","","","","","","","","","","","",""
"","time_out","","html-keyboard-response","149","196390","0.0-1.0-206.0-0.0","0","0","40164","","null","","","null","22","","","","","","","","","","","","","","","",""
"","ITI","","html-keyboard-response","150","197399","0.0-1.0-207.0","0","0","40164","","null","","","null","22","","","","","","","","","","","","","","","NaN",""
"","S1","","html-keyboard-response","151","197558","0.0-1.0-209.0","0","0","40164","","null","","","null","23","","","","","","","","","","","","","","","",""
"","ISI","","html-keyboard-response","152","199565","0.0-1.0-210.0","0","0","40164","","231","","","68","23","d","","","","","","","","","","","","","","",""
"","S2","","html-keyboard-response","153","199726","0.0-1.0-211.0","0","0","40164","","null","","","null","23","","NaN","","","","","","","","","","","","","",""
"","response","","html-keyboard-response","154","199796","0.0-1.0-212.0-0.0","0","0","40164","","67","","","68","23","","","1","23","training","adjacent","DE","4","5","N.jpg","P.jpg","1","1","1","",""
"","feedback","","html-keyboard-response","155","200806","0.0-1.0-213.0-0.0","0","0","40164","","null","","","null","23","","","","","","","","","","","","","","","",""
"","ITI","","html-keyboard-response","156","201814","0.0-1.0-216.0","0","0","40164","","null","","","null","23","","","","","","","","","","","","","","","NaN",""
"","S1","","html-keyboard-response","157","201974","0.0-1.0-218.0","0","0","40164","","null","","","null","24","","","","","","","","","","","","","","","",""
"","ISI","","html-keyboard-response","158","203982","0.0-1.0-219.0","0","0","40164","","null","","","null","24","NaN","","","","","","","","","","","","","","",""
"","S2","","html-keyboard-response","159","204143","0.0-1.0-220.0","0","0","40164","","null","","","null","24","","NaN","","","","","","","","","","","","","",""
"","response","","html-keyboard-response","160","204294","0.0-1.0-221.0-0.0","0","0","40164","","148","","","75","24","","","1","24","training","adjacent","CB","3","2","R.jpg","O.jpg","0","0","1","",""
"","feedback","","html-keyboard-response","161","205302","0.0-1.0-222.0-0.0","0","0","40164","","null","","","null","24","","","","","","","","","","","","","","","",""
"","ITI","","html-keyboard-response","162","206311","0.0-1.0-225.0","0","0","40164","","null","","","null","24","","","","","","","","","","","","","","","NaN",""
"","S1","","html-keyboard-response","163","206471","0.0-1.0-227.0","0","0","40164","","null","","","null","25","","","","","","","","","","","","","","","",""
"","ISI","","html-keyboard-response","164","208478","0.0-1.0-228.0","0","0","40164","","null","","","null","25","NaN","","","","","","","","","","","","","","",""
"","S2","","html-keyboard-response","165","208638","0.0-1.0-229.0","0","0","40164","","null","","","null","25","","NaN","","","","","","","","","","","","","",""
"","response","","html-keyboard-response","166","208821","0.0-1.0-230.0-0.0","0","0","40164","","179","","","75","25","","","1","25","training","adjacent","FE","6","5","Q.jpg","P.jpg","0","0","1","",""
"","feedback","","html-keyboard-response","167","209830","0.0-1.0-231.0-0.0","0","0","40164","","null","","","null","25","","","","","","","","","","","","","","","",""
"","ITI","","html-keyboard-response","168","210838","0.0-1.0-234.0","0","0","40164","","null","","","null","25","","","","","","","","","","","","","","","NaN",""
"","S1","","html-keyboard-response","169","210998","0.0-1.0-236.0","0","0","40164","","null","","","null","26","","","","","","","","","","","","","","","",""
"","ISI","","html-keyboard-response","170","213006","0.0-1.0-237.0","0","0","40164","","null","","","null","26","NaN","","","","","","","","","","","","","","",""
"","S2","","html-keyboard-response","171","213166","0.0-1.0-238.0","0","0","40164","","null","","","null","26","","NaN","","","","","","","","","","","","","",""
"","response","","html-keyboard-response","172","213295","0.0-1.0-239.0-0.0","0","0","40164","","125","","","68","26","","","1","26","training","adjacent","ED","5","4","P.jpg","N.jpg","1","0","0","",""
"","feedback","","html-keyboard-response","173","214302","0.0-1.0-240.0-0.0","0","0","40164","","null","","","null","26","","","","","","","","","","","","","","","",""
"","time_out","","html-keyboard-response","174","216310","0.0-1.0-242.0-0.0","0","0","40164","","null","","","null","26","","","","","","","","","","","","","","","",""
"","ITI","","html-keyboard-response","175","217318","0.0-1.0-243.0","0","0","40164","","null","","","null","26","","","","","","","","","","","","","","","NaN",""
"","S1","","html-keyboard-response","176","217479","0.0-1.0-245.0","0","0","40164","","null","","","null","27","","","","","","","","","","","","","","","",""
"","ISI","","html-keyboard-response","177","219486","0.0-1.0-246.0","0","0","40164","","null","","","null","27","NaN","","","","","","","","","","","","","","",""
"","S2","","html-keyboard-response","178","219647","0.0-1.0-247.0","0","0","40164","","null","","","null","27","","NaN","","","","","","","","","","","","","",""
"","response","","html-keyboard-response","179","219769","0.0-1.0-248.0-0.0","0","0","40164","","118","","","68","27","","","1","27","training","adjacent","CD","3","4","R.jpg","N.jpg","1","1","1","",""
"","feedback","","html-keyboard-response","180","220774","0.0-1.0-249.0-0.0","0","0","40164","","null","","","null","27","","","","","","","","","","","","","","","",""
"","ITI","","html-keyboard-response","181","221782","0.0-1.0-252.0","0","0","40164","","null","","","null","27","","","","","","","","","","","","","","","NaN",""
"","S1","","html-keyboard-response","182","221942","0.0-1.0-254.0","0","0","40164","","null","","","null","28","","","","","","","","","","","","","","","",""
"","ISI","","html-keyboard-response","183","223950","0.0-1.0-255.0","0","0","40164","","null","","","null","28","NaN","","","","","","","","","","","","","","",""
"","S2","","html-keyboard-response","184","224111","0.0-1.0-256.0","0","0","40164","","null","","","null","28","","NaN","","","","","","","","","","","","","",""
"","response","","html-keyboard-response","185","224178","0.0-1.0-257.0-0.0","0","0","40164","","64","","","75","28","","","1","28","training","adjacent","CD","3","4","R.jpg","N.jpg","0","1","0","",""
"","feedback","","html-keyboard-response","186","225190","0.0-1.0-258.0-0.0","0","0","40164","","null","","","null","28","","","","","","","","","","","","","","","",""
"","time_out","","html-keyboard-response","187","227198","0.0-1.0-260.0-0.0","0","0","40164","","null","","","null","28","","","","","","","","","","","","","","","",""
"","ITI","","html-keyboard-response","188","228206","0.0-1.0-261.0","0","0","40164","","null","","","null","28","","","","","","","","","","","","","","","NaN",""
"","S1","","html-keyboard-response","189","228366","0.0-1.0-263.0","0","0","40164","","null","","","null","29","","","","","","","","","","","","","","","",""
"","ISI","","html-keyboard-response","190","230374","0.0-1.0-264.0","0","0","40164","","null","","","null","29","NaN","","","","","","","","","","","","","","",""
"","S2","","html-keyboard-response","191","230534","0.0-1.0-265.0","0","0","40164","","null","","","null","29","","NaN","","","","","","","","","","","","","",""
"","response","","html-keyboard-response","192","230608","0.0-1.0-266.0-0.0","0","0","40164","","70","","","75","29","","","1","29","training","adjacent","EF","5","6","P.jpg","Q.jpg","0","1","0","",""
"","feedback","","html-keyboard-response","193","231614","0.0-1.0-267.0-0.0","0","0","40164","","null","","","null","29","","","","","","","","","","","","","","","",""
"","time_out","","html-keyboard-response","194","233622","0.0-1.0-269.0-0.0","0","0","40164","","null","","","null","29","","","","","","","","","","","","","","","",""
"","ITI","","html-keyboard-response","195","234630","0.0-1.0-270.0","0","0","40164","","null","","","null","29","","","","","","","","","","","","","","","NaN",""
"","S1","","html-keyboard-response","196","234790","0.0-1.0-272.0","0","0","40164","","null","","","null","30","","","","","","","","","","","","","","","",""
"","ISI","","html-keyboard-response","197","236798","0.0-1.0-273.0","0","0","40164","","null","","","null","30","NaN","","","","","","","","","","","","","","",""
"","S2","","html-keyboard-response","198","236958","0.0-1.0-274.0","0","0","40164","","null","","","null","30","","NaN","","","","","","","","","","","","","",""
"","response","","html-keyboard-response","199","237173","0.0-1.0-275.0-0.0","0","0","40164","","211","","","75","30","","","1","30","training","adjacent","BA","2","1","O.jpg","M.jpg","0","0","1","",""
"","feedback","","html-keyboard-response","200","238182","0.0-1.0-276.0-0.0","0","0","40164","","null","","","null","30","","","","","","","","","","","","","","","",""
"","ITI","","html-keyboard-response","201","239190","0.0-1.0-279.0","0","0","40164","","null","","","null","30","","","","","","","","","","","","","","","NaN",""
"","S1","","html-keyboard-response","202","239350","0.0-1.0-281.0","0","0","40164","","null","","","null","31","","","","","","","","","","","","","","","",""
"","ISI","","html-keyboard-response","203","241358","0.0-1.0-282.0","0","0","40164","","null","","","null","31","NaN","","","","","","","","","","","","","","",""
"","S2","","html-keyboard-response","204","241518","0.0-1.0-283.0","0","0","40164","","null","","","null","31","","NaN","","","","","","","","","","","","","",""
"","response","","html-keyboard-response","205","241642","0.0-1.0-284.0-0.0","0","0","40164","","121","","","75","31","","","1","31","training","adjacent","BC","2","3","O.jpg","R.jpg","0","1","0","",""
"","feedback","","html-keyboard-response","206","242654","0.0-1.0-285.0-0.0","0","0","40164","","null","","","null","31","","","","","","","","","","","","","","","",""
"","time_out","","html-keyboard-response","207","244662","0.0-1.0-287.0-0.0","0","0","40164","","null","","","null","31","","","","","","","","","","","","","","","",""
"","ITI","","html-keyboard-response","208","245670","0.0-1.0-288.0","0","0","40164","","null","","","null","31","","","","","","","","","","","","","","","NaN",""
"","S1","","html-keyboard-response","209","245830","0.0-1.0-290.0","0","0","40164","","null","","","null","32","","","","","","","","","","","","","","","",""
"","ISI","","html-keyboard-response","210","247838","0.0-1.0-291.0","0","0","40164","","null","","","null","32","NaN","","","","","","","","","","","","","","",""
"","S2","","html-keyboard-response","211","247998","0.0-1.0-292.0","0","0","40164","","null","","","null","32","","NaN","","","","","","","","","","","","","",""
"","response","","html-keyboard-response","212","248131","0.0-1.0-293.0-0.0","0","0","40164","","129","","","68","32","","","1","32","training","adjacent","CB","3","2","R.jpg","O.jpg","1","0","0","",""
"","feedback","","html-keyboard-response","213","249142","0.0-1.0-294.0-0.0","0","0","40164","","null","","","null","32","","","","","","","","","","","","","","","",""
"","time_out","","html-keyboard-response","214","251150","0.0-1.0-296.0-0.0","0","0","40164","","null","","","null","32","","","","","","","","","","","","","","","",""
"","ITI","","html-keyboard-response","215","252158","0.0-1.0-297.0","0","0","40164","","null","","","null","32","","","","","","","","","","","","","","","NaN",""
"","S1","","html-keyboard-response","216","252318","0.0-1.0-299.0","0","0","40164","","null","","","null","33","","","","","","","","","","","","","","","",""
"","ISI","","html-keyboard-response","217","254326","0.0-1.0-300.0","0","0","40164","","null","","","null","33","NaN","","","","","","","","","","","","","","",""
"","S2","","html-keyboard-response","218","254486","0.0-1.0-301.0","0","0","40164","","null","","","null","33","","NaN","","","","","","","","","","","","","",""
"","response","","html-keyboard-response","219","254638","0.0-1.0-302.0-0.0","0","0","40164","","147","","","75","33","","","1","33","training","adjacent","DC","4","3","N.jpg","R.jpg","0","0","1","",""
"","feedback","","html-keyboard-response","220","255647","0.0-1.0-303.0-0.0","0","0","40164","","null","","","null","33","","","","","","","","","","","","","","","",""
"","ITI","","html-keyboard-response","221","256654","0.0-1.0-306.0","0","0","40164","","null","","","null","33","","","","","","","","","","","","","","","NaN",""
"","S1","","html-keyboard-response","222","256814","0.0-1.0-308.0","0","0","40164","","null","","","null","34","","","","","","","","","","","","","","","",""
"","ISI","","html-keyboard-response","223","258822","0.0-1.0-309.0","0","0","40164","","null","","","null","34","NaN","","","","","","","","","","","","","","",""
"","S2","","html-keyboard-response","224","258982","0.0-1.0-310.0","0","0","40164","","null","","","null","34","","NaN","","","","","","","","","","","","","",""
"","response","","html-keyboard-response","225","259105","0.0-1.0-311.0-0.0","0","0","40164","","119","","","75","34","","","1","34","training","adjacent","FG","6","7","Q.jpg","L.jpg","0","1","0","",""
"","feedback","","html-keyboard-response","226","260117","0.0-1.0-312.0-0.0","0","0","40164","","null","","","null","34","","","","","","","","","","","","","","","",""
"","time_out","","html-keyboard-response","227","262126","0.0-1.0-314.0-0.0","0","0","40164","","null","","","null","34","","","","","","","","","","","","","","","",""
"","ITI","","html-keyboard-response","228","263134","0.0-1.0-315.0","0","0","40164","","null","","","null","34","","","","","","","","","","","","","","","NaN",""
"","S1","","html-keyboard-response","229","263294","0.0-1.0-317.0","0","0","40164","","null","","","null","35","","","","","","","","","","","","","","","",""
"","ISI","","html-keyboard-response","230","265302","0.0-1.0-318.0","0","0","40164","","null","","","null","35","NaN","","","","","","","","","","","","","","",""
"","S2","","html-keyboard-response","231","265462","0.0-1.0-319.0","0","0","40164","","null","","","null","35","","NaN","","","","","","","","","","","","","",""
"","response","","html-keyboard-response","232","265605","0.0-1.0-320.0-0.0","0","0","40164","","139","","","75","35","","","1","35","training","adjacent","FG","6","7","Q.jpg","L.jpg","0","1","0","",""
"","feedback","","html-keyboard-response","233","266614","0.0-1.0-321.0-0.0","0","0","40164","","null","","","null","35","","","","","","","","","","","","","","","",""
"","time_out","","html-keyboard-response","234","268622","0.0-1.0-323.0-0.0","0","0","40164","","null","","","null","35","","","","","","","","","","","","","","","",""
"","ITI","","html-keyboard-response","235","269631","0.0-1.0-324.0","0","0","40164","","null","","","null","35","","","","","","","","","","","","","","","NaN",""
"","S1","","html-keyboard-response","236","269790","0.0-1.0-326.0","0","0","40164","","null","","","null","36","","","","","","","","","","","","","","","",""
"","ISI","","html-keyboard-response","237","271798","0.0-1.0-327.0","0","0","40164","","null","","","null","36","NaN","","","","","","","","","","","","","","",""
"","S2","","html-keyboard-response","238","271959","0.0-1.0-328.0","0","0","40164","","null","","","null","36","","NaN","","","","","","","","","","","","","",""
"","response","","html-keyboard-response","239","272076","0.0-1.0-329.0-0.0","0","0","40164","","112","","","75","36","","","1","36","training","adjacent","DC","4","3","N.jpg","R.jpg","0","0","1","",""
"","feedback","","html-keyboard-response","240","273086","0.0-1.0-330.0-0.0","0","0","40164","","null","","","null","36","","","","","","","","","","","","","","","",""
"","ITI","","html-keyboard-response","241","274094","0.0-1.0-333.0","0","0","40164","","null","","","null","36","","","","","","","","","","","","","","","NaN",""
"","S1","","html-keyboard-response","242","274254","0.0-1.0-335.0","0","0","40164","","null","","","null","37","","","","","","","","","","","","","","","",""
"","ISI","","html-keyboard-response","243","276262","0.0-1.0-336.0","0","0","40164","","null","","","null","37","NaN","","","","","","","","","","","","","","",""
"","S2","","html-keyboard-response","244","276422","0.0-1.0-337.0","0","0","40164","","null","","","null","37","","NaN","","","","","","","","","","","","","",""
"","response","","html-keyboard-response","245","276572","0.0-1.0-338.0-0.0","0","0","40164","","146","","","75","37","","","1","37","training","adjacent","DE","4","5","N.jpg","P.jpg","0","1","0","",""
"","feedback","","html-keyboard-response","246","277582","0.0-1.0-339.0-0.0","0","0","40164","","null","","","null","37","","","","","","","","","","","","","","","",""
"","time_out","","html-keyboard-response","247","279590","0.0-1.0-341.0-0.0","0","0","40164","","null","","","null","37","","","","","","","","","","","","","","","",""
"","ITI","","html-keyboard-response","248","280599","0.0-1.0-342.0","0","0","40164","","null","","","null","37","","","","","","","","","","","","","","","NaN",""
"","S1","","html-keyboard-response","249","280758","0.0-1.0-344.0","0","0","40164","","null","","","null","38","","","","","","","","","","","","","","","",""
"","ISI","","html-keyboard-response","250","282766","0.0-1.0-345.0","0","0","40164","","null","","","null","38","NaN","","","","","","","","","","","","","","",""
"","S2","","html-keyboard-response","251","282926","0.0-1.0-346.0","0","0","40164","","null","","","null","38","","NaN","","","","","","","","","","","","","",""
"","response","","html-keyboard-response","252","283044","0.0-1.0-347.0-0.0","0","0","40164","","114","","","75","38","","","1","38","training","adjacent","FE","6","5","Q.jpg","P.jpg","0","0","1","",""
"","feedback","","html-keyboard-response","253","284054","0.0-1.0-348.0-0.0","0","0","40164","","null","","","null","38","","","","","","","","","","","","","","","",""
"","ITI","","html-keyboard-response","254","285062","0.0-1.0-351.0","0","0","40164","","null","","","null","38","","","","","","","","","","","","","","","NaN",""
"","S1","","html-keyboard-response","255","285222","0.0-1.0-353.0","0","0","40164","","null","","","null","39","","","","","","","","","","","","","","","",""
"","ISI","","html-keyboard-response","256","287230","0.0-1.0-354.0","0","0","40164","","null","","","null","39","NaN","","","","","","","","","","","","","","",""
"","S2","","html-keyboard-response","257","287390","0.0-1.0-355.0","0","0","40164","","null","","","null","39","","NaN","","","","","","","","","","","","","",""
"","response","","html-keyboard-response","258","287509","0.0-1.0-356.0-0.0","0","0","40164","","115","","","75","39","","","1","39","training","adjacent","DE","4","5","N.jpg","P.jpg","0","1","0","",""
"","feedback","","html-keyboard-response","259","288519","0.0-1.0-357.0-0.0","0","0","40164","","null","","","null","39","","","","","","","","","","","","","","","",""
"","time_out","","html-keyboard-response","260","290527","0.0-1.0-359.0-0.0","0","0","40164","","null","","","null","39","","","","","","","","","","","","","","","",""
"","ITI","","html-keyboard-response","261","291534","0.0-1.0-360.0","0","0","40164","","null","","","null","39","","","","","","","","","","","","","","","NaN",""
"","S1","","html-keyboard-response","262","291693","0.0-1.0-362.0","0","0","40164","","null","","","null","40","","","","","","","","","","","","","","","",""
"","ISI","","html-keyboard-response","263","293702","0.0-1.0-363.0","0","0","40164","","155","","","68","40","d","","","","","","","","","","","","","","",""
"","S2","","html-keyboard-response","264","293862","0.0-1.0-364.0","0","0","40164","","null","","","null","40","","NaN","","","","","","","","","","","","","",""
"","response","","html-keyboard-response","265","294006","0.0-1.0-365.0-0.0","0","0","40164","","140","","","68","40","","","1","40","training","adjacent","DE","4","5","N.jpg","P.jpg","1","1","1","",""
"","feedback","","html-keyboard-response","266","295014","0.0-1.0-366.0-0.0","0","0","40164","","null","","","null","40","","","","","","","","","","","","","","","",""
"","ITI","","html-keyboard-response","267","296022","0.0-1.0-369.0","0","0","40164","","null","","","null","40","","","","","","","","","","","","","","","NaN",""
"","S1","","html-keyboard-response","268","296182","0.0-1.0-371.0","0","0","40164","","null","","","null","41","","","","","","","","","","","","","","","",""
"","ISI","","html-keyboard-response","269","298190","0.0-1.0-372.0","0","0","40164","","null","","","null","41","NaN","","","","","","","","","","","","","","",""
"","S2","","html-keyboard-response","270","298350","0.0-1.0-373.0","0","0","40164","","null","","","null","41","","NaN","","","","","","","","","","","","","",""
"","response","","html-keyboard-response","271","298570","0.0-1.0-374.0-0.0","0","0","40164","","215","","","68","41","","","1","41","training","adjacent","CB","3","2","R.jpg","O.jpg","1","0","0","",""
"","feedback","","html-keyboard-response","272","299582","0.0-1.0-375.0-0.0","0","0","40164","","null","","","null","41","","","","","","","","","","","","","","","",""
"","time_out","","html-keyboard-response","273","301590","0.0-1.0-377.0-0.0","0","0","40164","","null","","","null","41","","","","","","","","","","","","","","","",""
"","ITI","","html-keyboard-response","274","302598","0.0-1.0-378.0","0","0","40164","","null","","","null","41","","","","","","","","","","","","","","","NaN",""
"","S1","","html-keyboard-response","275","302758","0.0-1.0-380.0","0","0","40164","","null","","","null","42","","","","","","","","","","","","","","","",""
"","ISI","","html-keyboard-response","276","304766","0.0-1.0-381.0","0","0","40164","","null","","","null","42","NaN","","","","","","","","","","","","","","",""
"","S2","","html-keyboard-response","277","304926","0.0-1.0-382.0","0","0","40164","","null","","","null","42","","NaN","","","","","","","","","","","","","",""
"","response","","html-keyboard-response","278","305042","0.0-1.0-383.0-0.0","0","0","40164","","111","","","68","42","","","1","42","training","adjacent","AB","1","2","M.jpg","O.jpg","1","1","1","",""
"","feedback","","html-keyboard-response","279","306054","0.0-1.0-384.0-0.0","0","0","40164","","null","","","null","42","","","","","","","","","","","","","","","",""
"","ITI","","html-keyboard-response","280","307064","0.0-1.0-387.0","0","0","40164","","null","","","null","42","","","","","","","","","","","","","","","NaN",""
"","S1","","html-keyboard-response","281","307222","0.0-1.0-389.0","0","0","40164","","null","","","null","43","","","","","","","","","","","","","","","",""
"","ISI","","html-keyboard-response","282","309230","0.0-1.0-390.0","0","0","40164","","null","","","null","43","NaN","","","","","","","","","","","","","","",""
"","S2","","html-keyboard-response","283","309390","0.0-1.0-391.0","0","0","40164","","null","","","null","43","","NaN","","","","","","","","","","","","","",""
"","response","","html-keyboard-response","284","309535","0.0-1.0-392.0-0.0","0","0","40164","","141","","","75","43","","","1","43","training","adjacent","BA","2","1","O.jpg","M.jpg","0","0","1","",""
"","feedback","","html-keyboard-response","285","310542","0.0-1.0-393.0-0.0","0","0","40164","","null","","","null","43","","","","","","","","","","","","","","","",""
"","ITI","","html-keyboard-response","286","311550","0.0-1.0-396.0","0","0","40164","","null","","","null","43","","","","","","","","","","","","","","","NaN",""
"","S1","","html-keyboard-response","287","311710","0.0-1.0-398.0","0","0","40164","","null","","","null","44","","","","","","","","","","","","","","","",""
"","ISI","","html-keyboard-response","288","313718","0.0-1.0-399.0","0","0","40164","","null","","","null","44","NaN","","","","","","","","","","","","","","",""
"","S2","","html-keyboard-response","289","313878","0.0-1.0-400.0","0","0","40164","","null","","","null","44","","NaN","","","","","","","","","","","","","",""
"","response","","html-keyboard-response","290","314214","0.0-1.0-401.0-0.0","0","0","40164","","331","","","75","44","","","1","44","training","adjacent","FE","6","5","Q.jpg","P.jpg","0","0","1","",""
"","feedback","","html-keyboard-response","291","315222","0.0-1.0-402.0-0.0","0","0","40164","","null","","","null","44","","","","","","","","","","","","","","","",""
"","ITI","","html-keyboard-response","292","316230","0.0-1.0-405.0","0","0","40164","","null","","","null","44","","","","","","","","","","","","","","","NaN",""
"","S1","","html-keyboard-response","293","316390","0.0-1.0-407.0","0","0","40164","","null","","","null","45","","","","","","","","","","","","","","","",""
"","ISI","","html-keyboard-response","294","318398","0.0-1.0-408.0","0","0","40164","","null","","","null","45","NaN","","","","","","","","","","","","","","",""
"","S2","","html-keyboard-response","295","318558","0.0-1.0-409.0","0","0","40164","","null","","","null","45","","NaN","","","","","","","","","","","","","",""
"","response","","html-keyboard-response","296","318869","0.0-1.0-410.0-0.0","0","0","40164","","307","","","75","45","","","1","45","training","adjacent","AB","1","2","M.jpg","O.jpg","0","1","0","",""
"","feedback","","html-keyboard-response","297","319878","0.0-1.0-411.0-0.0","0","0","40164","","null","","","null","45","","","","","","","","","","","","","","","",""
"","time_out","","html-keyboard-response","298","321886","0.0-1.0-413.0-0.0","0","0","40164","","null","","","null","45","","","","","","","","","","","","","","","",""
"","ITI","","html-keyboard-response","299","322894","0.0-1.0-414.0","0","0","40164","","null","","","null","45","","","","","","","","","","","","","","","NaN",""
"","S1","","html-keyboard-response","300","323054","0.0-1.0-416.0","0","0","40164","","null","","","null","46","","","","","","","","","","","","","","","",""
"","ISI","","html-keyboard-response","301","325062","0.0-1.0-417.0","0","0","40164","","null","","","null","46","NaN","","","","","","","","","","","","","","",""
"","S2","","html-keyboard-response","302","325222","0.0-1.0-418.0","0","0","40164","","null","","","null","46","","NaN","","","","","","","","","","","","","",""
"","response","","html-keyboard-response","303","325406","0.0-1.0-419.0-0.0","0","0","40164","","179","","","68","46","","","1","46","training","adjacent","EF","5","6","P.jpg","Q.jpg","1","1","1","",""
"","feedback","","html-keyboard-response","304","326413","0.0-1.0-420.0-0.0","0","0","40164","","null","","","null","46","","","","","","","","","","","","","","","",""
"","ITI","","html-keyboard-response","305","327422","0.0-1.0-423.0","0","0","40164","","null","","","null","46","","","","","","","","","","","","","","","NaN",""
"","S1","","html-keyboard-response","306","327582","0.0-1.0-425.0","0","0","40164","","null","","","null","47","","","","","","","","","","","","","","","",""
"","ISI","","html-keyboard-response","307","329590","0.0-1.0-426.0","0","0","40164","","null","","","null","47","NaN","","","","","","","","","","","","","","",""
"","S2","","html-keyboard-response","308","329750","0.0-1.0-427.0","0","0","40164","","null","","","null","47","","NaN","","","","","","","","","","","","","",""
"","response","","html-keyboard-response","309","329877","0.0-1.0-428.0-0.0","0","0","40164","","123","","","68","47","","","1","47","training","adjacent","CD","3","4","R.jpg","N.jpg","1","1","1","",""
"","feedback","","html-keyboard-response","310","330887","0.0-1.0-429.0-0.0","0","0","40164","","null","","","null","47","","","","","","","","","","","","","","","",""
"","ITI","","html-keyboard-response","311","331894","0.0-1.0-432.0","0","0","40164","","null","","","null","47","","","","","","","","","","","","","","","NaN",""
"","block_over","","html-keyboard-response","312","339320","0.0-1.0-433.0-0.0","0","0","40164","","7421","","","32","47","","","","","","","","","","","","","","","",""
"","S1","","html-keyboard-response","313","339478","0.0-1.0-434.0","0","0","40164","","null","","","null","48","","","","","","","","","","","","","","","",""
"","ISI","","html-keyboard-response","314","341486","0.0-1.0-435.0","0","0","40164","","1053","","","68","48","d","","","","","","","","","","","","","","",""
"","S2","","html-keyboard-response","315","341646","0.0-1.0-436.0","0","0","40164","","null","","","null","48","","NaN","","","","","","","","","","","","","",""
"","response","","html-keyboard-response","316","341706","0.0-1.0-437.0-0.0","0","0","40164","","56","","","75","48","","","2","48","training","adjacent","GF","7","6","L.jpg","Q.jpg","0","0","1","",""
"","feedback","","html-keyboard-response","317","342718","0.0-1.0-438.0-0.0","0","0","40164","","null","","","null","48","","","","","","","","","","","","","","","",""
"","ITI","","html-keyboard-response","318","343726","0.0-1.0-441.0","0","0","40164","","null","","","null","48","","","","","","","","","","","","","","","NaN",""
"","S1","","html-keyboard-response","319","343886","0.0-1.0-443.0","0","0","40164","","null","","","null","49","","","","","","","","","","","","","","","",""
"","ISI","","html-keyboard-response","320","345894","0.0-1.0-444.0","0","0","40164","","null","","","null","49","NaN","","","","","","","","","","","","","","",""
"","S2","","html-keyboard-response","321","346054","0.0-1.0-445.0","0","0","40164","","null","","","null","49","","NaN","","","","","","","","","","","","","",""
"","response","","html-keyboard-response","322","346165","0.0-1.0-446.0-0.0","0","0","40164","","107","","","75","49","","","2","49","training","adjacent","CD","3","4","R.jpg","N.jpg","0","1","0","",""
"","feedback","","html-keyboard-response","323","347174","0.0-1.0-447.0-0.0","0","0","40164","","null","","","null","49","","","","","","","","","","","","","","","",""
"","time_out","","html-keyboard-response","324","349182","0.0-1.0-449.0-0.0","0","0","40164","","null","","","null","49","","","","","","","","","","","","","","","",""
"","ITI","","html-keyboard-response","325","350190","0.0-1.0-450.0","0","0","40164","","null","","","null","49","","","","","","","","","","","","","","","NaN",""
"","S1","","html-keyboard-response","326","350350","0.0-1.0-452.0","0","0","40164","","null","","","null","50","","","","","","","","","","","","","","","",""
"","ISI","","html-keyboard-response","327","352358","0.0-1.0-453.0","0","0","40164","","null","","","null","50","NaN","","","","","","","","","","","","","","",""
"","S2","","html-keyboard-response","328","352518","0.0-1.0-454.0","0","0","40164","","null","","","null","50","","NaN","","","","","","","","","","","","","",""
"","response","","html-keyboard-response","329","352630","0.0-1.0-455.0-0.0","0","0","40164","","108","","","75","50","","","2","50","training","adjacent","GF","7","6","L.jpg","Q.jpg","0","0","1","",""
"","feedback","","html-keyboard-response","330","353638","0.0-1.0-456.0-0.0","0","0","40164","","null","","","null","50","","","","","","","","","","","","","","","",""
"","ITI","","html-keyboard-response","331","354647","0.0-1.0-459.0","0","0","40164","","null","","","null","50","","","","","","","","","","","","","","","NaN",""
"","S1","","html-keyboard-response","332","354806","0.0-1.0-461.0","0","0","40164","","null","","","null","51","","","","","","","","","","","","","","","",""
"","ISI","","html-keyboard-response","333","356814","0.0-1.0-462.0","0","0","40164","","null","","","null","51","NaN","","","","","","","","","","","","","","",""
"","S2","","html-keyboard-response","334","356974","0.0-1.0-463.0","0","0","40164","","null","","","null","51","","NaN","","","","","","","","","","","","","",""
"","response","","html-keyboard-response","335","357366","0.0-1.0-464.0-0.0","0","0","40164","","388","","","68","51","","","2","51","training","adjacent","ED","5","4","P.jpg","N.jpg","1","0","0","",""
"","feedback","","html-keyboard-response","336","358374","0.0-1.0-465.0-0.0","0","0","40164","","null","","","null","51","","","","","","","","","","","","","","","",""
"","time_out","","html-keyboard-response","337","360382","0.0-1.0-467.0-0.0","0","0","40164","","null","","","null","51","","","","","","","","","","","","","","","",""
"","ITI","","html-keyboard-response","338","361390","0.0-1.0-468.0","0","0","40164","","null","","","null","51","","","","","","","","","","","","","","","NaN",""
"","S1","","html-keyboard-response","339","361550","0.0-1.0-470.0","0","0","40164","","null","","","null","52","","","","","","","","","","","","","","","",""
"","ISI","","html-keyboard-response","340","363557","0.0-1.0-471.0","0","0","40164","","null","","","null","52","NaN","","","","","","","","","","","","","","",""
"","S2","","html-keyboard-response","341","363718","0.0-1.0-472.0","0","0","40164","","null","","","null","52","","NaN","","","","","","","","","","","","","",""
"","response","","html-keyboard-response","342","363889","0.0-1.0-473.0-0.0","0","0","40164","","166","","","75","52","","","2","52","training","adjacent","FG","6","7","Q.jpg","L.jpg","0","1","0","",""
"","feedback","","html-keyboard-response","343","364894","0.0-1.0-474.0-0.0","0","0","40164","","null","","","null","52","","","","","","","","","","","","","","","",""
"","time_out","","html-keyboard-response","344","366902","0.0-1.0-476.0-0.0","0","0","40164","","null","","","null","52","","","","","","","","","","","","","","","",""
"","ITI","","html-keyboard-response","345","367910","0.0-1.0-477.0","0","0","40164","","null","","","null","52","","","","","","","","","","","","","","","NaN",""
"","S1","","html-keyboard-response","346","368070","0.0-1.0-479.0","0","0","40164","","null","","","null","53","","","","","","","","","","","","","","","",""
"","ISI","","html-keyboard-response","347","370078","0.0-1.0-480.0","0","0","40164","","null","","","null","53","NaN","","","","","","","","","","","","","","",""
"","S2","","html-keyboard-response","348","370238","0.0-1.0-481.0","0","0","40164","","null","","","null","53","","NaN","","","","","","","","","","","","","",""
"","response","","html-keyboard-response","349","370367","0.0-1.0-482.0-0.0","0","0","40164","","125","","","68","53","","","2","53","training","adjacent","AB","1","2","M.jpg","O.jpg","1","1","1","",""
"","feedback","","html-keyboard-response","350","371374","0.0-1.0-483.0-0.0","0","0","40164","","null","","","null","53","","","","","","","","","","","","","","","",""
"","ITI","","html-keyboard-response","351","372382","0.0-1.0-486.0","0","0","40164","","null","","","null","53","","","","","","","","","","","","","","","NaN",""
"","S1","","html-keyboard-response","352","372542","0.0-1.0-488.0","0","0","40164","","null","","","null","54","","","","","","","","","","","","","","","",""
"","ISI","","html-keyboard-response","353","374550","0.0-1.0-489.0","0","0","40164","","null","","","null","54","NaN","","","","","","","","","","","","","","",""
"","S2","","html-keyboard-response","354","374710","0.0-1.0-490.0","0","0","40164","","null","","","null","54","","NaN","","","","","","","","","","","","","",""
"","response","","html-keyboard-response","355","375202","0.0-1.0-491.0-0.0","0","0","40164","","488","","","75","54","","","2","54","training","adjacent","FE","6","5","Q.jpg","P.jpg","0","0","1","",""
"","feedback","","html-keyboard-response","356","376215","0.0-1.0-492.0-0.0","0","0","40164","","null","","","null","54","","","","","","","","","","","","","","","",""
"","ITI","","html-keyboard-response","357","377222","0.0-1.0-495.0","0","0","40164","","null","","","null","54","","","","","","","","","","","","","","","NaN",""
"","S1","","html-keyboard-response","358","377382","0.0-1.0-497.0","0","0","40164","","null","","","null","55","","","","","","","","","","","","","","","",""
"","ISI","","html-keyboard-response","359","379390","0.0-1.0-498.0","0","0","40164","","null","","","null","55","NaN","","","","","","","","","","","","","","",""
"","S2","","html-keyboard-response","360","379550","0.0-1.0-499.0","0","0","40164","","null","","","null","55","","NaN","","","","","","","","","","","","","",""
"","response","","html-keyboard-response","361","380154","0.0-1.0-500.0-0.0","0","0","40164","","600","","","75","55","","","2","55","training","adjacent","ED","5","4","P.jpg","N.jpg","0","0","1","",""
"","feedback","","html-keyboard-response","362","381166","0.0-1.0-501.0-0.0","0","0","40164","","null","","","null","55","","","","","","","","","","","","","","","",""
"","ITI","","html-keyboard-response","363","382174","0.0-1.0-504.0","0","0","40164","","null","","","null","55","","","","","","","","","","","","","","","NaN",""
"","S1","","html-keyboard-response","364","382334","0.0-1.0-506.0","0","0","40164","","null","","","null","56","","","","","","","","","","","","","","","",""
"","ISI","","html-keyboard-response","365","384342","0.0-1.0-507.0","0","0","40164","","null","","","null","56","NaN","","","","","","","","","","","","","","",""
"","S2","","html-keyboard-response","366","384502","0.0-1.0-508.0","0","0","40164","","null","","","null","56","","NaN","","","","","","","","","","","","","",""
"","response","","html-keyboard-response","367","385412","0.0-1.0-509.0-0.0","0","0","40164","","905","","","75","56","","","2","56","training","adjacent","DC","4","3","N.jpg","R.jpg","0","0","1","",""
"","feedback","","html-keyboard-response","368","386422","0.0-1.0-510.0-0.0","0","0","40164","","null","","","null","56","","","","","","","","","","","","","","","",""
"","ITI","","html-keyboard-response","369","387430","0.0-1.0-513.0","0","0","40164","","null","","","null","56","","","","","","","","","","","","","","","NaN",""
"","S1","","html-keyboard-response","370","387590","0.0-1.0-515.0","0","0","40164","","null","","","null","57","","","","","","","","","","","","","","","",""
"","ISI","","html-keyboard-response","371","389598","0.0-1.0-516.0","0","0","40164","","null","","","null","57","NaN","","","","","","","","","","","","","","",""
"","S2","","html-keyboard-response","372","389759","0.0-1.0-517.0","0","0","40164","","null","","","null","57","","NaN","","","","","","","","","","","","","",""
"","response","","html-keyboard-response","373","390542","0.0-1.0-518.0-0.0","0","0","40164","","780","","","75","57","","","2","57","training","adjacent","ED","5","4","P.jpg","N.jpg","0","0","1","",""
"","feedback","","html-keyboard-response","374","391550","0.0-1.0-519.0-0.0","0","0","40164","","null","","","null","57","","","","","","","","","","","","","","","",""
"","ITI","","html-keyboard-response","375","392558","0.0-1.0-522.0","0","0","40164","","null","","","null","57","","","","","","","","","","","","","","","NaN",""
"","S1","","html-keyboard-response","376","392718","0.0-1.0-524.0","0","0","40164","","null","","","null","58","","","","","","","","","","","","","","","",""
"","ISI","","html-keyboard-response","377","394726","0.0-1.0-525.0","0","0","40164","","null","","","null","58","NaN","","","","","","","","","","","","","","",""
"","S2","","html-keyboard-response","378","394886","0.0-1.0-526.0","0","0","40164","","null","","","null","58","","NaN","","","","","","","","","","","","","",""
"","response","","html-keyboard-response","379","395421","0.0-1.0-527.0-0.0","0","0","40164","","531","","","75","58","","","2","58","training","adjacent","FE","6","5","Q.jpg","P.jpg","0","0","1","",""
"","feedback","","html-keyboard-response","380","396430","0.0-1.0-528.0-0.0","0","0","40164","","null","","","null","58","","","","","","","","","","","","","","","",""
"","ITI","","html-keyboard-response","381","397438","0.0-1.0-531.0","0","0","40164","","null","","","null","58","","","","","","","","","","","","","","","NaN",""
"","S1","","html-keyboard-response","382","397598","0.0-1.0-533.0","0","0","40164","","null","","","null","59","","","","","","","","","","","","","","","",""
"","ISI","","html-keyboard-response","383","399607","0.0-1.0-534.0","0","0","40164","","null","","","null","59","NaN","","","","","","","","","","","","","","",""
"","S2","","html-keyboard-response","384","399766","0.0-1.0-535.0","0","0","40164","","null","","","null","59","","NaN","","","","","","","","","","","","","",""
"","response","","html-keyboard-response","385","400307","0.0-1.0-536.0-0.0","0","0","40164","","536","","","68","59","","","2","59","training","adjacent","DE","4","5","N.jpg","P.jpg","1","1","1","",""
"","feedback","","html-keyboard-response","386","401319","0.0-1.0-537.0-0.0","0","0","40164","","null","","","null","59","","","","","","","","","","","","","","","",""
"","ITI","","html-keyboard-response","387","402326","0.0-1.0-540.0","0","0","40164","","null","","","null","59","","","","","","","","","","","","","","","NaN",""
"","S1","","html-keyboard-response","388","402486","0.0-1.0-542.0","0","0","40164","","null","","","null","60","","","","","","","","","","","","","","","",""
"","ISI","","html-keyboard-response","389","404494","0.0-1.0-543.0","0","0","40164","","null","","","null","60","NaN","","","","","","","","","","","","","","",""
"","S2","","html-keyboard-response","390","404654","0.0-1.0-544.0","0","0","40164","","null","","","null","60","","NaN","","","","","","","","","","","","","",""
"","response","","html-keyboard-response","391","404839","0.0-1.0-545.0-0.0","0","0","40164","","180","","","75","60","","","2","60","training","adjacent","GF","7","6","L.jpg","Q.jpg","0","0","1","",""
"","feedback","","html-keyboard-response","392","405846","0.0-1.0-546.0-0.0","0","0","40164","","null","","","null","60","","","","","","","","","","","","","","","",""
"","ITI","","html-keyboard-response","393","406854","0.0-1.0-549.0","0","0","40164","","null","","","null","60","","","","","","","","","","","","","","","NaN",""
"","S1","","html-keyboard-response","394","407014","0.0-1.0-551.0","0","0","40164","","null","","","null","61","","","","","","","","","","","","","","","",""
"","ISI","","html-keyboard-response","395","409022","0.0-1.0-552.0","0","0","40164","","null","","","null","61","NaN","","","","","","","","","","","","","","",""
"","S2","","html-keyboard-response","396","409182","0.0-1.0-553.0","0","0","40164","","null","","","null","61","","NaN","","","","","","","","","","","","","",""
"","response","","html-keyboard-response","397","410096","0.0-1.0-554.0-0.0","0","0","40164","","910","","","75","61","","","2","61","training","adjacent","BA","2","1","O.jpg","M.jpg","0","0","1","",""
"","feedback","","html-keyboard-response","398","411102","0.0-1.0-555.0-0.0","0","0","40164","","null","","","null","61","","","","","","","","","","","","","","","",""
"","ITI","","html-keyboard-response","399","412109","0.0-1.0-558.0","0","0","40164","","null","","","null","61","","","","","","","","","","","","","","","NaN",""
"","S1","","html-keyboard-response","400","412270","0.0-1.0-560.0","0","0","40164","","null","","","null","62","","","","","","","","","","","","","","","",""
"","ISI","","html-keyboard-response","401","414278","0.0-1.0-561.0","0","0","40164","","null","","","null","62","NaN","","","","","","","","","","","","","","",""
"","S2","","html-keyboard-response","402","414438","0.0-1.0-562.0","0","0","40164","","null","","","null","62","","NaN","","","","","","","","","","","","","",""
"","response","","html-keyboard-response","403","415110","0.0-1.0-563.0-0.0","0","0","40164","","668","","","75","62","","","2","62","training","adjacent","CD","3","4","R.jpg","N.jpg","0","1","0","",""
"","feedback","","html-keyboard-response","404","416118","0.0-1.0-564.0-0.0","0","0","40164","","null","","","null","62","","","","","","","","","","","","","","","",""
"","time_out","","html-keyboard-response","405","418126","0.0-1.0-566.0-0.0","0","0","40164","","null","","","null","62","","","","","","","","","","","","","","","",""
"","ITI","","html-keyboard-response","406","419134","0.0-1.0-567.0","0","0","40164","","null","","","null","62","","","","","","","","","","","","","","","NaN",""
"","S1","","html-keyboard-response","407","419294","0.0-1.0-569.0","0","0","40164","","null","","","null","63","","","","","","","","","","","","","","","",""
"","ISI","","html-keyboard-response","408","421302","0.0-1.0-570.0","0","0","40164","","null","","","null","63","NaN","","","","","","","","","","","","","","",""
"","S2","","html-keyboard-response","409","421462","0.0-1.0-571.0","0","0","40164","","null","","","null","63","","NaN","","","","","","","","","","","","","",""
"","response","","html-keyboard-response","410","421935","0.0-1.0-572.0-0.0","0","0","40164","","469","","","75","63","","","2","63","training","adjacent","EF","5","6","P.jpg","Q.jpg","0","1","0","",""
"","feedback","","html-keyboard-response","411","422942","0.0-1.0-573.0-0.0","0","0","40164","","null","","","null","63","","","","","","","","","","","","","","","",""
"","time_out","","html-keyboard-response","412","424950","0.0-1.0-575.0-0.0","0","0","40164","","null","","","null","63","","","","","","","","","","","","","","","",""
"","ITI","","html-keyboard-response","413","425959","0.0-1.0-576.0","0","0","40164","","null","","","null","63","","","","","","","","","","","","","","","NaN",""
"","S1","","html-keyboard-response","414","426118","0.0-1.0-578.0","0","0","40164","","null","","","null","64","","","","","","","","","","","","","","","",""
"","ISI","","html-keyboard-response","415","428126","0.0-1.0-579.0","0","0","40164","","null","","","null","64","NaN","","","","","","","","","","","","","","",""
"","S2","","html-keyboard-response","416","428286","0.0-1.0-580.0","0","0","40164","","null","","","null","64","","NaN","","","","","","","","","","","","","",""
"","response","","html-keyboard-response","417","428488","0.0-1.0-581.0-0.0","0","0","40164","","198","","","68","64","","","2","64","training","adjacent","BA","2","1","O.jpg","M.jpg","1","0","0","",""
"","feedback","","html-keyboard-response","418","429494","0.0-1.0-582.0-0.0","0","0","40164","","null","","","null","64","","","","","","","","","","","","","","","",""
"","time_out","","html-keyboard-response","419","431502","0.0-1.0-584.0-0.0","0","0","40164","","null","","","null","64","","","","","","","","","","","","","","","",""
"","ITI","","html-keyboard-response","420","432510","0.0-1.0-585.0","0","0","40164","","null","","","null","64","","","","","","","","","","","","","","","NaN",""
"","S1","","html-keyboard-response","421","432670","0.0-1.0-587.0","0","0","40164","","null","","","null","65","","","","","","","","","","","","","","","",""
"","ISI","","html-keyboard-response","422","434678","0.0-1.0-588.0","0","0","40164","","461","","","75","65","k","","","","","","","","","","","","","","",""
"","S2","","html-keyboard-response","423","434838","0.0-1.0-589.0","0","0","40164","","null","","","null","65","","NaN","","","","","","","","","","","","","",""
"","response","","html-keyboard-response","424","435119","0.0-1.0-590.0-0.0","0","0","40164","","277","","","68","65","","","2","65","training","adjacent","CD","3","4","R.jpg","N.jpg","1","1","1","",""
"","feedback","","html-keyboard-response","425","436126","0.0-1.0-591.0-0.0","0","0","40164","","null","","","null","65","","","","","","","","","","","","","","","",""
"","ITI","","html-keyboard-response","426","437133","0.0-1.0-594.0","0","0","40164","","null","","","null","65","","","","","","","","","","","","","","","NaN",""
"","S1","","html-keyboard-response","427","437294","0.0-1.0-596.0","0","0","40164","","null","","","null","66","","","","","","","","","","","","","","","",""
"","ISI","","html-keyboard-response","428","439302","0.0-1.0-597.0","0","0","40164","","null","","","null","66","NaN","","","","","","","","","","","","","","",""
"","S2","","html-keyboard-response","429","439462","0.0-1.0-598.0","0","0","40164","","null","","","null","66","","NaN","","","","","","","","","","","","","",""
"","response","","html-keyboard-response","430","439651","0.0-1.0-599.0-0.0","0","0","40164","","185","","","68","66","","","2","66","training","adjacent","DC","4","3","N.jpg","R.jpg","1","0","0","",""
"","feedback","","html-keyboard-response","431","440662","0.0-1.0-600.0-0.0","0","0","40164","","null","","","null","66","","","","","","","","","","","","","","","",""
"","time_out","","html-keyboard-response","432","442670","0.0-1.0-602.0-0.0","0","0","40164","","null","","","null","66","","","","","","","","","","","","","","","",""
"","ITI","","html-keyboard-response","433","443678","0.0-1.0-603.0","0","0","40164","","null","","","null","66","","","","","","","","","","","","","","","NaN",""
"","S1","","html-keyboard-response","434","443838","0.0-1.0-605.0","0","0","40164","","null","","","null","67","","","","","","","","","","","","","","","",""
"","ISI","","html-keyboard-response","435","445846","0.0-1.0-606.0","0","0","40164","","null","","","null","67","NaN","","","","","","","","","","","","","","",""
"","S2","","html-keyboard-response","436","446006","0.0-1.0-607.0","0","0","40164","","null","","","null","67","","NaN","","","","","","","","","","","","","",""
"","response","","html-keyboard-response","437","446525","0.0-1.0-608.0-0.0","0","0","40164","","515","","","75","67","","","2","67","training","adjacent","DE","4","5","N.jpg","P.jpg","0","1","0","",""
"","feedback","","html-keyboard-response","438","447534","0.0-1.0-609.0-0.0","0","0","40164","","null","","","null","67","","","","","","","","","","","","","","","",""
"","time_out","","html-keyboard-response","439","449543","0.0-1.0-611.0-0.0","0","0","40164","","null","","","null","67","","","","","","","","","","","","","","","",""
"","ITI","","html-keyboard-response","440","450550","0.0-1.0-612.0","0","0","40164","","null","","","null","67","","","","","","","","","","","","","","","NaN",""
"","S1","","html-keyboard-response","441","450710","0.0-1.0-614.0","0","0","40164","","null","","","null","68","","","","","","","","","","","","","","","",""
"","ISI","","html-keyboard-response","442","452718","0.0-1.0-615.0","0","0","40164","","null","","","null","68","NaN","","","","","","","","","","","","","","",""
"","S2","","html-keyboard-response","443","452878","0.0-1.0-616.0","0","0","40164","","null","","","null","68","","NaN","","","","","","","","","","","","","",""
"","response","","html-keyboard-response","444","453170","0.0-1.0-617.0-0.0","0","0","40164","","288","","","68","68","","","2","68","training","adjacent","CB","3","2","R.jpg","O.jpg","1","0","0","",""
"","feedback","","html-keyboard-response","445","454182","0.0-1.0-618.0-0.0","0","0","40164","","null","","","null","68","","","","","","","","","","","","","","","",""
"","time_out","","html-keyboard-response","446","456190","0.0-1.0-620.0-0.0","0","0","40164","","null","","","null","68","","","","","","","","","","","","","","","",""
"","ITI","","html-keyboard-response","447","457198","0.0-1.0-621.0","0","0","40164","","null","","","null","68","","","","","","","","","","","","","","","NaN",""
"","S1","","html-keyboard-response","448","457358","0.0-1.0-623.0","0","0","40164","","null","","","null","69","","","","","","","","","","","","","","","",""
"","ISI","","html-keyboard-response","449","459366","0.0-1.0-624.0","0","0","40164","","null","","","null","69","NaN","","","","","","","","","","","","","","",""
"","S2","","html-keyboard-response","450","459526","0.0-1.0-625.0","0","0","40164","","null","","","null","69","","NaN","","","","","","","","","","","","","",""
"","response","","html-keyboard-response","451","459690","0.0-1.0-626.0-0.0","0","0","40164","","159","","","68","69","","","2","69","training","adjacent","DE","4","5","N.jpg","P.jpg","1","1","1","",""
"","feedback","","html-keyboard-response","452","460702","0.0-1.0-627.0-0.0","0","0","40164","","null","","","null","69","","","","","","","","","","","","","","","",""
"","ITI","","html-keyboard-response","453","461710","0.0-1.0-630.0","0","0","40164","","null","","","null","69","","","","","","","","","","","","","","","NaN",""
"","S1","","html-keyboard-response","454","461870","0.0-1.0-632.0","0","0","40164","","null","","","null","70","","","","","","","","","","","","","","","",""
"","ISI","","html-keyboard-response","455","463878","0.0-1.0-633.0","0","0","40164","","null","","","null","70","NaN","","","","","","","","","","","","","","",""
"","S2","","html-keyboard-response","456","464038","0.0-1.0-634.0","0","0","40164","","null","","","null","70","","NaN","","","","","","","","","","","","","",""
"","response","","html-keyboard-response","457","464745","0.0-1.0-635.0-0.0","0","0","40164","","702","","","68","70","","","2","70","training","adjacent","FG","6","7","Q.jpg","L.jpg","1","1","1","",""
"","feedback","","html-keyboard-response","458","465750","0.0-1.0-636.0-0.0","0","0","40164","","null","","","null","70","","","","","","","","","","","","","","","",""
"","ITI","","html-keyboard-response","459","466758","0.0-1.0-639.0","0","0","40164","","null","","","null","70","","","","","","","","","","","","","","","NaN",""
"","S1","","html-keyboard-response","460","466918","0.0-1.0-641.0","0","0","40164","","null","","","null","71","","","","","","","","","","","","","","","",""
"","ISI","","html-keyboard-response","461","468926","0.0-1.0-642.0","0","0","40164","","null","","","null","71","NaN","","","","","","","","","","","","","","",""
"","S2","","html-keyboard-response","462","469086","0.0-1.0-643.0","0","0","40164","","null","","","null","71","","NaN","","","","","","","","","","","","","",""
"","response","","html-keyboard-response","463","469685","0.0-1.0-644.0-0.0","0","0","40164","","595","","","75","71","","","2","71","training","adjacent","CD","3","4","R.jpg","N.jpg","0","1","0","",""
"","feedback","","html-keyboard-response","464","470694","0.0-1.0-645.0-0.0","0","0","40164","","null","","","null","71","","","","","","","","","","","","","","","",""
"","time_out","","html-keyboard-response","465","472702","0.0-1.0-647.0-0.0","0","0","40164","","null","","","null","71","","","","","","","","","","","","","","","",""
"","ITI","","html-keyboard-response","466","473710","0.0-1.0-648.0","0","0","40164","","null","","","null","71","","","","","","","","","","","","","","","NaN",""
"","S1","","html-keyboard-response","467","473870","0.0-1.0-650.0","0","0","40164","","null","","","null","72","","","","","","","","","","","","","","","",""
"","ISI","","html-keyboard-response","468","475879","0.0-1.0-651.0","0","0","40164","","null","","","null","72","NaN","","","","","","","","","","","","","","",""
"","S2","","html-keyboard-response","469","476038","0.0-1.0-652.0","0","0","40164","","null","","","null","72","","NaN","","","","","","","","","","","","","",""
"","response","","html-keyboard-response","470","476607","0.0-1.0-653.0-0.0","0","0","40164","","564","","","75","72","","","2","72","training","adjacent","DC","4","3","N.jpg","R.jpg","0","0","1","",""
"","feedback","","html-keyboard-response","471","477614","0.0-1.0-654.0-0.0","0","0","40164","","null","","","null","72","","","","","","","","","","","","","","","",""
"","ITI","","html-keyboard-response","472","478622","0.0-1.0-657.0","0","0","40164","","null","","","null","72","","","","","","","","","","","","","","","NaN",""
"","S1","","html-keyboard-response","473","478782","0.0-1.0-659.0","0","0","40164","","null","","","null","73","","","","","","","","","","","","","","","",""
"","ISI","","html-keyboard-response","474","480790","0.0-1.0-660.0","0","0","40164","","null","","","null","73","NaN","","","","","","","","","","","","","","",""
"","S2","","html-keyboard-response","475","480950","0.0-1.0-661.0","0","0","40164","","null","","","null","73","","NaN","","","","","","","","","","","","","",""
"","response","","html-keyboard-response","476","482199","0.0-1.0-662.0-0.0","0","0","40164","","1245","","","75","73","","","2","73","training","adjacent","CB","3","2","R.jpg","O.jpg","0","0","1","",""
"","feedback","","html-keyboard-response","477","483206","0.0-1.0-663.0-0.0","0","0","40164","","null","","","null","73","","","","","","","","","","","","","","","",""
"","ITI","","html-keyboard-response","478","484214","0.0-1.0-666.0","0","0","40164","","null","","","null","73","","","","","","","","","","","","","","","NaN",""
"","S1","","html-keyboard-response","479","484374","0.0-1.0-668.0","0","0","40164","","null","","","null","74","","","","","","","","","","","","","","","",""
"","ISI","","html-keyboard-response","480","486382","0.0-1.0-669.0","0","0","40164","","null","","","null","74","NaN","","","","","","","","","","","","","","",""
"","S2","","html-keyboard-response","481","486542","0.0-1.0-670.0","0","0","40164","","null","","","null","74","","NaN","","","","","","","","","","","","","",""
"","response","","html-keyboard-response","482","486942","0.0-1.0-671.0-0.0","0","0","40164","","395","","","75","74","","","2","74","training","adjacent","BC","2","3","O.jpg","R.jpg","0","1","0","",""
"","feedback","","html-keyboard-response","483","487950","0.0-1.0-672.0-0.0","0","0","40164","","null","","","null","74","","","","","","","","","","","","","","","",""
"","time_out","","html-keyboard-response","484","489958","0.0-1.0-674.0-0.0","0","0","40164","","null","","","null","74","","","","","","","","","","","","","","","",""
"","ITI","","html-keyboard-response","485","490966","0.0-1.0-675.0","0","0","40164","","null","","","null","74","","","","","","","","","","","","","","","NaN",""
"","S1","","html-keyboard-response","486","491126","0.0-1.0-677.0","0","0","40164","","null","","","null","75","","","","","","","","","","","","","","","",""
"","ISI","","html-keyboard-response","487","493134","0.0-1.0-678.0","0","0","40164","","null","","","null","75","NaN","","","","","","","","","","","","","","",""
"","S2","","html-keyboard-response","488","493294","0.0-1.0-679.0","0","0","40164","","null","","","null","75","","NaN","","","","","","","","","","","","","",""
"","response","","html-keyboard-response","489","493647","0.0-1.0-680.0-0.0","0","0","40164","","348","","","75","75","","","2","75","training","adjacent","BC","2","3","O.jpg","R.jpg","0","1","0","",""
"","feedback","","html-keyboard-response","490","494654","0.0-1.0-681.0-0.0","0","0","40164","","null","","","null","75","","","","","","","","","","","","","","","",""
"","time_out","","html-keyboard-response","491","496663","0.0-1.0-683.0-0.0","0","0","40164","","null","","","null","75","","","","","","","","","","","","","","","",""
"","ITI","","html-keyboard-response","492","497670","0.0-1.0-684.0","0","0","40164","","null","","","null","75","","","","","","","","","","","","","","","NaN",""
"","S1","","html-keyboard-response","493","497831","0.0-1.0-686.0","0","0","40164","","null","","","null","76","","","","","","","","","","","","","","","",""
"","ISI","","html-keyboard-response","494","499838","0.0-1.0-687.0","0","0","40164","","null","","","null","76","NaN","","","","","","","","","","","","","","",""
"","S2","","html-keyboard-response","495","499998","0.0-1.0-688.0","0","0","40164","","null","","","null","76","","NaN","","","","","","","","","","","","","",""
"","response","","html-keyboard-response","496","500114","0.0-1.0-689.0-0.0","0","0","40164","","111","","","75","76","","","2","76","training","adjacent","ED","5","4","P.jpg","N.jpg","0","0","1","",""
"","feedback","","html-keyboard-response","497","501126","0.0-1.0-690.0-0.0","0","0","40164","","null","","","null","76","","","","","","","","","","","","","","","",""
"","ITI","","html-keyboard-response","498","502134","0.0-1.0-693.0","0","0","40164","","null","","","null","76","","","","","","","","","","","","","","","NaN",""
"","S1","","html-keyboard-response","499","502294","0.0-1.0-695.0","0","0","40164","","null","","","null","77","","","","","","","","","","","","","","","",""
"","ISI","","html-keyboard-response","500","504303","0.0-1.0-696.0","0","0","40164","","333","","","75","77","k","","","","","","","","","","","","","","",""
"","S2","","html-keyboard-response","501","504462","0.0-1.0-697.0","0","0","40164","","null","","","null","77","","NaN","","","","","","","","","","","","","",""
"","response","","html-keyboard-response","502","504681","0.0-1.0-698.0-0.0","0","0","40164","","214","","","68","77","","","2","77","training","adjacent","CB","3","2","R.jpg","O.jpg","1","0","0","",""
"","feedback","","html-keyboard-response","503","505686","0.0-1.0-699.0-0.0","0","0","40164","","null","","","null","77","","","","","","","","","","","","","","","",""
"","time_out","","html-keyboard-response","504","507694","0.0-1.0-701.0-0.0","0","0","40164","","null","","","null","77","","","","","","","","","","","","","","","",""
"","ITI","","html-keyboard-response","505","508702","0.0-1.0-702.0","0","0","40164","","null","","","null","77","","","","","","","","","","","","","","","NaN",""
"","S1","","html-keyboard-response","506","508862","0.0-1.0-704.0","0","0","40164","","null","","","null","78","","","","","","","","","","","","","","","",""
"","ISI","","html-keyboard-response","507","510871","0.0-1.0-705.0","0","0","40164","","null","","","null","78","NaN","","","","","","","","","","","","","","",""
"","S2","","html-keyboard-response","508","511030","0.0-1.0-706.0","0","0","40164","","null","","","null","78","","NaN","","","","","","","","","","","","","",""
"","response","","html-keyboard-response","509","511407","0.0-1.0-707.0-0.0","0","0","40164","","373","","","75","78","","","2","78","training","adjacent","EF","5","6","P.jpg","Q.jpg","0","1","0","",""
"","feedback","","html-keyboard-response","510","512414","0.0-1.0-708.0-0.0","0","0","40164","","null","","","null","78","","","","","","","","","","","","","","","",""
"","time_out","","html-keyboard-response","511","514422","0.0-1.0-710.0-0.0","0","0","40164","","null","","","null","78","","","","","","","","","","","","","","","",""
"","ITI","","html-keyboard-response","512","515430","0.0-1.0-711.0","0","0","40164","","null","","","null","78","","","","","","","","","","","","","","","NaN",""
"","S1","","html-keyboard-response","513","515590","0.0-1.0-713.0","0","0","40164","","null","","","null","79","","","","","","","","","","","","","","","",""
"","ISI","","html-keyboard-response","514","517599","0.0-1.0-714.0","0","0","40164","","null","","","null","79","NaN","","","","","","","","","","","","","","",""
"","S2","","html-keyboard-response","515","517758","0.0-1.0-715.0","0","0","40164","","null","","","null","79","","NaN","","","","","","","","","","","","","",""
"","response","","html-keyboard-response","516","517967","0.0-1.0-716.0-0.0","0","0","40164","","205","","","75","79","","","2","79","training","adjacent","EF","5","6","P.jpg","Q.jpg","0","1","0","",""
"","feedback","","html-keyboard-response","517","518974","0.0-1.0-717.0-0.0","0","0","40164","","null","","","null","79","","","","","","","","","","","","","","","",""
"","time_out","","html-keyboard-response","518","520982","0.0-1.0-719.0-0.0","0","0","40164","","null","","","null","79","","","","","","","","","","","","","","","",""
"","ITI","","html-keyboard-response","519","521990","0.0-1.0-720.0","0","0","40164","","null","","","null","79","","","","","","","","","","","","","","","NaN",""
"","S1","","html-keyboard-response","520","522150","0.0-1.0-722.0","0","0","40164","","null","","","null","80","","","","","","","","","","","","","","","",""
"","ISI","","html-keyboard-response","521","524158","0.0-1.0-723.0","0","0","40164","","null","","","null","80","NaN","","","","","","","","","","","","","","",""
"","S2","","html-keyboard-response","522","524318","0.0-1.0-724.0","0","0","40164","","null","","","null","80","","NaN","","","","","","","","","","","","","",""
"","response","","html-keyboard-response","523","524576","0.0-1.0-725.0-0.0","0","0","40164","","251","","","68","80","","","2","80","training","adjacent","CB","3","2","R.jpg","O.jpg","1","0","0","",""
"","feedback","","html-keyboard-response","524","525582","0.0-1.0-726.0-0.0","0","0","40164","","null","","","null","80","","","","","","","","","","","","","","","",""
"","time_out","","html-keyboard-response","525","527590","0.0-1.0-728.0-0.0","0","0","40164","","null","","","null","80","","","","","","","","","","","","","","","",""
"","ITI","","html-keyboard-response","526","528599","0.0-1.0-729.0","0","0","40164","","null","","","null","80","","","","","","","","","","","","","","","NaN",""
"","S1","","html-keyboard-response","527","528758","0.0-1.0-731.0","0","0","40164","","null","","","null","81","","","","","","","","","","","","","","","",""
"","ISI","","html-keyboard-response","528","530766","0.0-1.0-732.0","0","0","40164","","null","","","null","81","NaN","","","","","","","","","","","","","","",""
"","S2","","html-keyboard-response","529","530927","0.0-1.0-733.0","0","0","40164","","null","","","null","81","","NaN","","","","","","","","","","","","","",""
"","response","","html-keyboard-response","530","531136","0.0-1.0-734.0-0.0","0","0","40164","","205","","","68","81","","","2","81","training","adjacent","FG","6","7","Q.jpg","L.jpg","1","1","1","",""
"","feedback","","html-keyboard-response","531","532142","0.0-1.0-735.0-0.0","0","0","40164","","null","","","null","81","","","","","","","","","","","","","","","",""
"","ITI","","html-keyboard-response","532","533150","0.0-1.0-738.0","0","0","40164","","null","","","null","81","","","","","","","","","","","","","","","NaN",""
"","S1","","html-keyboard-response","533","533310","0.0-1.0-740.0","0","0","40164","","null","","","null","82","","","","","","","","","","","","","","","",""
"","ISI","","html-keyboard-response","534","535318","0.0-1.0-741.0","0","0","40164","","null","","","null","82","NaN","","","","","","","","","","","","","","",""
"","S2","","html-keyboard-response","535","535478","0.0-1.0-742.0","0","0","40164","","null","","","null","82","","NaN","","","","","","","","","","","","","",""
"","response","","html-keyboard-response","536","535646","0.0-1.0-743.0-0.0","0","0","40164","","164","","","75","82","","","2","82","training","adjacent","AB","1","2","M.jpg","O.jpg","0","1","0","",""
"","feedback","","html-keyboard-response","537","536654","0.0-1.0-744.0-0.0","0","0","40164","","null","","","null","82","","","","","","","","","","","","","","","",""
"","time_out","","html-keyboard-response","538","538662","0.0-1.0-746.0-0.0","0","0","40164","","null","","","null","82","","","","","","","","","","","","","","","",""
"","ITI","","html-keyboard-response","539","539670","0.0-1.0-747.0","0","0","40164","","null","","","null","82","","","","","","","","","","","","","","","NaN",""
"","S1","","html-keyboard-response","540","539830","0.0-1.0-749.0","0","0","40164","","null","","","null","83","","","","","","","","","","","","","","","",""
"","ISI","","html-keyboard-response","541","541838","0.0-1.0-750.0","0","0","40164","","null","","","null","83","NaN","","","","","","","","","","","","","","",""
"","S2","","html-keyboard-response","542","541998","0.0-1.0-751.0","0","0","40164","","null","","","null","83","","NaN","","","","","","","","","","","","","",""
"","response","","html-keyboard-response","543","542543","0.0-1.0-752.0-0.0","0","0","40164","","541","","","68","83","","","2","83","training","adjacent","DE","4","5","N.jpg","P.jpg","1","1","1","",""
"","feedback","","html-keyboard-response","544","543550","0.0-1.0-753.0-0.0","0","0","40164","","null","","","null","83","","","","","","","","","","","","","","","",""
"","ITI","","html-keyboard-response","545","544558","0.0-1.0-756.0","0","0","40164","","null","","","null","83","","","","","","","","","","","","","","","NaN",""
"","S1","","html-keyboard-response","546","544718","0.0-1.0-758.0","0","0","40164","","null","","","null","84","","","","","","","","","","","","","","","",""
"","ISI","","html-keyboard-response","547","546726","0.0-1.0-759.0","0","0","40164","","null","","","null","84","NaN","","","","","","","","","","","","","","",""
"","S2","","html-keyboard-response","548","546886","0.0-1.0-760.0","0","0","40164","","null","","","null","84","","NaN","","","","","","","","","","","","","",""
"","response","","html-keyboard-response","549","547364","0.0-1.0-761.0-0.0","0","0","40164","","474","","","68","84","","","2","84","training","adjacent","FG","6","7","Q.jpg","L.jpg","1","1","1","",""
"","feedback","","html-keyboard-response","550","548374","0.0-1.0-762.0-0.0","0","0","40164","","null","","","null","84","","","","","","","","","","","","","","","",""
"","ITI","","html-keyboard-response","551","549382","0.0-1.0-765.0","0","0","40164","","null","","","null","84","","","","","","","","","","","","","","","NaN",""
"","S1","","html-keyboard-response","552","549542","0.0-1.0-767.0","0","0","40164","","null","","","null","85","","","","","","","","","","","","","","","",""
"","ISI","","html-keyboard-response","553","551550","0.0-1.0-768.0","0","0","40164","","null","","","null","85","NaN","","","","","","","","","","","","","","",""
"","S2","","html-keyboard-response","554","551710","0.0-1.0-769.0","0","0","40164","","null","","","null","85","","NaN","","","","","","","","","","","","","",""
"","response","","html-keyboard-response","555","552189","0.0-1.0-770.0-0.0","0","0","40164","","474","","","75","85","","","2","85","training","adjacent","DC","4","3","N.jpg","R.jpg","0","0","1","",""
"","feedback","","html-keyboard-response","556","553199","0.0-1.0-771.0-0.0","0","0","40164","","null","","","null","85","","","","","","","","","","","","","","","",""
"","ITI","","html-keyboard-response","557","554206","0.0-1.0-774.0","0","0","40164","","null","","","null","85","","","","","","","","","","","","","","","NaN",""
"","S1","","html-keyboard-response","558","554366","0.0-1.0-776.0","0","0","40164","","null","","","null","86","","","","","","","","","","","","","","","",""
"","ISI","","html-keyboard-response","559","556374","0.0-1.0-777.0","0","0","40164","","null","","","null","86","NaN","","","","","","","","","","","","","","",""
"","S2","","html-keyboard-response","560","556535","0.0-1.0-778.0","0","0","40164","","null","","","null","86","","NaN","","","","","","","","","","","","","",""
"","response","","html-keyboard-response","561","556778","0.0-1.0-779.0-0.0","0","0","40164","","238","","","75","86","","","2","86","training","adjacent","GF","7","6","L.jpg","Q.jpg","0","0","1","",""
"","feedback","","html-keyboard-response","562","557790","0.0-1.0-780.0-0.0","0","0","40164","","null","","","null","86","","","","","","","","","","","","","","","",""
"","ITI","","html-keyboard-response","563","558798","0.0-1.0-783.0","0","0","40164","","null","","","null","86","","","","","","","","","","","","","","","NaN",""
"","S1","","html-keyboard-response","564","558958","0.0-1.0-785.0","0","0","40164","","null","","","null","87","","","","","","","","","","","","","","","",""
"","ISI","","html-keyboard-response","565","560966","0.0-1.0-786.0","0","0","40164","","null","","","null","87","NaN","","","","","","","","","","","","","","",""
"","S2","","html-keyboard-response","566","561126","0.0-1.0-787.0","0","0","40164","","null","","","null","87","","NaN","","","","","","","","","","","","","",""
"","response","","html-keyboard-response","567","561867","0.0-1.0-788.0-0.0","0","0","40164","","737","","","68","87","","","2","87","training","adjacent","EF","5","6","P.jpg","Q.jpg","1","1","1","",""
"","feedback","","html-keyboard-response","568","562878","0.0-1.0-789.0-0.0","0","0","40164","","null","","","null","87","","","","","","","","","","","","","","","",""
"","ITI","","html-keyboard-response","569","563886","0.0-1.0-792.0","0","0","40164","","null","","","null","87","","","","","","","","","","","","","","","NaN",""
"","S1","","html-keyboard-response","570","564046","0.0-1.0-794.0","0","0","40164","","null","","","null","88","","","","","","","","","","","","","","","",""
"","ISI","","html-keyboard-response","571","566054","0.0-1.0-795.0","0","0","40164","","null","","","null","88","NaN","","","","","","","","","","","","","","",""
"","S2","","html-keyboard-response","572","566214","0.0-1.0-796.0","0","0","40164","","null","","","null","88","","NaN","","","","","","","","","","","","","",""
"","response","","html-keyboard-response","573","566843","0.0-1.0-797.0-0.0","0","0","40164","","625","","","68","88","","","2","88","training","adjacent","BA","2","1","O.jpg","M.jpg","1","0","0","",""
"","feedback","","html-keyboard-response","574","567854","0.0-1.0-798.0-0.0","0","0","40164","","null","","","null","88","","","","","","","","","","","","","","","",""
"","time_out","","html-keyboard-response","575","569863","0.0-1.0-800.0-0.0","0","0","40164","","null","","","null","88","","","","","","","","","","","","","","","",""
"","ITI","","html-keyboard-response","576","570870","0.0-1.0-801.0","0","0","40164","","null","","","null","88","","","","","","","","","","","","","","","NaN",""
"","S1","","html-keyboard-response","577","571030","0.0-1.0-803.0","0","0","40164","","null","","","null","89","","","","","","","","","","","","","","","",""
"","ISI","","html-keyboard-response","578","573038","0.0-1.0-804.0","0","0","40164","","null","","","null","89","NaN","","","","","","","","","","","","","","",""
"","S2","","html-keyboard-response","579","573198","0.0-1.0-805.0","0","0","40164","","null","","","null","89","","NaN","","","","","","","","","","","","","",""
"","response","","html-keyboard-response","580","573423","0.0-1.0-806.0-0.0","0","0","40164","","221","","","75","89","","","2","89","training","adjacent","AB","1","2","M.jpg","O.jpg","0","1","0","",""
"","feedback","","html-keyboard-response","581","574430","0.0-1.0-807.0-0.0","0","0","40164","","null","","","null","89","","","","","","","","","","","","","","","",""
"","time_out","","html-keyboard-response","582","576438","0.0-1.0-809.0-0.0","0","0","40164","","null","","","null","89","","","","","","","","","","","","","","","",""
"","ITI","","html-keyboard-response","583","577446","0.0-1.0-810.0","0","0","40164","","null","","","null","89","","","","","","","","","","","","","","","NaN",""
