"success","ttype","start_time","trial_type","trial_index","time_elapsed","internal_node_id","warning","missed_checkup","PID","view_history","rt","responses","repeat_instructions","key_press","index","keypress_isi","keypress_S2","block","trial_num","phase","group_type","pair_type","S1_stim","S2_stim","S1_img","S2_img","S1_chosen","S1_higher","accuracy","keypress_iti","total_bonus_tally"
"true","full_screen","d04062023hr1842","fullscreen","0","2893","0.0-0.0","0","0","69129","","","","","","","","","","","","","","","","","","","","","",""
"","instructions","","instructions","1","61145","0.0-1.0-0.0-0.0","0","0","69129","[{""page_index"":0,""viewing_time"":3720},{""page_index"":1,""viewing_time"":32972},{""page_index"":2,""viewing_time"":19275},{""page_index"":3,""viewing_time"":2283}]","58250","","","","","","","","","","","","","","","","","","","",""
"","comprehension_check","","survey-multi-choice","2","84190","0.0-1.0-0.0-1.0","0","0","69129","","23037","{""Q0"":""True"",""Q1"":""D"",""Q2"":""Once the second image appears and while the screen 'MAKE A CHOICE' is shown"",""Q3"":""Green mark"",""Q4"":""either D or K""}","1","","","","","","","","","","","","","","","","","",""
"","missed_instruction_checkup","","html-keyboard-response","3","86398","0.0-1.0-0.0-2.0-0.0","0","1","69129","","2202","","","32","","","","","","","","","","","","","","","","",""
"","instructions","","instructions","4","96056","0.0-1.0-0.1-0.1","0","0","69129","[{""page_index"":0,""viewing_time"":1957},{""page_index"":1,""viewing_time"":4402},{""page_index"":2,""viewing_time"":2076},{""page_index"":3,""viewing_time"":1222}]","9657","","","","","","","","","","","","","","","","","","","",""
"","comprehension_check","","survey-multi-choice","5","135170","0.0-1.0-0.1-1.1","0","0","69129","","39110","{""Q0"":""False"",""Q1"":""D"",""Q2"":""Only when the screen 'MAKE A CHOICE' is shown"",""Q3"":""Green mark"",""Q4"":""either D or K""}","1","","","","","","","","","","","","","","","","","",""
"","missed_instruction_checkup","","html-keyboard-response","6","136711","0.0-1.0-0.1-2.1-0.1","0","1","69129","","1537","","","32","","","","","","","","","","","","","","","","",""
"","instructions","","instructions","7","152878","0.0-1.0-0.2-0.2","0","0","69129","[{""page_index"":0,""viewing_time"":1262},{""page_index"":1,""viewing_time"":11707},{""page_index"":2,""viewing_time"":2341},{""page_index"":3,""viewing_time"":855}]","16165","","","","","","","","","","","","","","","","","","","",""
"","comprehension_check","","survey-multi-choice","8","171784","0.0-1.0-0.2-1.2","0","0","69129","","18902","{""Q0"":""True"",""Q1"":""D"",""Q2"":""Once the second image appears and while the screen 'MAKE A CHOICE' is shown"",""Q3"":""Green mark"",""Q4"":""either D or K""}","1","","","","","","","","","","","","","","","","","",""
"","missed_instruction_checkup","","html-keyboard-response","9","174637","0.0-1.0-0.2-2.2-0.2","0","1","69129","","2851","","","32","","","","","","","","","","","","","","","","",""
"","instructions","","instructions","10","193100","0.0-1.0-0.3-0.3","0","0","69129","[{""page_index"":0,""viewing_time"":2387},{""page_index"":1,""viewing_time"":757},{""page_index"":2,""viewing_time"":822},{""page_index"":3,""viewing_time"":1526},{""page_index"":2,""viewing_time"":421},{""page_index"":1,""viewing_time"":11063},{""page_index"":2,""viewing_time"":711},{""page_index"":3,""viewing_time"":775}]","18462","","","","","","","","","","","","","","","","","","","",""
"","comprehension_check","","survey-multi-choice","11","203074","0.0-1.0-0.3-1.3","0","0","69129","","9970","{""Q0"":""True"",""Q1"":""K"",""Q2"":""Once the second image appears and while the screen 'MAKE A CHOICE' is shown"",""Q3"":""Green mark"",""Q4"":""either D or K""}","0","","","","","","","","","","","","","","","","","",""
"","start_exp","","html-keyboard-response","12","204378","0.0-1.0-1.0","0","0","69129","","1301","","","32","","","","","","","","","","","","","","","","",""
"","S1","","html-keyboard-response","13","204539","0.0-1.0-2.0","0","0","69129","","null","","","null","0","","","","","","","","","","","","","","","",""
"","ISI","","html-keyboard-response","14","206545","0.0-1.0-3.0","0","0","69129","","null","","","null","0","NaN","","","","","","","","","","","","","","",""
"","S2","","html-keyboard-response","15","206708","0.0-1.0-4.0","0","0","69129","","null","","","null","0","","NaN","","","","","","","","","","","","","",""
"","response","","html-keyboard-response","16","208306","0.0-1.0-5.0-0.0","0","0","69129","","1595","","","75","0","","","1","0","training","adjacent","DE","4","5","L.jpg","O.jpg","1","1","1","",""
"","feedback","","html-keyboard-response","17","209313","0.0-1.0-6.0-0.0","0","0","69129","","null","","","null","0","","","","","","","","","","","","","","","",""
"","ITI","","html-keyboard-response","18","210323","0.0-1.0-9.0","0","0","69129","","null","","","null","0","","","","","","","","","","","","","","","NaN",""
"","S1","","html-keyboard-response","19","210485","0.0-1.0-11.0","0","0","69129","","null","","","null","1","","","","","","","","","","","","","","","",""
"","ISI","","html-keyboard-response","20","212488","0.0-1.0-12.0","0","0","69129","","null","","","null","1","NaN","","","","","","","","","","","","","","",""
"","S2","","html-keyboard-response","21","212651","0.0-1.0-13.0","0","0","69129","","null","","","null","1","","NaN","","","","","","","","","","","","","",""
"","response","","html-keyboard-response","22","213049","0.0-1.0-14.0-0.0","0","0","69129","","396","","","75","1","","","1","1","training","adjacent","ED","5","4","O.jpg","L.jpg","1","0","0","",""
"","feedback","","html-keyboard-response","23","214058","0.0-1.0-15.0-0.0","0","0","69129","","null","","","null","1","","","","","","","","","","","","","","","",""
"","time_out","","html-keyboard-response","24","216064","0.0-1.0-17.0-0.0","0","0","69129","","null","","","null","1","","","","","","","","","","","","","","","",""
"","ITI","","html-keyboard-response","25","217076","0.0-1.0-18.0","0","0","69129","","null","","","null","1","","","","","","","","","","","","","","","NaN",""
"","S1","","html-keyboard-response","26","217236","0.0-1.0-20.0","0","0","69129","","null","","","null","2","","","","","","","","","","","","","","","",""
"","ISI","","html-keyboard-response","27","219245","0.0-1.0-21.0","0","0","69129","","null","","","null","2","NaN","","","","","","","","","","","","","","",""
"","S2","","html-keyboard-response","28","219402","0.0-1.0-22.0","0","0","69129","","null","","","null","2","","NaN","","","","","","","","","","","","","",""
"","response","","html-keyboard-response","29","219597","0.0-1.0-23.0-0.0","0","0","69129","","193","","","68","2","","","1","2","training","adjacent","EF","5","6","O.jpg","P.jpg","0","1","0","",""
"","feedback","","html-keyboard-response","30","220605","0.0-1.0-24.0-0.0","0","0","69129","","null","","","null","2","","","","","","","","","","","","","","","",""
"","time_out","","html-keyboard-response","31","222612","0.0-1.0-26.0-0.0","0","0","69129","","null","","","null","2","","","","","","","","","","","","","","","",""
"","ITI","","html-keyboard-response","32","223616","0.0-1.0-27.0","0","0","69129","","null","","","null","2","","","","","","","","","","","","","","","NaN",""
"","S1","","html-keyboard-response","33","223780","0.0-1.0-29.0","0","0","69129","","null","","","null","3","","","","","","","","","","","","","","","",""
"","ISI","","html-keyboard-response","34","225787","0.0-1.0-30.0","0","0","69129","","null","","","null","3","NaN","","","","","","","","","","","","","","",""
"","S2","","html-keyboard-response","35","225945","0.0-1.0-31.0","0","0","69129","","null","","","null","3","","NaN","","","","","","","","","","","","","",""
"","response","","html-keyboard-response","36","226139","0.0-1.0-32.0-0.0","0","0","69129","","193","","","75","3","","","1","3","training","adjacent","BA","2","1","M.jpg","Q.jpg","1","0","0","",""
"","feedback","","html-keyboard-response","37","227147","0.0-1.0-33.0-0.0","0","0","69129","","null","","","null","3","","","","","","","","","","","","","","","",""
"","time_out","","html-keyboard-response","38","229156","0.0-1.0-35.0-0.0","0","0","69129","","null","","","null","3","","","","","","","","","","","","","","","",""
"","ITI","","html-keyboard-response","39","230164","0.0-1.0-36.0","0","0","69129","","null","","","null","3","","","","","","","","","","","","","","","NaN",""
"","S1","","html-keyboard-response","40","230321","0.0-1.0-38.0","0","0","69129","","null","","","null","4","","","","","","","","","","","","","","","",""
"","ISI","","html-keyboard-response","41","232330","0.0-1.0-39.0","0","0","69129","","null","","","null","4","NaN","","","","","","","","","","","","","","",""
"","S2","","html-keyboard-response","42","232490","0.0-1.0-40.0","0","0","69129","","null","","","null","4","","NaN","","","","","","","","","","","","","",""
"","response","","html-keyboard-response","43","232725","0.0-1.0-41.0-0.0","0","0","69129","","234","","","75","4","","","1","4","training","adjacent","CB","3","2","N.jpg","M.jpg","1","0","0","",""
"","feedback","","html-keyboard-response","44","233728","0.0-1.0-42.0-0.0","0","0","69129","","null","","","null","4","","","","","","","","","","","","","","","",""
"","time_out","","html-keyboard-response","45","235737","0.0-1.0-44.0-0.0","0","0","69129","","null","","","null","4","","","","","","","","","","","","","","","",""
"","ITI","","html-keyboard-response","46","236748","0.0-1.0-45.0","0","0","69129","","null","","","null","4","","","","","","","","","","","","","","","NaN",""
"","S1","","html-keyboard-response","47","236904","0.0-1.0-47.0","0","0","69129","","null","","","null","5","","","","","","","","","","","","","","","",""
"","ISI","","html-keyboard-response","48","238912","0.0-1.0-48.0","0","0","69129","","null","","","null","5","NaN","","","","","","","","","","","","","","",""
"","S2","","html-keyboard-response","49","239075","0.0-1.0-49.0","0","0","69129","","null","","","null","5","","NaN","","","","","","","","","","","","","",""
"","response","","html-keyboard-response","50","239510","0.0-1.0-50.0-0.0","0","0","69129","","433","","","68","5","","","1","5","training","adjacent","FE","6","5","P.jpg","O.jpg","0","0","1","",""
"","feedback","","html-keyboard-response","51","240515","0.0-1.0-51.0-0.0","0","0","69129","","null","","","null","5","","","","","","","","","","","","","","","",""
"","ITI","","html-keyboard-response","52","241525","0.0-1.0-54.0","0","0","69129","","null","","","null","5","","","","","","","","","","","","","","","NaN",""
"","S1","","html-keyboard-response","53","241682","0.0-1.0-56.0","0","0","69129","","null","","","null","6","","","","","","","","","","","","","","","",""
"","ISI","","html-keyboard-response","54","243690","0.0-1.0-57.0","0","0","69129","","null","","","null","6","NaN","","","","","","","","","","","","","","",""
"","S2","","html-keyboard-response","55","243852","0.0-1.0-58.0","0","0","69129","","null","","","null","6","","NaN","","","","","","","","","","","","","",""
"","response","","html-keyboard-response","56","244013","0.0-1.0-59.0-0.0","0","0","69129","","159","","","68","6","","","1","6","training","adjacent","CD","3","4","N.jpg","L.jpg","0","1","0","",""
"","feedback","","html-keyboard-response","57","245019","0.0-1.0-60.0-0.0","0","0","69129","","null","","","null","6","","","","","","","","","","","","","","","",""
"","time_out","","html-keyboard-response","58","247028","0.0-1.0-62.0-0.0","0","0","69129","","null","","","null","6","","","","","","","","","","","","","","","",""
"","ITI","","html-keyboard-response","59","248033","0.0-1.0-63.0","0","0","69129","","null","","","null","6","","","","","","","","","","","","","","","NaN",""
"","S1","","html-keyboard-response","60","248195","0.0-1.0-65.0","0","0","69129","","null","","","null","7","","","","","","","","","","","","","","","",""
"","ISI","","html-keyboard-response","61","250204","0.0-1.0-66.0","0","0","69129","","null","","","null","7","NaN","","","","","","","","","","","","","","",""
"","S2","","html-keyboard-response","62","250360","0.0-1.0-67.0","0","0","69129","","null","","","null","7","","NaN","","","","","","","","","","","","","",""
"","response","","html-keyboard-response","63","250615","0.0-1.0-68.0-0.0","0","0","69129","","253","","","75","7","","","1","7","training","adjacent","EF","5","6","O.jpg","P.jpg","1","1","1","",""
"","feedback","","html-keyboard-response","64","251626","0.0-1.0-69.0-0.0","0","0","69129","","null","","","null","7","","","","","","","","","","","","","","","",""
"","ITI","","html-keyboard-response","65","252636","0.0-1.0-72.0","0","0","69129","","null","","","null","7","","","","","","","","","","","","","","","NaN",""
"","S1","","html-keyboard-response","66","252792","0.0-1.0-74.0","0","0","69129","","null","","","null","8","","","","","","","","","","","","","","","",""
"","ISI","","html-keyboard-response","67","254801","0.0-1.0-75.0","0","0","69129","","null","","","null","8","NaN","","","","","","","","","","","","","","",""
"","S2","","html-keyboard-response","68","254963","0.0-1.0-76.0","0","0","69129","","null","","","null","8","","NaN","","","","","","","","","","","","","",""
"","response","","html-keyboard-response","69","255539","0.0-1.0-77.0-0.0","0","0","69129","","574","","","75","8","","","1","8","training","adjacent","CB","3","2","N.jpg","M.jpg","1","0","0","",""
"","feedback","","html-keyboard-response","70","256547","0.0-1.0-78.0-0.0","0","0","69129","","null","","","null","8","","","","","","","","","","","","","","","",""
"","time_out","","html-keyboard-response","71","258556","0.0-1.0-80.0-0.0","0","0","69129","","null","","","null","8","","","","","","","","","","","","","","","",""
"","ITI","","html-keyboard-response","72","259561","0.0-1.0-81.0","0","0","69129","","null","","","null","8","","","","","","","","","","","","","","","NaN",""
"","S1","","html-keyboard-response","73","259723","0.0-1.0-83.0","0","0","69129","","null","","","null","9","","","","","","","","","","","","","","","",""
"","ISI","","html-keyboard-response","74","261733","0.0-1.0-84.0","0","0","69129","","null","","","null","9","NaN","","","","","","","","","","","","","","",""
"","S2","","html-keyboard-response","75","261890","0.0-1.0-85.0","0","0","69129","","null","","","null","9","","NaN","","","","","","","","","","","","","",""
"","response","","html-keyboard-response","76","262081","0.0-1.0-86.0-0.0","0","0","69129","","189","","","68","9","","","1","9","training","adjacent","CB","3","2","N.jpg","M.jpg","0","0","1","",""
"","feedback","","html-keyboard-response","77","263090","0.0-1.0-87.0-0.0","0","0","69129","","null","","","null","9","","","","","","","","","","","","","","","",""
"","ITI","","html-keyboard-response","78","264100","0.0-1.0-90.0","0","0","69129","","null","","","null","9","","","","","","","","","","","","","","","NaN",""
"","S1","","html-keyboard-response","79","264257","0.0-1.0-92.0","0","0","69129","","null","","","null","10","","","","","","","","","","","","","","","",""
"","ISI","","html-keyboard-response","80","266265","0.0-1.0-93.0","0","0","69129","","null","","","null","10","NaN","","","","","","","","","","","","","","",""
"","S2","","html-keyboard-response","81","266428","0.0-1.0-94.0","0","0","69129","","null","","","null","10","","NaN","","","","","","","","","","","","","",""
"","response","","html-keyboard-response","82","266590","0.0-1.0-95.0-0.0","0","0","69129","","160","","","75","10","","","1","10","training","adjacent","DC","4","3","L.jpg","N.jpg","1","0","0","",""
"","feedback","","html-keyboard-response","83","267602","0.0-1.0-96.0-0.0","0","0","69129","","null","","","null","10","","","","","","","","","","","","","","","",""
"","time_out","","html-keyboard-response","84","269610","0.0-1.0-98.0-0.0","0","0","69129","","null","","","null","10","","","","","","","","","","","","","","","",""
"","ITI","","html-keyboard-response","85","270620","0.0-1.0-99.0","0","0","69129","","null","","","null","10","","","","","","","","","","","","","","","NaN",""
"","S1","","html-keyboard-response","86","270777","0.0-1.0-101.0","0","0","69129","","null","","","null","11","","","","","","","","","","","","","","","",""
"","ISI","","html-keyboard-response","87","272784","0.0-1.0-102.0","0","0","69129","","null","","","null","11","NaN","","","","","","","","","","","","","","",""
"","S2","","html-keyboard-response","88","272947","0.0-1.0-103.0","0","0","69129","","null","","","null","11","","NaN","","","","","","","","","","","","","",""
"","response","","html-keyboard-response","89","273262","0.0-1.0-104.0-0.0","0","0","69129","","312","","","68","11","","","1","11","training","adjacent","ED","5","4","O.jpg","L.jpg","0","0","1","",""
"","feedback","","html-keyboard-response","90","274276","0.0-1.0-105.0-0.0","0","0","69129","","null","","","null","11","","","","","","","","","","","","","","","",""
"","ITI","","html-keyboard-response","91","275280","0.0-1.0-108.0","0","0","69129","","null","","","null","11","","","","","","","","","","","","","","","NaN",""
"","S1","","html-keyboard-response","92","275444","0.0-1.0-110.0","0","0","69129","","null","","","null","12","","","","","","","","","","","","","","","",""
"","ISI","","html-keyboard-response","93","277452","0.0-1.0-111.0","0","0","69129","","null","","","null","12","NaN","","","","","","","","","","","","","","",""
"","S2","","html-keyboard-response","94","277609","0.0-1.0-112.0","0","0","69129","","null","","","null","12","","NaN","","","","","","","","","","","","","",""
"","response","","html-keyboard-response","95","278001","0.0-1.0-113.0-0.0","0","0","69129","","391","","","75","12","","","1","12","training","adjacent","EF","5","6","O.jpg","P.jpg","1","1","1","",""
"","feedback","","html-keyboard-response","96","279013","0.0-1.0-114.0-0.0","0","0","69129","","null","","","null","12","","","","","","","","","","","","","","","",""
"","ITI","","html-keyboard-response","97","280017","0.0-1.0-117.0","0","0","69129","","null","","","null","12","","","","","","","","","","","","","","","NaN",""
"","S1","","html-keyboard-response","98","280180","0.0-1.0-119.0","0","0","69129","","null","","","null","13","","","","","","","","","","","","","","","",""
"","ISI","","html-keyboard-response","99","282189","0.0-1.0-120.0","0","0","69129","","null","","","null","13","NaN","","","","","","","","","","","","","","",""
"","S2","","html-keyboard-response","100","282347","0.0-1.0-121.0","0","0","69129","","null","","","null","13","","NaN","","","","","","","","","","","","","",""
"","response","","html-keyboard-response","101","282590","0.0-1.0-122.0-0.0","0","0","69129","","242","","","75","13","","","1","13","training","adjacent","AB","1","2","Q.jpg","M.jpg","1","1","1","",""
"","feedback","","html-keyboard-response","102","283605","0.0-1.0-123.0-0.0","0","0","69129","","null","","","null","13","","","","","","","","","","","","","","","",""
"","ITI","","html-keyboard-response","103","284609","0.0-1.0-126.0","0","0","69129","","null","","","null","13","","","","","","","","","","","","","","","NaN",""
"","S1","","html-keyboard-response","104","284772","0.0-1.0-128.0","0","0","69129","","null","","","null","14","","","","","","","","","","","","","","","",""
"","ISI","","html-keyboard-response","105","286780","0.0-1.0-129.0","0","0","69129","","null","","","null","14","NaN","","","","","","","","","","","","","","",""
"","S2","","html-keyboard-response","106","286937","0.0-1.0-130.0","0","0","69129","","null","","","null","14","","NaN","","","","","","","","","","","","","",""
"","response","","html-keyboard-response","107","287467","0.0-1.0-131.0-0.0","0","0","69129","","528","","","68","14","","","1","14","training","adjacent","FE","6","5","P.jpg","O.jpg","0","0","1","",""
"","feedback","","html-keyboard-response","108","288472","0.0-1.0-132.0-0.0","0","0","69129","","null","","","null","14","","","","","","","","","","","","","","","",""
"","ITI","","html-keyboard-response","109","289480","0.0-1.0-135.0","0","0","69129","","null","","","null","14","","","","","","","","","","","","","","","NaN",""
"","S1","","html-keyboard-response","110","289642","0.0-1.0-137.0","0","0","69129","","null","","","null","15","","","","","","","","","","","","","","","",""
"","ISI","","html-keyboard-response","111","291651","0.0-1.0-138.0","0","0","69129","","null","","","null","15","NaN","","","","","","","","","","","","","","",""
"","S2","","html-keyboard-response","112","291813","0.0-1.0-139.0","0","0","69129","","null","","","null","15","","NaN","","","","","","","","","","","","","",""
"","response","","html-keyboard-response","113","292330","0.0-1.0-140.0-0.0","0","0","69129","","515","","","75","15","","","1","15","training","adjacent","DE","4","5","L.jpg","O.jpg","1","1","1","",""
"","feedback","","html-keyboard-response","114","293340","0.0-1.0-141.0-0.0","0","0","69129","","null","","","null","15","","","","","","","","","","","","","","","",""
"","ITI","","html-keyboard-response","115","294344","0.0-1.0-144.0","0","0","69129","","null","","","null","15","","","","","","","","","","","","","","","NaN",""
"","S1","","html-keyboard-response","116","294508","0.0-1.0-146.0","0","0","69129","","null","","","null","16","","","","","","","","","","","","","","","",""
"","ISI","","html-keyboard-response","117","296516","0.0-1.0-147.0","0","0","69129","","null","","","null","16","NaN","","","","","","","","","","","","","","",""
"","S2","","html-keyboard-response","118","296672","0.0-1.0-148.0","0","0","69129","","null","","","null","16","","NaN","","","","","","","","","","","","","",""
"","response","","html-keyboard-response","119","297137","0.0-1.0-149.0-0.0","0","0","69129","","462","","","68","16","","","1","16","training","adjacent","FG","6","7","P.jpg","R.jpg","0","1","0","",""
"","feedback","","html-keyboard-response","120","298146","0.0-1.0-150.0-0.0","0","0","69129","","null","","","null","16","","","","","","","","","","","","","","","",""
"","time_out","","html-keyboard-response","121","300155","0.0-1.0-152.0-0.0","0","0","69129","","null","","","null","16","","","","","","","","","","","","","","","",""
"","ITI","","html-keyboard-response","122","301160","0.0-1.0-153.0","0","0","69129","","null","","","null","16","","","","","","","","","","","","","","","NaN",""
"","S1","","html-keyboard-response","123","301321","0.0-1.0-155.0","0","0","69129","","null","","","null","17","","","","","","","","","","","","","","","",""
"","ISI","","html-keyboard-response","124","303331","0.0-1.0-156.0","0","0","69129","","null","","","null","17","NaN","","","","","","","","","","","","","","",""
"","S2","","html-keyboard-response","125","303489","0.0-1.0-157.0","0","0","69129","","null","","","null","17","","NaN","","","","","","","","","","","","","",""
"","response","","html-keyboard-response","126","303781","0.0-1.0-158.0-0.0","0","0","69129","","291","","","75","17","","","1","17","training","adjacent","BC","2","3","M.jpg","N.jpg","1","1","1","",""
"","feedback","","html-keyboard-response","127","304786","0.0-1.0-159.0-0.0","0","0","69129","","null","","","null","17","","","","","","","","","","","","","","","",""
"","ITI","","html-keyboard-response","128","305792","0.0-1.0-162.0","0","0","69129","","null","","","null","17","","","","","","","","","","","","","","","NaN",""
"","S1","","html-keyboard-response","129","305955","0.0-1.0-164.0","0","0","69129","","null","","","null","18","","","","","","","","","","","","","","","",""
"","ISI","","html-keyboard-response","130","307963","0.0-1.0-165.0","0","0","69129","","null","","","null","18","NaN","","","","","","","","","","","","","","",""
"","S2","","html-keyboard-response","131","308121","0.0-1.0-166.0","0","0","69129","","null","","","null","18","","NaN","","","","","","","","","","","","","",""
"","response","","html-keyboard-response","132","308356","0.0-1.0-167.0-0.0","0","0","69129","","233","","","68","18","","","1","18","training","adjacent","ED","5","4","O.jpg","L.jpg","0","0","1","",""
"","feedback","","html-keyboard-response","133","309362","0.0-1.0-168.0-0.0","0","0","69129","","null","","","null","18","","","","","","","","","","","","","","","",""
"","ITI","","html-keyboard-response","134","310372","0.0-1.0-171.0","0","0","69129","","null","","","null","18","","","","","","","","","","","","","","","NaN",""
"","S1","","html-keyboard-response","135","310528","0.0-1.0-173.0","0","0","69129","","null","","","null","19","","","","","","","","","","","","","","","",""
"","ISI","","html-keyboard-response","136","312537","0.0-1.0-174.0","0","0","69129","","null","","","null","19","NaN","","","","","","","","","","","","","","",""
"","S2","","html-keyboard-response","137","312700","0.0-1.0-175.0","0","0","69129","","null","","","null","19","","NaN","","","","","","","","","","","","","",""
"","response","","html-keyboard-response","138","312842","0.0-1.0-176.0-0.0","0","0","69129","","139","","","75","19","","","1","19","training","adjacent","FG","6","7","P.jpg","R.jpg","1","1","1","",""
"","feedback","","html-keyboard-response","139","313849","0.0-1.0-177.0-0.0","0","0","69129","","null","","","null","19","","","","","","","","","","","","","","","",""
"","ITI","","html-keyboard-response","140","314859","0.0-1.0-180.0","0","0","69129","","null","","","null","19","","","","","","","","","","","","","","","NaN",""
"","S1","","html-keyboard-response","141","315017","0.0-1.0-182.0","0","0","69129","","null","","","null","20","","","","","","","","","","","","","","","",""
"","ISI","","html-keyboard-response","142","317024","0.0-1.0-183.0","0","0","69129","","null","","","null","20","NaN","","","","","","","","","","","","","","",""
"","S2","","html-keyboard-response","143","317187","0.0-1.0-184.0","0","0","69129","","null","","","null","20","","NaN","","","","","","","","","","","","","",""
"","response","","html-keyboard-response","144","317482","0.0-1.0-185.0-0.0","0","0","69129","","293","","","68","20","","","1","20","training","adjacent","DE","4","5","L.jpg","O.jpg","0","1","0","",""
"","feedback","","html-keyboard-response","145","318493","0.0-1.0-186.0-0.0","0","0","69129","","null","","","null","20","","","","","","","","","","","","","","","",""
"","time_out","","html-keyboard-response","146","320496","0.0-1.0-188.0-0.0","0","0","69129","","null","","","null","20","","","","","","","","","","","","","","","",""
"","ITI","","html-keyboard-response","147","321506","0.0-1.0-189.0","0","0","69129","","null","","","null","20","","","","","","","","","","","","","","","NaN",""
"","S1","","html-keyboard-response","148","321668","0.0-1.0-191.0","0","0","69129","","null","","","null","21","","","","","","","","","","","","","","","",""
"","ISI","","html-keyboard-response","149","323677","0.0-1.0-192.0","0","0","69129","","null","","","null","21","NaN","","","","","","","","","","","","","","",""
"","S2","","html-keyboard-response","150","323834","0.0-1.0-193.0","0","0","69129","","null","","","null","21","","NaN","","","","","","","","","","","","","",""
"","response","","html-keyboard-response","151","324177","0.0-1.0-194.0-0.0","0","0","69129","","342","","","68","21","","","1","21","training","adjacent","FE","6","5","P.jpg","O.jpg","0","0","1","",""
"","feedback","","html-keyboard-response","152","325187","0.0-1.0-195.0-0.0","0","0","69129","","null","","","null","21","","","","","","","","","","","","","","","",""
"","ITI","","html-keyboard-response","153","326196","0.0-1.0-198.0","0","0","69129","","null","","","null","21","","","","","","","","","","","","","","","NaN",""
"","S1","","html-keyboard-response","154","326353","0.0-1.0-200.0","0","0","69129","","null","","","null","22","","","","","","","","","","","","","","","",""
"","ISI","","html-keyboard-response","155","328363","0.0-1.0-201.0","0","0","69129","","null","","","null","22","NaN","","","","","","","","","","","","","","",""
"","S2","","html-keyboard-response","156","328524","0.0-1.0-202.0","0","0","69129","","null","","","null","22","","NaN","","","","","","","","","","","","","",""
"","response","","html-keyboard-response","157","329023","0.0-1.0-203.0-0.0","0","0","69129","","498","","","68","22","","","1","22","training","adjacent","GF","7","6","R.jpg","P.jpg","0","0","1","",""
"","feedback","","html-keyboard-response","158","330033","0.0-1.0-204.0-0.0","0","0","69129","","null","","","null","22","","","","","","","","","","","","","","","",""
"","ITI","","html-keyboard-response","159","331043","0.0-1.0-207.0","0","0","69129","","null","","","null","22","","","","","","","","","","","","","","","NaN",""
"","S1","","html-keyboard-response","160","331201","0.0-1.0-209.0","0","0","69129","","null","","","null","23","","","","","","","","","","","","","","","",""
"","ISI","","html-keyboard-response","161","333208","0.0-1.0-210.0","0","0","69129","","null","","","null","23","NaN","","","","","","","","","","","","","","",""
"","S2","","html-keyboard-response","162","333372","0.0-1.0-211.0","0","0","69129","","null","","","null","23","","NaN","","","","","","","","","","","","","",""
"","response","","html-keyboard-response","163","334193","0.0-1.0-212.0-0.0","0","0","69129","","819","","","68","23","","","1","23","training","adjacent","BA","2","1","M.jpg","Q.jpg","0","0","1","",""
"","feedback","","html-keyboard-response","164","335201","0.0-1.0-213.0-0.0","0","0","69129","","null","","","null","23","","","","","","","","","","","","","","","",""
"","ITI","","html-keyboard-response","165","336210","0.0-1.0-216.0","0","0","69129","","null","","","null","23","","","","","","","","","","","","","","","NaN",""
"","S1","","html-keyboard-response","166","336371","0.0-1.0-218.0","0","0","69129","","null","","","null","24","","","","","","","","","","","","","","","",""
"","ISI","","html-keyboard-response","167","338381","0.0-1.0-219.0","0","0","69129","","null","","","null","24","NaN","","","","","","","","","","","","","","",""
"","S2","","html-keyboard-response","168","338539","0.0-1.0-220.0","0","0","69129","","null","","","null","24","","NaN","","","","","","","","","","","","","",""
"","response","","html-keyboard-response","169","338865","0.0-1.0-221.0-0.0","0","0","69129","","324","","","75","24","","","1","24","training","adjacent","AB","1","2","Q.jpg","M.jpg","1","1","1","",""
"","feedback","","html-keyboard-response","170","339872","0.0-1.0-222.0-0.0","0","0","69129","","null","","","null","24","","","","","","","","","","","","","","","",""
"","ITI","","html-keyboard-response","171","340882","0.0-1.0-225.0","0","0","69129","","null","","","null","24","","","","","","","","","","","","","","","NaN",""
"","S1","","html-keyboard-response","172","341043","0.0-1.0-227.0","0","0","69129","","null","","","null","25","","","","","","","","","","","","","","","",""
"","ISI","","html-keyboard-response","173","343048","0.0-1.0-228.0","0","0","69129","","null","","","null","25","NaN","","","","","","","","","","","","","","",""
"","S2","","html-keyboard-response","174","343210","0.0-1.0-229.0","0","0","69129","","null","","","null","25","","NaN","","","","","","","","","","","","","",""
"","response","","html-keyboard-response","175","343526","0.0-1.0-230.0-0.0","0","0","69129","","313","","","75","25","","","1","25","training","adjacent","AB","1","2","Q.jpg","M.jpg","1","1","1","",""
"","feedback","","html-keyboard-response","176","344540","0.0-1.0-231.0-0.0","0","0","69129","","null","","","null","25","","","","","","","","","","","","","","","",""
"","ITI","","html-keyboard-response","177","345545","0.0-1.0-234.0","0","0","69129","","null","","","null","25","","","","","","","","","","","","","","","NaN",""
"","S1","","html-keyboard-response","178","345706","0.0-1.0-236.0","0","0","69129","","null","","","null","26","","","","","","","","","","","","","","","",""
"","ISI","","html-keyboard-response","179","347715","0.0-1.0-237.0","0","0","69129","","null","","","null","26","NaN","","","","","","","","","","","","","","",""
"","S2","","html-keyboard-response","180","347872","0.0-1.0-238.0","0","0","69129","","null","","","null","26","","NaN","","","","","","","","","","","","","",""
"","response","","html-keyboard-response","181","348103","0.0-1.0-239.0-0.0","0","0","69129","","229","","","68","26","","","1","26","training","adjacent","BA","2","1","M.jpg","Q.jpg","0","0","1","",""
"","feedback","","html-keyboard-response","182","349114","0.0-1.0-240.0-0.0","0","0","69129","","null","","","null","26","","","","","","","","","","","","","","","",""
"","ITI","","html-keyboard-response","183","350124","0.0-1.0-243.0","0","0","69129","","null","","","null","26","","","","","","","","","","","","","","","NaN",""
"","S1","","html-keyboard-response","184","350281","0.0-1.0-245.0","0","0","69129","","null","","","null","27","","","","","","","","","","","","","","","",""
"","ISI","","html-keyboard-response","185","352289","0.0-1.0-246.0","0","0","69129","","null","","","null","27","NaN","","","","","","","","","","","","","","",""
"","S2","","html-keyboard-response","186","352452","0.0-1.0-247.0","0","0","69129","","null","","","null","27","","NaN","","","","","","","","","","","","","",""
"","response","","html-keyboard-response","187","352699","0.0-1.0-248.0-0.0","0","0","69129","","246","","","68","27","","","1","27","training","adjacent","BC","2","3","M.jpg","N.jpg","0","1","0","",""
"","feedback","","html-keyboard-response","188","353711","0.0-1.0-249.0-0.0","0","0","69129","","null","","","null","27","","","","","","","","","","","","","","","",""
"","time_out","","html-keyboard-response","189","355720","0.0-1.0-251.0-0.0","0","0","69129","","null","","","null","27","","","","","","","","","","","","","","","",""
"","ITI","","html-keyboard-response","190","356730","0.0-1.0-252.0","0","0","69129","","null","","","null","27","","","","","","","","","","","","","","","NaN",""
"","S1","","html-keyboard-response","191","356892","0.0-1.0-254.0","0","0","69129","","null","","","null","28","","","","","","","","","","","","","","","",""
"","ISI","","html-keyboard-response","192","358895","0.0-1.0-255.0","0","0","69129","","null","","","null","28","NaN","","","","","","","","","","","","","","",""
"","S2","","html-keyboard-response","193","359058","0.0-1.0-256.0","0","0","69129","","null","","","null","28","","NaN","","","","","","","","","","","","","",""
"","response","","html-keyboard-response","194","359313","0.0-1.0-257.0-0.0","0","0","69129","","253","","","75","28","","","1","28","training","adjacent","ED","5","4","O.jpg","L.jpg","1","0","0","",""
"","feedback","","html-keyboard-response","195","360324","0.0-1.0-258.0-0.0","0","0","69129","","null","","","null","28","","","","","","","","","","","","","","","",""
"","time_out","","html-keyboard-response","196","362332","0.0-1.0-260.0-0.0","0","0","69129","","null","","","null","28","","","","","","","","","","","","","","","",""
"","ITI","","html-keyboard-response","197","363337","0.0-1.0-261.0","0","0","69129","","null","","","null","28","","","","","","","","","","","","","","","NaN",""
"","S1","","html-keyboard-response","198","363499","0.0-1.0-263.0","0","0","69129","","null","","","null","29","","","","","","","","","","","","","","","",""
"","ISI","","html-keyboard-response","199","365507","0.0-1.0-264.0","0","0","69129","","null","","","null","29","NaN","","","","","","","","","","","","","","",""
"","S2","","html-keyboard-response","200","365664","0.0-1.0-265.0","0","0","69129","","null","","","null","29","","NaN","","","","","","","","","","","","","",""
"","response","","html-keyboard-response","201","365915","0.0-1.0-266.0-0.0","0","0","69129","","249","","","68","29","","","1","29","training","adjacent","GF","7","6","R.jpg","P.jpg","0","0","1","",""
"","feedback","","html-keyboard-response","202","366922","0.0-1.0-267.0-0.0","0","0","69129","","null","","","null","29","","","","","","","","","","","","","","","",""
"","ITI","","html-keyboard-response","203","367929","0.0-1.0-270.0","0","0","69129","","null","","","null","29","","","","","","","","","","","","","","","NaN",""
"","S1","","html-keyboard-response","204","368093","0.0-1.0-272.0","0","0","69129","","null","","","null","30","","","","","","","","","","","","","","","",""
"","ISI","","html-keyboard-response","205","370099","0.0-1.0-273.0","0","0","69129","","null","","","null","30","NaN","","","","","","","","","","","","","","",""
"","S2","","html-keyboard-response","206","370256","0.0-1.0-274.0","0","0","69129","","null","","","null","30","","NaN","","","","","","","","","","","","","",""
"","response","","html-keyboard-response","207","370546","0.0-1.0-275.0-0.0","0","0","69129","","288","","","68","30","","","1","30","training","adjacent","BC","2","3","M.jpg","N.jpg","0","1","0","",""
"","feedback","","html-keyboard-response","208","371556","0.0-1.0-276.0-0.0","0","0","69129","","null","","","null","30","","","","","","","","","","","","","","","",""
"","time_out","","html-keyboard-response","209","373565","0.0-1.0-278.0-0.0","0","0","69129","","null","","","null","30","","","","","","","","","","","","","","","",""
"","ITI","","html-keyboard-response","210","374569","0.0-1.0-279.0","0","0","69129","","null","","","null","30","","","","","","","","","","","","","","","NaN",""
"","S1","","html-keyboard-response","211","374731","0.0-1.0-281.0","0","0","69129","","null","","","null","31","","","","","","","","","","","","","","","",""
"","ISI","","html-keyboard-response","212","376740","0.0-1.0-282.0","0","0","69129","","null","","","null","31","NaN","","","","","","","","","","","","","","",""
"","S2","","html-keyboard-response","213","376897","0.0-1.0-283.0","0","0","69129","","null","","","null","31","","NaN","","","","","","","","","","","","","",""
"","response","","html-keyboard-response","214","377298","0.0-1.0-284.0-0.0","0","0","69129","","399","","","68","31","","","1","31","training","adjacent","DC","4","3","L.jpg","N.jpg","0","0","1","",""
"","feedback","","html-keyboard-response","215","378308","0.0-1.0-285.0-0.0","0","0","69129","","null","","","null","31","","","","","","","","","","","","","","","",""
"","ITI","","html-keyboard-response","216","379313","0.0-1.0-288.0","0","0","69129","","null","","","null","31","","","","","","","","","","","","","","","NaN",""
"","S1","","html-keyboard-response","217","379475","0.0-1.0-290.0","0","0","69129","","null","","","null","32","","","","","","","","","","","","","","","",""
"","ISI","","html-keyboard-response","218","381483","0.0-1.0-291.0","0","0","69129","","null","","","null","32","NaN","","","","","","","","","","","","","","",""
"","S2","","html-keyboard-response","219","381643","0.0-1.0-292.0","0","0","69129","","null","","","null","32","","NaN","","","","","","","","","","","","","",""
"","response","","html-keyboard-response","220","382233","0.0-1.0-293.0-0.0","0","0","69129","","589","","","75","32","","","1","32","training","adjacent","CD","3","4","N.jpg","L.jpg","1","1","1","",""
"","feedback","","html-keyboard-response","221","383242","0.0-1.0-294.0-0.0","0","0","69129","","null","","","null","32","","","","","","","","","","","","","","","",""
"","ITI","","html-keyboard-response","222","384251","0.0-1.0-297.0","0","0","69129","","null","","","null","32","","","","","","","","","","","","","","","NaN",""
"","S1","","html-keyboard-response","223","384411","0.0-1.0-299.0","0","0","69129","","null","","","null","33","","","","","","","","","","","","","","","",""
"","ISI","","html-keyboard-response","224","386417","0.0-1.0-300.0","0","0","69129","","null","","","null","33","NaN","","","","","","","","","","","","","","",""
"","S2","","html-keyboard-response","225","386580","0.0-1.0-301.0","0","0","69129","","null","","","null","33","","NaN","","","","","","","","","","","","","",""
"","response","","html-keyboard-response","226","387327","0.0-1.0-302.0-0.0","0","0","69129","","745","","","68","33","","","1","33","training","adjacent","DC","4","3","L.jpg","N.jpg","0","0","1","",""
"","feedback","","html-keyboard-response","227","388339","0.0-1.0-303.0-0.0","0","0","69129","","null","","","null","33","","","","","","","","","","","","","","","",""
"","ITI","","html-keyboard-response","228","389348","0.0-1.0-306.0","0","0","69129","","null","","","null","33","","","","","","","","","","","","","","","NaN",""
"","S1","","html-keyboard-response","229","389506","0.0-1.0-308.0","0","0","69129","","null","","","null","34","","","","","","","","","","","","","","","",""
"","ISI","","html-keyboard-response","230","391514","0.0-1.0-309.0","0","0","69129","","null","","","null","34","NaN","","","","","","","","","","","","","","",""
"","S2","","html-keyboard-response","231","391677","0.0-1.0-310.0","0","0","69129","","null","","","null","34","","NaN","","","","","","","","","","","","","",""
"","response","","html-keyboard-response","232","392286","0.0-1.0-311.0-0.0","0","0","69129","","608","","","68","34","","","1","34","training","adjacent","BC","2","3","M.jpg","N.jpg","0","1","0","",""
"","feedback","","html-keyboard-response","233","393297","0.0-1.0-312.0-0.0","0","0","69129","","null","","","null","34","","","","","","","","","","","","","","","",""
"","time_out","","html-keyboard-response","234","395306","0.0-1.0-314.0-0.0","0","0","69129","","null","","","null","34","","","","","","","","","","","","","","","",""
"","ITI","","html-keyboard-response","235","396315","0.0-1.0-315.0","0","0","69129","","null","","","null","34","","","","","","","","","","","","","","","NaN",""
"","S1","","html-keyboard-response","236","396477","0.0-1.0-317.0","0","0","69129","","null","","","null","35","","","","","","","","","","","","","","","",""
"","ISI","","html-keyboard-response","237","398480","0.0-1.0-318.0","0","0","69129","","498","","","75","35","k","","","","","","","","","","","","","","",""
"","S2","","html-keyboard-response","238","398644","0.0-1.0-319.0","0","0","69129","","null","","","null","35","","NaN","","","","","","","","","","","","","",""
"","response","","html-keyboard-response","239","398965","0.0-1.0-320.0-0.0","0","0","69129","","319","","","68","35","","","1","35","training","adjacent","GF","7","6","R.jpg","P.jpg","0","0","1","",""
"","feedback","","html-keyboard-response","240","399972","0.0-1.0-321.0-0.0","0","0","69129","","null","","","null","35","","","","","","","","","","","","","","","",""
"","ITI","","html-keyboard-response","241","400976","0.0-1.0-324.0","0","0","69129","","null","","","null","35","","","","","","","","","","","","","","","NaN",""
"","S1","","html-keyboard-response","242","401138","0.0-1.0-326.0","0","0","69129","","null","","","null","36","","","","","","","","","","","","","","","",""
"","ISI","","html-keyboard-response","243","403148","0.0-1.0-327.0","0","0","69129","","null","","","null","36","NaN","","","","","","","","","","","","","","",""
"","S2","","html-keyboard-response","244","403303","0.0-1.0-328.0","0","0","69129","","null","","","null","36","","NaN","","","","","","","","","","","","","",""
"","response","","html-keyboard-response","245","403730","0.0-1.0-329.0-0.0","0","0","69129","","424","","","68","36","","","1","36","training","adjacent","FG","6","7","P.jpg","R.jpg","0","1","0","",""
"","feedback","","html-keyboard-response","246","404739","0.0-1.0-330.0-0.0","0","0","69129","","null","","","null","36","","","","","","","","","","","","","","","",""
"","time_out","","html-keyboard-response","247","406746","0.0-1.0-332.0-0.0","0","0","69129","","null","","","null","36","","","","","","","","","","","","","","","",""
"","ITI","","html-keyboard-response","248","407756","0.0-1.0-333.0","0","0","69129","","null","","","null","36","","","","","","","","","","","","","","","NaN",""
"","S1","","html-keyboard-response","249","407913","0.0-1.0-335.0","0","0","69129","","null","","","null","37","","","","","","","","","","","","","","","",""
"","ISI","","html-keyboard-response","250","409921","0.0-1.0-336.0","0","0","69129","","548","","","68","37","d","","","","","","","","","","","","","","",""
"","S2","","html-keyboard-response","251","410084","0.0-1.0-337.0","0","0","69129","","null","","","null","37","","NaN","","","","","","","","","","","","","",""
"","response","","html-keyboard-response","252","410623","0.0-1.0-338.0-0.0","0","0","69129","","538","","","75","37","","","1","37","training","adjacent","AB","1","2","Q.jpg","M.jpg","1","1","1","",""
"","feedback","","html-keyboard-response","253","411635","0.0-1.0-339.0-0.0","0","0","69129","","null","","","null","37","","","","","","","","","","","","","","","",""
"","ITI","","html-keyboard-response","254","412643","0.0-1.0-342.0","0","0","69129","","null","","","null","37","","","","","","","","","","","","","","","NaN",""
"","S1","","html-keyboard-response","255","412802","0.0-1.0-344.0","0","0","69129","","null","","","null","38","","","","","","","","","","","","","","","",""
"","ISI","","html-keyboard-response","256","414809","0.0-1.0-345.0","0","0","69129","","null","","","null","38","NaN","","","","","","","","","","","","","","",""
"","S2","","html-keyboard-response","257","414971","0.0-1.0-346.0","0","0","69129","","null","","","null","38","","NaN","","","","","","","","","","","","","",""
"","response","","html-keyboard-response","258","415766","0.0-1.0-347.0-0.0","0","0","69129","","793","","","68","38","","","1","38","training","adjacent","BA","2","1","M.jpg","Q.jpg","0","0","1","",""
"","feedback","","html-keyboard-response","259","416778","0.0-1.0-348.0-0.0","0","0","69129","","null","","","null","38","","","","","","","","","","","","","","","",""
"","ITI","","html-keyboard-response","260","417787","0.0-1.0-351.0","0","0","69129","","null","","","null","38","","","","","","","","","","","","","","","NaN",""
"","S1","","html-keyboard-response","261","417946","0.0-1.0-353.0","0","0","69129","","null","","","null","39","","","","","","","","","","","","","","","",""
"","ISI","","html-keyboard-response","262","419954","0.0-1.0-354.0","0","0","69129","","null","","","null","39","NaN","","","","","","","","","","","","","","",""
"","S2","","html-keyboard-response","263","420115","0.0-1.0-355.0","0","0","69129","","null","","","null","39","","NaN","","","","","","","","","","","","","",""
"","response","","html-keyboard-response","264","420422","0.0-1.0-356.0-0.0","0","0","69129","","305","","","68","39","","","1","39","training","adjacent","CD","3","4","N.jpg","L.jpg","0","1","0","",""
"","feedback","","html-keyboard-response","265","421432","0.0-1.0-357.0-0.0","0","0","69129","","null","","","null","39","","","","","","","","","","","","","","","",""
"","time_out","","html-keyboard-response","266","423441","0.0-1.0-359.0-0.0","0","0","69129","","null","","","null","39","","","","","","","","","","","","","","","",""
"","ITI","","html-keyboard-response","267","424451","0.0-1.0-360.0","0","0","69129","","null","","","null","39","","","","","","","","","","","","","","","NaN",""
"","S1","","html-keyboard-response","268","424608","0.0-1.0-362.0","0","0","69129","","null","","","null","40","","","","","","","","","","","","","","","",""
"","ISI","","html-keyboard-response","269","426617","0.0-1.0-363.0","0","0","69129","","581","","","75","40","k","","","","","","","","","","","","","","",""
"","S2","","html-keyboard-response","270","426779","0.0-1.0-364.0","0","0","69129","","null","","","null","40","","NaN","","","","","","","","","","","","","",""
"","response","","html-keyboard-response","271","426979","0.0-1.0-365.0-0.0","0","0","69129","","199","","","68","40","","","1","40","training","adjacent","DC","4","3","L.jpg","N.jpg","0","0","1","",""
"","feedback","","html-keyboard-response","272","427988","0.0-1.0-366.0-0.0","0","0","69129","","null","","","null","40","","","","","","","","","","","","","","","",""
"","ITI","","html-keyboard-response","273","428996","0.0-1.0-369.0","0","0","69129","","null","","","null","40","","","","","","","","","","","","","","","NaN",""
"","S1","","html-keyboard-response","274","429153","0.0-1.0-371.0","0","0","69129","","null","","","null","41","","","","","","","","","","","","","","","",""
"","ISI","","html-keyboard-response","275","431162","0.0-1.0-372.0","0","0","69129","","400","","","75","41","k","","","","","","","","","","","","","","",""
"","S2","","html-keyboard-response","276","431324","0.0-1.0-373.0","0","0","69129","","null","","","null","41","","NaN","","","","","","","","","","","","","",""
"","response","","html-keyboard-response","277","431776","0.0-1.0-374.0-0.0","0","0","69129","","450","","","68","41","","","1","41","training","adjacent","FG","6","7","P.jpg","R.jpg","0","1","0","",""
"","feedback","","html-keyboard-response","278","432787","0.0-1.0-375.0-0.0","0","0","69129","","null","","","null","41","","","","","","","","","","","","","","","",""
"","time_out","","html-keyboard-response","279","434794","0.0-1.0-377.0-0.0","0","0","69129","","null","","","null","41","","","","","","","","","","","","","","","",""
"","ITI","","html-keyboard-response","280","435800","0.0-1.0-378.0","0","0","69129","","null","","","null","41","","","","","","","","","","","","","","","NaN",""
"","S1","","html-keyboard-response","281","435964","0.0-1.0-380.0","0","0","69129","","null","","","null","42","","","","","","","","","","","","","","","",""
"","ISI","","html-keyboard-response","282","437967","0.0-1.0-381.0","0","0","69129","","244","","","75","42","k","","","","","","","","","","","","","","",""
"","S2","","html-keyboard-response","283","438128","0.0-1.0-382.0","0","0","69129","","null","","","null","42","","NaN","","","","","","","","","","","","","",""
"","response","","html-keyboard-response","284","438453","0.0-1.0-383.0-0.0","0","0","69129","","323","","","68","42","","","1","42","training","adjacent","DE","4","5","L.jpg","O.jpg","0","1","0","",""
"","feedback","","html-keyboard-response","285","439464","0.0-1.0-384.0-0.0","0","0","69129","","null","","","null","42","","","","","","","","","","","","","","","",""
"","time_out","","html-keyboard-response","286","441471","0.0-1.0-386.0-0.0","0","0","69129","","null","","","null","42","","","","","","","","","","","","","","","",""
"","ITI","","html-keyboard-response","287","442481","0.0-1.0-387.0","0","0","69129","","null","","","null","42","","","","","","","","","","","","","","","NaN",""
"","S1","","html-keyboard-response","288","442644","0.0-1.0-389.0","0","0","69129","","null","","","null","43","","","","","","","","","","","","","","","",""
"","ISI","","html-keyboard-response","289","444653","0.0-1.0-390.0","0","0","69129","","null","","","null","43","NaN","","","","","","","","","","","","","","",""
"","S2","","html-keyboard-response","290","444810","0.0-1.0-391.0","0","0","69129","","null","","","null","43","","NaN","","","","","","","","","","","","","",""
"","response","","html-keyboard-response","291","445045","0.0-1.0-392.0-0.0","0","0","69129","","234","","","75","43","","","1","43","training","adjacent","GF","7","6","R.jpg","P.jpg","1","0","0","",""
"","feedback","","html-keyboard-response","292","446058","0.0-1.0-393.0-0.0","0","0","69129","","null","","","null","43","","","","","","","","","","","","","","","",""
"","time_out","","html-keyboard-response","293","448066","0.0-1.0-395.0-0.0","0","0","69129","","null","","","null","43","","","","","","","","","","","","","","","",""
"","ITI","","html-keyboard-response","294","449076","0.0-1.0-396.0","0","0","69129","","null","","","null","43","","","","","","","","","","","","","","","NaN",""
"","S1","","html-keyboard-response","295","449233","0.0-1.0-398.0","0","0","69129","","null","","","null","44","","","","","","","","","","","","","","","",""
"","ISI","","html-keyboard-response","296","451241","0.0-1.0-399.0","0","0","69129","","582","","","68","44","d","","","","","","","","","","","","","","",""
"","S2","","html-keyboard-response","297","451403","0.0-1.0-400.0","0","0","69129","","null","","","null","44","","NaN","","","","","","","","","","","","","",""
"","response","","html-keyboard-response","298","451754","0.0-1.0-401.0-0.0","0","0","69129","","349","","","75","44","","","1","44","training","adjacent","EF","5","6","O.jpg","P.jpg","1","1","1","",""
"","feedback","","html-keyboard-response","299","452762","0.0-1.0-402.0-0.0","0","0","69129","","null","","","null","44","","","","","","","","","","","","","","","",""
"","ITI","","html-keyboard-response","300","453772","0.0-1.0-405.0","0","0","69129","","null","","","null","44","","","","","","","","","","","","","","","NaN",""
"","S1","","html-keyboard-response","301","453933","0.0-1.0-407.0","0","0","69129","","null","","","null","45","","","","","","","","","","","","","","","",""
"","ISI","","html-keyboard-response","302","455949","0.0-1.0-408.0","0","0","69129","","null","","","null","45","NaN","","","","","","","","","","","","","","",""
"","S2","","html-keyboard-response","303","456106","0.0-1.0-409.0","0","0","69129","","null","","","null","45","","NaN","","","","","","","","","","","","","",""
"","response","","html-keyboard-response","304","456969","0.0-1.0-410.0-0.0","0","0","69129","","861","","","68","45","","","1","45","training","adjacent","CB","3","2","N.jpg","M.jpg","0","0","1","",""
"","feedback","","html-keyboard-response","305","457977","0.0-1.0-411.0-0.0","0","0","69129","","null","","","null","45","","","","","","","","","","","","","","","",""
"","ITI","","html-keyboard-response","306","458985","0.0-1.0-414.0","0","0","69129","","null","","","null","45","","","","","","","","","","","","","","","NaN",""
"","S1","","html-keyboard-response","307","459147","0.0-1.0-416.0","0","0","69129","","null","","","null","46","","","","","","","","","","","","","","","",""
"","ISI","","html-keyboard-response","308","461156","0.0-1.0-417.0","0","0","69129","","null","","","null","46","NaN","","","","","","","","","","","","","","",""
"","S2","","html-keyboard-response","309","461313","0.0-1.0-418.0","0","0","69129","","null","","","null","46","","NaN","","","","","","","","","","","","","",""
"","response","","html-keyboard-response","310","461635","0.0-1.0-419.0-0.0","0","0","69129","","321","","","75","46","","","1","46","training","adjacent","FE","6","5","P.jpg","O.jpg","1","0","0","",""
"","feedback","","html-keyboard-response","311","462645","0.0-1.0-420.0-0.0","0","0","69129","","null","","","null","46","","","","","","","","","","","","","","","",""
"","time_out","","html-keyboard-response","312","464651","0.0-1.0-422.0-0.0","0","0","69129","","null","","","null","46","","","","","","","","","","","","","","","",""
"","ITI","","html-keyboard-response","313","465660","0.0-1.0-423.0","0","0","69129","","null","","","null","46","","","","","","","","","","","","","","","NaN",""
"","S1","","html-keyboard-response","314","465817","0.0-1.0-425.0","0","0","69129","","null","","","null","47","","","","","","","","","","","","","","","",""
"","ISI","","html-keyboard-response","315","467828","0.0-1.0-426.0","0","0","69129","","null","","","null","47","NaN","","","","","","","","","","","","","","",""
"","S2","","html-keyboard-response","316","467988","0.0-1.0-427.0","0","0","69129","","null","","","null","47","","NaN","","","","","","","","","","","","","",""
"","response","","html-keyboard-response","317","468367","0.0-1.0-428.0-0.0","0","0","69129","","377","","","68","47","","","1","47","training","adjacent","CD","3","4","N.jpg","L.jpg","0","1","0","",""
"","feedback","","html-keyboard-response","318","469378","0.0-1.0-429.0-0.0","0","0","69129","","null","","","null","47","","","","","","","","","","","","","","","",""
"","time_out","","html-keyboard-response","319","471385","0.0-1.0-431.0-0.0","0","0","69129","","null","","","null","47","","","","","","","","","","","","","","","",""
"","ITI","","html-keyboard-response","320","472394","0.0-1.0-432.0","0","0","69129","","null","","","null","47","","","","","","","","","","","","","","","NaN",""
"","block_over","","html-keyboard-response","321","521591","0.0-1.0-433.0-0.0","0","0","69129","","49193","","","32","47","","","","","","","","","","","","","","","",""
"","S1","","html-keyboard-response","322","521754","0.0-1.0-434.0","0","0","69129","","null","","","null","48","","","","","","","","","","","","","","","",""
"","ISI","","html-keyboard-response","323","523763","0.0-1.0-435.0","0","0","69129","","null","","","null","48","NaN","","","","","","","","","","","","","","",""
"","S2","","html-keyboard-response","324","523919","0.0-1.0-436.0","0","0","69129","","null","","","null","48","","NaN","","","","","","","","","","","","","",""
"","response","","html-keyboard-response","325","524683","0.0-1.0-437.0-0.0","0","0","69129","","762","","","68","48","","","2","48","training","adjacent","GF","7","6","R.jpg","P.jpg","0","0","1","",""
"","feedback","","html-keyboard-response","326","525690","0.0-1.0-438.0-0.0","0","0","69129","","null","","","null","48","","","","","","","","","","","","","","","",""
"","ITI","","html-keyboard-response","327","526701","0.0-1.0-441.0","0","0","69129","","null","","","null","48","","","","","","","","","","","","","","","NaN",""
"","S1","","html-keyboard-response","328","526858","0.0-1.0-443.0","0","0","69129","","null","","","null","49","","","","","","","","","","","","","","","",""
"","ISI","","html-keyboard-response","329","528865","0.0-1.0-444.0","0","0","69129","","null","","","null","49","NaN","","","","","","","","","","","","","","",""
"","S2","","html-keyboard-response","330","529026","0.0-1.0-445.0","0","0","69129","","null","","","null","49","","NaN","","","","","","","","","","","","","",""
"","response","","html-keyboard-response","331","529304","0.0-1.0-446.0-0.0","0","0","69129","","276","","","75","49","","","2","49","training","adjacent","FG","6","7","P.jpg","R.jpg","1","1","1","",""
"","feedback","","html-keyboard-response","332","530317","0.0-1.0-447.0-0.0","0","0","69129","","null","","","null","49","","","","","","","","","","","","","","","",""
"","ITI","","html-keyboard-response","333","531321","0.0-1.0-450.0","0","0","69129","","null","","","null","49","","","","","","","","","","","","","","","NaN",""
"","S1","","html-keyboard-response","334","531483","0.0-1.0-452.0","0","0","69129","","null","","","null","50","","","","","","","","","","","","","","","",""
"","ISI","","html-keyboard-response","335","533492","0.0-1.0-453.0","0","0","69129","","null","","","null","50","NaN","","","","","","","","","","","","","","",""
"","S2","","html-keyboard-response","336","533650","0.0-1.0-454.0","0","0","69129","","null","","","null","50","","NaN","","","","","","","","","","","","","",""
"","response","","html-keyboard-response","337","534122","0.0-1.0-455.0-0.0","0","0","69129","","470","","","68","50","","","2","50","training","adjacent","GF","7","6","R.jpg","P.jpg","0","0","1","",""
"","feedback","","html-keyboard-response","338","535129","0.0-1.0-456.0-0.0","0","0","69129","","null","","","null","50","","","","","","","","","","","","","","","",""
"","ITI","","html-keyboard-response","339","536139","0.0-1.0-459.0","0","0","69129","","null","","","null","50","","","","","","","","","","","","","","","NaN",""
"","S1","","html-keyboard-response","340","536296","0.0-1.0-461.0","0","0","69129","","null","","","null","51","","","","","","","","","","","","","","","",""
"","ISI","","html-keyboard-response","341","538304","0.0-1.0-462.0","0","0","69129","","null","","","null","51","NaN","","","","","","","","","","","","","","",""
"","S2","","html-keyboard-response","342","538467","0.0-1.0-463.0","0","0","69129","","null","","","null","51","","NaN","","","","","","","","","","","","","",""
"","response","","html-keyboard-response","343","539256","0.0-1.0-464.0-0.0","0","0","69129","","788","","","68","51","","","2","51","training","adjacent","DE","4","5","L.jpg","O.jpg","0","1","0","",""
"","feedback","","html-keyboard-response","344","540267","0.0-1.0-465.0-0.0","0","0","69129","","null","","","null","51","","","","","","","","","","","","","","","",""
"","time_out","","html-keyboard-response","345","542275","0.0-1.0-467.0-0.0","0","0","69129","","null","","","null","51","","","","","","","","","","","","","","","",""
"","ITI","","html-keyboard-response","346","543285","0.0-1.0-468.0","0","0","69129","","null","","","null","51","","","","","","","","","","","","","","","NaN",""
"","S1","","html-keyboard-response","347","543444","0.0-1.0-470.0","0","0","69129","","null","","","null","52","","","","","","","","","","","","","","","",""
"","ISI","","html-keyboard-response","348","545450","0.0-1.0-471.0","0","0","69129","","591","","","68","52","d","","","","","","","","","","","","","","",""
"","S2","","html-keyboard-response","349","545611","0.0-1.0-472.0","0","0","69129","","null","","","null","52","","NaN","","","","","","","","","","","","","",""
"","response","","html-keyboard-response","350","546144","0.0-1.0-473.0-0.0","0","0","69129","","532","","","68","52","","","2","52","training","adjacent","AB","1","2","Q.jpg","M.jpg","0","1","0","",""
"","feedback","","html-keyboard-response","351","547153","0.0-1.0-474.0-0.0","0","0","69129","","null","","","null","52","","","","","","","","","","","","","","","",""
"","time_out","","html-keyboard-response","352","549160","0.0-1.0-476.0-0.0","0","0","69129","","null","","","null","52","","","","","","","","","","","","","","","",""
"","ITI","","html-keyboard-response","353","550169","0.0-1.0-477.0","0","0","69129","","null","","","null","52","","","","","","","","","","","","","","","NaN",""
"","S1","","html-keyboard-response","354","550332","0.0-1.0-479.0","0","0","69129","","null","","","null","53","","","","","","","","","","","","","","","",""
"","ISI","","html-keyboard-response","355","552341","0.0-1.0-480.0","0","0","69129","","248","","","68","53","d","","","","","","","","","","","","","","",""
"","S2","","html-keyboard-response","356","552498","0.0-1.0-481.0","0","0","69129","","null","","","null","53","","NaN","","","","","","","","","","","","","",""
"","response","","html-keyboard-response","357","552980","0.0-1.0-482.0-0.0","0","0","69129","","481","","","75","53","","","2","53","training","adjacent","BC","2","3","M.jpg","N.jpg","1","1","1","",""
"","feedback","","html-keyboard-response","358","553988","0.0-1.0-483.0-0.0","0","0","69129","","null","","","null","53","","","","","","","","","","","","","","","",""
"","ITI","","html-keyboard-response","359","554993","0.0-1.0-486.0","0","0","69129","","null","","","null","53","","","","","","","","","","","","","","","NaN",""
"","S1","","html-keyboard-response","360","555156","0.0-1.0-488.0","0","0","69129","","null","","","null","54","","","","","","","","","","","","","","","",""
"","ISI","","html-keyboard-response","361","557163","0.0-1.0-489.0","0","0","69129","","null","","","null","54","NaN","","","","","","","","","","","","","","",""
"","S2","","html-keyboard-response","362","557323","0.0-1.0-490.0","0","0","69129","","null","","","null","54","","NaN","","","","","","","","","","","","","",""
"","response","","html-keyboard-response","363","557712","0.0-1.0-491.0-0.0","0","0","69129","","388","","","68","54","","","2","54","training","adjacent","ED","5","4","O.jpg","L.jpg","0","0","1","",""
"","feedback","","html-keyboard-response","364","558724","0.0-1.0-492.0-0.0","0","0","69129","","null","","","null","54","","","","","","","","","","","","","","","",""
"","ITI","","html-keyboard-response","365","559731","0.0-1.0-495.0","0","0","69129","","null","","","null","54","","","","","","","","","","","","","","","NaN",""
"","S1","","html-keyboard-response","366","559889","0.0-1.0-497.0","0","0","69129","","null","","","null","55","","","","","","","","","","","","","","","",""
"","ISI","","html-keyboard-response","367","561896","0.0-1.0-498.0","0","0","69129","","null","","","null","55","NaN","","","","","","","","","","","","","","",""
"","S2","","html-keyboard-response","368","562058","0.0-1.0-499.0","0","0","69129","","null","","","null","55","","NaN","","","","","","","","","","","","","",""
"","response","","html-keyboard-response","369","562563","0.0-1.0-500.0-0.0","0","0","69129","","503","","","68","55","","","2","55","training","adjacent","CD","3","4","N.jpg","L.jpg","0","1","0","",""
"","feedback","","html-keyboard-response","370","563567","0.0-1.0-501.0-0.0","0","0","69129","","null","","","null","55","","","","","","","","","","","","","","","",""
"","time_out","","html-keyboard-response","371","565576","0.0-1.0-503.0-0.0","0","0","69129","","null","","","null","55","","","","","","","","","","","","","","","",""
"","ITI","","html-keyboard-response","372","566588","0.0-1.0-504.0","0","0","69129","","null","","","null","55","","","","","","","","","","","","","","","NaN",""
"","S1","","html-keyboard-response","373","566748","0.0-1.0-506.0","0","0","69129","","null","","","null","56","","","","","","","","","","","","","","","",""
"","ISI","","html-keyboard-response","374","568752","0.0-1.0-507.0","0","0","69129","","203","","","75","56","k","","","","","","","","","","","","","","",""
"","S2","","html-keyboard-response","375","568915","0.0-1.0-508.0","0","0","69129","","null","","","null","56","","NaN","","","","","","","","","","","","","",""
"","response","","html-keyboard-response","376","569490","0.0-1.0-509.0-0.0","0","0","69129","","573","","","68","56","","","2","56","training","adjacent","FG","6","7","P.jpg","R.jpg","0","1","0","",""
"","feedback","","html-keyboard-response","377","570498","0.0-1.0-510.0-0.0","0","0","69129","","null","","","null","56","","","","","","","","","","","","","","","",""
"","time_out","","html-keyboard-response","378","572507","0.0-1.0-512.0-0.0","0","0","69129","","null","","","null","56","","","","","","","","","","","","","","","",""
"","ITI","","html-keyboard-response","379","573511","0.0-1.0-513.0","0","0","69129","","null","","","null","56","","","","","","","","","","","","","","","NaN",""
"","S1","","html-keyboard-response","380","573674","0.0-1.0-515.0","0","0","69129","","null","","","null","57","","","","","","","","","","","","","","","",""
"","ISI","","html-keyboard-response","381","575679","0.0-1.0-516.0","0","0","69129","","211","","","75","57","k","","","","","","","","","","","","","","",""
"","S2","","html-keyboard-response","382","575839","0.0-1.0-517.0","0","0","69129","","null","","","null","57","","NaN","","","","","","","","","","","","","",""
"","response","","html-keyboard-response","383","576530","0.0-1.0-518.0-0.0","0","0","69129","","690","","","68","57","","","2","57","training","adjacent","EF","5","6","O.jpg","P.jpg","0","1","0","",""
"","feedback","","html-keyboard-response","384","577541","0.0-1.0-519.0-0.0","0","0","69129","","null","","","null","57","","","","","","","","","","","","","","","",""
"","time_out","","html-keyboard-response","385","579554","0.0-1.0-521.0-0.0","0","0","69129","","null","","","null","57","","","","","","","","","","","","","","","",""
"","ITI","","html-keyboard-response","386","580564","0.0-1.0-522.0","0","0","69129","","null","","","null","57","","","","","","","","","","","","","","","NaN",""
"","S1","","html-keyboard-response","387","580721","0.0-1.0-524.0","0","0","69129","","null","","","null","58","","","","","","","","","","","","","","","",""
"","ISI","","html-keyboard-response","388","582730","0.0-1.0-525.0","0","0","69129","","null","","","null","58","NaN","","","","","","","","","","","","","","",""
"","S2","","html-keyboard-response","389","582892","0.0-1.0-526.0","0","0","69129","","null","","","null","58","","NaN","","","","","","","","","","","","","",""
"","response","","html-keyboard-response","390","583495","0.0-1.0-527.0-0.0","0","0","69129","","601","","","68","58","","","2","58","training","adjacent","BA","2","1","M.jpg","Q.jpg","0","0","1","",""
"","feedback","","html-keyboard-response","391","584506","0.0-1.0-528.0-0.0","0","0","69129","","null","","","null","58","","","","","","","","","","","","","","","",""
"","ITI","","html-keyboard-response","392","585516","0.0-1.0-531.0","0","0","69129","","null","","","null","58","","","","","","","","","","","","","","","NaN",""
"","S1","","html-keyboard-response","393","585673","0.0-1.0-533.0","0","0","69129","","null","","","null","59","","","","","","","","","","","","","","","",""
"","ISI","","html-keyboard-response","394","587683","0.0-1.0-534.0","0","0","69129","","null","","","null","59","NaN","","","","","","","","","","","","","","",""
"","S2","","html-keyboard-response","395","587844","0.0-1.0-535.0","0","0","69129","","null","","","null","59","","NaN","","","","","","","","","","","","","",""
"","response","","html-keyboard-response","396","588401","0.0-1.0-536.0-0.0","0","0","69129","","556","","","68","59","","","2","59","training","adjacent","FE","6","5","P.jpg","O.jpg","0","0","1","",""
"","feedback","","html-keyboard-response","397","589411","0.0-1.0-537.0-0.0","0","0","69129","","null","","","null","59","","","","","","","","","","","","","","","",""
"","ITI","","html-keyboard-response","398","590415","0.0-1.0-540.0","0","0","69129","","null","","","null","59","","","","","","","","","","","","","","","NaN",""
"","S1","","html-keyboard-response","399","590578","0.0-1.0-542.0","0","0","69129","","null","","","null","60","","","","","","","","","","","","","","","",""
"","ISI","","html-keyboard-response","400","592586","0.0-1.0-543.0","0","0","69129","","null","","","null","60","NaN","","","","","","","","","","","","","","",""
"","S2","","html-keyboard-response","401","592743","0.0-1.0-544.0","0","0","69129","","null","","","null","60","","NaN","","","","","","","","","","","","","",""
"","response","","html-keyboard-response","402","593487","0.0-1.0-545.0-0.0","0","0","69129","","741","","","68","60","","","2","60","training","adjacent","GF","7","6","R.jpg","P.jpg","0","0","1","",""
"","feedback","","html-keyboard-response","403","594496","0.0-1.0-546.0-0.0","0","0","69129","","null","","","null","60","","","","","","","","","","","","","","","",""
"","ITI","","html-keyboard-response","404","595507","0.0-1.0-549.0","0","0","69129","","null","","","null","60","","","","","","","","","","","","","","","NaN",""
"","S1","","html-keyboard-response","405","595663","0.0-1.0-551.0","0","0","69129","","null","","","null","61","","","","","","","","","","","","","","","",""
"","ISI","","html-keyboard-response","406","597672","0.0-1.0-552.0","0","0","69129","","null","","","null","61","NaN","","","","","","","","","","","","","","",""
"","S2","","html-keyboard-response","407","597835","0.0-1.0-553.0","0","0","69129","","null","","","null","61","","NaN","","","","","","","","","","","","","",""
"","response","","html-keyboard-response","408","598196","0.0-1.0-554.0-0.0","0","0","69129","","360","","","68","61","","","2","61","training","adjacent","AB","1","2","Q.jpg","M.jpg","0","1","0","",""
"","feedback","","html-keyboard-response","409","599204","0.0-1.0-555.0-0.0","0","0","69129","","null","","","null","61","","","","","","","","","","","","","","","",""
"","time_out","","html-keyboard-response","410","601209","0.0-1.0-557.0-0.0","0","0","69129","","null","","","null","61","","","","","","","","","","","","","","","",""
"","ITI","","html-keyboard-response","411","602217","0.0-1.0-558.0","0","0","69129","","null","","","null","61","","","","","","","","","","","","","","","NaN",""
"","S1","","html-keyboard-response","412","602381","0.0-1.0-560.0","0","0","69129","","null","","","null","62","","","","","","","","","","","","","","","",""
"","ISI","","html-keyboard-response","413","604388","0.0-1.0-561.0","0","0","69129","","null","","","null","62","NaN","","","","","","","","","","","","","","",""
"","S2","","html-keyboard-response","414","604545","0.0-1.0-562.0","0","0","69129","","null","","","null","62","","NaN","","","","","","","","","","","","","",""
"","response","","html-keyboard-response","415","605104","0.0-1.0-563.0-0.0","0","0","69129","","557","","","68","62","","","2","62","training","adjacent","BC","2","3","M.jpg","N.jpg","0","1","0","",""
"","feedback","","html-keyboard-response","416","606113","0.0-1.0-564.0-0.0","0","0","69129","","null","","","null","62","","","","","","","","","","","","","","","",""
"","time_out","","html-keyboard-response","417","608121","0.0-1.0-566.0-0.0","0","0","69129","","null","","","null","62","","","","","","","","","","","","","","","",""
"","ITI","","html-keyboard-response","418","609131","0.0-1.0-567.0","0","0","69129","","null","","","null","62","","","","","","","","","","","","","","","NaN",""
"","S1","","html-keyboard-response","419","609287","0.0-1.0-569.0","0","0","69129","","null","","","null","63","","","","","","","","","","","","","","","",""
"","ISI","","html-keyboard-response","420","611297","0.0-1.0-570.0","0","0","69129","","null","","","null","63","NaN","","","","","","","","","","","","","","",""
"","S2","","html-keyboard-response","421","611458","0.0-1.0-571.0","0","0","69129","","null","","","null","63","","NaN","","","","","","","","","","","","","",""
"","response","","html-keyboard-response","422","612168","0.0-1.0-572.0-0.0","0","0","69129","","708","","","75","63","","","2","63","training","adjacent","CB","3","2","N.jpg","M.jpg","1","0","0","",""
"","feedback","","html-keyboard-response","423","613177","0.0-1.0-573.0-0.0","0","0","69129","","null","","","null","63","","","","","","","","","","","","","","","",""
"","time_out","","html-keyboard-response","424","615185","0.0-1.0-575.0-0.0","0","0","69129","","null","","","null","63","","","","","","","","","","","","","","","",""
"","ITI","","html-keyboard-response","425","616196","0.0-1.0-576.0","0","0","69129","","null","","","null","63","","","","","","","","","","","","","","","NaN",""
"","S1","","html-keyboard-response","426","616357","0.0-1.0-578.0","0","0","69129","","null","","","null","64","","","","","","","","","","","","","","","",""
"","ISI","","html-keyboard-response","427","618360","0.0-1.0-579.0","0","0","69129","","null","","","null","64","NaN","","","","","","","","","","","","","","",""
"","S2","","html-keyboard-response","428","618524","0.0-1.0-580.0","0","0","69129","","null","","","null","64","","NaN","","","","","","","","","","","","","",""
"","response","","html-keyboard-response","429","619243","0.0-1.0-581.0-0.0","0","0","69129","","718","","","68","64","","","2","64","training","adjacent","BC","2","3","M.jpg","N.jpg","0","1","0","",""
"","feedback","","html-keyboard-response","430","620248","0.0-1.0-582.0-0.0","0","0","69129","","null","","","null","64","","","","","","","","","","","","","","","",""
"","time_out","","html-keyboard-response","431","622256","0.0-1.0-584.0-0.0","0","0","69129","","null","","","null","64","","","","","","","","","","","","","","","",""
"","ITI","","html-keyboard-response","432","623266","0.0-1.0-585.0","0","0","69129","","null","","","null","64","","","","","","","","","","","","","","","NaN",""
"","S1","","html-keyboard-response","433","623429","0.0-1.0-587.0","0","0","69129","","null","","","null","65","","","","","","","","","","","","","","","",""
"","ISI","","html-keyboard-response","434","625432","0.0-1.0-588.0","0","0","69129","","null","","","null","65","NaN","","","","","","","","","","","","","","",""
"","S2","","html-keyboard-response","435","625594","0.0-1.0-589.0","0","0","69129","","null","","","null","65","","NaN","","","","","","","","","","","","","",""
"","response","","html-keyboard-response","436","626162","0.0-1.0-590.0-0.0","0","0","69129","","566","","","68","65","","","2","65","training","adjacent","DE","4","5","L.jpg","O.jpg","0","1","0","",""
"","feedback","","html-keyboard-response","437","627169","0.0-1.0-591.0-0.0","0","0","69129","","null","","","null","65","","","","","","","","","","","","","","","",""
"","time_out","","html-keyboard-response","438","629175","0.0-1.0-593.0-0.0","0","0","69129","","null","","","null","65","","","","","","","","","","","","","","","",""
"","ITI","","html-keyboard-response","439","630185","0.0-1.0-594.0","0","0","69129","","null","","","null","65","","","","","","","","","","","","","","","NaN",""
"","S1","","html-keyboard-response","440","630347","0.0-1.0-596.0","0","0","69129","","null","","","null","66","","","","","","","","","","","","","","","",""
"","ISI","","html-keyboard-response","441","632357","0.0-1.0-597.0","0","0","69129","","null","","","null","66","NaN","","","","","","","","","","","","","","",""
"","S2","","html-keyboard-response","442","632514","0.0-1.0-598.0","0","0","69129","","null","","","null","66","","NaN","","","","","","","","","","","","","",""
"","response","","html-keyboard-response","443","633219","0.0-1.0-599.0-0.0","0","0","69129","","704","","","75","66","","","2","66","training","adjacent","FG","6","7","P.jpg","R.jpg","1","1","1","",""
"","feedback","","html-keyboard-response","444","634226","0.0-1.0-600.0-0.0","0","0","69129","","null","","","null","66","","","","","","","","","","","","","","","",""
"","ITI","","html-keyboard-response","445","635236","0.0-1.0-603.0","0","0","69129","","null","","","null","66","","","","","","","","","","","","","","","NaN",""
"","S1","","html-keyboard-response","446","635391","0.0-1.0-605.0","0","0","69129","","null","","","null","67","","","","","","","","","","","","","","","",""
"","ISI","","html-keyboard-response","447","637402","0.0-1.0-606.0","0","0","69129","","null","","","null","67","NaN","","","","","","","","","","","","","","",""
"","S2","","html-keyboard-response","448","637563","0.0-1.0-607.0","0","0","69129","","null","","","null","67","","NaN","","","","","","","","","","","","","",""
"","response","","html-keyboard-response","449","638542","0.0-1.0-608.0-0.0","0","0","69129","","977","","","68","67","","","2","67","training","adjacent","DC","4","3","L.jpg","N.jpg","0","0","1","",""
"","feedback","","html-keyboard-response","450","639554","0.0-1.0-609.0-0.0","0","0","69129","","null","","","null","67","","","","","","","","","","","","","","","",""
"","ITI","","html-keyboard-response","451","640565","0.0-1.0-612.0","0","0","69129","","null","","","null","67","","","","","","","","","","","","","","","NaN",""
"","S1","","html-keyboard-response","452","640722","0.0-1.0-614.0","0","0","69129","","null","","","null","68","","","","","","","","","","","","","","","",""
"","ISI","","html-keyboard-response","453","642732","0.0-1.0-615.0","0","0","69129","","null","","","null","68","NaN","","","","","","","","","","","","","","",""
"","S2","","html-keyboard-response","454","642892","0.0-1.0-616.0","0","0","69129","","null","","","null","68","","NaN","","","","","","","","","","","","","",""
"","response","","html-keyboard-response","455","643355","0.0-1.0-617.0-0.0","0","0","69129","","462","","","68","68","","","2","68","training","adjacent","CD","3","4","N.jpg","L.jpg","0","1","0","",""
"","feedback","","html-keyboard-response","456","644361","0.0-1.0-618.0-0.0","0","0","69129","","null","","","null","68","","","","","","","","","","","","","","","",""
"","time_out","","html-keyboard-response","457","646369","0.0-1.0-620.0-0.0","0","0","69129","","null","","","null","68","","","","","","","","","","","","","","","",""
"","ITI","","html-keyboard-response","458","647379","0.0-1.0-621.0","0","0","69129","","null","","","null","68","","","","","","","","","","","","","","","NaN",""
"","S1","","html-keyboard-response","459","647537","0.0-1.0-623.0","0","0","69129","","null","","","null","69","","","","","","","","","","","","","","","",""
"","ISI","","html-keyboard-response","460","649545","0.0-1.0-624.0","0","0","69129","","null","","","null","69","NaN","","","","","","","","","","","","","","",""
"","S2","","html-keyboard-response","461","649707","0.0-1.0-625.0","0","0","69129","","null","","","null","69","","NaN","","","","","","","","","","","","","",""
"","response","","html-keyboard-response","462","650490","0.0-1.0-626.0-0.0","0","0","69129","","781","","","75","69","","","2","69","training","adjacent","CD","3","4","N.jpg","L.jpg","1","1","1","",""
"","feedback","","html-keyboard-response","463","651497","0.0-1.0-627.0-0.0","0","0","69129","","null","","","null","69","","","","","","","","","","","","","","","",""
"","ITI","","html-keyboard-response","464","652505","0.0-1.0-630.0","0","0","69129","","null","","","null","69","","","","","","","","","","","","","","","NaN",""
"","S1","","html-keyboard-response","465","652668","0.0-1.0-632.0","0","0","69129","","null","","","null","70","","","","","","","","","","","","","","","",""
"","ISI","","html-keyboard-response","466","654677","0.0-1.0-633.0","0","0","69129","","null","","","null","70","NaN","","","","","","","","","","","","","","",""
"","S2","","html-keyboard-response","467","654833","0.0-1.0-634.0","0","0","69129","","null","","","null","70","","NaN","","","","","","","","","","","","","",""
"","response","","html-keyboard-response","468","655311","0.0-1.0-635.0-0.0","0","0","69129","","476","","","68","70","","","2","70","training","adjacent","CB","3","2","N.jpg","M.jpg","0","0","1","",""
"","feedback","","html-keyboard-response","469","656320","0.0-1.0-636.0-0.0","0","0","69129","","null","","","null","70","","","","","","","","","","","","","","","",""
"","ITI","","html-keyboard-response","470","657330","0.0-1.0-639.0","0","0","69129","","null","","","null","70","","","","","","","","","","","","","","","NaN",""
"","S1","","html-keyboard-response","471","657491","0.0-1.0-641.0","0","0","69129","","null","","","null","71","","","","","","","","","","","","","","","",""
"","ISI","","html-keyboard-response","472","659497","0.0-1.0-642.0","0","0","69129","","null","","","null","71","NaN","","","","","","","","","","","","","","",""
"","S2","","html-keyboard-response","473","659659","0.0-1.0-643.0","0","0","69129","","null","","","null","71","","NaN","","","","","","","","","","","","","",""
"","response","","html-keyboard-response","474","660360","0.0-1.0-644.0-0.0","0","0","69129","","700","","","75","71","","","2","71","training","adjacent","ED","5","4","O.jpg","L.jpg","1","0","0","",""
"","feedback","","html-keyboard-response","475","661370","0.0-1.0-645.0-0.0","0","0","69129","","null","","","null","71","","","","","","","","","","","","","","","",""
"","time_out","","html-keyboard-response","476","663380","0.0-1.0-647.0-0.0","0","0","69129","","null","","","null","71","","","","","","","","","","","","","","","",""
"","ITI","","html-keyboard-response","477","664389","0.0-1.0-648.0","0","0","69129","","null","","","null","71","","","","","","","","","","","","","","","NaN",""
"","S1","","html-keyboard-response","478","664547","0.0-1.0-650.0","0","0","69129","","null","","","null","72","","","","","","","","","","","","","","","",""
"","ISI","","html-keyboard-response","479","666554","0.0-1.0-651.0","0","0","69129","","null","","","null","72","NaN","","","","","","","","","","","","","","",""
"","S2","","html-keyboard-response","480","666715","0.0-1.0-652.0","0","0","69129","","null","","","null","72","","NaN","","","","","","","","","","","","","",""
"","response","","html-keyboard-response","481","667419","0.0-1.0-653.0-0.0","0","0","69129","","702","","","75","72","","","2","72","training","adjacent","EF","5","6","O.jpg","P.jpg","1","1","1","",""
"","feedback","","html-keyboard-response","482","668428","0.0-1.0-654.0-0.0","0","0","69129","","null","","","null","72","","","","","","","","","","","","","","","",""
"","ITI","","html-keyboard-response","483","669434","0.0-1.0-657.0","0","0","69129","","null","","","null","72","","","","","","","","","","","","","","","NaN",""
"","S1","","html-keyboard-response","484","669595","0.0-1.0-659.0","0","0","69129","","null","","","null","73","","","","","","","","","","","","","","","",""
"","ISI","","html-keyboard-response","485","671601","0.0-1.0-660.0","0","0","69129","","null","","","null","73","NaN","","","","","","","","","","","","","","",""
"","S2","","html-keyboard-response","486","671761","0.0-1.0-661.0","0","0","69129","","null","","","null","73","","NaN","","","","","","","","","","","","","",""
"","response","","html-keyboard-response","487","672260","0.0-1.0-662.0-0.0","0","0","69129","","497","","","68","73","","","2","73","training","adjacent","ED","5","4","O.jpg","L.jpg","0","0","1","",""
"","feedback","","html-keyboard-response","488","673264","0.0-1.0-663.0-0.0","0","0","69129","","null","","","null","73","","","","","","","","","","","","","","","",""
"","ITI","","html-keyboard-response","489","674274","0.0-1.0-666.0","0","0","69129","","null","","","null","73","","","","","","","","","","","","","","","NaN",""
"","S1","","html-keyboard-response","490","674431","0.0-1.0-668.0","0","0","69129","","null","","","null","74","","","","","","","","","","","","","","","",""
"","ISI","","html-keyboard-response","491","676440","0.0-1.0-669.0","0","0","69129","","null","","","null","74","NaN","","","","","","","","","","","","","","",""
"","S2","","html-keyboard-response","492","676602","0.0-1.0-670.0","0","0","69129","","null","","","null","74","","NaN","","","","","","","","","","","","","",""
"","response","","html-keyboard-response","493","677033","0.0-1.0-671.0-0.0","0","0","69129","","429","","","75","74","","","2","74","training","adjacent","EF","5","6","O.jpg","P.jpg","1","1","1","",""
"","feedback","","html-keyboard-response","494","678042","0.0-1.0-672.0-0.0","0","0","69129","","null","","","null","74","","","","","","","","","","","","","","","",""
"","ITI","","html-keyboard-response","495","679051","0.0-1.0-675.0","0","0","69129","","null","","","null","74","","","","","","","","","","","","","","","NaN",""
"","S1","","html-keyboard-response","496","679210","0.0-1.0-677.0","0","0","69129","","null","","","null","75","","","","","","","","","","","","","","","",""
"","ISI","","html-keyboard-response","497","681217","0.0-1.0-678.0","0","0","69129","","null","","","null","75","NaN","","","","","","","","","","","","","","",""
"","S2","","html-keyboard-response","498","681380","0.0-1.0-679.0","0","0","69129","","null","","","null","75","","NaN","","","","","","","","","","","","","",""
"","response","","html-keyboard-response","499","681588","0.0-1.0-680.0-0.0","0","0","69129","","207","","","68","75","","","2","75","training","adjacent","FE","6","5","P.jpg","O.jpg","0","0","1","",""
"","feedback","","html-keyboard-response","500","682593","0.0-1.0-681.0-0.0","0","0","69129","","null","","","null","75","","","","","","","","","","","","","","","",""
"","ITI","","html-keyboard-response","501","683602","0.0-1.0-684.0","0","0","69129","","null","","","null","75","","","","","","","","","","","","","","","NaN",""
"","S1","","html-keyboard-response","502","683761","0.0-1.0-686.0","0","0","69129","","null","","","null","76","","","","","","","","","","","","","","","",""
"","ISI","","html-keyboard-response","503","685769","0.0-1.0-687.0","0","0","69129","","null","","","null","76","NaN","","","","","","","","","","","","","","",""
"","S2","","html-keyboard-response","504","685931","0.0-1.0-688.0","0","0","69129","","null","","","null","76","","NaN","","","","","","","","","","","","","",""
"","response","","html-keyboard-response","505","686058","0.0-1.0-689.0-0.0","0","0","69129","","125","","","75","76","","","2","76","training","adjacent","CB","3","2","N.jpg","M.jpg","1","0","0","",""
"","feedback","","html-keyboard-response","506","687068","0.0-1.0-690.0-0.0","0","0","69129","","null","","","null","76","","","","","","","","","","","","","","","",""
"","time_out","","html-keyboard-response","507","689071","0.0-1.0-692.0-0.0","0","0","69129","","null","","","null","76","","","","","","","","","","","","","","","",""
"","ITI","","html-keyboard-response","508","690081","0.0-1.0-693.0","0","0","69129","","null","","","null","76","","","","","","","","","","","","","","","NaN",""
"","S1","","html-keyboard-response","509","690244","0.0-1.0-695.0","0","0","69129","","null","","","null","77","","","","","","","","","","","","","","","",""
"","ISI","","html-keyboard-response","510","692252","0.0-1.0-696.0","0","0","69129","","null","","","null","77","NaN","","","","","","","","","","","","","","",""
"","S2","","html-keyboard-response","511","692410","0.0-1.0-697.0","0","0","69129","","null","","","null","77","","NaN","","","","","","","","","","","","","",""
"","response","","html-keyboard-response","512","692643","0.0-1.0-698.0-0.0","0","0","69129","","232","","","68","77","","","2","77","training","adjacent","DC","4","3","L.jpg","N.jpg","0","0","1","",""
"","feedback","","html-keyboard-response","513","693651","0.0-1.0-699.0-0.0","0","0","69129","","null","","","null","77","","","","","","","","","","","","","","","",""
"","ITI","","html-keyboard-response","514","694655","0.0-1.0-702.0","0","0","69129","","null","","","null","77","","","","","","","","","","","","","","","NaN",""
"","S1","","html-keyboard-response","515","694818","0.0-1.0-704.0","0","0","69129","","null","","","null","78","","","","","","","","","","","","","","","",""
"","ISI","","html-keyboard-response","516","696827","0.0-1.0-705.0","0","0","69129","","null","","","null","78","NaN","","","","","","","","","","","","","","",""
"","S2","","html-keyboard-response","517","696984","0.0-1.0-706.0","0","0","69129","","null","","","null","78","","NaN","","","","","","","","","","","","","",""
"","response","","html-keyboard-response","518","697743","0.0-1.0-707.0-0.0","0","0","69129","","758","","","68","78","","","2","78","training","adjacent","BA","2","1","M.jpg","Q.jpg","0","0","1","",""
"","feedback","","html-keyboard-response","519","698754","0.0-1.0-708.0-0.0","0","0","69129","","null","","","null","78","","","","","","","","","","","","","","","",""
"","ITI","","html-keyboard-response","520","699764","0.0-1.0-711.0","0","0","69129","","null","","","null","78","","","","","","","","","","","","","","","NaN",""
"","S1","","html-keyboard-response","521","699925","0.0-1.0-713.0","0","0","69129","","null","","","null","79","","","","","","","","","","","","","","","",""
"","ISI","","html-keyboard-response","522","701935","0.0-1.0-714.0","0","0","69129","","null","","","null","79","NaN","","","","","","","","","","","","","","",""
"","S2","","html-keyboard-response","523","702098","0.0-1.0-715.0","0","0","69129","","null","","","null","79","","NaN","","","","","","","","","","","","","",""
"","response","","html-keyboard-response","524","702554","0.0-1.0-716.0-0.0","0","0","69129","","455","","","68","79","","","2","79","training","adjacent","FE","6","5","P.jpg","O.jpg","0","0","1","",""
"","feedback","","html-keyboard-response","525","703560","0.0-1.0-717.0-0.0","0","0","69129","","null","","","null","79","","","","","","","","","","","","","","","",""
"","ITI","","html-keyboard-response","526","704571","0.0-1.0-720.0","0","0","69129","","null","","","null","79","","","","","","","","","","","","","","","NaN",""
"","S1","","html-keyboard-response","527","704729","0.0-1.0-722.0","0","0","69129","","null","","","null","80","","","","","","","","","","","","","","","",""
"","ISI","","html-keyboard-response","528","706737","0.0-1.0-723.0","0","0","69129","","null","","","null","80","NaN","","","","","","","","","","","","","","",""
"","S2","","html-keyboard-response","529","706898","0.0-1.0-724.0","0","0","69129","","null","","","null","80","","NaN","","","","","","","","","","","","","",""
"","response","","html-keyboard-response","530","707073","0.0-1.0-725.0-0.0","0","0","69129","","172","","","75","80","","","2","80","training","adjacent","AB","1","2","Q.jpg","M.jpg","1","1","1","",""
"","feedback","","html-keyboard-response","531","708082","0.0-1.0-726.0-0.0","0","0","69129","","null","","","null","80","","","","","","","","","","","","","","","",""
"","ITI","","html-keyboard-response","532","709088","0.0-1.0-729.0","0","0","69129","","null","","","null","80","","","","","","","","","","","","","","","NaN",""
"","S1","","html-keyboard-response","533","709249","0.0-1.0-731.0","0","0","69129","","null","","","null","81","","","","","","","","","","","","","","","",""
"","ISI","","html-keyboard-response","534","711258","0.0-1.0-732.0","0","0","69129","","null","","","null","81","NaN","","","","","","","","","","","","","","",""
"","S2","","html-keyboard-response","535","711420","0.0-1.0-733.0","0","0","69129","","null","","","null","81","","NaN","","","","","","","","","","","","","",""
"","response","","html-keyboard-response","536","711744","0.0-1.0-734.0-0.0","0","0","69129","","322","","","75","81","","","2","81","training","adjacent","BC","2","3","M.jpg","N.jpg","1","1","1","",""
"","feedback","","html-keyboard-response","537","712756","0.0-1.0-735.0-0.0","0","0","69129","","null","","","null","81","","","","","","","","","","","","","","","",""
"","ITI","","html-keyboard-response","538","713770","0.0-1.0-738.0","0","0","69129","","null","","","null","81","","","","","","","","","","","","","","","NaN",""
"","S1","","html-keyboard-response","539","713929","0.0-1.0-740.0","0","0","69129","","null","","","null","82","","","","","","","","","","","","","","","",""
"","ISI","","html-keyboard-response","540","715937","0.0-1.0-741.0","0","0","69129","","null","","","null","82","NaN","","","","","","","","","","","","","","",""
"","S2","","html-keyboard-response","541","716099","0.0-1.0-742.0","0","0","69129","","null","","","null","82","","NaN","","","","","","","","","","","","","",""
"","response","","html-keyboard-response","542","716736","0.0-1.0-743.0-0.0","0","0","69129","","635","","","68","82","","","2","82","training","adjacent","BA","2","1","M.jpg","Q.jpg","0","0","1","",""
"","feedback","","html-keyboard-response","543","717747","0.0-1.0-744.0-0.0","0","0","69129","","null","","","null","82","","","","","","","","","","","","","","","",""
"","ITI","","html-keyboard-response","544","718752","0.0-1.0-747.0","0","0","69129","","null","","","null","82","","","","","","","","","","","","","","","NaN",""
"","S1","","html-keyboard-response","545","718914","0.0-1.0-749.0","0","0","69129","","null","","","null","83","","","","","","","","","","","","","","","",""
"","ISI","","html-keyboard-response","546","720923","0.0-1.0-750.0","0","0","69129","","null","","","null","83","NaN","","","","","","","","","","","","","","",""
"","S2","","html-keyboard-response","547","721080","0.0-1.0-751.0","0","0","69129","","null","","","null","83","","NaN","","","","","","","","","","","","","",""
"","response","","html-keyboard-response","548","721601","0.0-1.0-752.0-0.0","0","0","69129","","519","","","75","83","","","2","83","training","adjacent","DC","4","3","L.jpg","N.jpg","1","0","0","",""
"","feedback","","html-keyboard-response","549","722612","0.0-1.0-753.0-0.0","0","0","69129","","null","","","null","83","","","","","","","","","","","","","","","",""
"","time_out","","html-keyboard-response","550","724616","0.0-1.0-755.0-0.0","0","0","69129","","null","","","null","83","","","","","","","","","","","","","","","",""
"","ITI","","html-keyboard-response","551","725625","0.0-1.0-756.0","0","0","69129","","null","","","null","83","","","","","","","","","","","","","","","NaN",""
"","S1","","html-keyboard-response","552","725788","0.0-1.0-758.0","0","0","69129","","null","","","null","84","","","","","","","","","","","","","","","",""
"","ISI","","html-keyboard-response","553","727796","0.0-1.0-759.0","0","0","69129","","null","","","null","84","NaN","","","","","","","","","","","","","","",""
"","S2","","html-keyboard-response","554","727954","0.0-1.0-760.0","0","0","69129","","null","","","null","84","","NaN","","","","","","","","","","","","","",""
"","response","","html-keyboard-response","555","728200","0.0-1.0-761.0-0.0","0","0","69129","","244","","","75","84","","","2","84","training","adjacent","EF","5","6","O.jpg","P.jpg","1","1","1","",""
"","feedback","","html-keyboard-response","556","729212","0.0-1.0-762.0-0.0","0","0","69129","","null","","","null","84","","","","","","","","","","","","","","","",""
"","ITI","","html-keyboard-response","557","730218","0.0-1.0-765.0","0","0","69129","","null","","","null","84","","","","","","","","","","","","","","","NaN",""
"","S1","","html-keyboard-response","558","730379","0.0-1.0-767.0","0","0","69129","","null","","","null","85","","","","","","","","","","","","","","","",""
"","ISI","","html-keyboard-response","559","732387","0.0-1.0-768.0","0","0","69129","","null","","","null","85","NaN","","","","","","","","","","","","","","",""
"","S2","","html-keyboard-response","560","732545","0.0-1.0-769.0","0","0","69129","","null","","","null","85","","NaN","","","","","","","","","","","","","",""
"","response","","html-keyboard-response","561","732793","0.0-1.0-770.0-0.0","0","0","69129","","246","","","75","85","","","2","85","training","adjacent","FE","6","5","P.jpg","O.jpg","1","0","0","",""
"","feedback","","html-keyboard-response","562","733804","0.0-1.0-771.0-0.0","0","0","69129","","null","","","null","85","","","","","","","","","","","","","","","",""
"","time_out","","html-keyboard-response","563","735807","0.0-1.0-773.0-0.0","0","0","69129","","null","","","null","85","","","","","","","","","","","","","","","",""
"","ITI","","html-keyboard-response","564","736817","0.0-1.0-774.0","0","0","69129","","null","","","null","85","","","","","","","","","","","","","","","NaN",""
"","S1","","html-keyboard-response","565","736980","0.0-1.0-776.0","0","0","69129","","null","","","null","86","","","","","","","","","","","","","","","",""
"","ISI","","html-keyboard-response","566","738988","0.0-1.0-777.0","0","0","69129","","null","","","null","86","NaN","","","","","","","","","","","","","","",""
"","S2","","html-keyboard-response","567","739146","0.0-1.0-778.0","0","0","69129","","null","","","null","86","","NaN","","","","","","","","","","","","","",""
"","response","","html-keyboard-response","568","739384","0.0-1.0-779.0-0.0","0","0","69129","","236","","","68","86","","","2","86","training","adjacent","ED","5","4","O.jpg","L.jpg","0","0","1","",""
"","feedback","","html-keyboard-response","569","740393","0.0-1.0-780.0-0.0","0","0","69129","","null","","","null","86","","","","","","","","","","","","","","","",""
"","ITI","","html-keyboard-response","570","741403","0.0-1.0-783.0","0","0","69129","","null","","","null","86","","","","","","","","","","","","","","","NaN",""
"","S1","","html-keyboard-response","571","741560","0.0-1.0-785.0","0","0","69129","","null","","","null","87","","","","","","","","","","","","","","","",""
"","ISI","","html-keyboard-response","572","743569","0.0-1.0-786.0","0","0","69129","","null","","","null","87","NaN","","","","","","","","","","","","","","",""
"","S2","","html-keyboard-response","573","743730","0.0-1.0-787.0","0","0","69129","","null","","","null","87","","NaN","","","","","","","","","","","","","",""
"","response","","html-keyboard-response","574","743973","0.0-1.0-788.0-0.0","0","0","69129","","241","","","75","87","","","2","87","training","adjacent","BA","2","1","M.jpg","Q.jpg","1","0","0","",""
"","feedback","","html-keyboard-response","575","744985","0.0-1.0-789.0-0.0","0","0","69129","","null","","","null","87","","","","","","","","","","","","","","","",""
"","time_out","","html-keyboard-response","576","746994","0.0-1.0-791.0-0.0","0","0","69129","","null","","","null","87","","","","","","","","","","","","","","","",""
