"success","ttype","start_time","trial_type","trial_index","time_elapsed","internal_node_id","warning","missed_checkup","PID","view_history","rt","responses","repeat_instructions","key_press","index","keypress_isi","keypress_S2","block","trial_num","phase","group_type","pair_type","S1_stim","S2_stim","S1_img","S2_img","S1_chosen","S1_higher","accuracy","keypress_iti","total_bonus_tally"
"true","full_screen","d03072023hr1826","fullscreen","0","17139","0.0-0.0","0","0","36403","","","","","","","","","","","","","","","","","","","","","",""
"","instructions","","instructions","1","68182","0.0-1.0-0.0-0.0","0","0","36403","[{""page_index"":0,""viewing_time"":5823},{""page_index"":1,""viewing_time"":34060},{""page_index"":2,""viewing_time"":9669},{""page_index"":3,""viewing_time"":1488}]","51041","","","","","","","","","","","","","","","","","","","",""
"","comprehension_check","","survey-multi-choice","2","98797","0.0-1.0-0.0-1.0","0","0","36403","","30610","{""Q0"":""True"",""Q1"":""K"",""Q2"":""Only when the screen 'MAKE A CHOICE' is shown"",""Q3"":""Green mark"",""Q4"":""either D or K""}","1","","","","","","","","","","","","","","","","","",""
"","missed_instruction_checkup","","html-keyboard-response","3","101019","0.0-1.0-0.0-2.0-0.0","0","1","36403","","2218","","","32","","","","","","","","","","","","","","","","",""
"","instructions","","instructions","4","129947","0.0-1.0-0.1-0.1","0","0","36403","[{""page_index"":0,""viewing_time"":1903},{""page_index"":1,""viewing_time"":20773},{""page_index"":2,""viewing_time"":4838},{""page_index"":3,""viewing_time"":1412}]","28927","","","","","","","","","","","","","","","","","","","",""
"","comprehension_check","","survey-multi-choice","5","157916","0.0-1.0-0.1-1.1","0","0","36403","","27964","{""Q0"":""True"",""Q1"":""K"",""Q2"":""Once the second image appears and while the screen 'MAKE A CHOICE' is shown"",""Q3"":""Green mark"",""Q4"":""either D or K""}","0","","","","","","","","","","","","","","","","","",""
"","start_exp","","html-keyboard-response","6","164252","0.0-1.0-1.0","0","0","36403","","6333","","","32","","","","","","","","","","","","","","","","",""
"","S1","","html-keyboard-response","7","164506","0.0-1.0-2.0","0","0","36403","","null","","","null","0","","","","","","","","","","","","","","","",""
"","ISI","","html-keyboard-response","8","165508","0.0-1.0-3.0","0","0","36403","","null","","","null","0","NaN","","","","","","","","","","","","","","",""
"","S2","","html-keyboard-response","9","165762","0.0-1.0-4.0","0","0","36403","","null","","","null","0","","NaN","","","","","","","","","","","","","",""
"","response","","html-keyboard-response","10","166721","0.0-1.0-5.0-0.0","0","0","36403","","955","","","68","0","","","1","0","training","adjacent","GF","7","6","L.jpg","N.jpg","0","0","1","",""
"","feedback","","html-keyboard-response","11","167725","0.0-1.0-6.0-0.0","0","0","36403","","null","","","null","0","","","","","","","","","","","","","","","",""
"","ITI","","html-keyboard-response","12","168728","0.0-1.0-9.0","0","0","36403","","null","","","null","0","","","","","","","","","","","","","","","NaN",""
"","S1","","html-keyboard-response","13","168982","0.0-1.0-11.0","0","0","36403","","null","","","null","1","","","","","","","","","","","","","","","",""
"","ISI","","html-keyboard-response","14","169986","0.0-1.0-12.0","0","0","36403","","null","","","null","1","NaN","","","","","","","","","","","","","","",""
"","S2","","html-keyboard-response","15","170239","0.0-1.0-13.0","0","0","36403","","null","","","null","1","","NaN","","","","","","","","","","","","","",""
"","response","","html-keyboard-response","16","170663","0.0-1.0-14.0-0.0","0","0","36403","","422","","","68","1","","","1","1","training","adjacent","ED","5","4","O.jpg","R.jpg","0","0","1","",""
"","feedback","","html-keyboard-response","17","171667","0.0-1.0-15.0-0.0","0","0","36403","","null","","","null","1","","","","","","","","","","","","","","","",""
"","ITI","","html-keyboard-response","18","172670","0.0-1.0-18.0","0","0","36403","","null","","","null","1","","","","","","","","","","","","","","","NaN",""
"","S1","","html-keyboard-response","19","172923","0.0-1.0-20.0","0","0","36403","","null","","","null","2","","","","","","","","","","","","","","","",""
"","ISI","","html-keyboard-response","20","173926","0.0-1.0-21.0","0","0","36403","","null","","","null","2","NaN","","","","","","","","","","","","","","",""
"","S2","","html-keyboard-response","21","174180","0.0-1.0-22.0","0","0","36403","","null","","","null","2","","NaN","","","","","","","","","","","","","",""
"","response","","html-keyboard-response","22","174333","0.0-1.0-23.0-0.0","0","0","36403","","150","","","68","2","","","1","2","training","adjacent","FE","6","5","N.jpg","O.jpg","0","0","1","",""
"","feedback","","html-keyboard-response","23","175337","0.0-1.0-24.0-0.0","0","0","36403","","null","","","null","2","","","","","","","","","","","","","","","",""
"","ITI","","html-keyboard-response","24","176341","0.0-1.0-27.0","0","0","36403","","null","","","null","2","","","","","","","","","","","","","","","NaN",""
"","S1","","html-keyboard-response","25","176594","0.0-1.0-29.0","0","0","36403","","null","","","null","3","","","","","","","","","","","","","","","",""
"","ISI","","html-keyboard-response","26","177597","0.0-1.0-30.0","0","0","36403","","null","","","null","3","NaN","","","","","","","","","","","","","","",""
"","S2","","html-keyboard-response","27","177851","0.0-1.0-31.0","0","0","36403","","null","","","null","3","","NaN","","","","","","","","","","","","","",""
"","response","","html-keyboard-response","28","177986","0.0-1.0-32.0-0.0","0","0","36403","","133","","","75","3","","","1","3","training","adjacent","FE","6","5","N.jpg","O.jpg","1","0","0","",""
"","feedback","","html-keyboard-response","29","178989","0.0-1.0-33.0-0.0","0","0","36403","","null","","","null","3","","","","","","","","","","","","","","","",""
"","time_out","","html-keyboard-response","30","180992","0.0-1.0-35.0-0.0","0","0","36403","","null","","","null","3","","","","","","","","","","","","","","","",""
"","ITI","","html-keyboard-response","31","181995","0.0-1.0-36.0","0","0","36403","","null","","","null","3","","","","","","","","","","","","","","","NaN",""
"","S1","","html-keyboard-response","32","182248","0.0-1.0-38.0","0","0","36403","","null","","","null","4","","","","","","","","","","","","","","","",""
"","ISI","","html-keyboard-response","33","183252","0.0-1.0-39.0","0","0","36403","","null","","","null","4","NaN","","","","","","","","","","","","","","",""
"","S2","","html-keyboard-response","34","183505","0.0-1.0-40.0","0","0","36403","","null","","","null","4","","NaN","","","","","","","","","","","","","",""
"","response","","html-keyboard-response","35","183667","0.0-1.0-41.0-0.0","0","0","36403","","159","","","68","4","","","1","4","training","adjacent","DC","4","3","R.jpg","M.jpg","0","0","1","",""
"","feedback","","html-keyboard-response","36","184671","0.0-1.0-42.0-0.0","0","0","36403","","null","","","null","4","","","","","","","","","","","","","","","",""
"","ITI","","html-keyboard-response","37","185675","0.0-1.0-45.0","0","0","36403","","null","","","null","4","","","","","","","","","","","","","","","NaN",""
"","S1","","html-keyboard-response","38","185927","0.0-1.0-47.0","0","0","36403","","null","","","null","5","","","","","","","","","","","","","","","",""
"","ISI","","html-keyboard-response","39","186930","0.0-1.0-48.0","0","0","36403","","null","","","null","5","NaN","","","","","","","","","","","","","","",""
"","S2","","html-keyboard-response","40","187184","0.0-1.0-49.0","0","0","36403","","null","","","null","5","","NaN","","","","","","","","","","","","","",""
"","response","","html-keyboard-response","41","187312","0.0-1.0-50.0-0.0","0","0","36403","","125","","","68","5","","","1","5","training","adjacent","AB","1","2","Q.jpg","P.jpg","0","1","0","",""
"","feedback","","html-keyboard-response","42","188315","0.0-1.0-51.0-0.0","0","0","36403","","null","","","null","5","","","","","","","","","","","","","","","",""
"","time_out","","html-keyboard-response","43","190318","0.0-1.0-53.0-0.0","0","0","36403","","null","","","null","5","","","","","","","","","","","","","","","",""
"","ITI","","html-keyboard-response","44","191320","0.0-1.0-54.0","0","0","36403","","null","","","null","5","","","","","","","","","","","","","","","NaN",""
"","S1","","html-keyboard-response","45","191574","0.0-1.0-56.0","0","0","36403","","null","","","null","6","","","","","","","","","","","","","","","",""
"","ISI","","html-keyboard-response","46","192577","0.0-1.0-57.0","0","0","36403","","null","","","null","6","NaN","","","","","","","","","","","","","","",""
"","S2","","html-keyboard-response","47","192830","0.0-1.0-58.0","0","0","36403","","null","","","null","6","","NaN","","","","","","","","","","","","","",""
"","response","","html-keyboard-response","48","193420","0.0-1.0-59.0-0.0","0","0","36403","","588","","","75","6","","","1","6","training","adjacent","BA","2","1","P.jpg","Q.jpg","1","0","0","",""
"","feedback","","html-keyboard-response","49","194424","0.0-1.0-60.0-0.0","0","0","36403","","null","","","null","6","","","","","","","","","","","","","","","",""
"","time_out","","html-keyboard-response","50","196427","0.0-1.0-62.0-0.0","0","0","36403","","null","","","null","6","","","","","","","","","","","","","","","",""
"","ITI","","html-keyboard-response","51","197430","0.0-1.0-63.0","0","0","36403","","null","","","null","6","","","","","","","","","","","","","","","NaN",""
"","S1","","html-keyboard-response","52","197682","0.0-1.0-65.0","0","0","36403","","null","","","null","7","","","","","","","","","","","","","","","",""
"","ISI","","html-keyboard-response","53","198685","0.0-1.0-66.0","0","0","36403","","null","","","null","7","NaN","","","","","","","","","","","","","","",""
"","S2","","html-keyboard-response","54","198941","0.0-1.0-67.0","0","0","36403","","null","","","null","7","","NaN","","","","","","","","","","","","","",""
"","response","","html-keyboard-response","55","199192","0.0-1.0-68.0-0.0","0","0","36403","","247","","","68","7","","","1","7","training","adjacent","FG","6","7","N.jpg","L.jpg","0","1","0","",""
"","feedback","","html-keyboard-response","56","200195","0.0-1.0-69.0-0.0","0","0","36403","","null","","","null","7","","","","","","","","","","","","","","","",""
"","time_out","","html-keyboard-response","57","202198","0.0-1.0-71.0-0.0","0","0","36403","","null","","","null","7","","","","","","","","","","","","","","","",""
"","ITI","","html-keyboard-response","58","203202","0.0-1.0-72.0","0","0","36403","","null","","","null","7","","","","","","","","","","","","","","","NaN",""
"","S1","","html-keyboard-response","59","203455","0.0-1.0-74.0","0","0","36403","","null","","","null","8","","","","","","","","","","","","","","","",""
"","ISI","","html-keyboard-response","60","204457","0.0-1.0-75.0","0","0","36403","","null","","","null","8","NaN","","","","","","","","","","","","","","",""
"","S2","","html-keyboard-response","61","204711","0.0-1.0-76.0","0","0","36403","","null","","","null","8","","NaN","","","","","","","","","","","","","",""
"","response","","html-keyboard-response","62","204884","0.0-1.0-77.0-0.0","0","0","36403","","170","","","75","8","","","1","8","training","adjacent","CB","3","2","M.jpg","P.jpg","1","0","0","",""
"","feedback","","html-keyboard-response","63","205888","0.0-1.0-78.0-0.0","0","0","36403","","null","","","null","8","","","","","","","","","","","","","","","",""
"","time_out","","html-keyboard-response","64","207891","0.0-1.0-80.0-0.0","0","0","36403","","null","","","null","8","","","","","","","","","","","","","","","",""
"","ITI","","html-keyboard-response","65","208894","0.0-1.0-81.0","0","0","36403","","null","","","null","8","","","","","","","","","","","","","","","NaN",""
"","S1","","html-keyboard-response","66","209147","0.0-1.0-83.0","0","0","36403","","null","","","null","9","","","","","","","","","","","","","","","",""
"","ISI","","html-keyboard-response","67","210150","0.0-1.0-84.0","0","0","36403","","null","","","null","9","NaN","","","","","","","","","","","","","","",""
"","S2","","html-keyboard-response","68","210403","0.0-1.0-85.0","0","0","36403","","null","","","null","9","","NaN","","","","","","","","","","","","","",""
"","response","","html-keyboard-response","69","210475","0.0-1.0-86.0-0.0","0","0","36403","","69","","","68","9","","","1","9","training","adjacent","ED","5","4","O.jpg","R.jpg","0","0","1","",""
"","feedback","","html-keyboard-response","70","211478","0.0-1.0-87.0-0.0","0","0","36403","","null","","","null","9","","","","","","","","","","","","","","","",""
"","ITI","","html-keyboard-response","71","212480","0.0-1.0-90.0","0","0","36403","","null","","","null","9","","","","","","","","","","","","","","","NaN",""
"","S1","","html-keyboard-response","72","212733","0.0-1.0-92.0","0","0","36403","","null","","","null","10","","","","","","","","","","","","","","","",""
"","ISI","","html-keyboard-response","73","213736","0.0-1.0-93.0","0","0","36403","","null","","","null","10","NaN","","","","","","","","","","","","","","",""
"","S2","","html-keyboard-response","74","213990","0.0-1.0-94.0","0","0","36403","","null","","","null","10","","NaN","","","","","","","","","","","","","",""
"","response","","html-keyboard-response","75","214411","0.0-1.0-95.0-0.0","0","0","36403","","418","","","75","10","","","1","10","training","adjacent","BA","2","1","P.jpg","Q.jpg","1","0","0","",""
"","feedback","","html-keyboard-response","76","215415","0.0-1.0-96.0-0.0","0","0","36403","","null","","","null","10","","","","","","","","","","","","","","","",""
"","time_out","","html-keyboard-response","77","217417","0.0-1.0-98.0-0.0","0","0","36403","","null","","","null","10","","","","","","","","","","","","","","","",""
"","ITI","","html-keyboard-response","78","218420","0.0-1.0-99.0","0","0","36403","","null","","","null","10","","","","","","","","","","","","","","","NaN",""
"","S1","","html-keyboard-response","79","218673","0.0-1.0-101.0","0","0","36403","","null","","","null","11","","","","","","","","","","","","","","","",""
"","ISI","","html-keyboard-response","80","219676","0.0-1.0-102.0","0","0","36403","","null","","","null","11","NaN","","","","","","","","","","","","","","",""
"","S2","","html-keyboard-response","81","219930","0.0-1.0-103.0","0","0","36403","","null","","","null","11","","NaN","","","","","","","","","","","","","",""
"","response","","html-keyboard-response","82","220192","0.0-1.0-104.0-0.0","0","0","36403","","260","","","68","11","","","1","11","training","adjacent","FE","6","5","N.jpg","O.jpg","0","0","1","",""
"","feedback","","html-keyboard-response","83","221196","0.0-1.0-105.0-0.0","0","0","36403","","null","","","null","11","","","","","","","","","","","","","","","",""
"","ITI","","html-keyboard-response","84","222199","0.0-1.0-108.0","0","0","36403","","null","","","null","11","","","","","","","","","","","","","","","NaN",""
"","S1","","html-keyboard-response","85","222453","0.0-1.0-110.0","0","0","36403","","null","","","null","12","","","","","","","","","","","","","","","",""
"","ISI","","html-keyboard-response","86","223458","0.0-1.0-111.0","0","0","36403","","null","","","null","12","NaN","","","","","","","","","","","","","","",""
"","S2","","html-keyboard-response","87","223712","0.0-1.0-112.0","0","0","36403","","null","","","null","12","","NaN","","","","","","","","","","","","","",""
"","response","","html-keyboard-response","88","223718","0.0-1.0-113.0-0.0","0","0","36403","","3","","","75","12","","","1","12","training","adjacent","DE","4","5","R.jpg","O.jpg","1","1","1","",""
"","feedback","","html-keyboard-response","89","224722","0.0-1.0-114.0-0.0","0","0","36403","","null","","","null","12","","","","","","","","","","","","","","","",""
"","ITI","","html-keyboard-response","90","225724","0.0-1.0-117.0","0","0","36403","","null","","","null","12","","","","","","","","","","","","","","","NaN",""
"","S1","","html-keyboard-response","91","225977","0.0-1.0-119.0","0","0","36403","","null","","","null","13","","","","","","","","","","","","","","","",""
"","ISI","","html-keyboard-response","92","226980","0.0-1.0-120.0","0","0","36403","","null","","","null","13","NaN","","","","","","","","","","","","","","",""
"","S2","","html-keyboard-response","93","227233","0.0-1.0-121.0","0","0","36403","","null","","","null","13","","NaN","","","","","","","","","","","","","",""
"","response","","html-keyboard-response","94","227636","0.0-1.0-122.0-0.0","0","0","36403","","401","","","68","13","","","1","13","training","adjacent","GF","7","6","L.jpg","N.jpg","0","0","1","",""
"","feedback","","html-keyboard-response","95","228640","0.0-1.0-123.0-0.0","0","0","36403","","null","","","null","13","","","","","","","","","","","","","","","",""
"","ITI","","html-keyboard-response","96","229644","0.0-1.0-126.0","0","0","36403","","null","","","null","13","","","","","","","","","","","","","","","NaN",""
"","S1","","html-keyboard-response","97","229897","0.0-1.0-128.0","0","0","36403","","null","","","null","14","","","","","","","","","","","","","","","",""
"","ISI","","html-keyboard-response","98","230900","0.0-1.0-129.0","0","0","36403","","null","","","null","14","NaN","","","","","","","","","","","","","","",""
"","S2","","html-keyboard-response","99","231154","0.0-1.0-130.0","0","0","36403","","null","","","null","14","","NaN","","","","","","","","","","","","","",""
"","response","","html-keyboard-response","100","231298","0.0-1.0-131.0-0.0","0","0","36403","","141","","","68","14","","","1","14","training","adjacent","BC","2","3","P.jpg","M.jpg","0","1","0","",""
"","feedback","","html-keyboard-response","101","232301","0.0-1.0-132.0-0.0","0","0","36403","","null","","","null","14","","","","","","","","","","","","","","","",""
"","time_out","","html-keyboard-response","102","234305","0.0-1.0-134.0-0.0","0","0","36403","","null","","","null","14","","","","","","","","","","","","","","","",""
"","ITI","","html-keyboard-response","103","235308","0.0-1.0-135.0","0","0","36403","","null","","","null","14","","","","","","","","","","","","","","","NaN",""
"","S1","","html-keyboard-response","104","235561","0.0-1.0-137.0","0","0","36403","","null","","","null","15","","","","","","","","","","","","","","","",""
"","ISI","","html-keyboard-response","105","236564","0.0-1.0-138.0","0","0","36403","","null","","","null","15","NaN","","","","","","","","","","","","","","",""
"","S2","","html-keyboard-response","106","236818","0.0-1.0-139.0","0","0","36403","","null","","","null","15","","NaN","","","","","","","","","","","","","",""
"","response","","html-keyboard-response","107","237110","0.0-1.0-140.0-0.0","0","0","36403","","290","","","68","15","","","1","15","training","adjacent","CD","3","4","M.jpg","R.jpg","0","1","0","",""
"","feedback","","html-keyboard-response","108","238114","0.0-1.0-141.0-0.0","0","0","36403","","null","","","null","15","","","","","","","","","","","","","","","",""
"","time_out","","html-keyboard-response","109","240117","0.0-1.0-143.0-0.0","0","0","36403","","null","","","null","15","","","","","","","","","","","","","","","",""
"","ITI","","html-keyboard-response","110","241120","0.0-1.0-144.0","0","0","36403","","null","","","null","15","","","","","","","","","","","","","","","NaN",""
"","S1","","html-keyboard-response","111","241373","0.0-1.0-146.0","0","0","36403","","null","","","null","16","","","","","","","","","","","","","","","",""
"","ISI","","html-keyboard-response","112","242376","0.0-1.0-147.0","0","0","36403","","null","","","null","16","NaN","","","","","","","","","","","","","","",""
"","S2","","html-keyboard-response","113","242630","0.0-1.0-148.0","0","0","36403","","null","","","null","16","","NaN","","","","","","","","","","","","","",""
"","response","","html-keyboard-response","114","242747","0.0-1.0-149.0-0.0","0","0","36403","","115","","","75","16","","","1","16","training","adjacent","CD","3","4","M.jpg","R.jpg","1","1","1","",""
"","feedback","","html-keyboard-response","115","243751","0.0-1.0-150.0-0.0","0","0","36403","","null","","","null","16","","","","","","","","","","","","","","","",""
"","ITI","","html-keyboard-response","116","244754","0.0-1.0-153.0","0","0","36403","","null","","","null","16","","","","","","","","","","","","","","","NaN",""
"","S1","","html-keyboard-response","117","245007","0.0-1.0-155.0","0","0","36403","","null","","","null","17","","","","","","","","","","","","","","","",""
"","ISI","","html-keyboard-response","118","246009","0.0-1.0-156.0","0","0","36403","","null","","","null","17","NaN","","","","","","","","","","","","","","",""
"","S2","","html-keyboard-response","119","246263","0.0-1.0-157.0","0","0","36403","","null","","","null","17","","NaN","","","","","","","","","","","","","",""
"","response","","html-keyboard-response","120","246948","0.0-1.0-158.0-0.0","0","0","36403","","683","","","68","17","","","1","17","training","adjacent","CB","3","2","M.jpg","P.jpg","0","0","1","",""
"","feedback","","html-keyboard-response","121","247952","0.0-1.0-159.0-0.0","0","0","36403","","null","","","null","17","","","","","","","","","","","","","","","",""
"","ITI","","html-keyboard-response","122","248955","0.0-1.0-162.0","0","0","36403","","null","","","null","17","","","","","","","","","","","","","","","NaN",""
"","S1","","html-keyboard-response","123","249208","0.0-1.0-164.0","0","0","36403","","null","","","null","18","","","","","","","","","","","","","","","",""
"","ISI","","html-keyboard-response","124","250211","0.0-1.0-165.0","0","0","36403","","null","","","null","18","NaN","","","","","","","","","","","","","","",""
"","S2","","html-keyboard-response","125","250466","0.0-1.0-166.0","0","0","36403","","null","","","null","18","","NaN","","","","","","","","","","","","","",""
"","response","","html-keyboard-response","126","250705","0.0-1.0-167.0-0.0","0","0","36403","","236","","","68","18","","","1","18","training","adjacent","DC","4","3","R.jpg","M.jpg","0","0","1","",""
"","feedback","","html-keyboard-response","127","251708","0.0-1.0-168.0-0.0","0","0","36403","","null","","","null","18","","","","","","","","","","","","","","","",""
"","ITI","","html-keyboard-response","128","252711","0.0-1.0-171.0","0","0","36403","","null","","","null","18","","","","","","","","","","","","","","","NaN",""
"","S1","","html-keyboard-response","129","252964","0.0-1.0-173.0","0","0","36403","","null","","","null","19","","","","","","","","","","","","","","","",""
"","ISI","","html-keyboard-response","130","253968","0.0-1.0-174.0","0","0","36403","","null","","","null","19","NaN","","","","","","","","","","","","","","",""
"","S2","","html-keyboard-response","131","254222","0.0-1.0-175.0","0","0","36403","","null","","","null","19","","NaN","","","","","","","","","","","","","",""
"","response","","html-keyboard-response","132","254557","0.0-1.0-176.0-0.0","0","0","36403","","332","","","75","19","","","1","19","training","adjacent","AB","1","2","Q.jpg","P.jpg","1","1","1","",""
"","feedback","","html-keyboard-response","133","255560","0.0-1.0-177.0-0.0","0","0","36403","","null","","","null","19","","","","","","","","","","","","","","","",""
"","ITI","","html-keyboard-response","134","256563","0.0-1.0-180.0","0","0","36403","","null","","","null","19","","","","","","","","","","","","","","","NaN",""
"","S1","","html-keyboard-response","135","256816","0.0-1.0-182.0","0","0","36403","","null","","","null","20","","","","","","","","","","","","","","","",""
"","ISI","","html-keyboard-response","136","257820","0.0-1.0-183.0","0","0","36403","","null","","","null","20","NaN","","","","","","","","","","","","","","",""
"","S2","","html-keyboard-response","137","258075","0.0-1.0-184.0","0","0","36403","","null","","","null","20","","NaN","","","","","","","","","","","","","",""
"","response","","html-keyboard-response","138","258382","0.0-1.0-185.0-0.0","0","0","36403","","305","","","68","20","","","1","20","training","adjacent","FG","6","7","N.jpg","L.jpg","0","1","0","",""
"","feedback","","html-keyboard-response","139","259385","0.0-1.0-186.0-0.0","0","0","36403","","null","","","null","20","","","","","","","","","","","","","","","",""
"","time_out","","html-keyboard-response","140","261388","0.0-1.0-188.0-0.0","0","0","36403","","null","","","null","20","","","","","","","","","","","","","","","",""
"","ITI","","html-keyboard-response","141","262392","0.0-1.0-189.0","0","0","36403","","null","","","null","20","","","","","","","","","","","","","","","NaN",""
"","S1","","html-keyboard-response","142","262645","0.0-1.0-191.0","0","0","36403","","null","","","null","21","","","","","","","","","","","","","","","",""
"","ISI","","html-keyboard-response","143","263649","0.0-1.0-192.0","0","0","36403","","null","","","null","21","NaN","","","","","","","","","","","","","","",""
"","S2","","html-keyboard-response","144","263902","0.0-1.0-193.0","0","0","36403","","null","","","null","21","","NaN","","","","","","","","","","","","","",""
"","response","","html-keyboard-response","145","264702","0.0-1.0-194.0-0.0","0","0","36403","","797","","","75","21","","","1","21","training","adjacent","EF","5","6","O.jpg","N.jpg","1","1","1","",""
"","feedback","","html-keyboard-response","146","265706","0.0-1.0-195.0-0.0","0","0","36403","","null","","","null","21","","","","","","","","","","","","","","","",""
"","ITI","","html-keyboard-response","147","266710","0.0-1.0-198.0","0","0","36403","","null","","","null","21","","","","","","","","","","","","","","","NaN",""
"","S1","","html-keyboard-response","148","266962","0.0-1.0-200.0","0","0","36403","","null","","","null","22","","","","","","","","","","","","","","","",""
"","ISI","","html-keyboard-response","149","267964","0.0-1.0-201.0","0","0","36403","","null","","","null","22","NaN","","","","","","","","","","","","","","",""
"","S2","","html-keyboard-response","150","268218","0.0-1.0-202.0","0","0","36403","","null","","","null","22","","NaN","","","","","","","","","","","","","",""
"","response","","html-keyboard-response","151","269003","0.0-1.0-203.0-0.0","0","0","36403","","782","","","75","22","","","1","22","training","adjacent","BA","2","1","P.jpg","Q.jpg","1","0","0","",""
"","feedback","","html-keyboard-response","152","270007","0.0-1.0-204.0-0.0","0","0","36403","","null","","","null","22","","","","","","","","","","","","","","","",""
"","time_out","","html-keyboard-response","153","272009","0.0-1.0-206.0-0.0","0","0","36403","","null","","","null","22","","","","","","","","","","","","","","","",""
"","ITI","","html-keyboard-response","154","273013","0.0-1.0-207.0","0","0","36403","","null","","","null","22","","","","","","","","","","","","","","","NaN",""
"","S1","","html-keyboard-response","155","273266","0.0-1.0-209.0","0","0","36403","","null","","","null","23","","","","","","","","","","","","","","","",""
"","ISI","","html-keyboard-response","156","274269","0.0-1.0-210.0","0","0","36403","","null","","","null","23","NaN","","","","","","","","","","","","","","",""
"","S2","","html-keyboard-response","157","274524","0.0-1.0-211.0","0","0","36403","","null","","","null","23","","NaN","","","","","","","","","","","","","",""
"","response","","html-keyboard-response","158","275353","0.0-1.0-212.0-0.0","0","0","36403","","827","","","75","23","","","1","23","training","adjacent","CB","3","2","M.jpg","P.jpg","1","0","0","",""
"","feedback","","html-keyboard-response","159","276357","0.0-1.0-213.0-0.0","0","0","36403","","null","","","null","23","","","","","","","","","","","","","","","",""
"","time_out","","html-keyboard-response","160","278360","0.0-1.0-215.0-0.0","0","0","36403","","null","","","null","23","","","","","","","","","","","","","","","",""
"","ITI","","html-keyboard-response","161","279362","0.0-1.0-216.0","0","0","36403","","null","","","null","23","","","","","","","","","","","","","","","NaN",""
"","S1","","html-keyboard-response","162","279615","0.0-1.0-218.0","0","0","36403","","null","","","null","24","","","","","","","","","","","","","","","",""
"","ISI","","html-keyboard-response","163","280618","0.0-1.0-219.0","0","0","36403","","null","","","null","24","NaN","","","","","","","","","","","","","","",""
"","S2","","html-keyboard-response","164","280871","0.0-1.0-220.0","0","0","36403","","null","","","null","24","","NaN","","","","","","","","","","","","","",""
"","response","","html-keyboard-response","165","281899","0.0-1.0-221.0-0.0","0","0","36403","","1026","","","75","24","","","1","24","training","adjacent","AB","1","2","Q.jpg","P.jpg","1","1","1","",""
"","feedback","","html-keyboard-response","166","282902","0.0-1.0-222.0-0.0","0","0","36403","","null","","","null","24","","","","","","","","","","","","","","","",""
"","ITI","","html-keyboard-response","167","283905","0.0-1.0-225.0","0","0","36403","","null","","","null","24","","","","","","","","","","","","","","","NaN",""
"","S1","","html-keyboard-response","168","284158","0.0-1.0-227.0","0","0","36403","","null","","","null","25","","","","","","","","","","","","","","","",""
"","ISI","","html-keyboard-response","169","285160","0.0-1.0-228.0","0","0","36403","","null","","","null","25","NaN","","","","","","","","","","","","","","",""
"","S2","","html-keyboard-response","170","285413","0.0-1.0-229.0","0","0","36403","","null","","","null","25","","NaN","","","","","","","","","","","","","",""
"","response","","html-keyboard-response","171","286062","0.0-1.0-230.0-0.0","0","0","36403","","646","","","75","25","","","1","25","training","adjacent","BC","2","3","P.jpg","M.jpg","1","1","1","",""
"","feedback","","html-keyboard-response","172","287065","0.0-1.0-231.0-0.0","0","0","36403","","null","","","null","25","","","","","","","","","","","","","","","",""
"","ITI","","html-keyboard-response","173","288068","0.0-1.0-234.0","0","0","36403","","null","","","null","25","","","","","","","","","","","","","","","NaN",""
"","S1","","html-keyboard-response","174","288320","0.0-1.0-236.0","0","0","36403","","null","","","null","26","","","","","","","","","","","","","","","",""
"","ISI","","html-keyboard-response","175","289322","0.0-1.0-237.0","0","0","36403","","null","","","null","26","NaN","","","","","","","","","","","","","","",""
"","S2","","html-keyboard-response","176","289575","0.0-1.0-238.0","0","0","36403","","null","","","null","26","","NaN","","","","","","","","","","","","","",""
"","response","","html-keyboard-response","177","290423","0.0-1.0-239.0-0.0","0","0","36403","","845","","","68","26","","","1","26","training","adjacent","ED","5","4","O.jpg","R.jpg","0","0","1","",""
"","feedback","","html-keyboard-response","178","291426","0.0-1.0-240.0-0.0","0","0","36403","","null","","","null","26","","","","","","","","","","","","","","","",""
"","ITI","","html-keyboard-response","179","292428","0.0-1.0-243.0","0","0","36403","","null","","","null","26","","","","","","","","","","","","","","","NaN",""
"","S1","","html-keyboard-response","180","292680","0.0-1.0-245.0","0","0","36403","","null","","","null","27","","","","","","","","","","","","","","","",""
"","ISI","","html-keyboard-response","181","293683","0.0-1.0-246.0","0","0","36403","","null","","","null","27","NaN","","","","","","","","","","","","","","",""
"","S2","","html-keyboard-response","182","293936","0.0-1.0-247.0","0","0","36403","","null","","","null","27","","NaN","","","","","","","","","","","","","",""
"","response","","html-keyboard-response","183","294882","0.0-1.0-248.0-0.0","0","0","36403","","943","","","68","27","","","1","27","training","adjacent","CB","3","2","M.jpg","P.jpg","0","0","1","",""
"","feedback","","html-keyboard-response","184","295885","0.0-1.0-249.0-0.0","0","0","36403","","null","","","null","27","","","","","","","","","","","","","","","",""
"","ITI","","html-keyboard-response","185","296887","0.0-1.0-252.0","0","0","36403","","null","","","null","27","","","","","","","","","","","","","","","NaN",""
"","S1","","html-keyboard-response","186","297141","0.0-1.0-254.0","0","0","36403","","null","","","null","28","","","","","","","","","","","","","","","",""
"","ISI","","html-keyboard-response","187","298144","0.0-1.0-255.0","0","0","36403","","null","","","null","28","NaN","","","","","","","","","","","","","","",""
"","S2","","html-keyboard-response","188","298397","0.0-1.0-256.0","0","0","36403","","null","","","null","28","","NaN","","","","","","","","","","","","","",""
"","response","","html-keyboard-response","189","299099","0.0-1.0-257.0-0.0","0","0","36403","","699","","","68","28","","","1","28","training","adjacent","ED","5","4","O.jpg","R.jpg","0","0","1","",""
"","feedback","","html-keyboard-response","190","300103","0.0-1.0-258.0-0.0","0","0","36403","","null","","","null","28","","","","","","","","","","","","","","","",""
"","ITI","","html-keyboard-response","191","301106","0.0-1.0-261.0","0","0","36403","","null","","","null","28","","","","","","","","","","","","","","","NaN",""
"","S1","","html-keyboard-response","192","301359","0.0-1.0-263.0","0","0","36403","","null","","","null","29","","","","","","","","","","","","","","","",""
"","ISI","","html-keyboard-response","193","302361","0.0-1.0-264.0","0","0","36403","","null","","","null","29","NaN","","","","","","","","","","","","","","",""
"","S2","","html-keyboard-response","194","302615","0.0-1.0-265.0","0","0","36403","","null","","","null","29","","NaN","","","","","","","","","","","","","",""
"","response","","html-keyboard-response","195","303074","0.0-1.0-266.0-0.0","0","0","36403","","458","","","75","29","","","1","29","training","adjacent","EF","5","6","O.jpg","N.jpg","1","1","1","",""
"","feedback","","html-keyboard-response","196","304077","0.0-1.0-267.0-0.0","0","0","36403","","null","","","null","29","","","","","","","","","","","","","","","",""
"","ITI","","html-keyboard-response","197","305079","0.0-1.0-270.0","0","0","36403","","null","","","null","29","","","","","","","","","","","","","","","NaN",""
"","S1","","html-keyboard-response","198","305332","0.0-1.0-272.0","0","0","36403","","null","","","null","30","","","","","","","","","","","","","","","",""
"","ISI","","html-keyboard-response","199","306334","0.0-1.0-273.0","0","0","36403","","null","","","null","30","NaN","","","","","","","","","","","","","","",""
"","S2","","html-keyboard-response","200","306588","0.0-1.0-274.0","0","0","36403","","null","","","null","30","","NaN","","","","","","","","","","","","","",""
"","response","","html-keyboard-response","201","306641","0.0-1.0-275.0-0.0","0","0","36403","","51","","","75","30","","","1","30","training","adjacent","DC","4","3","R.jpg","M.jpg","1","0","0","",""
"","feedback","","html-keyboard-response","202","307644","0.0-1.0-276.0-0.0","0","0","36403","","null","","","null","30","","","","","","","","","","","","","","","",""
"","time_out","","html-keyboard-response","203","309647","0.0-1.0-278.0-0.0","0","0","36403","","null","","","null","30","","","","","","","","","","","","","","","",""
"","ITI","","html-keyboard-response","204","310650","0.0-1.0-279.0","0","0","36403","","null","","","null","30","","","","","","","","","","","","","","","NaN",""
"","S1","","html-keyboard-response","205","310903","0.0-1.0-281.0","0","0","36403","","null","","","null","31","","","","","","","","","","","","","","","",""
"","ISI","","html-keyboard-response","206","311905","0.0-1.0-282.0","0","0","36403","","null","","","null","31","NaN","","","","","","","","","","","","","","",""
"","S2","","html-keyboard-response","207","312159","0.0-1.0-283.0","0","0","36403","","null","","","null","31","","NaN","","","","","","","","","","","","","",""
"","response","","html-keyboard-response","208","312885","0.0-1.0-284.0-0.0","0","0","36403","","724","","","68","31","","","1","31","training","adjacent","FE","6","5","N.jpg","O.jpg","0","0","1","",""
"","feedback","","html-keyboard-response","209","313889","0.0-1.0-285.0-0.0","0","0","36403","","null","","","null","31","","","","","","","","","","","","","","","",""
"","ITI","","html-keyboard-response","210","314892","0.0-1.0-288.0","0","0","36403","","null","","","null","31","","","","","","","","","","","","","","","NaN",""
"","S1","","html-keyboard-response","211","315144","0.0-1.0-290.0","0","0","36403","","null","","","null","32","","","","","","","","","","","","","","","",""
"","ISI","","html-keyboard-response","212","316147","0.0-1.0-291.0","0","0","36403","","null","","","null","32","NaN","","","","","","","","","","","","","","",""
"","S2","","html-keyboard-response","213","316402","0.0-1.0-292.0","0","0","36403","","null","","","null","32","","NaN","","","","","","","","","","","","","",""
"","response","","html-keyboard-response","214","316919","0.0-1.0-293.0-0.0","0","0","36403","","514","","","68","32","","","1","32","training","adjacent","DE","4","5","R.jpg","O.jpg","0","1","0","",""
"","feedback","","html-keyboard-response","215","317922","0.0-1.0-294.0-0.0","0","0","36403","","null","","","null","32","","","","","","","","","","","","","","","",""
"","time_out","","html-keyboard-response","216","319925","0.0-1.0-296.0-0.0","0","0","36403","","null","","","null","32","","","","","","","","","","","","","","","",""
"","ITI","","html-keyboard-response","217","320928","0.0-1.0-297.0","0","0","36403","","null","","","null","32","","","","","","","","","","","","","","","NaN",""
"","S1","","html-keyboard-response","218","321190","0.0-1.0-299.0","0","0","36403","","null","","","null","33","","","","","","","","","","","","","","","",""
"","ISI","","html-keyboard-response","219","322193","0.0-1.0-300.0","0","0","36403","","null","","","null","33","NaN","","","","","","","","","","","","","","",""
"","S2","","html-keyboard-response","220","322446","0.0-1.0-301.0","0","0","36403","","null","","","null","33","","NaN","","","","","","","","","","","","","",""
"","response","","html-keyboard-response","221","323112","0.0-1.0-302.0-0.0","0","0","36403","","663","","","75","33","","","1","33","training","adjacent","DE","4","5","R.jpg","O.jpg","1","1","1","",""
"","feedback","","html-keyboard-response","222","324116","0.0-1.0-303.0-0.0","0","0","36403","","null","","","null","33","","","","","","","","","","","","","","","",""
"","ITI","","html-keyboard-response","223","325119","0.0-1.0-306.0","0","0","36403","","null","","","null","33","","","","","","","","","","","","","","","NaN",""
"","S1","","html-keyboard-response","224","325373","0.0-1.0-308.0","0","0","36403","","null","","","null","34","","","","","","","","","","","","","","","",""
"","ISI","","html-keyboard-response","225","326377","0.0-1.0-309.0","0","0","36403","","null","","","null","34","NaN","","","","","","","","","","","","","","",""
"","S2","","html-keyboard-response","226","326631","0.0-1.0-310.0","0","0","36403","","null","","","null","34","","NaN","","","","","","","","","","","","","",""
"","response","","html-keyboard-response","227","327533","0.0-1.0-311.0-0.0","0","0","36403","","899","","","75","34","","","1","34","training","adjacent","BC","2","3","P.jpg","M.jpg","1","1","1","",""
"","feedback","","html-keyboard-response","228","328537","0.0-1.0-312.0-0.0","0","0","36403","","null","","","null","34","","","","","","","","","","","","","","","",""
"","ITI","","html-keyboard-response","229","329540","0.0-1.0-315.0","0","0","36403","","null","","","null","34","","","","","","","","","","","","","","","NaN",""
"","S1","","html-keyboard-response","230","329793","0.0-1.0-317.0","0","0","36403","","null","","","null","35","","","","","","","","","","","","","","","",""
"","ISI","","html-keyboard-response","231","330796","0.0-1.0-318.0","0","0","36403","","null","","","null","35","NaN","","","","","","","","","","","","","","",""
"","S2","","html-keyboard-response","232","331051","0.0-1.0-319.0","0","0","36403","","null","","","null","35","","NaN","","","","","","","","","","","","","",""
"","response","","html-keyboard-response","233","331781","0.0-1.0-320.0-0.0","0","0","36403","","727","","","75","35","","","1","35","training","adjacent","EF","5","6","O.jpg","N.jpg","1","1","1","",""
"","feedback","","html-keyboard-response","234","332784","0.0-1.0-321.0-0.0","0","0","36403","","null","","","null","35","","","","","","","","","","","","","","","",""
"","ITI","","html-keyboard-response","235","333787","0.0-1.0-324.0","0","0","36403","","null","","","null","35","","","","","","","","","","","","","","","NaN",""
"","S1","","html-keyboard-response","236","334041","0.0-1.0-326.0","0","0","36403","","null","","","null","36","","","","","","","","","","","","","","","",""
"","ISI","","html-keyboard-response","237","335044","0.0-1.0-327.0","0","0","36403","","null","","","null","36","NaN","","","","","","","","","","","","","","",""
"","S2","","html-keyboard-response","238","335298","0.0-1.0-328.0","0","0","36403","","null","","","null","36","","NaN","","","","","","","","","","","","","",""
"","response","","html-keyboard-response","239","335398","0.0-1.0-329.0-0.0","0","0","36403","","97","","","68","36","","","1","36","training","adjacent","GF","7","6","L.jpg","N.jpg","0","0","1","",""
"","feedback","","html-keyboard-response","240","336401","0.0-1.0-330.0-0.0","0","0","36403","","null","","","null","36","","","","","","","","","","","","","","","",""
"","ITI","","html-keyboard-response","241","337404","0.0-1.0-333.0","0","0","36403","","null","","","null","36","","","","","","","","","","","","","","","NaN",""
"","S1","","html-keyboard-response","242","337657","0.0-1.0-335.0","0","0","36403","","null","","","null","37","","","","","","","","","","","","","","","",""
"","ISI","","html-keyboard-response","243","338660","0.0-1.0-336.0","0","0","36403","","null","","","null","37","NaN","","","","","","","","","","","","","","",""
"","S2","","html-keyboard-response","244","338914","0.0-1.0-337.0","0","0","36403","","null","","","null","37","","NaN","","","","","","","","","","","","","",""
"","response","","html-keyboard-response","245","339227","0.0-1.0-338.0-0.0","0","0","36403","","311","","","68","37","","","1","37","training","adjacent","CD","3","4","M.jpg","R.jpg","0","1","0","",""
"","feedback","","html-keyboard-response","246","340232","0.0-1.0-339.0-0.0","0","0","36403","","null","","","null","37","","","","","","","","","","","","","","","",""
"","time_out","","html-keyboard-response","247","342234","0.0-1.0-341.0-0.0","0","0","36403","","null","","","null","37","","","","","","","","","","","","","","","",""
"","ITI","","html-keyboard-response","248","343237","0.0-1.0-342.0","0","0","36403","","null","","","null","37","","","","","","","","","","","","","","","NaN",""
"","S1","","html-keyboard-response","249","343491","0.0-1.0-344.0","0","0","36403","","null","","","null","38","","","","","","","","","","","","","","","",""
"","ISI","","html-keyboard-response","250","344493","0.0-1.0-345.0","0","0","36403","","null","","","null","38","NaN","","","","","","","","","","","","","","",""
"","S2","","html-keyboard-response","251","344747","0.0-1.0-346.0","0","0","36403","","null","","","null","38","","NaN","","","","","","","","","","","","","",""
"","response","","html-keyboard-response","252","344754","0.0-1.0-347.0-0.0","0","0","36403","","5","","","68","38","","","1","38","training","adjacent","BA","2","1","P.jpg","Q.jpg","0","0","1","",""
"","feedback","","html-keyboard-response","253","345757","0.0-1.0-348.0-0.0","0","0","36403","","null","","","null","38","","","","","","","","","","","","","","","",""
"","ITI","","html-keyboard-response","254","346759","0.0-1.0-351.0","0","0","36403","","null","","","null","38","","","","","","","","","","","","","","","NaN",""
"","S1","","html-keyboard-response","255","347012","0.0-1.0-353.0","0","0","36403","","null","","","null","39","","","","","","","","","","","","","","","",""
"","ISI","","html-keyboard-response","256","348015","0.0-1.0-354.0","0","0","36403","","null","","","null","39","NaN","","","","","","","","","","","","","","",""
"","S2","","html-keyboard-response","257","348268","0.0-1.0-355.0","0","0","36403","","null","","","null","39","","NaN","","","","","","","","","","","","","",""
"","response","","html-keyboard-response","258","348588","0.0-1.0-356.0-0.0","0","0","36403","","316","","","75","39","","","1","39","training","adjacent","DE","4","5","R.jpg","O.jpg","1","1","1","",""
"","feedback","","html-keyboard-response","259","349591","0.0-1.0-357.0-0.0","0","0","36403","","null","","","null","39","","","","","","","","","","","","","","","",""
"","ITI","","html-keyboard-response","260","350594","0.0-1.0-360.0","0","0","36403","","null","","","null","39","","","","","","","","","","","","","","","NaN",""
"","S1","","html-keyboard-response","261","350846","0.0-1.0-362.0","0","0","36403","","null","","","null","40","","","","","","","","","","","","","","","",""
"","ISI","","html-keyboard-response","262","351850","0.0-1.0-363.0","0","0","36403","","null","","","null","40","NaN","","","","","","","","","","","","","","",""
"","S2","","html-keyboard-response","263","352104","0.0-1.0-364.0","0","0","36403","","null","","","null","40","","NaN","","","","","","","","","","","","","",""
"","response","","html-keyboard-response","264","352288","0.0-1.0-365.0-0.0","0","0","36403","","181","","","68","40","","","1","40","training","adjacent","BC","2","3","P.jpg","M.jpg","0","1","0","",""
"","feedback","","html-keyboard-response","265","353292","0.0-1.0-366.0-0.0","0","0","36403","","null","","","null","40","","","","","","","","","","","","","","","",""
"","time_out","","html-keyboard-response","266","355296","0.0-1.0-368.0-0.0","0","0","36403","","null","","","null","40","","","","","","","","","","","","","","","",""
"","ITI","","html-keyboard-response","267","356299","0.0-1.0-369.0","0","0","36403","","null","","","null","40","","","","","","","","","","","","","","","NaN",""
"","S1","","html-keyboard-response","268","356551","0.0-1.0-371.0","0","0","36403","","null","","","null","41","","","","","","","","","","","","","","","",""
"","ISI","","html-keyboard-response","269","357554","0.0-1.0-372.0","0","0","36403","","null","","","null","41","NaN","","","","","","","","","","","","","","",""
"","S2","","html-keyboard-response","270","357808","0.0-1.0-373.0","0","0","36403","","null","","","null","41","","NaN","","","","","","","","","","","","","",""
"","response","","html-keyboard-response","271","357811","0.0-1.0-374.0-0.0","0","0","36403","","0","","","75","41","","","1","41","training","adjacent","DC","4","3","R.jpg","M.jpg","1","0","0","",""
"","feedback","","html-keyboard-response","272","358815","0.0-1.0-375.0-0.0","0","0","36403","","null","","","null","41","","","","","","","","","","","","","","","",""
"","time_out","","html-keyboard-response","273","360817","0.0-1.0-377.0-0.0","0","0","36403","","null","","","null","41","","","","","","","","","","","","","","","",""
"","ITI","","html-keyboard-response","274","361820","0.0-1.0-378.0","0","0","36403","","null","","","null","41","","","","","","","","","","","","","","","NaN",""
"","S1","","html-keyboard-response","275","362073","0.0-1.0-380.0","0","0","36403","","null","","","null","42","","","","","","","","","","","","","","","",""
"","ISI","","html-keyboard-response","276","363076","0.0-1.0-381.0","0","0","36403","","null","","","null","42","NaN","","","","","","","","","","","","","","",""
"","S2","","html-keyboard-response","277","363330","0.0-1.0-382.0","0","0","36403","","null","","","null","42","","NaN","","","","","","","","","","","","","",""
"","response","","html-keyboard-response","278","363627","0.0-1.0-383.0-0.0","0","0","36403","","295","","","75","42","","","1","42","training","adjacent","FG","6","7","N.jpg","L.jpg","1","1","1","",""
"","feedback","","html-keyboard-response","279","364631","0.0-1.0-384.0-0.0","0","0","36403","","null","","","null","42","","","","","","","","","","","","","","","",""
"","ITI","","html-keyboard-response","280","365634","0.0-1.0-387.0","0","0","36403","","null","","","null","42","","","","","","","","","","","","","","","NaN",""
"","S1","","html-keyboard-response","281","365888","0.0-1.0-389.0","0","0","36403","","null","","","null","43","","","","","","","","","","","","","","","",""
"","ISI","","html-keyboard-response","282","366890","0.0-1.0-390.0","0","0","36403","","null","","","null","43","NaN","","","","","","","","","","","","","","",""
"","S2","","html-keyboard-response","283","367143","0.0-1.0-391.0","0","0","36403","","null","","","null","43","","NaN","","","","","","","","","","","","","",""
"","response","","html-keyboard-response","284","367500","0.0-1.0-392.0-0.0","0","0","36403","","355","","","75","43","","","1","43","training","adjacent","EF","5","6","O.jpg","N.jpg","1","1","1","",""
"","feedback","","html-keyboard-response","285","368502","0.0-1.0-393.0-0.0","0","0","36403","","null","","","null","43","","","","","","","","","","","","","","","",""
"","ITI","","html-keyboard-response","286","369505","0.0-1.0-396.0","0","0","36403","","null","","","null","43","","","","","","","","","","","","","","","NaN",""
"","S1","","html-keyboard-response","287","369758","0.0-1.0-398.0","0","0","36403","","null","","","null","44","","","","","","","","","","","","","","","",""
"","ISI","","html-keyboard-response","288","370760","0.0-1.0-399.0","0","0","36403","","null","","","null","44","NaN","","","","","","","","","","","","","","",""
"","S2","","html-keyboard-response","289","371012","0.0-1.0-400.0","0","0","36403","","null","","","null","44","","NaN","","","","","","","","","","","","","",""
"","response","","html-keyboard-response","290","371441","0.0-1.0-401.0-0.0","0","0","36403","","427","","","75","44","","","1","44","training","adjacent","FG","6","7","N.jpg","L.jpg","1","1","1","",""
"","feedback","","html-keyboard-response","291","372446","0.0-1.0-402.0-0.0","0","0","36403","","null","","","null","44","","","","","","","","","","","","","","","",""
"","ITI","","html-keyboard-response","292","373449","0.0-1.0-405.0","0","0","36403","","null","","","null","44","","","","","","","","","","","","","","","NaN",""
"","S1","","html-keyboard-response","293","373702","0.0-1.0-407.0","0","0","36403","","null","","","null","45","","","","","","","","","","","","","","","",""
"","ISI","","html-keyboard-response","294","374705","0.0-1.0-408.0","0","0","36403","","null","","","null","45","NaN","","","","","","","","","","","","","","",""
"","S2","","html-keyboard-response","295","374959","0.0-1.0-409.0","0","0","36403","","null","","","null","45","","NaN","","","","","","","","","","","","","",""
"","response","","html-keyboard-response","296","375313","0.0-1.0-410.0-0.0","0","0","36403","","351","","","68","45","","","1","45","training","adjacent","AB","1","2","Q.jpg","P.jpg","0","1","0","",""
"","feedback","","html-keyboard-response","297","376316","0.0-1.0-411.0-0.0","0","0","36403","","null","","","null","45","","","","","","","","","","","","","","","",""
"","time_out","","html-keyboard-response","298","378319","0.0-1.0-413.0-0.0","0","0","36403","","null","","","null","45","","","","","","","","","","","","","","","",""
"","ITI","","html-keyboard-response","299","379322","0.0-1.0-414.0","0","0","36403","","null","","","null","45","","","","","","","","","","","","","","","NaN",""
"","S1","","html-keyboard-response","300","379574","0.0-1.0-416.0","0","0","36403","","null","","","null","46","","","","","","","","","","","","","","","",""
"","ISI","","html-keyboard-response","301","380577","0.0-1.0-417.0","0","0","36403","","null","","","null","46","NaN","","","","","","","","","","","","","","",""
"","S2","","html-keyboard-response","302","380830","0.0-1.0-418.0","0","0","36403","","null","","","null","46","","NaN","","","","","","","","","","","","","",""
"","response","","html-keyboard-response","303","381013","0.0-1.0-419.0-0.0","0","0","36403","","182","","","68","46","","","1","46","training","adjacent","GF","7","6","L.jpg","N.jpg","0","0","1","",""
"","feedback","","html-keyboard-response","304","382016","0.0-1.0-420.0-0.0","0","0","36403","","null","","","null","46","","","","","","","","","","","","","","","",""
"","ITI","","html-keyboard-response","305","383020","0.0-1.0-423.0","0","0","36403","","null","","","null","46","","","","","","","","","","","","","","","NaN",""
"","S1","","html-keyboard-response","306","383274","0.0-1.0-425.0","0","0","36403","","null","","","null","47","","","","","","","","","","","","","","","",""
"","ISI","","html-keyboard-response","307","384276","0.0-1.0-426.0","0","0","36403","","null","","","null","47","NaN","","","","","","","","","","","","","","",""
"","S2","","html-keyboard-response","308","384529","0.0-1.0-427.0","0","0","36403","","null","","","null","47","","NaN","","","","","","","","","","","","","",""
"","response","","html-keyboard-response","309","384760","0.0-1.0-428.0-0.0","0","0","36403","","228","","","68","47","","","1","47","training","adjacent","CD","3","4","M.jpg","R.jpg","0","1","0","",""
"","feedback","","html-keyboard-response","310","385763","0.0-1.0-429.0-0.0","0","0","36403","","null","","","null","47","","","","","","","","","","","","","","","",""
"","time_out","","html-keyboard-response","311","387766","0.0-1.0-431.0-0.0","0","0","36403","","null","","","null","47","","","","","","","","","","","","","","","",""
"","ITI","","html-keyboard-response","312","388768","0.0-1.0-432.0","0","0","36403","","null","","","null","47","","","","","","","","","","","","","","","NaN",""
"","block_over","","html-keyboard-response","313","439549","0.0-1.0-433.0-0.0","0","0","36403","","50778","","","32","47","","","","","","","","","","","","","","","",""
"","S1","","html-keyboard-response","314","439802","0.0-1.0-434.0","0","0","36403","","null","","","null","48","","","","","","","","","","","","","","","",""
"","ISI","","html-keyboard-response","315","440805","0.0-1.0-435.0","0","0","36403","","null","","","null","48","NaN","","","","","","","","","","","","","","",""
"","S2","","html-keyboard-response","316","441059","0.0-1.0-436.0","0","0","36403","","null","","","null","48","","NaN","","","","","","","","","","","","","",""
"","response","","html-keyboard-response","317","441948","0.0-1.0-437.0-0.0","0","0","36403","","887","","","75","48","","","2","48","training","adjacent","AB","1","2","Q.jpg","P.jpg","1","1","1","",""
"","feedback","","html-keyboard-response","318","442952","0.0-1.0-438.0-0.0","0","0","36403","","null","","","null","48","","","","","","","","","","","","","","","",""
"","ITI","","html-keyboard-response","319","443955","0.0-1.0-441.0","0","0","36403","","null","","","null","48","","","","","","","","","","","","","","","NaN",""
"","S1","","html-keyboard-response","320","444209","0.0-1.0-443.0","0","0","36403","","null","","","null","49","","","","","","","","","","","","","","","",""
"","ISI","","html-keyboard-response","321","445212","0.0-1.0-444.0","0","0","36403","","null","","","null","49","NaN","","","","","","","","","","","","","","",""
"","S2","","html-keyboard-response","322","445466","0.0-1.0-445.0","0","0","36403","","null","","","null","49","","NaN","","","","","","","","","","","","","",""
"","response","","html-keyboard-response","323","445947","0.0-1.0-446.0-0.0","0","0","36403","","478","","","75","49","","","2","49","training","adjacent","BC","2","3","P.jpg","M.jpg","1","1","1","",""
"","feedback","","html-keyboard-response","324","446950","0.0-1.0-447.0-0.0","0","0","36403","","null","","","null","49","","","","","","","","","","","","","","","",""
"","ITI","","html-keyboard-response","325","447953","0.0-1.0-450.0","0","0","36403","","null","","","null","49","","","","","","","","","","","","","","","NaN",""
"","S1","","html-keyboard-response","326","448207","0.0-1.0-452.0","0","0","36403","","null","","","null","50","","","","","","","","","","","","","","","",""
"","ISI","","html-keyboard-response","327","449209","0.0-1.0-453.0","0","0","36403","","null","","","null","50","NaN","","","","","","","","","","","","","","",""
"","S2","","html-keyboard-response","328","449463","0.0-1.0-454.0","0","0","36403","","null","","","null","50","","NaN","","","","","","","","","","","","","",""
"","response","","html-keyboard-response","329","449567","0.0-1.0-455.0-0.0","0","0","36403","","101","","","68","50","","","2","50","training","adjacent","GF","7","6","L.jpg","N.jpg","0","0","1","",""
"","feedback","","html-keyboard-response","330","450571","0.0-1.0-456.0-0.0","0","0","36403","","null","","","null","50","","","","","","","","","","","","","","","",""
"","ITI","","html-keyboard-response","331","451574","0.0-1.0-459.0","0","0","36403","","null","","","null","50","","","","","","","","","","","","","","","NaN",""
"","S1","","html-keyboard-response","332","451828","0.0-1.0-461.0","0","0","36403","","null","","","null","51","","","","","","","","","","","","","","","",""
"","ISI","","html-keyboard-response","333","452831","0.0-1.0-462.0","0","0","36403","","null","","","null","51","NaN","","","","","","","","","","","","","","",""
"","S2","","html-keyboard-response","334","453086","0.0-1.0-463.0","0","0","36403","","null","","","null","51","","NaN","","","","","","","","","","","","","",""
"","response","","html-keyboard-response","335","453175","0.0-1.0-464.0-0.0","0","0","36403","","87","","","75","51","","","2","51","training","adjacent","FE","6","5","N.jpg","O.jpg","1","0","0","",""
"","feedback","","html-keyboard-response","336","454178","0.0-1.0-465.0-0.0","0","0","36403","","null","","","null","51","","","","","","","","","","","","","","","",""
"","time_out","","html-keyboard-response","337","456181","0.0-1.0-467.0-0.0","0","0","36403","","null","","","null","51","","","","","","","","","","","","","","","",""
"","ITI","","html-keyboard-response","338","457185","0.0-1.0-468.0","0","0","36403","","null","","","null","51","","","","","","","","","","","","","","","NaN",""
"","S1","","html-keyboard-response","339","457439","0.0-1.0-470.0","0","0","36403","","null","","","null","52","","","","","","","","","","","","","","","",""
"","ISI","","html-keyboard-response","340","458443","0.0-1.0-471.0","0","0","36403","","null","","","null","52","NaN","","","","","","","","","","","","","","",""
"","S2","","html-keyboard-response","341","458697","0.0-1.0-472.0","0","0","36403","","null","","","null","52","","NaN","","","","","","","","","","","","","",""
"","response","","html-keyboard-response","342","458916","0.0-1.0-473.0-0.0","0","0","36403","","216","","","68","52","","","2","52","training","adjacent","CD","3","4","M.jpg","R.jpg","0","1","0","",""
"","feedback","","html-keyboard-response","343","459919","0.0-1.0-474.0-0.0","0","0","36403","","null","","","null","52","","","","","","","","","","","","","","","",""
"","time_out","","html-keyboard-response","344","461923","0.0-1.0-476.0-0.0","0","0","36403","","null","","","null","52","","","","","","","","","","","","","","","",""
"","ITI","","html-keyboard-response","345","462925","0.0-1.0-477.0","0","0","36403","","null","","","null","52","","","","","","","","","","","","","","","NaN",""
"","S1","","html-keyboard-response","346","463179","0.0-1.0-479.0","0","0","36403","","null","","","null","53","","","","","","","","","","","","","","","",""
"","ISI","","html-keyboard-response","347","464183","0.0-1.0-480.0","0","0","36403","","null","","","null","53","NaN","","","","","","","","","","","","","","",""
"","S2","","html-keyboard-response","348","464436","0.0-1.0-481.0","0","0","36403","","null","","","null","53","","NaN","","","","","","","","","","","","","",""
"","response","","html-keyboard-response","349","464726","0.0-1.0-482.0-0.0","0","0","36403","","288","","","68","53","","","2","53","training","adjacent","DE","4","5","R.jpg","O.jpg","0","1","0","",""
"","feedback","","html-keyboard-response","350","465730","0.0-1.0-483.0-0.0","0","0","36403","","null","","","null","53","","","","","","","","","","","","","","","",""
"","time_out","","html-keyboard-response","351","467734","0.0-1.0-485.0-0.0","0","0","36403","","null","","","null","53","","","","","","","","","","","","","","","",""
"","ITI","","html-keyboard-response","352","468738","0.0-1.0-486.0","0","0","36403","","null","","","null","53","","","","","","","","","","","","","","","NaN",""
"","S1","","html-keyboard-response","353","468992","0.0-1.0-488.0","0","0","36403","","null","","","null","54","","","","","","","","","","","","","","","",""
"","ISI","","html-keyboard-response","354","469995","0.0-1.0-489.0","0","0","36403","","null","","","null","54","NaN","","","","","","","","","","","","","","",""
"","S2","","html-keyboard-response","355","470249","0.0-1.0-490.0","0","0","36403","","null","","","null","54","","NaN","","","","","","","","","","","","","",""
"","response","","html-keyboard-response","356","470652","0.0-1.0-491.0-0.0","0","0","36403","","400","","","68","54","","","2","54","training","adjacent","BA","2","1","P.jpg","Q.jpg","0","0","1","",""
"","feedback","","html-keyboard-response","357","471656","0.0-1.0-492.0-0.0","0","0","36403","","null","","","null","54","","","","","","","","","","","","","","","",""
"","ITI","","html-keyboard-response","358","472659","0.0-1.0-495.0","0","0","36403","","null","","","null","54","","","","","","","","","","","","","","","NaN",""
"","S1","","html-keyboard-response","359","472913","0.0-1.0-497.0","0","0","36403","","null","","","null","55","","","","","","","","","","","","","","","",""
"","ISI","","html-keyboard-response","360","473916","0.0-1.0-498.0","0","0","36403","","null","","","null","55","NaN","","","","","","","","","","","","","","",""
"","S2","","html-keyboard-response","361","474169","0.0-1.0-499.0","0","0","36403","","null","","","null","55","","NaN","","","","","","","","","","","","","",""
"","response","","html-keyboard-response","362","474649","0.0-1.0-500.0-0.0","0","0","36403","","477","","","75","55","","","2","55","training","adjacent","CB","3","2","M.jpg","P.jpg","1","0","0","",""
"","feedback","","html-keyboard-response","363","475653","0.0-1.0-501.0-0.0","0","0","36403","","null","","","null","55","","","","","","","","","","","","","","","",""
"","time_out","","html-keyboard-response","364","477656","0.0-1.0-503.0-0.0","0","0","36403","","null","","","null","55","","","","","","","","","","","","","","","",""
"","ITI","","html-keyboard-response","365","478659","0.0-1.0-504.0","0","0","36403","","null","","","null","55","","","","","","","","","","","","","","","NaN",""
"","S1","","html-keyboard-response","366","478913","0.0-1.0-506.0","0","0","36403","","null","","","null","56","","","","","","","","","","","","","","","",""
"","ISI","","html-keyboard-response","367","479915","0.0-1.0-507.0","0","0","36403","","null","","","null","56","NaN","","","","","","","","","","","","","","",""
"","S2","","html-keyboard-response","368","480169","0.0-1.0-508.0","0","0","36403","","null","","","null","56","","NaN","","","","","","","","","","","","","",""
"","response","","html-keyboard-response","369","480486","0.0-1.0-509.0-0.0","0","0","36403","","313","","","68","56","","","2","56","training","adjacent","DC","4","3","R.jpg","M.jpg","0","0","1","",""
"","feedback","","html-keyboard-response","370","481489","0.0-1.0-510.0-0.0","0","0","36403","","null","","","null","56","","","","","","","","","","","","","","","",""
"","ITI","","html-keyboard-response","371","482492","0.0-1.0-513.0","0","0","36403","","null","","","null","56","","","","","","","","","","","","","","","NaN",""
"","S1","","html-keyboard-response","372","482745","0.0-1.0-515.0","0","0","36403","","null","","","null","57","","","","","","","","","","","","","","","",""
"","ISI","","html-keyboard-response","373","483748","0.0-1.0-516.0","0","0","36403","","null","","","null","57","NaN","","","","","","","","","","","","","","",""
"","S2","","html-keyboard-response","374","484003","0.0-1.0-517.0","0","0","36403","","null","","","null","57","","NaN","","","","","","","","","","","","","",""
"","response","","html-keyboard-response","375","484510","0.0-1.0-518.0-0.0","0","0","36403","","504","","","68","57","","","2","57","training","adjacent","DC","4","3","R.jpg","M.jpg","0","0","1","",""
"","feedback","","html-keyboard-response","376","485515","0.0-1.0-519.0-0.0","0","0","36403","","null","","","null","57","","","","","","","","","","","","","","","",""
"","ITI","","html-keyboard-response","377","486519","0.0-1.0-522.0","0","0","36403","","null","","","null","57","","","","","","","","","","","","","","","NaN",""
"","S1","","html-keyboard-response","378","486772","0.0-1.0-524.0","0","0","36403","","null","","","null","58","","","","","","","","","","","","","","","",""
"","ISI","","html-keyboard-response","379","487786","0.0-1.0-525.0","0","0","36403","","null","","","null","58","NaN","","","","","","","","","","","","","","",""
"","S2","","html-keyboard-response","380","488040","0.0-1.0-526.0","0","0","36403","","null","","","null","58","","NaN","","","","","","","","","","","","","",""
"","response","","html-keyboard-response","381","488585","0.0-1.0-527.0-0.0","0","0","36403","","541","","","68","58","","","2","58","training","adjacent","FG","6","7","N.jpg","L.jpg","0","1","0","",""
"","feedback","","html-keyboard-response","382","489589","0.0-1.0-528.0-0.0","0","0","36403","","null","","","null","58","","","","","","","","","","","","","","","",""
"","time_out","","html-keyboard-response","383","491592","0.0-1.0-530.0-0.0","0","0","36403","","null","","","null","58","","","","","","","","","","","","","","","",""
"","ITI","","html-keyboard-response","384","492596","0.0-1.0-531.0","0","0","36403","","null","","","null","58","","","","","","","","","","","","","","","NaN",""
"","S1","","html-keyboard-response","385","492850","0.0-1.0-533.0","0","0","36403","","null","","","null","59","","","","","","","","","","","","","","","",""
"","ISI","","html-keyboard-response","386","493853","0.0-1.0-534.0","0","0","36403","","null","","","null","59","NaN","","","","","","","","","","","","","","",""
"","S2","","html-keyboard-response","387","494107","0.0-1.0-535.0","0","0","36403","","null","","","null","59","","NaN","","","","","","","","","","","","","",""
"","response","","html-keyboard-response","388","494431","0.0-1.0-536.0-0.0","0","0","36403","","322","","","75","59","","","2","59","training","adjacent","ED","5","4","O.jpg","R.jpg","1","0","0","",""
"","feedback","","html-keyboard-response","389","495434","0.0-1.0-537.0-0.0","0","0","36403","","null","","","null","59","","","","","","","","","","","","","","","",""
"","time_out","","html-keyboard-response","390","497438","0.0-1.0-539.0-0.0","0","0","36403","","null","","","null","59","","","","","","","","","","","","","","","",""
"","ITI","","html-keyboard-response","391","498441","0.0-1.0-540.0","0","0","36403","","null","","","null","59","","","","","","","","","","","","","","","NaN",""
"","S1","","html-keyboard-response","392","498695","0.0-1.0-542.0","0","0","36403","","null","","","null","60","","","","","","","","","","","","","","","",""
"","ISI","","html-keyboard-response","393","499697","0.0-1.0-543.0","0","0","36403","","null","","","null","60","NaN","","","","","","","","","","","","","","",""
"","S2","","html-keyboard-response","394","499950","0.0-1.0-544.0","0","0","36403","","null","","","null","60","","NaN","","","","","","","","","","","","","",""
"","response","","html-keyboard-response","395","500116","0.0-1.0-545.0-0.0","0","0","36403","","164","","","75","60","","","2","60","training","adjacent","CB","3","2","M.jpg","P.jpg","1","0","0","",""
"","feedback","","html-keyboard-response","396","501119","0.0-1.0-546.0-0.0","0","0","36403","","null","","","null","60","","","","","","","","","","","","","","","",""
"","time_out","","html-keyboard-response","397","503122","0.0-1.0-548.0-0.0","0","0","36403","","null","","","null","60","","","","","","","","","","","","","","","",""
"","ITI","","html-keyboard-response","398","504125","0.0-1.0-549.0","0","0","36403","","null","","","null","60","","","","","","","","","","","","","","","NaN",""
"","S1","","html-keyboard-response","399","504378","0.0-1.0-551.0","0","0","36403","","null","","","null","61","","","","","","","","","","","","","","","",""
"","ISI","","html-keyboard-response","400","505388","0.0-1.0-552.0","0","0","36403","","null","","","null","61","NaN","","","","","","","","","","","","","","",""
"","S2","","html-keyboard-response","401","505642","0.0-1.0-553.0","0","0","36403","","null","","","null","61","","NaN","","","","","","","","","","","","","",""
"","response","","html-keyboard-response","402","505848","0.0-1.0-554.0-0.0","0","0","36403","","203","","","68","61","","","2","61","training","adjacent","CD","3","4","M.jpg","R.jpg","0","1","0","",""
"","feedback","","html-keyboard-response","403","506852","0.0-1.0-555.0-0.0","0","0","36403","","null","","","null","61","","","","","","","","","","","","","","","",""
"","time_out","","html-keyboard-response","404","508854","0.0-1.0-557.0-0.0","0","0","36403","","null","","","null","61","","","","","","","","","","","","","","","",""
"","ITI","","html-keyboard-response","405","509858","0.0-1.0-558.0","0","0","36403","","null","","","null","61","","","","","","","","","","","","","","","NaN",""
"","S1","","html-keyboard-response","406","510112","0.0-1.0-560.0","0","0","36403","","null","","","null","62","","","","","","","","","","","","","","","",""
"","ISI","","html-keyboard-response","407","511115","0.0-1.0-561.0","0","0","36403","","null","","","null","62","NaN","","","","","","","","","","","","","","",""
"","S2","","html-keyboard-response","408","511368","0.0-1.0-562.0","0","0","36403","","null","","","null","62","","NaN","","","","","","","","","","","","","",""
"","response","","html-keyboard-response","409","511777","0.0-1.0-563.0-0.0","0","0","36403","","406","","","68","62","","","2","62","training","adjacent","EF","5","6","O.jpg","N.jpg","0","1","0","",""
"","feedback","","html-keyboard-response","410","512779","0.0-1.0-564.0-0.0","0","0","36403","","null","","","null","62","","","","","","","","","","","","","","","",""
"","time_out","","html-keyboard-response","411","514782","0.0-1.0-566.0-0.0","0","0","36403","","null","","","null","62","","","","","","","","","","","","","","","",""
"","ITI","","html-keyboard-response","412","515785","0.0-1.0-567.0","0","0","36403","","null","","","null","62","","","","","","","","","","","","","","","NaN",""
"","S1","","html-keyboard-response","413","516038","0.0-1.0-569.0","0","0","36403","","null","","","null","63","","","","","","","","","","","","","","","",""
"","ISI","","html-keyboard-response","414","517040","0.0-1.0-570.0","0","0","36403","","null","","","null","63","NaN","","","","","","","","","","","","","","",""
"","S2","","html-keyboard-response","415","517293","0.0-1.0-571.0","0","0","36403","","null","","","null","63","","NaN","","","","","","","","","","","","","",""
"","response","","html-keyboard-response","416","517377","0.0-1.0-572.0-0.0","0","0","36403","","81","","","75","63","","","2","63","training","adjacent","BA","2","1","P.jpg","Q.jpg","1","0","0","",""
"","feedback","","html-keyboard-response","417","518379","0.0-1.0-573.0-0.0","0","0","36403","","null","","","null","63","","","","","","","","","","","","","","","",""
"","time_out","","html-keyboard-response","418","520382","0.0-1.0-575.0-0.0","0","0","36403","","null","","","null","63","","","","","","","","","","","","","","","",""
"","ITI","","html-keyboard-response","419","521383","0.0-1.0-576.0","0","0","36403","","null","","","null","63","","","","","","","","","","","","","","","NaN",""
"","S1","","html-keyboard-response","420","521637","0.0-1.0-578.0","0","0","36403","","null","","","null","64","","","","","","","","","","","","","","","",""
"","ISI","","html-keyboard-response","421","522639","0.0-1.0-579.0","0","0","36403","","null","","","null","64","NaN","","","","","","","","","","","","","","",""
"","S2","","html-keyboard-response","422","522893","0.0-1.0-580.0","0","0","36403","","null","","","null","64","","NaN","","","","","","","","","","","","","",""
"","response","","html-keyboard-response","423","523430","0.0-1.0-581.0-0.0","0","0","36403","","535","","","75","64","","","2","64","training","adjacent","GF","7","6","L.jpg","N.jpg","1","0","0","",""
"","feedback","","html-keyboard-response","424","524434","0.0-1.0-582.0-0.0","0","0","36403","","null","","","null","64","","","","","","","","","","","","","","","",""
"","time_out","","html-keyboard-response","425","526436","0.0-1.0-584.0-0.0","0","0","36403","","null","","","null","64","","","","","","","","","","","","","","","",""
"","ITI","","html-keyboard-response","426","527439","0.0-1.0-585.0","0","0","36403","","null","","","null","64","","","","","","","","","","","","","","","NaN",""
"","S1","","html-keyboard-response","427","527692","0.0-1.0-587.0","0","0","36403","","null","","","null","65","","","","","","","","","","","","","","","",""
"","ISI","","html-keyboard-response","428","528694","0.0-1.0-588.0","0","0","36403","","null","","","null","65","NaN","","","","","","","","","","","","","","",""
"","S2","","html-keyboard-response","429","528948","0.0-1.0-589.0","0","0","36403","","null","","","null","65","","NaN","","","","","","","","","","","","","",""
"","response","","html-keyboard-response","430","529023","0.0-1.0-590.0-0.0","0","0","36403","","74","","","75","65","","","2","65","training","adjacent","BC","2","3","P.jpg","M.jpg","1","1","1","",""
"","feedback","","html-keyboard-response","431","530027","0.0-1.0-591.0-0.0","0","0","36403","","null","","","null","65","","","","","","","","","","","","","","","",""
"","ITI","","html-keyboard-response","432","531030","0.0-1.0-594.0","0","0","36403","","null","","","null","65","","","","","","","","","","","","","","","NaN",""
"","S1","","html-keyboard-response","433","531283","0.0-1.0-596.0","0","0","36403","","null","","","null","66","","","","","","","","","","","","","","","",""
"","ISI","","html-keyboard-response","434","532286","0.0-1.0-597.0","0","0","36403","","null","","","null","66","NaN","","","","","","","","","","","","","","",""
"","S2","","html-keyboard-response","435","532522","0.0-1.0-598.0","0","0","36403","","233","","","75","66","","k","2","66","training","adjacent","AB","1","2","Q.jpg","P.jpg","1","1","1","",""
"","feedback","","html-keyboard-response","436","533527","0.0-1.0-600.0-0.0","0","0","36403","","null","","","null","66","","","","","","","","","","","","","","","",""
"","ITI","","html-keyboard-response","437","534530","0.0-1.0-603.0","0","0","36403","","null","","","null","66","","","","","","","","","","","","","","","NaN",""
"","S1","","html-keyboard-response","438","534783","0.0-1.0-605.0","0","0","36403","","null","","","null","67","","","","","","","","","","","","","","","",""
"","ISI","","html-keyboard-response","439","535786","0.0-1.0-606.0","0","0","36403","","null","","","null","67","NaN","","","","","","","","","","","","","","",""
"","S2","","html-keyboard-response","440","536041","0.0-1.0-607.0","0","0","36403","","null","","","null","67","","NaN","","","","","","","","","","","","","",""
"","response","","html-keyboard-response","441","536486","0.0-1.0-608.0-0.0","0","0","36403","","442","","","75","67","","","2","67","training","adjacent","FE","6","5","N.jpg","O.jpg","1","0","0","",""
"","feedback","","html-keyboard-response","442","537490","0.0-1.0-609.0-0.0","0","0","36403","","null","","","null","67","","","","","","","","","","","","","","","",""
"","time_out","","html-keyboard-response","443","539494","0.0-1.0-611.0-0.0","0","0","36403","","null","","","null","67","","","","","","","","","","","","","","","",""
"","ITI","","html-keyboard-response","444","540496","0.0-1.0-612.0","0","0","36403","","null","","","null","67","","","","","","","","","","","","","","","NaN",""
"","S1","","html-keyboard-response","445","540749","0.0-1.0-614.0","0","0","36403","","null","","","null","68","","","","","","","","","","","","","","","",""
"","ISI","","html-keyboard-response","446","541751","0.0-1.0-615.0","0","0","36403","","null","","","null","68","NaN","","","","","","","","","","","","","","",""
"","S2","","html-keyboard-response","447","542006","0.0-1.0-616.0","0","0","36403","","null","","","null","68","","NaN","","","","","","","","","","","","","",""
"","response","","html-keyboard-response","448","542009","0.0-1.0-617.0-0.0","0","0","36403","","0","","","75","68","","","2","68","training","adjacent","BA","2","1","P.jpg","Q.jpg","1","0","0","",""
"","feedback","","html-keyboard-response","449","543012","0.0-1.0-618.0-0.0","0","0","36403","","null","","","null","68","","","","","","","","","","","","","","","",""
"","time_out","","html-keyboard-response","450","545015","0.0-1.0-620.0-0.0","0","0","36403","","null","","","null","68","","","","","","","","","","","","","","","",""
"","ITI","","html-keyboard-response","451","546018","0.0-1.0-621.0","0","0","36403","","null","","","null","68","","","","","","","","","","","","","","","NaN",""
"","S1","","html-keyboard-response","452","546271","0.0-1.0-623.0","0","0","36403","","null","","","null","69","","","","","","","","","","","","","","","",""
"","ISI","","html-keyboard-response","453","547275","0.0-1.0-624.0","0","0","36403","","null","","","null","69","NaN","","","","","","","","","","","","","","",""
"","S2","","html-keyboard-response","454","547530","0.0-1.0-625.0","0","0","36403","","null","","","null","69","","NaN","","","","","","","","","","","","","",""
"","response","","html-keyboard-response","455","547711","0.0-1.0-626.0-0.0","0","0","36403","","178","","","75","69","","","2","69","training","adjacent","CD","3","4","M.jpg","R.jpg","1","1","1","",""
"","feedback","","html-keyboard-response","456","548715","0.0-1.0-627.0-0.0","0","0","36403","","null","","","null","69","","","","","","","","","","","","","","","",""
"","ITI","","html-keyboard-response","457","549719","0.0-1.0-630.0","0","0","36403","","null","","","null","69","","","","","","","","","","","","","","","NaN",""
"","S1","","html-keyboard-response","458","549971","0.0-1.0-632.0","0","0","36403","","null","","","null","70","","","","","","","","","","","","","","","",""
"","ISI","","html-keyboard-response","459","550975","0.0-1.0-633.0","0","0","36403","","null","","","null","70","NaN","","","","","","","","","","","","","","",""
"","S2","","html-keyboard-response","460","551228","0.0-1.0-634.0","0","0","36403","","null","","","null","70","","NaN","","","","","","","","","","","","","",""
"","response","","html-keyboard-response","461","551374","0.0-1.0-635.0-0.0","0","0","36403","","142","","","75","70","","","2","70","training","adjacent","BC","2","3","P.jpg","M.jpg","1","1","1","",""
"","feedback","","html-keyboard-response","462","552378","0.0-1.0-636.0-0.0","0","0","36403","","null","","","null","70","","","","","","","","","","","","","","","",""
"","ITI","","html-keyboard-response","463","553381","0.0-1.0-639.0","0","0","36403","","null","","","null","70","","","","","","","","","","","","","","","NaN",""
"","S1","","html-keyboard-response","464","553633","0.0-1.0-641.0","0","0","36403","","null","","","null","71","","","","","","","","","","","","","","","",""
"","ISI","","html-keyboard-response","465","554636","0.0-1.0-642.0","0","0","36403","","null","","","null","71","NaN","","","","","","","","","","","","","","",""
"","S2","","html-keyboard-response","466","554890","0.0-1.0-643.0","0","0","36403","","null","","","null","71","","NaN","","","","","","","","","","","","","",""
"","response","","html-keyboard-response","467","555263","0.0-1.0-644.0-0.0","0","0","36403","","369","","","75","71","","","2","71","training","adjacent","GF","7","6","L.jpg","N.jpg","1","0","0","",""
"","feedback","","html-keyboard-response","468","556267","0.0-1.0-645.0-0.0","0","0","36403","","null","","","null","71","","","","","","","","","","","","","","","",""
"","time_out","","html-keyboard-response","469","558271","0.0-1.0-647.0-0.0","0","0","36403","","null","","","null","71","","","","","","","","","","","","","","","",""
"","ITI","","html-keyboard-response","470","559274","0.0-1.0-648.0","0","0","36403","","null","","","null","71","","","","","","","","","","","","","","","NaN",""
"","S1","","html-keyboard-response","471","559528","0.0-1.0-650.0","0","0","36403","","null","","","null","72","","","","","","","","","","","","","","","",""
"","ISI","","html-keyboard-response","472","560531","0.0-1.0-651.0","0","0","36403","","null","","","null","72","NaN","","","","","","","","","","","","","","",""
"","S2","","html-keyboard-response","473","560784","0.0-1.0-652.0","0","0","36403","","null","","","null","72","","NaN","","","","","","","","","","","","","",""
"","response","","html-keyboard-response","474","561040","0.0-1.0-653.0-0.0","0","0","36403","","253","","","68","72","","","2","72","training","adjacent","DE","4","5","R.jpg","O.jpg","0","1","0","",""
"","feedback","","html-keyboard-response","475","562045","0.0-1.0-654.0-0.0","0","0","36403","","null","","","null","72","","","","","","","","","","","","","","","",""
"","time_out","","html-keyboard-response","476","564049","0.0-1.0-656.0-0.0","0","0","36403","","null","","","null","72","","","","","","","","","","","","","","","",""
"","ITI","","html-keyboard-response","477","565052","0.0-1.0-657.0","0","0","36403","","null","","","null","72","","","","","","","","","","","","","","","NaN",""
"","S1","","html-keyboard-response","478","565305","0.0-1.0-659.0","0","0","36403","","null","","","null","73","","","","","","","","","","","","","","","",""
"","ISI","","html-keyboard-response","479","566308","0.0-1.0-660.0","0","0","36403","","null","","","null","73","NaN","","","","","","","","","","","","","","",""
"","S2","","html-keyboard-response","480","566562","0.0-1.0-661.0","0","0","36403","","null","","","null","73","","NaN","","","","","","","","","","","","","",""
"","response","","html-keyboard-response","481","566930","0.0-1.0-662.0-0.0","0","0","36403","","367","","","75","73","","","2","73","training","adjacent","CD","3","4","M.jpg","R.jpg","1","1","1","",""
"","feedback","","html-keyboard-response","482","567934","0.0-1.0-663.0-0.0","0","0","36403","","null","","","null","73","","","","","","","","","","","","","","","",""
"","ITI","","html-keyboard-response","483","568937","0.0-1.0-666.0","0","0","36403","","null","","","null","73","","","","","","","","","","","","","","","NaN",""
"","S1","","html-keyboard-response","484","569191","0.0-1.0-668.0","0","0","36403","","null","","","null","74","","","","","","","","","","","","","","","",""
"","ISI","","html-keyboard-response","485","570194","0.0-1.0-669.0","0","0","36403","","null","","","null","74","NaN","","","","","","","","","","","","","","",""
"","S2","","html-keyboard-response","486","570447","0.0-1.0-670.0","0","0","36403","","null","","","null","74","","NaN","","","","","","","","","","","","","",""
"","response","","html-keyboard-response","487","571114","0.0-1.0-671.0-0.0","0","0","36403","","665","","","68","74","","","2","74","training","adjacent","FG","6","7","N.jpg","L.jpg","0","1","0","",""
"","feedback","","html-keyboard-response","488","572118","0.0-1.0-672.0-0.0","0","0","36403","","null","","","null","74","","","","","","","","","","","","","","","",""
"","time_out","","html-keyboard-response","489","574122","0.0-1.0-674.0-0.0","0","0","36403","","null","","","null","74","","","","","","","","","","","","","","","",""
"","ITI","","html-keyboard-response","490","575127","0.0-1.0-675.0","0","0","36403","","null","","","null","74","","","","","","","","","","","","","","","NaN",""
"","S1","","html-keyboard-response","491","575380","0.0-1.0-677.0","0","0","36403","","null","","","null","75","","","","","","","","","","","","","","","",""
"","ISI","","html-keyboard-response","492","576383","0.0-1.0-678.0","0","0","36403","","null","","","null","75","NaN","","","","","","","","","","","","","","",""
"","S2","","html-keyboard-response","493","576637","0.0-1.0-679.0","0","0","36403","","null","","","null","75","","NaN","","","","","","","","","","","","","",""
"","response","","html-keyboard-response","494","577138","0.0-1.0-680.0-0.0","0","0","36403","","498","","","75","75","","","2","75","training","adjacent","EF","5","6","O.jpg","N.jpg","1","1","1","",""
"","feedback","","html-keyboard-response","495","578142","0.0-1.0-681.0-0.0","0","0","36403","","null","","","null","75","","","","","","","","","","","","","","","",""
"","ITI","","html-keyboard-response","496","579154","0.0-1.0-684.0","0","0","36403","","null","","","null","75","","","","","","","","","","","","","","","NaN",""
"","S1","","html-keyboard-response","497","579407","0.0-1.0-686.0","0","0","36403","","null","","","null","76","","","","","","","","","","","","","","","",""
"","ISI","","html-keyboard-response","498","580410","0.0-1.0-687.0","0","0","36403","","null","","","null","76","NaN","","","","","","","","","","","","","","",""
"","S2","","html-keyboard-response","499","580664","0.0-1.0-688.0","0","0","36403","","null","","","null","76","","NaN","","","","","","","","","","","","","",""
"","response","","html-keyboard-response","500","580735","0.0-1.0-689.0-0.0","0","0","36403","","68","","","75","76","","","2","76","training","adjacent","FG","6","7","N.jpg","L.jpg","1","1","1","",""
"","feedback","","html-keyboard-response","501","581739","0.0-1.0-690.0-0.0","0","0","36403","","null","","","null","76","","","","","","","","","","","","","","","",""
"","ITI","","html-keyboard-response","502","582743","0.0-1.0-693.0","0","0","36403","","null","","","null","76","","","","","","","","","","","","","","","NaN",""
"","S1","","html-keyboard-response","503","582996","0.0-1.0-695.0","0","0","36403","","null","","","null","77","","","","","","","","","","","","","","","",""
"","ISI","","html-keyboard-response","504","583999","0.0-1.0-696.0","0","0","36403","","null","","","null","77","NaN","","","","","","","","","","","","","","",""
"","S2","","html-keyboard-response","505","584253","0.0-1.0-697.0","0","0","36403","","null","","","null","77","","NaN","","","","","","","","","","","","","",""
"","response","","html-keyboard-response","506","584768","0.0-1.0-698.0-0.0","0","0","36403","","513","","","75","77","","","2","77","training","adjacent","CB","3","2","M.jpg","P.jpg","1","0","0","",""
"","feedback","","html-keyboard-response","507","585771","0.0-1.0-699.0-0.0","0","0","36403","","null","","","null","77","","","","","","","","","","","","","","","",""
"","time_out","","html-keyboard-response","508","587773","0.0-1.0-701.0-0.0","0","0","36403","","null","","","null","77","","","","","","","","","","","","","","","",""
"","ITI","","html-keyboard-response","509","588777","0.0-1.0-702.0","0","0","36403","","null","","","null","77","","","","","","","","","","","","","","","NaN",""
"","S1","","html-keyboard-response","510","589031","0.0-1.0-704.0","0","0","36403","","null","","","null","78","","","","","","","","","","","","","","","",""
"","ISI","","html-keyboard-response","511","590034","0.0-1.0-705.0","0","0","36403","","null","","","null","78","NaN","","","","","","","","","","","","","","",""
"","S2","","html-keyboard-response","512","590278","0.0-1.0-706.0","0","0","36403","","240","","","75","78","","k","2","78","training","adjacent","AB","1","2","Q.jpg","P.jpg","1","1","1","",""
"","feedback","","html-keyboard-response","513","591281","0.0-1.0-708.0-0.0","0","0","36403","","null","","","null","78","","","","","","","","","","","","","","","",""
"","ITI","","html-keyboard-response","514","592285","0.0-1.0-711.0","0","0","36403","","null","","","null","78","","","","","","","","","","","","","","","NaN",""
"","S1","","html-keyboard-response","515","592538","0.0-1.0-713.0","0","0","36403","","null","","","null","79","","","","","","","","","","","","","","","",""
"","ISI","","html-keyboard-response","516","593541","0.0-1.0-714.0","0","0","36403","","null","","","null","79","NaN","","","","","","","","","","","","","","",""
"","S2","","html-keyboard-response","517","593795","0.0-1.0-715.0","0","0","36403","","null","","","null","79","","NaN","","","","","","","","","","","","","",""
"","response","","html-keyboard-response","518","594228","0.0-1.0-716.0-0.0","0","0","36403","","431","","","68","79","","","2","79","training","adjacent","DE","4","5","R.jpg","O.jpg","0","1","0","",""
"","feedback","","html-keyboard-response","519","595232","0.0-1.0-717.0-0.0","0","0","36403","","null","","","null","79","","","","","","","","","","","","","","","",""
"","time_out","","html-keyboard-response","520","597235","0.0-1.0-719.0-0.0","0","0","36403","","null","","","null","79","","","","","","","","","","","","","","","",""
"","ITI","","html-keyboard-response","521","598236","0.0-1.0-720.0","0","0","36403","","null","","","null","79","","","","","","","","","","","","","","","NaN",""
"","S1","","html-keyboard-response","522","598489","0.0-1.0-722.0","0","0","36403","","null","","","null","80","","","","","","","","","","","","","","","",""
"","ISI","","html-keyboard-response","523","599491","0.0-1.0-723.0","0","0","36403","","null","","","null","80","NaN","","","","","","","","","","","","","","",""
"","S2","","html-keyboard-response","524","599757","0.0-1.0-724.0","0","0","36403","","null","","","null","80","","NaN","","","","","","","","","","","","","",""
"","response","","html-keyboard-response","525","600587","0.0-1.0-725.0-0.0","0","0","36403","","828","","","68","80","","","2","80","training","adjacent","ED","5","4","O.jpg","R.jpg","0","0","1","",""
"","feedback","","html-keyboard-response","526","601590","0.0-1.0-726.0-0.0","0","0","36403","","null","","","null","80","","","","","","","","","","","","","","","",""
"","ITI","","html-keyboard-response","527","602594","0.0-1.0-729.0","0","0","36403","","null","","","null","80","","","","","","","","","","","","","","","NaN",""
"","S1","","html-keyboard-response","528","602847","0.0-1.0-731.0","0","0","36403","","null","","","null","81","","","","","","","","","","","","","","","",""
"","ISI","","html-keyboard-response","529","603849","0.0-1.0-732.0","0","0","36403","","null","","","null","81","NaN","","","","","","","","","","","","","","",""
"","S2","","html-keyboard-response","530","604102","0.0-1.0-733.0","0","0","36403","","null","","","null","81","","NaN","","","","","","","","","","","","","",""
"","response","","html-keyboard-response","531","604652","0.0-1.0-734.0-0.0","0","0","36403","","547","","","68","81","","","2","81","training","adjacent","DC","4","3","R.jpg","M.jpg","0","0","1","",""
"","feedback","","html-keyboard-response","532","605655","0.0-1.0-735.0-0.0","0","0","36403","","null","","","null","81","","","","","","","","","","","","","","","",""
"","ITI","","html-keyboard-response","533","606659","0.0-1.0-738.0","0","0","36403","","null","","","null","81","","","","","","","","","","","","","","","NaN",""
"","S1","","html-keyboard-response","534","606912","0.0-1.0-740.0","0","0","36403","","null","","","null","82","","","","","","","","","","","","","","","",""
"","ISI","","html-keyboard-response","535","607915","0.0-1.0-741.0","0","0","36403","","null","","","null","82","NaN","","","","","","","","","","","","","","",""
"","S2","","html-keyboard-response","536","608168","0.0-1.0-742.0","0","0","36403","","null","","","null","82","","NaN","","","","","","","","","","","","","",""
"","response","","html-keyboard-response","537","608529","0.0-1.0-743.0-0.0","0","0","36403","","359","","","68","82","","","2","82","training","adjacent","DC","4","3","R.jpg","M.jpg","0","0","1","",""
"","feedback","","html-keyboard-response","538","609532","0.0-1.0-744.0-0.0","0","0","36403","","null","","","null","82","","","","","","","","","","","","","","","",""
"","ITI","","html-keyboard-response","539","610536","0.0-1.0-747.0","0","0","36403","","null","","","null","82","","","","","","","","","","","","","","","NaN",""
"","S1","","html-keyboard-response","540","610788","0.0-1.0-749.0","0","0","36403","","null","","","null","83","","","","","","","","","","","","","","","",""
"","ISI","","html-keyboard-response","541","611790","0.0-1.0-750.0","0","0","36403","","null","","","null","83","NaN","","","","","","","","","","","","","","",""
"","S2","","html-keyboard-response","542","612044","0.0-1.0-751.0","0","0","36403","","null","","","null","83","","NaN","","","","","","","","","","","","","",""
"","response","","html-keyboard-response","543","612611","0.0-1.0-752.0-0.0","0","0","36403","","564","","","75","83","","","2","83","training","adjacent","DE","4","5","R.jpg","O.jpg","1","1","1","",""
"","feedback","","html-keyboard-response","544","613622","0.0-1.0-753.0-0.0","0","0","36403","","null","","","null","83","","","","","","","","","","","","","","","",""
"","ITI","","html-keyboard-response","545","614625","0.0-1.0-756.0","0","0","36403","","null","","","null","83","","","","","","","","","","","","","","","NaN",""
"","S1","","html-keyboard-response","546","614879","0.0-1.0-758.0","0","0","36403","","null","","","null","84","","","","","","","","","","","","","","","",""
"","ISI","","html-keyboard-response","547","615882","0.0-1.0-759.0","0","0","36403","","null","","","null","84","NaN","","","","","","","","","","","","","","",""
"","S2","","html-keyboard-response","548","616136","0.0-1.0-760.0","0","0","36403","","null","","","null","84","","NaN","","","","","","","","","","","","","",""
"","response","","html-keyboard-response","549","616830","0.0-1.0-761.0-0.0","0","0","36403","","691","","","75","84","","","2","84","training","adjacent","FG","6","7","N.jpg","L.jpg","1","1","1","",""
"","feedback","","html-keyboard-response","550","617834","0.0-1.0-762.0-0.0","0","0","36403","","null","","","null","84","","","","","","","","","","","","","","","",""
"","ITI","","html-keyboard-response","551","618837","0.0-1.0-765.0","0","0","36403","","null","","","null","84","","","","","","","","","","","","","","","NaN",""
"","S1","","html-keyboard-response","552","619091","0.0-1.0-767.0","0","0","36403","","null","","","null","85","","","","","","","","","","","","","","","",""
"","ISI","","html-keyboard-response","553","620095","0.0-1.0-768.0","0","0","36403","","null","","","null","85","NaN","","","","","","","","","","","","","","",""
"","S2","","html-keyboard-response","554","620348","0.0-1.0-769.0","0","0","36403","","null","","","null","85","","NaN","","","","","","","","","","","","","",""
"","response","","html-keyboard-response","555","620956","0.0-1.0-770.0-0.0","0","0","36403","","606","","","75","85","","","2","85","training","adjacent","FE","6","5","N.jpg","O.jpg","1","0","0","",""
"","feedback","","html-keyboard-response","556","621960","0.0-1.0-771.0-0.0","0","0","36403","","null","","","null","85","","","","","","","","","","","","","","","",""
"","time_out","","html-keyboard-response","557","623962","0.0-1.0-773.0-0.0","0","0","36403","","null","","","null","85","","","","","","","","","","","","","","","",""
"","ITI","","html-keyboard-response","558","624964","0.0-1.0-774.0","0","0","36403","","null","","","null","85","","","","","","","","","","","","","","","NaN",""
"","S1","","html-keyboard-response","559","625218","0.0-1.0-776.0","0","0","36403","","null","","","null","86","","","","","","","","","","","","","","","",""
"","ISI","","html-keyboard-response","560","626220","0.0-1.0-777.0","0","0","36403","","null","","","null","86","NaN","","","","","","","","","","","","","","",""
"","S2","","html-keyboard-response","561","626474","0.0-1.0-778.0","0","0","36403","","null","","","null","86","","NaN","","","","","","","","","","","","","",""
"","response","","html-keyboard-response","562","626809","0.0-1.0-779.0-0.0","0","0","36403","","332","","","68","86","","","2","86","training","adjacent","FE","6","5","N.jpg","O.jpg","0","0","1","",""
"","feedback","","html-keyboard-response","563","627812","0.0-1.0-780.0-0.0","0","0","36403","","null","","","null","86","","","","","","","","","","","","","","","",""
"","ITI","","html-keyboard-response","564","628815","0.0-1.0-783.0","0","0","36403","","null","","","null","86","","","","","","","","","","","","","","","NaN",""
"","S1","","html-keyboard-response","565","629068","0.0-1.0-785.0","0","0","36403","","null","","","null","87","","","","","","","","","","","","","","","",""
"","ISI","","html-keyboard-response","566","630071","0.0-1.0-786.0","0","0","36403","","null","","","null","87","NaN","","","","","","","","","","","","","","",""
"","S2","","html-keyboard-response","567","630325","0.0-1.0-787.0","0","0","36403","","null","","","null","87","","NaN","","","","","","","","","","","","","",""
"","response","","html-keyboard-response","568","630663","0.0-1.0-788.0-0.0","0","0","36403","","336","","","75","87","","","2","87","training","adjacent","CB","3","2","M.jpg","P.jpg","1","0","0","",""
"","feedback","","html-keyboard-response","569","631666","0.0-1.0-789.0-0.0","0","0","36403","","null","","","null","87","","","","","","","","","","","","","","","",""
"","time_out","","html-keyboard-response","570","633670","0.0-1.0-791.0-0.0","0","0","36403","","null","","","null","87","","","","","","","","","","","","","","","",""
"","ITI","","html-keyboard-response","571","634673","0.0-1.0-792.0","0","0","36403","","null","","","null","87","","","","","","","","","","","","","","","NaN",""
"","S1","","html-keyboard-response","572","634926","0.0-1.0-794.0","0","0","36403","","null","","","null","88","","","","","","","","","","","","","","","",""
"","ISI","","html-keyboard-response","573","635929","0.0-1.0-795.0","0","0","36403","","null","","","null","88","NaN","","","","","","","","","","","","","","",""
"","S2","","html-keyboard-response","574","636182","0.0-1.0-796.0","0","0","36403","","null","","","null","88","","NaN","","","","","","","","","","","","","",""
"","response","","html-keyboard-response","575","636556","0.0-1.0-797.0-0.0","0","0","36403","","371","","","75","88","","","2","88","training","adjacent","EF","5","6","O.jpg","N.jpg","1","1","1","",""
"","feedback","","html-keyboard-response","576","637560","0.0-1.0-798.0-0.0","0","0","36403","","null","","","null","88","","","","","","","","","","","","","","","",""
"","ITI","","html-keyboard-response","577","638564","0.0-1.0-801.0","0","0","36403","","null","","","null","88","","","","","","","","","","","","","","","NaN",""
"","S1","","html-keyboard-response","578","638817","0.0-1.0-803.0","0","0","36403","","null","","","null","89","","","","","","","","","","","","","","","",""
"","ISI","","html-keyboard-response","579","639819","0.0-1.0-804.0","0","0","36403","","null","","","null","89","NaN","","","","","","","","","","","","","","",""
"","S2","","html-keyboard-response","580","640072","0.0-1.0-805.0","0","0","36403","","null","","","null","89","","NaN","","","","","","","","","","","","","",""
