"success","ttype","start_time","trial_type","trial_index","time_elapsed","internal_node_id","warning","missed_checkup","PID","view_history","rt","responses","repeat_instructions","key_press","index","keypress_isi","keypress_S2","block","trial_num","phase","group_type","pair_type","S1_stim","S2_stim","S1_img","S2_img","S1_chosen","S1_higher","accuracy","keypress_iti","total_bonus_tally"
"true","full_screen","d04132023hr1408","fullscreen","0","7159","0.0-0.0","0","0","98611","","","","","","","","","","","","","","","","","","","","","",""
"","instructions","","instructions","1","57325","0.0-1.0-0.0-0.0","0","0","98611","[{""page_index"":0,""viewing_time"":30618},{""page_index"":1,""viewing_time"":9192},{""page_index"":2,""viewing_time"":8231},{""page_index"":3,""viewing_time"":2123}]","50164","","","","","","","","","","","","","","","","","","","",""
"","comprehension_check","","survey-multi-choice","2","80781","0.0-1.0-0.0-1.0","0","0","98611","","23453","{""Q0"":""True"",""Q1"":""K"",""Q2"":""Only when the screen 'MAKE A CHOICE' is shown"",""Q3"":""Green mark"",""Q4"":""either D or K""}","1","","","","","","","","","","","","","","","","","",""
"","missed_instruction_checkup","","html-keyboard-response","3","83095","0.0-1.0-0.0-2.0-0.0","0","1","98611","","2312","","","32","","","","","","","","","","","","","","","","",""
"","instructions","","instructions","4","93387","0.0-1.0-0.1-0.1","0","0","98611","[{""page_index"":0,""viewing_time"":2786},{""page_index"":1,""viewing_time"":5997},{""page_index"":2,""viewing_time"":785},{""page_index"":3,""viewing_time"":723}]","10292","","","","","","","","","","","","","","","","","","","",""
"","comprehension_check","","survey-multi-choice","5","106371","0.0-1.0-0.1-1.1","0","0","98611","","12981","{""Q0"":""True"",""Q1"":""K"",""Q2"":""Once the second image appears and while the screen 'MAKE A CHOICE' is shown"",""Q3"":""Green mark"",""Q4"":""either D or K""}","0","","","","","","","","","","","","","","","","","",""
"","start_exp","","html-keyboard-response","6","108621","0.0-1.0-1.0","0","0","98611","","2248","","","32","","","","","","","","","","","","","","","","",""
"","S1","","html-keyboard-response","7","108884","0.0-1.0-2.0","0","0","98611","","null","","","null","0","","","","","","","","","","","","","","","",""
"","ISI","","html-keyboard-response","8","109895","0.0-1.0-3.0","0","0","98611","","null","","","null","0","NaN","","","","","","","","","","","","","","",""
"","S2","","html-keyboard-response","9","110162","0.0-1.0-4.0","0","0","98611","","null","","","null","0","","NaN","","","","","","","","","","","","","",""
"","response","","html-keyboard-response","10","110773","0.0-1.0-5.0-0.0","0","0","98611","","610","","","75","0","","","1","0","training","adjacent","FG","6","7","M.jpg","R.jpg","1","1","1","",""
"","feedback","","html-keyboard-response","11","111781","0.0-1.0-6.0-0.0","0","0","98611","","null","","","null","0","","","","","","","","","","","","","","","",""
"","ITI","","html-keyboard-response","12","112784","0.0-1.0-9.0","0","0","98611","","null","","","null","0","","","","","","","","","","","","","","","NaN",""
"","S1","","html-keyboard-response","13","113050","0.0-1.0-11.0","0","0","98611","","null","","","null","1","","","","","","","","","","","","","","","",""
"","ISI","","html-keyboard-response","14","114064","0.0-1.0-12.0","0","0","98611","","null","","","null","1","NaN","","","","","","","","","","","","","","",""
"","S2","","html-keyboard-response","15","114317","0.0-1.0-13.0","0","0","98611","","null","","","null","1","","NaN","","","","","","","","","","","","","",""
"","response","","html-keyboard-response","16","115101","0.0-1.0-14.0-0.0","0","0","98611","","783","","","75","1","","","1","1","training","adjacent","EF","5","6","N.jpg","M.jpg","1","1","1","",""
"","feedback","","html-keyboard-response","17","116111","0.0-1.0-15.0-0.0","0","0","98611","","null","","","null","1","","","","","","","","","","","","","","","",""
"","ITI","","html-keyboard-response","18","117127","0.0-1.0-18.0","0","0","98611","","null","","","null","1","","","","","","","","","","","","","","","NaN",""
"","S1","","html-keyboard-response","19","117391","0.0-1.0-20.0","0","0","98611","","null","","","null","2","","","","","","","","","","","","","","","",""
"","ISI","","html-keyboard-response","20","118403","0.0-1.0-21.0","0","0","98611","","null","","","null","2","NaN","","","","","","","","","","","","","","",""
"","S2","","html-keyboard-response","21","118655","0.0-1.0-22.0","0","0","98611","","null","","","null","2","","NaN","","","","","","","","","","","","","",""
"","response","","html-keyboard-response","22","119133","0.0-1.0-23.0-0.0","0","0","98611","","477","","","75","2","","","1","2","training","adjacent","AB","1","2","L.jpg","Q.jpg","1","1","1","",""
"","feedback","","html-keyboard-response","23","120141","0.0-1.0-24.0-0.0","0","0","98611","","null","","","null","2","","","","","","","","","","","","","","","",""
"","ITI","","html-keyboard-response","24","121157","0.0-1.0-27.0","0","0","98611","","null","","","null","2","","","","","","","","","","","","","","","NaN",""
"","S1","","html-keyboard-response","25","121409","0.0-1.0-29.0","0","0","98611","","null","","","null","3","","","","","","","","","","","","","","","",""
"","ISI","","html-keyboard-response","26","122422","0.0-1.0-30.0","0","0","98611","","null","","","null","3","NaN","","","","","","","","","","","","","","",""
"","S2","","html-keyboard-response","27","122689","0.0-1.0-31.0","0","0","98611","","null","","","null","3","","NaN","","","","","","","","","","","","","",""
"","response","","html-keyboard-response","28","123108","0.0-1.0-32.0-0.0","0","0","98611","","418","","","75","3","","","1","3","training","adjacent","GF","7","6","R.jpg","M.jpg","1","0","0","",""
"","feedback","","html-keyboard-response","29","124111","0.0-1.0-33.0-0.0","0","0","98611","","null","","","null","3","","","","","","","","","","","","","","","",""
"","time_out","","html-keyboard-response","30","126125","0.0-1.0-35.0-0.0","0","0","98611","","null","","","null","3","","","","","","","","","","","","","","","",""
"","ITI","","html-keyboard-response","31","127142","0.0-1.0-36.0","0","0","98611","","null","","","null","3","","","","","","","","","","","","","","","NaN",""
"","S1","","html-keyboard-response","32","127394","0.0-1.0-38.0","0","0","98611","","null","","","null","4","","","","","","","","","","","","","","","",""
"","ISI","","html-keyboard-response","33","128396","0.0-1.0-39.0","0","0","98611","","null","","","null","4","NaN","","","","","","","","","","","","","","",""
"","S2","","html-keyboard-response","34","128663","0.0-1.0-40.0","0","0","98611","","null","","","null","4","","NaN","","","","","","","","","","","","","",""
"","response","","html-keyboard-response","35","129101","0.0-1.0-41.0-0.0","0","0","98611","","437","","","75","4","","","1","4","training","adjacent","DC","4","3","O.jpg","P.jpg","1","0","0","",""
"","feedback","","html-keyboard-response","36","130117","0.0-1.0-42.0-0.0","0","0","98611","","null","","","null","4","","","","","","","","","","","","","","","",""
"","time_out","","html-keyboard-response","37","132126","0.0-1.0-44.0-0.0","0","0","98611","","null","","","null","4","","","","","","","","","","","","","","","",""
"","ITI","","html-keyboard-response","38","133143","0.0-1.0-45.0","0","0","98611","","null","","","null","4","","","","","","","","","","","","","","","NaN",""
"","S1","","html-keyboard-response","39","133395","0.0-1.0-47.0","0","0","98611","","null","","","null","5","","","","","","","","","","","","","","","",""
"","ISI","","html-keyboard-response","40","134411","0.0-1.0-48.0","0","0","98611","","null","","","null","5","NaN","","","","","","","","","","","","","","",""
"","S2","","html-keyboard-response","41","134662","0.0-1.0-49.0","0","0","98611","","null","","","null","5","","NaN","","","","","","","","","","","","","",""
"","response","","html-keyboard-response","42","134804","0.0-1.0-50.0-0.0","0","0","98611","","141","","","75","5","","","1","5","training","adjacent","BC","2","3","Q.jpg","P.jpg","1","1","1","",""
"","feedback","","html-keyboard-response","43","135821","0.0-1.0-51.0-0.0","0","0","98611","","null","","","null","5","","","","","","","","","","","","","","","",""
"","ITI","","html-keyboard-response","44","136833","0.0-1.0-54.0","0","0","98611","","null","","","null","5","","","","","","","","","","","","","","","NaN",""
"","S1","","html-keyboard-response","45","137086","0.0-1.0-56.0","0","0","98611","","null","","","null","6","","","","","","","","","","","","","","","",""
"","ISI","","html-keyboard-response","46","138102","0.0-1.0-57.0","0","0","98611","","null","","","null","6","NaN","","","","","","","","","","","","","","",""
"","S2","","html-keyboard-response","47","138368","0.0-1.0-58.0","0","0","98611","","null","","","null","6","","NaN","","","","","","","","","","","","","",""
"","response","","html-keyboard-response","48","138436","0.0-1.0-59.0-0.0","0","0","98611","","67","","","68","6","","","1","6","training","adjacent","EF","5","6","N.jpg","M.jpg","0","1","0","",""
"","feedback","","html-keyboard-response","49","139443","0.0-1.0-60.0-0.0","0","0","98611","","null","","","null","6","","","","","","","","","","","","","","","",""
"","time_out","","html-keyboard-response","50","141458","0.0-1.0-62.0-0.0","0","0","98611","","null","","","null","6","","","","","","","","","","","","","","","",""
"","ITI","","html-keyboard-response","51","142473","0.0-1.0-63.0","0","0","98611","","null","","","null","6","","","","","","","","","","","","","","","NaN",""
"","S1","","html-keyboard-response","52","142738","0.0-1.0-65.0","0","0","98611","","null","","","null","7","","","","","","","","","","","","","","","",""
"","ISI","","html-keyboard-response","53","143739","0.0-1.0-66.0","0","0","98611","","null","","","null","7","NaN","","","","","","","","","","","","","","",""
"","S2","","html-keyboard-response","54","143992","0.0-1.0-67.0","0","0","98611","","null","","","null","7","","NaN","","","","","","","","","","","","","",""
"","response","","html-keyboard-response","55","144356","0.0-1.0-68.0-0.0","0","0","98611","","363","","","68","7","","","1","7","training","adjacent","FG","6","7","M.jpg","R.jpg","0","1","0","",""
"","feedback","","html-keyboard-response","56","145362","0.0-1.0-69.0-0.0","0","0","98611","","null","","","null","7","","","","","","","","","","","","","","","",""
"","time_out","","html-keyboard-response","57","147375","0.0-1.0-71.0-0.0","0","0","98611","","null","","","null","7","","","","","","","","","","","","","","","",""
"","ITI","","html-keyboard-response","58","148389","0.0-1.0-72.0","0","0","98611","","null","","","null","7","","","","","","","","","","","","","","","NaN",""
"","S1","","html-keyboard-response","59","148652","0.0-1.0-74.0","0","0","98611","","null","","","null","8","","","","","","","","","","","","","","","",""
"","ISI","","html-keyboard-response","60","149661","0.0-1.0-75.0","0","0","98611","","null","","","null","8","NaN","","","","","","","","","","","","","","",""
"","S2","","html-keyboard-response","61","149927","0.0-1.0-76.0","0","0","98611","","null","","","null","8","","NaN","","","","","","","","","","","","","",""
"","response","","html-keyboard-response","62","149956","0.0-1.0-77.0-0.0","0","0","98611","","28","","","75","8","","","1","8","training","adjacent","FG","6","7","M.jpg","R.jpg","1","1","1","",""
"","feedback","","html-keyboard-response","63","150959","0.0-1.0-78.0-0.0","0","0","98611","","null","","","null","8","","","","","","","","","","","","","","","",""
"","ITI","","html-keyboard-response","64","151974","0.0-1.0-81.0","0","0","98611","","null","","","null","8","","","","","","","","","","","","","","","NaN",""
"","S1","","html-keyboard-response","65","152226","0.0-1.0-83.0","0","0","98611","","null","","","null","9","","","","","","","","","","","","","","","",""
"","ISI","","html-keyboard-response","66","153242","0.0-1.0-84.0","0","0","98611","","null","","","null","9","NaN","","","","","","","","","","","","","","",""
"","S2","","html-keyboard-response","67","153493","0.0-1.0-85.0","0","0","98611","","null","","","null","9","","NaN","","","","","","","","","","","","","",""
"","response","","html-keyboard-response","68","153652","0.0-1.0-86.0-0.0","0","0","98611","","156","","","75","9","","","1","9","training","adjacent","CD","3","4","P.jpg","O.jpg","1","1","1","",""
"","feedback","","html-keyboard-response","69","154665","0.0-1.0-87.0-0.0","0","0","98611","","null","","","null","9","","","","","","","","","","","","","","","",""
"","ITI","","html-keyboard-response","70","155666","0.0-1.0-90.0","0","0","98611","","null","","","null","9","","","","","","","","","","","","","","","NaN",""
"","S1","","html-keyboard-response","71","155922","0.0-1.0-92.0","0","0","98611","","null","","","null","10","","","","","","","","","","","","","","","",""
"","ISI","","html-keyboard-response","72","156926","0.0-1.0-93.0","0","0","98611","","null","","","null","10","NaN","","","","","","","","","","","","","","",""
"","S2","","html-keyboard-response","73","157191","0.0-1.0-94.0","0","0","98611","","null","","","null","10","","NaN","","","","","","","","","","","","","",""
"","response","","html-keyboard-response","74","157267","0.0-1.0-95.0-0.0","0","0","98611","","74","","","75","10","","","1","10","training","adjacent","DE","4","5","O.jpg","N.jpg","1","1","1","",""
"","feedback","","html-keyboard-response","75","158273","0.0-1.0-96.0-0.0","0","0","98611","","null","","","null","10","","","","","","","","","","","","","","","",""
"","ITI","","html-keyboard-response","76","159285","0.0-1.0-99.0","0","0","98611","","null","","","null","10","","","","","","","","","","","","","","","NaN",""
"","S1","","html-keyboard-response","77","159551","0.0-1.0-101.0","0","0","98611","","null","","","null","11","","","","","","","","","","","","","","","",""
"","ISI","","html-keyboard-response","78","160568","0.0-1.0-102.0","0","0","98611","","null","","","null","11","NaN","","","","","","","","","","","","","","",""
"","S2","","html-keyboard-response","79","160820","0.0-1.0-103.0","0","0","98611","","null","","","null","11","","NaN","","","","","","","","","","","","","",""
"","response","","html-keyboard-response","80","160947","0.0-1.0-104.0-0.0","0","0","98611","","126","","","75","11","","","1","11","training","adjacent","CD","3","4","P.jpg","O.jpg","1","1","1","",""
"","feedback","","html-keyboard-response","81","161958","0.0-1.0-105.0-0.0","0","0","98611","","null","","","null","11","","","","","","","","","","","","","","","",""
"","ITI","","html-keyboard-response","82","162959","0.0-1.0-108.0","0","0","98611","","null","","","null","11","","","","","","","","","","","","","","","NaN",""
"","S1","","html-keyboard-response","83","163224","0.0-1.0-110.0","0","0","98611","","null","","","null","12","","","","","","","","","","","","","","","",""
"","ISI","","html-keyboard-response","84","164238","0.0-1.0-111.0","0","0","98611","","null","","","null","12","NaN","","","","","","","","","","","","","","",""
"","S2","","html-keyboard-response","85","164490","0.0-1.0-112.0","0","0","98611","","null","","","null","12","","NaN","","","","","","","","","","","","","",""
"","response","","html-keyboard-response","86","164580","0.0-1.0-113.0-0.0","0","0","98611","","88","","","75","12","","","1","12","training","adjacent","BA","2","1","Q.jpg","L.jpg","1","0","0","",""
"","feedback","","html-keyboard-response","87","165585","0.0-1.0-114.0-0.0","0","0","98611","","null","","","null","12","","","","","","","","","","","","","","","",""
"","time_out","","html-keyboard-response","88","167600","0.0-1.0-116.0-0.0","0","0","98611","","null","","","null","12","","","","","","","","","","","","","","","",""
"","ITI","","html-keyboard-response","89","168611","0.0-1.0-117.0","0","0","98611","","null","","","null","12","","","","","","","","","","","","","","","NaN",""
"","S1","","html-keyboard-response","90","168864","0.0-1.0-119.0","0","0","98611","","null","","","null","13","","","","","","","","","","","","","","","",""
"","ISI","","html-keyboard-response","91","169878","0.0-1.0-120.0","0","0","98611","","null","","","null","13","NaN","","","","","","","","","","","","","","",""
"","S2","","html-keyboard-response","92","170130","0.0-1.0-121.0","0","0","98611","","null","","","null","13","","NaN","","","","","","","","","","","","","",""
"","response","","html-keyboard-response","93","170163","0.0-1.0-122.0-0.0","0","0","98611","","32","","","75","13","","","1","13","training","adjacent","DE","4","5","O.jpg","N.jpg","1","1","1","",""
"","feedback","","html-keyboard-response","94","171179","0.0-1.0-123.0-0.0","0","0","98611","","null","","","null","13","","","","","","","","","","","","","","","",""
"","ITI","","html-keyboard-response","95","172195","0.0-1.0-126.0","0","0","98611","","null","","","null","13","","","","","","","","","","","","","","","NaN",""
"","S1","","html-keyboard-response","96","172460","0.0-1.0-128.0","0","0","98611","","null","","","null","14","","","","","","","","","","","","","","","",""
"","ISI","","html-keyboard-response","97","173475","0.0-1.0-129.0","0","0","98611","","null","","","null","14","NaN","","","","","","","","","","","","","","",""
"","S2","","html-keyboard-response","98","173728","0.0-1.0-130.0","0","0","98611","","null","","","null","14","","NaN","","","","","","","","","","","","","",""
"","response","","html-keyboard-response","99","173988","0.0-1.0-131.0-0.0","0","0","98611","","258","","","75","14","","","1","14","training","adjacent","CB","3","2","P.jpg","Q.jpg","1","0","0","",""
"","feedback","","html-keyboard-response","100","174998","0.0-1.0-132.0-0.0","0","0","98611","","null","","","null","14","","","","","","","","","","","","","","","",""
"","time_out","","html-keyboard-response","101","177000","0.0-1.0-134.0-0.0","0","0","98611","","null","","","null","14","","","","","","","","","","","","","","","",""
"","ITI","","html-keyboard-response","102","178010","0.0-1.0-135.0","0","0","98611","","null","","","null","14","","","","","","","","","","","","","","","NaN",""
"","S1","","html-keyboard-response","103","178264","0.0-1.0-137.0","0","0","98611","","null","","","null","15","","","","","","","","","","","","","","","",""
"","ISI","","html-keyboard-response","104","179272","0.0-1.0-138.0","0","0","98611","","null","","","null","15","NaN","","","","","","","","","","","","","","",""
"","S2","","html-keyboard-response","105","179538","0.0-1.0-139.0","0","0","98611","","null","","","null","15","","NaN","","","","","","","","","","","","","",""
"","response","","html-keyboard-response","106","179547","0.0-1.0-140.0-0.0","0","0","98611","","8","","","75","15","","","1","15","training","adjacent","BA","2","1","Q.jpg","L.jpg","1","0","0","",""
"","feedback","","html-keyboard-response","107","180552","0.0-1.0-141.0-0.0","0","0","98611","","null","","","null","15","","","","","","","","","","","","","","","",""
"","time_out","","html-keyboard-response","108","182565","0.0-1.0-143.0-0.0","0","0","98611","","null","","","null","15","","","","","","","","","","","","","","","",""
"","ITI","","html-keyboard-response","109","183580","0.0-1.0-144.0","0","0","98611","","null","","","null","15","","","","","","","","","","","","","","","NaN",""
"","S1","","html-keyboard-response","110","183846","0.0-1.0-146.0","0","0","98611","","null","","","null","16","","","","","","","","","","","","","","","",""
"","ISI","","html-keyboard-response","111","184862","0.0-1.0-147.0","0","0","98611","","null","","","null","16","NaN","","","","","","","","","","","","","","",""
"","S2","","html-keyboard-response","112","185116","0.0-1.0-148.0","0","0","98611","","null","","","null","16","","NaN","","","","","","","","","","","","","",""
"","response","","html-keyboard-response","113","185170","0.0-1.0-149.0-0.0","0","0","98611","","53","","","68","16","","","1","16","training","adjacent","CD","3","4","P.jpg","O.jpg","0","1","0","",""
"","feedback","","html-keyboard-response","114","186178","0.0-1.0-150.0-0.0","0","0","98611","","null","","","null","16","","","","","","","","","","","","","","","",""
"","time_out","","html-keyboard-response","115","188194","0.0-1.0-152.0-0.0","0","0","98611","","null","","","null","16","","","","","","","","","","","","","","","",""
"","ITI","","html-keyboard-response","116","189198","0.0-1.0-153.0","0","0","98611","","null","","","null","16","","","","","","","","","","","","","","","NaN",""
"","S1","","html-keyboard-response","117","189464","0.0-1.0-155.0","0","0","98611","","null","","","null","17","","","","","","","","","","","","","","","",""
"","ISI","","html-keyboard-response","118","190471","0.0-1.0-156.0","0","0","98611","","null","","","null","17","NaN","","","","","","","","","","","","","","",""
"","S2","","html-keyboard-response","119","190738","0.0-1.0-157.0","0","0","98611","","null","","","null","17","","NaN","","","","","","","","","","","","","",""
"","response","","html-keyboard-response","120","190786","0.0-1.0-158.0-0.0","0","0","98611","","48","","","75","17","","","1","17","training","adjacent","ED","5","4","N.jpg","O.jpg","1","0","0","",""
"","feedback","","html-keyboard-response","121","191800","0.0-1.0-159.0-0.0","0","0","98611","","null","","","null","17","","","","","","","","","","","","","","","",""
"","time_out","","html-keyboard-response","122","193802","0.0-1.0-161.0-0.0","0","0","98611","","null","","","null","17","","","","","","","","","","","","","","","",""
"","ITI","","html-keyboard-response","123","194814","0.0-1.0-162.0","0","0","98611","","null","","","null","17","","","","","","","","","","","","","","","NaN",""
"","S1","","html-keyboard-response","124","195080","0.0-1.0-164.0","0","0","98611","","null","","","null","18","","","","","","","","","","","","","","","",""
"","ISI","","html-keyboard-response","125","196083","0.0-1.0-165.0","0","0","98611","","null","","","null","18","NaN","","","","","","","","","","","","","","",""
"","S2","","html-keyboard-response","126","196337","0.0-1.0-166.0","0","0","98611","","null","","","null","18","","NaN","","","","","","","","","","","","","",""
"","response","","html-keyboard-response","127","196458","0.0-1.0-167.0-0.0","0","0","98611","","121","","","75","18","","","1","18","training","adjacent","DC","4","3","O.jpg","P.jpg","1","0","0","",""
"","feedback","","html-keyboard-response","128","197460","0.0-1.0-168.0-0.0","0","0","98611","","null","","","null","18","","","","","","","","","","","","","","","",""
"","time_out","","html-keyboard-response","129","199472","0.0-1.0-170.0-0.0","0","0","98611","","null","","","null","18","","","","","","","","","","","","","","","",""
"","ITI","","html-keyboard-response","130","200486","0.0-1.0-171.0","0","0","98611","","null","","","null","18","","","","","","","","","","","","","","","NaN",""
"","S1","","html-keyboard-response","131","200738","0.0-1.0-173.0","0","0","98611","","null","","","null","19","","","","","","","","","","","","","","","",""
"","ISI","","html-keyboard-response","132","201745","0.0-1.0-174.0","0","0","98611","","null","","","null","19","NaN","","","","","","","","","","","","","","",""
"","S2","","html-keyboard-response","133","201998","0.0-1.0-175.0","0","0","98611","","null","","","null","19","","NaN","","","","","","","","","","","","","",""
"","response","","html-keyboard-response","134","202082","0.0-1.0-176.0-0.0","0","0","98611","","84","","","68","19","","","1","19","training","adjacent","CB","3","2","P.jpg","Q.jpg","0","0","1","",""
"","feedback","","html-keyboard-response","135","203095","0.0-1.0-177.0-0.0","0","0","98611","","null","","","null","19","","","","","","","","","","","","","","","",""
"","ITI","","html-keyboard-response","136","204110","0.0-1.0-180.0","0","0","98611","","null","","","null","19","","","","","","","","","","","","","","","NaN",""
"","S1","","html-keyboard-response","137","204377","0.0-1.0-182.0","0","0","98611","","null","","","null","20","","","","","","","","","","","","","","","",""
"","ISI","","html-keyboard-response","138","205380","0.0-1.0-183.0","0","0","98611","","null","","","null","20","NaN","","","","","","","","","","","","","","",""
"","S2","","html-keyboard-response","139","205632","0.0-1.0-184.0","0","0","98611","","null","","","null","20","","NaN","","","","","","","","","","","","","",""
"","response","","html-keyboard-response","140","205738","0.0-1.0-185.0-0.0","0","0","98611","","105","","","68","20","","","1","20","training","adjacent","DC","4","3","O.jpg","P.jpg","0","0","1","",""
"","feedback","","html-keyboard-response","141","206747","0.0-1.0-186.0-0.0","0","0","98611","","null","","","null","20","","","","","","","","","","","","","","","",""
"","ITI","","html-keyboard-response","142","207748","0.0-1.0-189.0","0","0","98611","","null","","","null","20","","","","","","","","","","","","","","","NaN",""
"","S1","","html-keyboard-response","143","208014","0.0-1.0-191.0","0","0","98611","","null","","","null","21","","","","","","","","","","","","","","","",""
"","ISI","","html-keyboard-response","144","209017","0.0-1.0-192.0","0","0","98611","","null","","","null","21","NaN","","","","","","","","","","","","","","",""
"","S2","","html-keyboard-response","145","209269","0.0-1.0-193.0","0","0","98611","","null","","","null","21","","NaN","","","","","","","","","","","","","",""
"","response","","html-keyboard-response","146","209434","0.0-1.0-194.0-0.0","0","0","98611","","164","","","68","21","","","1","21","training","adjacent","FE","6","5","M.jpg","N.jpg","0","0","1","",""
"","feedback","","html-keyboard-response","147","210440","0.0-1.0-195.0-0.0","0","0","98611","","null","","","null","21","","","","","","","","","","","","","","","",""
"","ITI","","html-keyboard-response","148","211454","0.0-1.0-198.0","0","0","98611","","null","","","null","21","","","","","","","","","","","","","","","NaN",""
"","S1","","html-keyboard-response","149","211720","0.0-1.0-200.0","0","0","98611","","null","","","null","22","","","","","","","","","","","","","","","",""
"","ISI","","html-keyboard-response","150","212735","0.0-1.0-201.0","0","0","98611","","null","","","null","22","NaN","","","","","","","","","","","","","","",""
"","S2","","html-keyboard-response","151","213001","0.0-1.0-202.0","0","0","98611","","null","","","null","22","","NaN","","","","","","","","","","","","","",""
"","response","","html-keyboard-response","152","213202","0.0-1.0-203.0-0.0","0","0","98611","","200","","","68","22","","","1","22","training","adjacent","ED","5","4","N.jpg","O.jpg","0","0","1","",""
"","feedback","","html-keyboard-response","153","214206","0.0-1.0-204.0-0.0","0","0","98611","","null","","","null","22","","","","","","","","","","","","","","","",""
"","ITI","","html-keyboard-response","154","215220","0.0-1.0-207.0","0","0","98611","","null","","","null","22","","","","","","","","","","","","","","","NaN",""
"","S1","","html-keyboard-response","155","215471","0.0-1.0-209.0","0","0","98611","","null","","","null","23","","","","","","","","","","","","","","","",""
"","ISI","","html-keyboard-response","156","216485","0.0-1.0-210.0","0","0","98611","","426","","","75","23","k","","","","","","","","","","","","","","",""
"","S2","","html-keyboard-response","157","216520","0.0-1.0-211.0","0","0","98611","","35","","","68","23","","d","1","23","training","adjacent","ED","5","4","N.jpg","O.jpg","0","0","1","",""
"","feedback","","html-keyboard-response","158","217526","0.0-1.0-213.0-0.0","0","0","98611","","null","","","null","23","","","","","","","","","","","","","","","",""
"","ITI","","html-keyboard-response","159","218541","0.0-1.0-216.0","0","0","98611","","null","","","null","23","","","","","","","","","","","","","","","NaN",""
"","S1","","html-keyboard-response","160","218807","0.0-1.0-218.0","0","0","98611","","null","","","null","24","","","","","","","","","","","","","","","",""
"","ISI","","html-keyboard-response","161","219818","0.0-1.0-219.0","0","0","98611","","null","","","null","24","NaN","","","","","","","","","","","","","","",""
"","S2","","html-keyboard-response","162","220071","0.0-1.0-220.0","0","0","98611","","null","","","null","24","","NaN","","","","","","","","","","","","","",""
"","response","","html-keyboard-response","163","220218","0.0-1.0-221.0-0.0","0","0","98611","","146","","","68","24","","","1","24","training","adjacent","EF","5","6","N.jpg","M.jpg","0","1","0","",""
"","feedback","","html-keyboard-response","164","221226","0.0-1.0-222.0-0.0","0","0","98611","","null","","","null","24","","","","","","","","","","","","","","","",""
"","time_out","","html-keyboard-response","165","223238","0.0-1.0-224.0-0.0","0","0","98611","","null","","","null","24","","","","","","","","","","","","","","","",""
"","ITI","","html-keyboard-response","166","224246","0.0-1.0-225.0","0","0","98611","","488","","","75","24","","","","","","","","","","","","","","","k",""
"","S1","","html-keyboard-response","167","224512","0.0-1.0-227.0","0","0","98611","","null","","","null","25","","","","","","","","","","","","","","","",""
"","ISI","","html-keyboard-response","168","225524","0.0-1.0-228.0","0","0","98611","","null","","","null","25","NaN","","","","","","","","","","","","","","",""
"","S2","","html-keyboard-response","169","225790","0.0-1.0-229.0","0","0","98611","","null","","","null","25","","NaN","","","","","","","","","","","","","",""
"","response","","html-keyboard-response","170","226161","0.0-1.0-230.0-0.0","0","0","98611","","370","","","68","25","","","1","25","training","adjacent","DC","4","3","O.jpg","P.jpg","0","0","1","",""
"","feedback","","html-keyboard-response","171","227173","0.0-1.0-231.0-0.0","0","0","98611","","null","","","null","25","","","","","","","","","","","","","","","",""
"","ITI","","html-keyboard-response","172","228182","0.0-1.0-234.0","0","0","98611","","null","","","null","25","","","","","","","","","","","","","","","NaN",""
"","S1","","html-keyboard-response","173","228447","0.0-1.0-236.0","0","0","98611","","null","","","null","26","","","","","","","","","","","","","","","",""
"","ISI","","html-keyboard-response","174","229455","0.0-1.0-237.0","0","0","98611","","null","","","null","26","NaN","","","","","","","","","","","","","","",""
"","S2","","html-keyboard-response","175","229720","0.0-1.0-238.0","0","0","98611","","null","","","null","26","","NaN","","","","","","","","","","","","","",""
"","response","","html-keyboard-response","176","230016","0.0-1.0-239.0-0.0","0","0","98611","","294","","","75","26","","","1","26","training","adjacent","EF","5","6","N.jpg","M.jpg","1","1","1","",""
"","feedback","","html-keyboard-response","177","231024","0.0-1.0-240.0-0.0","0","0","98611","","null","","","null","26","","","","","","","","","","","","","","","",""
"","ITI","","html-keyboard-response","178","232026","0.0-1.0-243.0","0","0","98611","","null","","","null","26","","","","","","","","","","","","","","","NaN",""
"","S1","","html-keyboard-response","179","232278","0.0-1.0-245.0","0","0","98611","","null","","","null","27","","","","","","","","","","","","","","","",""
"","ISI","","html-keyboard-response","180","233294","0.0-1.0-246.0","0","0","98611","","null","","","null","27","NaN","","","","","","","","","","","","","","",""
"","S2","","html-keyboard-response","181","233560","0.0-1.0-247.0","0","0","98611","","null","","","null","27","","NaN","","","","","","","","","","","","","",""
"","response","","html-keyboard-response","182","233656","0.0-1.0-248.0-0.0","0","0","98611","","95","","","68","27","","","1","27","training","adjacent","BC","2","3","Q.jpg","P.jpg","0","1","0","",""
"","feedback","","html-keyboard-response","183","234660","0.0-1.0-249.0-0.0","0","0","98611","","null","","","null","27","","","","","","","","","","","","","","","",""
"","time_out","","html-keyboard-response","184","236675","0.0-1.0-251.0-0.0","0","0","98611","","null","","","null","27","","","","","","","","","","","","","","","",""
"","ITI","","html-keyboard-response","185","237690","0.0-1.0-252.0","0","0","98611","","null","","","null","27","","","","","","","","","","","","","","","NaN",""
"","S1","","html-keyboard-response","186","237955","0.0-1.0-254.0","0","0","98611","","null","","","null","28","","","","","","","","","","","","","","","",""
"","ISI","","html-keyboard-response","187","238966","0.0-1.0-255.0","0","0","98611","","null","","","null","28","NaN","","","","","","","","","","","","","","",""
"","S2","","html-keyboard-response","188","239218","0.0-1.0-256.0","0","0","98611","","null","","","null","28","","NaN","","","","","","","","","","","","","",""
"","response","","html-keyboard-response","189","239304","0.0-1.0-257.0-0.0","0","0","98611","","85","","","75","28","","","1","28","training","adjacent","AB","1","2","L.jpg","Q.jpg","1","1","1","",""
"","feedback","","html-keyboard-response","190","240320","0.0-1.0-258.0-0.0","0","0","98611","","null","","","null","28","","","","","","","","","","","","","","","",""
"","ITI","","html-keyboard-response","191","241337","0.0-1.0-261.0","0","0","98611","","null","","","null","28","","","","","","","","","","","","","","","NaN",""
"","S1","","html-keyboard-response","192","241602","0.0-1.0-263.0","0","0","98611","","null","","","null","29","","","","","","","","","","","","","","","",""
"","ISI","","html-keyboard-response","193","242610","0.0-1.0-264.0","0","0","98611","","null","","","null","29","NaN","","","","","","","","","","","","","","",""
"","S2","","html-keyboard-response","194","242861","0.0-1.0-265.0","0","0","98611","","null","","","null","29","","NaN","","","","","","","","","","","","","",""
"","response","","html-keyboard-response","195","244257","0.0-1.0-266.0-0.0","0","0","98611","","1394","","","75","29","","","1","29","training","adjacent","FE","6","5","M.jpg","N.jpg","1","0","0","",""
"","feedback","","html-keyboard-response","196","245266","0.0-1.0-267.0-0.0","0","0","98611","","null","","","null","29","","","","","","","","","","","","","","","",""
"","time_out","","html-keyboard-response","197","247268","0.0-1.0-269.0-0.0","0","0","98611","","null","","","null","29","","","","","","","","","","","","","","","",""
"","ITI","","html-keyboard-response","198","248271","0.0-1.0-270.0","0","0","98611","","null","","","null","29","","","","","","","","","","","","","","","NaN",""
"","S1","","html-keyboard-response","199","248538","0.0-1.0-272.0","0","0","98611","","null","","","null","30","","","","","","","","","","","","","","","",""
"","ISI","","html-keyboard-response","200","249543","0.0-1.0-273.0","0","0","98611","","null","","","null","30","NaN","","","","","","","","","","","","","","",""
"","S2","","html-keyboard-response","201","249808","0.0-1.0-274.0","0","0","98611","","null","","","null","30","","NaN","","","","","","","","","","","","","",""
"","response","","html-keyboard-response","202","249832","0.0-1.0-275.0-0.0","0","0","98611","","23","","","75","30","","","1","30","training","adjacent","BC","2","3","Q.jpg","P.jpg","1","1","1","",""
"","feedback","","html-keyboard-response","203","250839","0.0-1.0-276.0-0.0","0","0","98611","","null","","","null","30","","","","","","","","","","","","","","","",""
"","ITI","","html-keyboard-response","204","251845","0.0-1.0-279.0","0","0","98611","","null","","","null","30","","","","","","","","","","","","","","","NaN",""
"","S1","","html-keyboard-response","205","252110","0.0-1.0-281.0","0","0","98611","","null","","","null","31","","","","","","","","","","","","","","","",""
"","ISI","","html-keyboard-response","206","253126","0.0-1.0-282.0","0","0","98611","","null","","","null","31","NaN","","","","","","","","","","","","","","",""
"","S2","","html-keyboard-response","207","253380","0.0-1.0-283.0","0","0","98611","","null","","","null","31","","NaN","","","","","","","","","","","","","",""
"","response","","html-keyboard-response","208","253632","0.0-1.0-284.0-0.0","0","0","98611","","250","","","75","31","","","1","31","training","adjacent","AB","1","2","L.jpg","Q.jpg","1","1","1","",""
"","feedback","","html-keyboard-response","209","254644","0.0-1.0-285.0-0.0","0","0","98611","","null","","","null","31","","","","","","","","","","","","","","","",""
"","ITI","","html-keyboard-response","210","255658","0.0-1.0-288.0","0","0","98611","","null","","","null","31","","","","","","","","","","","","","","","NaN",""
"","S1","","html-keyboard-response","211","255923","0.0-1.0-290.0","0","0","98611","","null","","","null","32","","","","","","","","","","","","","","","",""
"","ISI","","html-keyboard-response","212","256934","0.0-1.0-291.0","0","0","98611","","null","","","null","32","NaN","","","","","","","","","","","","","","",""
"","S2","","html-keyboard-response","213","257188","0.0-1.0-292.0","0","0","98611","","null","","","null","32","","NaN","","","","","","","","","","","","","",""
"","response","","html-keyboard-response","214","258200","0.0-1.0-293.0-0.0","0","0","98611","","1011","","","75","32","","","1","32","training","adjacent","GF","7","6","R.jpg","M.jpg","1","0","0","",""
"","feedback","","html-keyboard-response","215","259205","0.0-1.0-294.0-0.0","0","0","98611","","null","","","null","32","","","","","","","","","","","","","","","",""
"","time_out","","html-keyboard-response","216","261222","0.0-1.0-296.0-0.0","0","0","98611","","null","","","null","32","","","","","","","","","","","","","","","",""
"","ITI","","html-keyboard-response","217","262237","0.0-1.0-297.0","0","0","98611","","null","","","null","32","","","","","","","","","","","","","","","NaN",""
"","S1","","html-keyboard-response","218","262504","0.0-1.0-299.0","0","0","98611","","null","","","null","33","","","","","","","","","","","","","","","",""
"","ISI","","html-keyboard-response","219","263518","0.0-1.0-300.0","0","0","98611","","null","","","null","33","NaN","","","","","","","","","","","","","","",""
"","S2","","html-keyboard-response","220","263770","0.0-1.0-301.0","0","0","98611","","null","","","null","33","","NaN","","","","","","","","","","","","","",""
"","response","","html-keyboard-response","221","263976","0.0-1.0-302.0-0.0","0","0","98611","","205","","","68","33","","","1","33","training","adjacent","BA","2","1","Q.jpg","L.jpg","0","0","1","",""
"","feedback","","html-keyboard-response","222","264991","0.0-1.0-303.0-0.0","0","0","98611","","null","","","null","33","","","","","","","","","","","","","","","",""
"","ITI","","html-keyboard-response","223","266006","0.0-1.0-306.0","0","0","98611","","null","","","null","33","","","","","","","","","","","","","","","NaN",""
"","S1","","html-keyboard-response","224","266258","0.0-1.0-308.0","0","0","98611","","null","","","null","34","","","","","","","","","","","","","","","",""
"","ISI","","html-keyboard-response","225","267260","0.0-1.0-309.0","0","0","98611","","null","","","null","34","NaN","","","","","","","","","","","","","","",""
"","S2","","html-keyboard-response","226","267512","0.0-1.0-310.0","0","0","98611","","null","","","null","34","","NaN","","","","","","","","","","","","","",""
"","response","","html-keyboard-response","227","267841","0.0-1.0-311.0-0.0","0","0","98611","","327","","","75","34","","","1","34","training","adjacent","CB","3","2","P.jpg","Q.jpg","1","0","0","",""
"","feedback","","html-keyboard-response","228","268845","0.0-1.0-312.0-0.0","0","0","98611","","null","","","null","34","","","","","","","","","","","","","","","",""
"","time_out","","html-keyboard-response","229","270860","0.0-1.0-314.0-0.0","0","0","98611","","null","","","null","34","","","","","","","","","","","","","","","",""
"","ITI","","html-keyboard-response","230","271863","0.0-1.0-315.0","0","0","98611","","null","","","null","34","","","","","","","","","","","","","","","NaN",""
"","S1","","html-keyboard-response","231","272116","0.0-1.0-317.0","0","0","98611","","null","","","null","35","","","","","","","","","","","","","","","",""
"","ISI","","html-keyboard-response","232","273129","0.0-1.0-318.0","0","0","98611","","null","","","null","35","NaN","","","","","","","","","","","","","","",""
"","S2","","html-keyboard-response","233","273394","0.0-1.0-319.0","0","0","98611","","null","","","null","35","","NaN","","","","","","","","","","","","","",""
"","response","","html-keyboard-response","234","273760","0.0-1.0-320.0-0.0","0","0","98611","","365","","","75","35","","","1","35","training","adjacent","CD","3","4","P.jpg","O.jpg","1","1","1","",""
"","feedback","","html-keyboard-response","235","274767","0.0-1.0-321.0-0.0","0","0","98611","","null","","","null","35","","","","","","","","","","","","","","","",""
"","ITI","","html-keyboard-response","236","275781","0.0-1.0-324.0","0","0","98611","","null","","","null","35","","","","","","","","","","","","","","","NaN",""
"","S1","","html-keyboard-response","237","276048","0.0-1.0-326.0","0","0","98611","","null","","","null","36","","","","","","","","","","","","","","","",""
"","ISI","","html-keyboard-response","238","277051","0.0-1.0-327.0","0","0","98611","","null","","","null","36","NaN","","","","","","","","","","","","","","",""
"","S2","","html-keyboard-response","239","277303","0.0-1.0-328.0","0","0","98611","","null","","","null","36","","NaN","","","","","","","","","","","","","",""
"","response","","html-keyboard-response","240","277544","0.0-1.0-329.0-0.0","0","0","98611","","239","","","75","36","","","1","36","training","adjacent","DE","4","5","O.jpg","N.jpg","1","1","1","",""
"","feedback","","html-keyboard-response","241","278559","0.0-1.0-330.0-0.0","0","0","98611","","null","","","null","36","","","","","","","","","","","","","","","",""
"","ITI","","html-keyboard-response","242","279571","0.0-1.0-333.0","0","0","98611","","null","","","null","36","","","","","","","","","","","","","","","NaN",""
"","S1","","html-keyboard-response","243","279836","0.0-1.0-335.0","0","0","98611","","null","","","null","37","","","","","","","","","","","","","","","",""
"","ISI","","html-keyboard-response","244","280851","0.0-1.0-336.0","0","0","98611","","null","","","null","37","NaN","","","","","","","","","","","","","","",""
"","S2","","html-keyboard-response","245","281103","0.0-1.0-337.0","0","0","98611","","null","","","null","37","","NaN","","","","","","","","","","","","","",""
"","response","","html-keyboard-response","246","281175","0.0-1.0-338.0-0.0","0","0","98611","","71","","","75","37","","","1","37","training","adjacent","FE","6","5","M.jpg","N.jpg","1","0","0","",""
"","feedback","","html-keyboard-response","247","282187","0.0-1.0-339.0-0.0","0","0","98611","","null","","","null","37","","","","","","","","","","","","","","","",""
"","time_out","","html-keyboard-response","248","284188","0.0-1.0-341.0-0.0","0","0","98611","","null","","","null","37","","","","","","","","","","","","","","","",""
"","ITI","","html-keyboard-response","249","285190","0.0-1.0-342.0","0","0","98611","","null","","","null","37","","","","","","","","","","","","","","","NaN",""
"","S1","","html-keyboard-response","250","285453","0.0-1.0-344.0","0","0","98611","","null","","","null","38","","","","","","","","","","","","","","","",""
"","ISI","","html-keyboard-response","251","286464","0.0-1.0-345.0","0","0","98611","","null","","","null","38","NaN","","","","","","","","","","","","","","",""
"","S2","","html-keyboard-response","252","286731","0.0-1.0-346.0","0","0","98611","","null","","","null","38","","NaN","","","","","","","","","","","","","",""
"","response","","html-keyboard-response","253","287039","0.0-1.0-347.0-0.0","0","0","98611","","307","","","68","38","","","1","38","training","adjacent","ED","5","4","N.jpg","O.jpg","0","0","1","",""
"","feedback","","html-keyboard-response","254","288049","0.0-1.0-348.0-0.0","0","0","98611","","null","","","null","38","","","","","","","","","","","","","","","",""
"","ITI","","html-keyboard-response","255","289051","0.0-1.0-351.0","0","0","98611","","null","","","null","38","","","","","","","","","","","","","","","NaN",""
"","S1","","html-keyboard-response","256","289317","0.0-1.0-353.0","0","0","98611","","null","","","null","39","","","","","","","","","","","","","","","",""
"","ISI","","html-keyboard-response","257","290332","0.0-1.0-354.0","0","0","98611","","null","","","null","39","NaN","","","","","","","","","","","","","","",""
"","S2","","html-keyboard-response","258","290598","0.0-1.0-355.0","0","0","98611","","null","","","null","39","","NaN","","","","","","","","","","","","","",""
"","response","","html-keyboard-response","259","290935","0.0-1.0-356.0-0.0","0","0","98611","","336","","","68","39","","","1","39","training","adjacent","BC","2","3","Q.jpg","P.jpg","0","1","0","",""
"","feedback","","html-keyboard-response","260","291946","0.0-1.0-357.0-0.0","0","0","98611","","null","","","null","39","","","","","","","","","","","","","","","",""
"","time_out","","html-keyboard-response","261","293949","0.0-1.0-359.0-0.0","0","0","98611","","null","","","null","39","","","","","","","","","","","","","","","",""
"","ITI","","html-keyboard-response","262","294964","0.0-1.0-360.0","0","0","98611","","null","","","null","39","","","","","","","","","","","","","","","NaN",""
"","S1","","html-keyboard-response","263","295230","0.0-1.0-362.0","0","0","98611","","null","","","null","40","","","","","","","","","","","","","","","",""
"","ISI","","html-keyboard-response","264","296237","0.0-1.0-363.0","0","0","98611","","null","","","null","40","NaN","","","","","","","","","","","","","","",""
"","S2","","html-keyboard-response","265","296502","0.0-1.0-364.0","0","0","98611","","null","","","null","40","","NaN","","","","","","","","","","","","","",""
"","response","","html-keyboard-response","266","296831","0.0-1.0-365.0-0.0","0","0","98611","","328","","","75","40","","","1","40","training","adjacent","DE","4","5","O.jpg","N.jpg","1","1","1","",""
"","feedback","","html-keyboard-response","267","297847","0.0-1.0-366.0-0.0","0","0","98611","","null","","","null","40","","","","","","","","","","","","","","","",""
"","ITI","","html-keyboard-response","268","298850","0.0-1.0-369.0","0","0","98611","","null","","","null","40","","","","","","","","","","","","","","","NaN",""
"","S1","","html-keyboard-response","269","299100","0.0-1.0-371.0","0","0","98611","","null","","","null","41","","","","","","","","","","","","","","","",""
"","ISI","","html-keyboard-response","270","300110","0.0-1.0-372.0","0","0","98611","","null","","","null","41","NaN","","","","","","","","","","","","","","",""
"","S2","","html-keyboard-response","271","300343","0.0-1.0-373.0","0","0","98611","","232","","","68","41","","d","1","41","training","adjacent","FE","6","5","M.jpg","N.jpg","0","0","1","",""
"","feedback","","html-keyboard-response","272","301346","0.0-1.0-375.0-0.0","0","0","98611","","null","","","null","41","","","","","","","","","","","","","","","",""
"","ITI","","html-keyboard-response","273","302352","0.0-1.0-378.0","0","0","98611","","null","","","null","41","","","","","","","","","","","","","","","NaN",""
"","S1","","html-keyboard-response","274","302607","0.0-1.0-380.0","0","0","98611","","null","","","null","42","","","","","","","","","","","","","","","",""
"","ISI","","html-keyboard-response","275","303610","0.0-1.0-381.0","0","0","98611","","null","","","null","42","NaN","","","","","","","","","","","","","","",""
"","S2","","html-keyboard-response","276","303864","0.0-1.0-382.0","0","0","98611","","null","","","null","42","","NaN","","","","","","","","","","","","","",""
"","response","","html-keyboard-response","277","304151","0.0-1.0-383.0-0.0","0","0","98611","","286","","","68","42","","","1","42","training","adjacent","AB","1","2","L.jpg","Q.jpg","0","1","0","",""
"","feedback","","html-keyboard-response","278","305155","0.0-1.0-384.0-0.0","0","0","98611","","null","","","null","42","","","","","","","","","","","","","","","",""
"","time_out","","html-keyboard-response","279","307157","0.0-1.0-386.0-0.0","0","0","98611","","null","","","null","42","","","","","","","","","","","","","","","",""
"","ITI","","html-keyboard-response","280","308165","0.0-1.0-387.0","0","0","98611","","null","","","null","42","","","","","","","","","","","","","","","NaN",""
"","S1","","html-keyboard-response","281","308431","0.0-1.0-389.0","0","0","98611","","null","","","null","43","","","","","","","","","","","","","","","",""
"","ISI","","html-keyboard-response","282","309440","0.0-1.0-390.0","0","0","98611","","null","","","null","43","NaN","","","","","","","","","","","","","","",""
"","S2","","html-keyboard-response","283","309706","0.0-1.0-391.0","0","0","98611","","null","","","null","43","","NaN","","","","","","","","","","","","","",""
"","response","","html-keyboard-response","284","309974","0.0-1.0-392.0-0.0","0","0","98611","","266","","","75","43","","","1","43","training","adjacent","GF","7","6","R.jpg","M.jpg","1","0","0","",""
"","feedback","","html-keyboard-response","285","310985","0.0-1.0-393.0-0.0","0","0","98611","","null","","","null","43","","","","","","","","","","","","","","","",""
"","time_out","","html-keyboard-response","286","313000","0.0-1.0-395.0-0.0","0","0","98611","","null","","","null","43","","","","","","","","","","","","","","","",""
"","ITI","","html-keyboard-response","287","314002","0.0-1.0-396.0","0","0","98611","","null","","","null","43","","","","","","","","","","","","","","","NaN",""
"","S1","","html-keyboard-response","288","314268","0.0-1.0-398.0","0","0","98611","","null","","","null","44","","","","","","","","","","","","","","","",""
"","ISI","","html-keyboard-response","289","315283","0.0-1.0-399.0","0","0","98611","","null","","","null","44","NaN","","","","","","","","","","","","","","",""
"","S2","","html-keyboard-response","290","315534","0.0-1.0-400.0","0","0","98611","","null","","","null","44","","NaN","","","","","","","","","","","","","",""
"","response","","html-keyboard-response","291","315591","0.0-1.0-401.0-0.0","0","0","98611","","56","","","75","44","","","1","44","training","adjacent","GF","7","6","R.jpg","M.jpg","1","0","0","",""
"","feedback","","html-keyboard-response","292","316603","0.0-1.0-402.0-0.0","0","0","98611","","null","","","null","44","","","","","","","","","","","","","","","",""
"","time_out","","html-keyboard-response","293","318611","0.0-1.0-404.0-0.0","0","0","98611","","null","","","null","44","","","","","","","","","","","","","","","",""
"","ITI","","html-keyboard-response","294","319612","0.0-1.0-405.0","0","0","98611","","474","","","68","44","","","","","","","","","","","","","","","d",""
"","S1","","html-keyboard-response","295","319864","0.0-1.0-407.0","0","0","98611","","null","","","null","45","","","","","","","","","","","","","","","",""
"","ISI","","html-keyboard-response","296","320876","0.0-1.0-408.0","0","0","98611","","5","","","68","45","d","","","","","","","","","","","","","","",""
"","S2","","html-keyboard-response","297","321127","0.0-1.0-409.0","0","0","98611","","null","","","null","45","","NaN","","","","","","","","","","","","","",""
"","response","","html-keyboard-response","298","321390","0.0-1.0-410.0-0.0","0","0","98611","","262","","","68","45","","","1","45","training","adjacent","BA","2","1","Q.jpg","L.jpg","0","0","1","",""
"","feedback","","html-keyboard-response","299","322393","0.0-1.0-411.0-0.0","0","0","98611","","null","","","null","45","","","","","","","","","","","","","","","",""
"","ITI","","html-keyboard-response","300","323407","0.0-1.0-414.0","0","0","98611","","null","","","null","45","","","","","","","","","","","","","","","NaN",""
"","S1","","html-keyboard-response","301","323672","0.0-1.0-416.0","0","0","98611","","null","","","null","46","","","","","","","","","","","","","","","",""
"","ISI","","html-keyboard-response","302","324677","0.0-1.0-417.0","0","0","98611","","null","","","null","46","NaN","","","","","","","","","","","","","","",""
"","S2","","html-keyboard-response","303","324943","0.0-1.0-418.0","0","0","98611","","null","","","null","46","","NaN","","","","","","","","","","","","","",""
"","response","","html-keyboard-response","304","325254","0.0-1.0-419.0-0.0","0","0","98611","","310","","","75","46","","","1","46","training","adjacent","CB","3","2","P.jpg","Q.jpg","1","0","0","",""
"","feedback","","html-keyboard-response","305","326269","0.0-1.0-420.0-0.0","0","0","98611","","null","","","null","46","","","","","","","","","","","","","","","",""
"","time_out","","html-keyboard-response","306","328274","0.0-1.0-422.0-0.0","0","0","98611","","null","","","null","46","","","","","","","","","","","","","","","",""
"","ITI","","html-keyboard-response","307","329276","0.0-1.0-423.0","0","0","98611","","null","","","null","46","","","","","","","","","","","","","","","NaN",""
"","S1","","html-keyboard-response","308","329543","0.0-1.0-425.0","0","0","98611","","null","","","null","47","","","","","","","","","","","","","","","",""
"","ISI","","html-keyboard-response","309","330559","0.0-1.0-426.0","0","0","98611","","null","","","null","47","NaN","","","","","","","","","","","","","","",""
"","S2","","html-keyboard-response","310","330810","0.0-1.0-427.0","0","0","98611","","null","","","null","47","","NaN","","","","","","","","","","","","","",""
"","response","","html-keyboard-response","311","331110","0.0-1.0-428.0-0.0","0","0","98611","","298","","","75","47","","","1","47","training","adjacent","FG","6","7","M.jpg","R.jpg","1","1","1","",""
"","feedback","","html-keyboard-response","312","332112","0.0-1.0-429.0-0.0","0","0","98611","","null","","","null","47","","","","","","","","","","","","","","","",""
"","ITI","","html-keyboard-response","313","333127","0.0-1.0-432.0","0","0","98611","","null","","","null","47","","","","","","","","","","","","","","","NaN",""
"","block_over","","html-keyboard-response","314","1096598","0.0-1.0-433.0-0.0","0","0","98611","","763468","","","32","47","","","","","","","","","","","","","","","",""
"","S1","","html-keyboard-response","315","1096859","0.0-1.0-434.0","0","0","98611","","null","","","null","48","","","","","","","","","","","","","","","",""
"","ISI","","html-keyboard-response","316","1097863","0.0-1.0-435.0","0","0","98611","","null","","","null","48","NaN","","","","","","","","","","","","","","",""
"","S2","","html-keyboard-response","317","1098117","0.0-1.0-436.0","0","0","98611","","null","","","null","48","","NaN","","","","","","","","","","","","","",""
"","response","","html-keyboard-response","318","1098805","0.0-1.0-437.0-0.0","0","0","98611","","687","","","68","48","","","2","48","training","adjacent","ED","5","4","N.jpg","O.jpg","0","0","1","",""
"","feedback","","html-keyboard-response","319","1099820","0.0-1.0-438.0-0.0","0","0","98611","","null","","","null","48","","","","","","","","","","","","","","","",""
"","ITI","","html-keyboard-response","320","1100834","0.0-1.0-441.0","0","0","98611","","null","","","null","48","","","","","","","","","","","","","","","NaN",""
"","S1","","html-keyboard-response","321","1101089","0.0-1.0-443.0","0","0","98611","","null","","","null","49","","","","","","","","","","","","","","","",""
"","ISI","","html-keyboard-response","322","1102099","0.0-1.0-444.0","0","0","98611","","null","","","null","49","NaN","","","","","","","","","","","","","","",""
"","S2","","html-keyboard-response","323","1102366","0.0-1.0-445.0","0","0","98611","","null","","","null","49","","NaN","","","","","","","","","","","","","",""
"","response","","html-keyboard-response","324","1102637","0.0-1.0-446.0-0.0","0","0","98611","","270","","","75","49","","","2","49","training","adjacent","DC","4","3","O.jpg","P.jpg","1","0","0","",""
"","feedback","","html-keyboard-response","325","1103651","0.0-1.0-447.0-0.0","0","0","98611","","null","","","null","49","","","","","","","","","","","","","","","",""
"","time_out","","html-keyboard-response","326","1105664","0.0-1.0-449.0-0.0","0","0","98611","","null","","","null","49","","","","","","","","","","","","","","","",""
"","ITI","","html-keyboard-response","327","1106667","0.0-1.0-450.0","0","0","98611","","null","","","null","49","","","","","","","","","","","","","","","NaN",""
"","S1","","html-keyboard-response","328","1106919","0.0-1.0-452.0","0","0","98611","","null","","","null","50","","","","","","","","","","","","","","","",""
"","ISI","","html-keyboard-response","329","1107921","0.0-1.0-453.0","0","0","98611","","null","","","null","50","NaN","","","","","","","","","","","","","","",""
"","S2","","html-keyboard-response","330","1108188","0.0-1.0-454.0","0","0","98611","","null","","","null","50","","NaN","","","","","","","","","","","","","",""
"","response","","html-keyboard-response","331","1108589","0.0-1.0-455.0-0.0","0","0","98611","","399","","","75","50","","","2","50","training","adjacent","BA","2","1","Q.jpg","L.jpg","1","0","0","",""
"","feedback","","html-keyboard-response","332","1109596","0.0-1.0-456.0-0.0","0","0","98611","","null","","","null","50","","","","","","","","","","","","","","","",""
"","time_out","","html-keyboard-response","333","1111599","0.0-1.0-458.0-0.0","0","0","98611","","null","","","null","50","","","","","","","","","","","","","","","",""
"","ITI","","html-keyboard-response","334","1112605","0.0-1.0-459.0","0","0","98611","","308","","","75","50","","","","","","","","","","","","","","","k",""
"","S1","","html-keyboard-response","335","1112870","0.0-1.0-461.0","0","0","98611","","null","","","null","51","","","","","","","","","","","","","","","",""
"","ISI","","html-keyboard-response","336","1113886","0.0-1.0-462.0","0","0","98611","","null","","","null","51","NaN","","","","","","","","","","","","","","",""
"","S2","","html-keyboard-response","337","1114141","0.0-1.0-463.0","0","0","98611","","null","","","null","51","","NaN","","","","","","","","","","","","","",""
"","response","","html-keyboard-response","338","1114556","0.0-1.0-464.0-0.0","0","0","98611","","414","","","75","51","","","2","51","training","adjacent","FE","6","5","M.jpg","N.jpg","1","0","0","",""
"","feedback","","html-keyboard-response","339","1115567","0.0-1.0-465.0-0.0","0","0","98611","","null","","","null","51","","","","","","","","","","","","","","","",""
"","time_out","","html-keyboard-response","340","1117579","0.0-1.0-467.0-0.0","0","0","98611","","null","","","null","51","","","","","","","","","","","","","","","",""
"","ITI","","html-keyboard-response","341","1118583","0.0-1.0-468.0","0","0","98611","","null","","","null","51","","","","","","","","","","","","","","","NaN",""
"","S1","","html-keyboard-response","342","1118838","0.0-1.0-470.0","0","0","98611","","null","","","null","52","","","","","","","","","","","","","","","",""
"","ISI","","html-keyboard-response","343","1119849","0.0-1.0-471.0","0","0","98611","","null","","","null","52","NaN","","","","","","","","","","","","","","",""
"","S2","","html-keyboard-response","344","1120113","0.0-1.0-472.0","0","0","98611","","null","","","null","52","","NaN","","","","","","","","","","","","","",""
"","response","","html-keyboard-response","345","1120412","0.0-1.0-473.0-0.0","0","0","98611","","298","","","68","52","","","2","52","training","adjacent","FE","6","5","M.jpg","N.jpg","0","0","1","",""
"","feedback","","html-keyboard-response","346","1121428","0.0-1.0-474.0-0.0","0","0","98611","","null","","","null","52","","","","","","","","","","","","","","","",""
"","ITI","","html-keyboard-response","347","1122431","0.0-1.0-477.0","0","0","98611","","null","","","null","52","","","","","","","","","","","","","","","NaN",""
"","S1","","html-keyboard-response","348","1122698","0.0-1.0-479.0","0","0","98611","","null","","","null","53","","","","","","","","","","","","","","","",""
"","ISI","","html-keyboard-response","349","1123700","0.0-1.0-480.0","0","0","98611","","null","","","null","53","NaN","","","","","","","","","","","","","","",""
"","S2","","html-keyboard-response","350","1123967","0.0-1.0-481.0","0","0","98611","","null","","","null","53","","NaN","","","","","","","","","","","","","",""
"","response","","html-keyboard-response","351","1124116","0.0-1.0-482.0-0.0","0","0","98611","","148","","","75","53","","","2","53","training","adjacent","DE","4","5","O.jpg","N.jpg","1","1","1","",""
"","feedback","","html-keyboard-response","352","1125125","0.0-1.0-483.0-0.0","0","0","98611","","null","","","null","53","","","","","","","","","","","","","","","",""
"","ITI","","html-keyboard-response","353","1126128","0.0-1.0-486.0","0","0","98611","","null","","","null","53","","","","","","","","","","","","","","","NaN",""
"","S1","","html-keyboard-response","354","1126394","0.0-1.0-488.0","0","0","98611","","null","","","null","54","","","","","","","","","","","","","","","",""
"","ISI","","html-keyboard-response","355","1127407","0.0-1.0-489.0","0","0","98611","","null","","","null","54","NaN","","","","","","","","","","","","","","",""
"","S2","","html-keyboard-response","356","1127674","0.0-1.0-490.0","0","0","98611","","null","","","null","54","","NaN","","","","","","","","","","","","","",""
"","response","","html-keyboard-response","357","1127739","0.0-1.0-491.0-0.0","0","0","98611","","65","","","75","54","","","2","54","training","adjacent","EF","5","6","N.jpg","M.jpg","1","1","1","",""
"","feedback","","html-keyboard-response","358","1128753","0.0-1.0-492.0-0.0","0","0","98611","","null","","","null","54","","","","","","","","","","","","","","","",""
"","ITI","","html-keyboard-response","359","1129770","0.0-1.0-495.0","0","0","98611","","null","","","null","54","","","","","","","","","","","","","","","NaN",""
"","S1","","html-keyboard-response","360","1130034","0.0-1.0-497.0","0","0","98611","","null","","","null","55","","","","","","","","","","","","","","","",""
"","ISI","","html-keyboard-response","361","1131041","0.0-1.0-498.0","0","0","98611","","null","","","null","55","NaN","","","","","","","","","","","","","","",""
"","S2","","html-keyboard-response","362","1131307","0.0-1.0-499.0","0","0","98611","","null","","","null","55","","NaN","","","","","","","","","","","","","",""
"","response","","html-keyboard-response","363","1131404","0.0-1.0-500.0-0.0","0","0","98611","","96","","","75","55","","","2","55","training","adjacent","FG","6","7","M.jpg","R.jpg","1","1","1","",""
"","feedback","","html-keyboard-response","364","1132408","0.0-1.0-501.0-0.0","0","0","98611","","null","","","null","55","","","","","","","","","","","","","","","",""
"","ITI","","html-keyboard-response","365","1133422","0.0-1.0-504.0","0","0","98611","","null","","","null","55","","","","","","","","","","","","","","","NaN",""
"","S1","","html-keyboard-response","366","1133688","0.0-1.0-506.0","0","0","98611","","null","","","null","56","","","","","","","","","","","","","","","",""
"","ISI","","html-keyboard-response","367","1134689","0.0-1.0-507.0","0","0","98611","","null","","","null","56","NaN","","","","","","","","","","","","","","",""
"","S2","","html-keyboard-response","368","1134940","0.0-1.0-508.0","0","0","98611","","null","","","null","56","","NaN","","","","","","","","","","","","","",""
"","response","","html-keyboard-response","369","1135308","0.0-1.0-509.0-0.0","0","0","98611","","367","","","68","56","","","2","56","training","adjacent","ED","5","4","N.jpg","O.jpg","0","0","1","",""
"","feedback","","html-keyboard-response","370","1136315","0.0-1.0-510.0-0.0","0","0","98611","","null","","","null","56","","","","","","","","","","","","","","","",""
"","ITI","","html-keyboard-response","371","1137319","0.0-1.0-513.0","0","0","98611","","null","","","null","56","","","","","","","","","","","","","","","NaN",""
"","S1","","html-keyboard-response","372","1137584","0.0-1.0-515.0","0","0","98611","","null","","","null","57","","","","","","","","","","","","","","","",""
"","ISI","","html-keyboard-response","373","1138587","0.0-1.0-516.0","0","0","98611","","null","","","null","57","NaN","","","","","","","","","","","","","","",""
"","S2","","html-keyboard-response","374","1138839","0.0-1.0-517.0","0","0","98611","","null","","","null","57","","NaN","","","","","","","","","","","","","",""
"","response","","html-keyboard-response","375","1139075","0.0-1.0-518.0-0.0","0","0","98611","","235","","","75","57","","","2","57","training","adjacent","CB","3","2","P.jpg","Q.jpg","1","0","0","",""
"","feedback","","html-keyboard-response","376","1140091","0.0-1.0-519.0-0.0","0","0","98611","","null","","","null","57","","","","","","","","","","","","","","","",""
"","time_out","","html-keyboard-response","377","1142099","0.0-1.0-521.0-0.0","0","0","98611","","null","","","null","57","","","","","","","","","","","","","","","",""
"","ITI","","html-keyboard-response","378","1143112","0.0-1.0-522.0","0","0","98611","","null","","","null","57","","","","","","","","","","","","","","","NaN",""
"","S1","","html-keyboard-response","379","1143378","0.0-1.0-524.0","0","0","98611","","null","","","null","58","","","","","","","","","","","","","","","",""
"","ISI","","html-keyboard-response","380","1144392","0.0-1.0-525.0","0","0","98611","","null","","","null","58","NaN","","","","","","","","","","","","","","",""
"","S2","","html-keyboard-response","381","1144646","0.0-1.0-526.0","0","0","98611","","null","","","null","58","","NaN","","","","","","","","","","","","","",""
"","response","","html-keyboard-response","382","1144922","0.0-1.0-527.0-0.0","0","0","98611","","276","","","75","58","","","2","58","training","adjacent","BA","2","1","Q.jpg","L.jpg","1","0","0","",""
"","feedback","","html-keyboard-response","383","1145928","0.0-1.0-528.0-0.0","0","0","98611","","null","","","null","58","","","","","","","","","","","","","","","",""
"","time_out","","html-keyboard-response","384","1147938","0.0-1.0-530.0-0.0","0","0","98611","","null","","","null","58","","","","","","","","","","","","","","","",""
"","ITI","","html-keyboard-response","385","1148952","0.0-1.0-531.0","0","0","98611","","null","","","null","58","","","","","","","","","","","","","","","NaN",""
"","S1","","html-keyboard-response","386","1149204","0.0-1.0-533.0","0","0","98611","","null","","","null","59","","","","","","","","","","","","","","","",""
"","ISI","","html-keyboard-response","387","1150209","0.0-1.0-534.0","0","0","98611","","null","","","null","59","NaN","","","","","","","","","","","","","","",""
"","S2","","html-keyboard-response","388","1150475","0.0-1.0-535.0","0","0","98611","","null","","","null","59","","NaN","","","","","","","","","","","","","",""
"","response","","html-keyboard-response","389","1150836","0.0-1.0-536.0-0.0","0","0","98611","","359","","","75","59","","","2","59","training","adjacent","CB","3","2","P.jpg","Q.jpg","1","0","0","",""
"","feedback","","html-keyboard-response","390","1151845","0.0-1.0-537.0-0.0","0","0","98611","","null","","","null","59","","","","","","","","","","","","","","","",""
"","time_out","","html-keyboard-response","391","1153847","0.0-1.0-539.0-0.0","0","0","98611","","null","","","null","59","","","","","","","","","","","","","","","",""
"","ITI","","html-keyboard-response","392","1154861","0.0-1.0-540.0","0","0","98611","","null","","","null","59","","","","","","","","","","","","","","","NaN",""
"","S1","","html-keyboard-response","393","1155128","0.0-1.0-542.0","0","0","98611","","null","","","null","60","","","","","","","","","","","","","","","",""
"","ISI","","html-keyboard-response","394","1156135","0.0-1.0-543.0","0","0","98611","","426","","","75","60","k","","","","","","","","","","","","","","",""
"","S2","","html-keyboard-response","395","1156402","0.0-1.0-544.0","0","0","98611","","null","","","null","60","","NaN","","","","","","","","","","","","","",""
"","response","","html-keyboard-response","396","1156755","0.0-1.0-545.0-0.0","0","0","98611","","352","","","75","60","","","2","60","training","adjacent","GF","7","6","R.jpg","M.jpg","1","0","0","",""
"","feedback","","html-keyboard-response","397","1157766","0.0-1.0-546.0-0.0","0","0","98611","","null","","","null","60","","","","","","","","","","","","","","","",""
"","time_out","","html-keyboard-response","398","1159783","0.0-1.0-548.0-0.0","0","0","98611","","null","","","null","60","","","","","","","","","","","","","","","",""
"","ITI","","html-keyboard-response","399","1160787","0.0-1.0-549.0","0","0","98611","","null","","","null","60","","","","","","","","","","","","","","","NaN",""
"","S1","","html-keyboard-response","400","1161040","0.0-1.0-551.0","0","0","98611","","null","","","null","61","","","","","","","","","","","","","","","",""
"","ISI","","html-keyboard-response","401","1162055","0.0-1.0-552.0","0","0","98611","","null","","","null","61","NaN","","","","","","","","","","","","","","",""
"","S2","","html-keyboard-response","402","1162319","0.0-1.0-553.0","0","0","98611","","null","","","null","61","","NaN","","","","","","","","","","","","","",""
"","response","","html-keyboard-response","403","1164079","0.0-1.0-554.0-0.0","0","0","98611","","null","","","null","61","","","2","61","training","adjacent","FG","6","7","M.jpg","R.jpg","NaN","1","0","",""
"","too_slow_prompt","","html-keyboard-response","404","1165080","0.0-1.0-556.0-0.0","1","0","98611","","null","","","null","","","","","","","","","","","","","","","","",""
"","time_out","","html-keyboard-response","405","1167095","0.0-1.0-557.0-0.0","0","0","98611","","null","","","null","61","","","","","","","","","","","","","","","",""
"","ITI","","html-keyboard-response","406","1168111","0.0-1.0-558.0","0","0","98611","","null","","","null","61","","","","","","","","","","","","","","","NaN",""
"","S1","","html-keyboard-response","407","1168364","0.0-1.0-560.0","0","0","98611","","null","","","null","62","","","","","","","","","","","","","","","",""
"","ISI","","html-keyboard-response","408","1169365","0.0-1.0-561.0","0","0","98611","","null","","","null","62","NaN","","","","","","","","","","","","","","",""
"","S2","","html-keyboard-response","409","1169616","0.0-1.0-562.0","0","0","98611","","null","","","null","62","","NaN","","","","","","","","","","","","","",""
"","response","","html-keyboard-response","410","1170027","0.0-1.0-563.0-0.0","0","0","98611","","408","","","75","62","","","2","62","training","adjacent","DE","4","5","O.jpg","N.jpg","1","1","1","",""
"","feedback","","html-keyboard-response","411","1171034","0.0-1.0-564.0-0.0","0","0","98611","","null","","","null","62","","","","","","","","","","","","","","","",""
"","ITI","","html-keyboard-response","412","1172037","0.0-1.0-567.0","0","0","98611","","null","","","null","62","","","","","","","","","","","","","","","NaN",""
"","S1","","html-keyboard-response","413","1172303","0.0-1.0-569.0","0","0","98611","","null","","","null","63","","","","","","","","","","","","","","","",""
"","ISI","","html-keyboard-response","414","1173317","0.0-1.0-570.0","0","0","98611","","null","","","null","63","NaN","","","","","","","","","","","","","","",""
"","S2","","html-keyboard-response","415","1173582","0.0-1.0-571.0","0","0","98611","","null","","","null","63","","NaN","","","","","","","","","","","","","",""
"","response","","html-keyboard-response","416","1174122","0.0-1.0-572.0-0.0","0","0","98611","","540","","","75","63","","","2","63","training","adjacent","FG","6","7","M.jpg","R.jpg","1","1","1","",""
"","feedback","","html-keyboard-response","417","1175129","0.0-1.0-573.0-0.0","0","0","98611","","null","","","null","63","","","","","","","","","","","","","","","",""
"","ITI","","html-keyboard-response","418","1176131","0.0-1.0-576.0","0","0","98611","","null","","","null","63","","","","","","","","","","","","","","","NaN",""
"","S1","","html-keyboard-response","419","1176397","0.0-1.0-578.0","0","0","98611","","null","","","null","64","","","","","","","","","","","","","","","",""
"","ISI","","html-keyboard-response","420","1177410","0.0-1.0-579.0","0","0","98611","","null","","","null","64","NaN","","","","","","","","","","","","","","",""
"","S2","","html-keyboard-response","421","1177676","0.0-1.0-580.0","0","0","98611","","null","","","null","64","","NaN","","","","","","","","","","","","","",""
"","response","","html-keyboard-response","422","1179441","0.0-1.0-581.0-0.0","0","0","98611","","null","","","null","64","","","2","64","training","adjacent","GF","7","6","R.jpg","M.jpg","NaN","0","0","",""
"","too_slow_prompt","","html-keyboard-response","423","1180453","0.0-1.0-583.0-0.0","1","0","98611","","null","","","null","","","","","","","","","","","","","","","","",""
"","time_out","","html-keyboard-response","424","1182457","0.0-1.0-584.0-0.0","0","0","98611","","null","","","null","64","","","","","","","","","","","","","","","",""
"","ITI","","html-keyboard-response","425","1183459","0.0-1.0-585.0","0","0","98611","","null","","","null","64","","","","","","","","","","","","","","","NaN",""
"","S1","","html-keyboard-response","426","1183712","0.0-1.0-587.0","0","0","98611","","null","","","null","65","","","","","","","","","","","","","","","",""
"","ISI","","html-keyboard-response","427","1184715","0.0-1.0-588.0","0","0","98611","","null","","","null","65","NaN","","","","","","","","","","","","","","",""
"","S2","","html-keyboard-response","428","1184981","0.0-1.0-589.0","0","0","98611","","null","","","null","65","","NaN","","","","","","","","","","","","","",""
"","response","","html-keyboard-response","429","1185434","0.0-1.0-590.0-0.0","0","0","98611","","452","","","75","65","","","2","65","training","adjacent","AB","1","2","L.jpg","Q.jpg","1","1","1","",""
"","feedback","","html-keyboard-response","430","1186439","0.0-1.0-591.0-0.0","0","0","98611","","null","","","null","65","","","","","","","","","","","","","","","",""
"","ITI","","html-keyboard-response","431","1187455","0.0-1.0-594.0","0","0","98611","","null","","","null","65","","","","","","","","","","","","","","","NaN",""
"","S1","","html-keyboard-response","432","1187720","0.0-1.0-596.0","0","0","98611","","null","","","null","66","","","","","","","","","","","","","","","",""
"","ISI","","html-keyboard-response","433","1188735","0.0-1.0-597.0","0","0","98611","","null","","","null","66","NaN","","","","","","","","","","","","","","",""
"","S2","","html-keyboard-response","434","1188834","0.0-1.0-598.0","0","0","98611","","97","","","75","66","","k","2","66","training","adjacent","DC","4","3","O.jpg","P.jpg","1","0","0","",""
"","feedback","","html-keyboard-response","435","1189844","0.0-1.0-600.0-0.0","0","0","98611","","null","","","null","66","","","","","","","","","","","","","","","",""
"","time_out","","html-keyboard-response","436","1191856","0.0-1.0-602.0-0.0","0","0","98611","","null","","","null","66","","","","","","","","","","","","","","","",""
"","ITI","","html-keyboard-response","437","1192862","0.0-1.0-603.0","0","0","98611","","null","","","null","66","","","","","","","","","","","","","","","NaN",""
"","S1","","html-keyboard-response","438","1193127","0.0-1.0-605.0","0","0","98611","","null","","","null","67","","","","","","","","","","","","","","","",""
"","ISI","","html-keyboard-response","439","1194130","0.0-1.0-606.0","0","0","98611","","null","","","null","67","NaN","","","","","","","","","","","","","","",""
"","S2","","html-keyboard-response","440","1194397","0.0-1.0-607.0","0","0","98611","","null","","","null","67","","NaN","","","","","","","","","","","","","",""
"","response","","html-keyboard-response","441","1194706","0.0-1.0-608.0-0.0","0","0","98611","","307","","","75","67","","","2","67","training","adjacent","BA","2","1","Q.jpg","L.jpg","1","0","0","",""
"","feedback","","html-keyboard-response","442","1195722","0.0-1.0-609.0-0.0","0","0","98611","","null","","","null","67","","","","","","","","","","","","","","","",""
"","time_out","","html-keyboard-response","443","1197736","0.0-1.0-611.0-0.0","0","0","98611","","null","","","null","67","","","","","","","","","","","","","","","",""
"","ITI","","html-keyboard-response","444","1198750","0.0-1.0-612.0","0","0","98611","","null","","","null","67","","","","","","","","","","","","","","","NaN",""
"","S1","","html-keyboard-response","445","1199003","0.0-1.0-614.0","0","0","98611","","null","","","null","68","","","","","","","","","","","","","","","",""
"","ISI","","html-keyboard-response","446","1200017","0.0-1.0-615.0","0","0","98611","","null","","","null","68","NaN","","","","","","","","","","","","","","",""
"","S2","","html-keyboard-response","447","1200280","0.0-1.0-616.0","0","0","98611","","null","","","null","68","","NaN","","","","","","","","","","","","","",""
"","response","","html-keyboard-response","448","1200497","0.0-1.0-617.0-0.0","0","0","98611","","216","","","75","68","","","2","68","training","adjacent","BC","2","3","Q.jpg","P.jpg","1","1","1","",""
"","feedback","","html-keyboard-response","449","1201500","0.0-1.0-618.0-0.0","0","0","98611","","null","","","null","68","","","","","","","","","","","","","","","",""
"","ITI","","html-keyboard-response","450","1202512","0.0-1.0-621.0","0","0","98611","","null","","","null","68","","","","","","","","","","","","","","","NaN",""
"","S1","","html-keyboard-response","451","1202766","0.0-1.0-623.0","0","0","98611","","null","","","null","69","","","","","","","","","","","","","","","",""
"","ISI","","html-keyboard-response","452","1203770","0.0-1.0-624.0","0","0","98611","","null","","","null","69","NaN","","","","","","","","","","","","","","",""
"","S2","","html-keyboard-response","453","1204035","0.0-1.0-625.0","0","0","98611","","null","","","null","69","","NaN","","","","","","","","","","","","","",""
"","response","","html-keyboard-response","454","1204257","0.0-1.0-626.0-0.0","0","0","98611","","221","","","68","69","","","2","69","training","adjacent","FG","6","7","M.jpg","R.jpg","0","1","0","",""
"","feedback","","html-keyboard-response","455","1205269","0.0-1.0-627.0-0.0","0","0","98611","","null","","","null","69","","","","","","","","","","","","","","","",""
"","time_out","","html-keyboard-response","456","1207283","0.0-1.0-629.0-0.0","0","0","98611","","null","","","null","69","","","","","","","","","","","","","","","",""
"","ITI","","html-keyboard-response","457","1208299","0.0-1.0-630.0","0","0","98611","","805","","","75","69","","","","","","","","","","","","","","","k",""
"","S1","","html-keyboard-response","458","1208551","0.0-1.0-632.0","0","0","98611","","null","","","null","70","","","","","","","","","","","","","","","",""
"","ISI","","html-keyboard-response","459","1209553","0.0-1.0-633.0","0","0","98611","","441","","","75","70","k","","","","","","","","","","","","","","",""
"","S2","","html-keyboard-response","460","1209805","0.0-1.0-634.0","0","0","98611","","null","","","null","70","","NaN","","","","","","","","","","","","","",""
"","response","","html-keyboard-response","461","1210265","0.0-1.0-635.0-0.0","0","0","98611","","459","","","75","70","","","2","70","training","adjacent","GF","7","6","R.jpg","M.jpg","1","0","0","",""
"","feedback","","html-keyboard-response","462","1211279","0.0-1.0-636.0-0.0","0","0","98611","","null","","","null","70","","","","","","","","","","","","","","","",""
"","time_out","","html-keyboard-response","463","1213294","0.0-1.0-638.0-0.0","0","0","98611","","null","","","null","70","","","","","","","","","","","","","","","",""
"","ITI","","html-keyboard-response","464","1214306","0.0-1.0-639.0","0","0","98611","","null","","","null","70","","","","","","","","","","","","","","","NaN",""
"","S1","","html-keyboard-response","465","1214572","0.0-1.0-641.0","0","0","98611","","null","","","null","71","","","","","","","","","","","","","","","",""
"","ISI","","html-keyboard-response","466","1215587","0.0-1.0-642.0","0","0","98611","","null","","","null","71","NaN","","","","","","","","","","","","","","",""
"","S2","","html-keyboard-response","467","1215841","0.0-1.0-643.0","0","0","98611","","null","","","null","71","","NaN","","","","","","","","","","","","","",""
"","response","","html-keyboard-response","468","1216113","0.0-1.0-644.0-0.0","0","0","98611","","271","","","75","71","","","2","71","training","adjacent","BC","2","3","Q.jpg","P.jpg","1","1","1","",""
"","feedback","","html-keyboard-response","469","1217117","0.0-1.0-645.0-0.0","0","0","98611","","null","","","null","71","","","","","","","","","","","","","","","",""
"","ITI","","html-keyboard-response","470","1218130","0.0-1.0-648.0","0","0","98611","","null","","","null","71","","","","","","","","","","","","","","","NaN",""
"","S1","","html-keyboard-response","471","1218382","0.0-1.0-650.0","0","0","98611","","null","","","null","72","","","","","","","","","","","","","","","",""
"","ISI","","html-keyboard-response","472","1219396","0.0-1.0-651.0","0","0","98611","","null","","","null","72","NaN","","","","","","","","","","","","","","",""
"","S2","","html-keyboard-response","473","1219649","0.0-1.0-652.0","0","0","98611","","null","","","null","72","","NaN","","","","","","","","","","","","","",""
"","response","","html-keyboard-response","474","1219945","0.0-1.0-653.0-0.0","0","0","98611","","295","","","75","72","","","2","72","training","adjacent","DC","4","3","O.jpg","P.jpg","1","0","0","",""
"","feedback","","html-keyboard-response","475","1220956","0.0-1.0-654.0-0.0","0","0","98611","","null","","","null","72","","","","","","","","","","","","","","","",""
"","time_out","","html-keyboard-response","476","1222969","0.0-1.0-656.0-0.0","0","0","98611","","null","","","null","72","","","","","","","","","","","","","","","",""
"","ITI","","html-keyboard-response","477","1223973","0.0-1.0-657.0","0","0","98611","","null","","","null","72","","","","","","","","","","","","","","","NaN",""
"","S1","","html-keyboard-response","478","1224236","0.0-1.0-659.0","0","0","98611","","null","","","null","73","","","","","","","","","","","","","","","",""
"","ISI","","html-keyboard-response","479","1225251","0.0-1.0-660.0","0","0","98611","","396","","","68","73","d","","","","","","","","","","","","","","",""
"","S2","","html-keyboard-response","480","1225516","0.0-1.0-661.0","0","0","98611","","null","","","null","73","","NaN","","","","","","","","","","","","","",""
"","response","","html-keyboard-response","481","1225865","0.0-1.0-662.0-0.0","0","0","98611","","346","","","75","73","","","2","73","training","adjacent","EF","5","6","N.jpg","M.jpg","1","1","1","",""
"","feedback","","html-keyboard-response","482","1226868","0.0-1.0-663.0-0.0","0","0","98611","","null","","","null","73","","","","","","","","","","","","","","","",""
"","ITI","","html-keyboard-response","483","1227883","0.0-1.0-666.0","0","0","98611","","null","","","null","73","","","","","","","","","","","","","","","NaN",""
"","S1","","html-keyboard-response","484","1228134","0.0-1.0-668.0","0","0","98611","","null","","","null","74","","","","","","","","","","","","","","","",""
"","ISI","","html-keyboard-response","485","1229146","0.0-1.0-669.0","0","0","98611","","null","","","null","74","NaN","","","","","","","","","","","","","","",""
"","S2","","html-keyboard-response","486","1229410","0.0-1.0-670.0","0","0","98611","","null","","","null","74","","NaN","","","","","","","","","","","","","",""
"","response","","html-keyboard-response","487","1229873","0.0-1.0-671.0-0.0","0","0","98611","","462","","","68","74","","","2","74","training","adjacent","GF","7","6","R.jpg","M.jpg","0","0","1","",""
"","feedback","","html-keyboard-response","488","1230875","0.0-1.0-672.0-0.0","0","0","98611","","null","","","null","74","","","","","","","","","","","","","","","",""
"","ITI","","html-keyboard-response","489","1231888","0.0-1.0-675.0","0","0","98611","","null","","","null","74","","","","","","","","","","","","","","","NaN",""
"","S1","","html-keyboard-response","490","1232155","0.0-1.0-677.0","0","0","98611","","null","","","null","75","","","","","","","","","","","","","","","",""
"","ISI","","html-keyboard-response","491","1233165","0.0-1.0-678.0","0","0","98611","","null","","","null","75","NaN","","","","","","","","","","","","","","",""
"","S2","","html-keyboard-response","492","1233430","0.0-1.0-679.0","0","0","98611","","null","","","null","75","","NaN","","","","","","","","","","","","","",""
"","response","","html-keyboard-response","493","1233729","0.0-1.0-680.0-0.0","0","0","98611","","298","","","75","75","","","2","75","training","adjacent","EF","5","6","N.jpg","M.jpg","1","1","1","",""
"","feedback","","html-keyboard-response","494","1234742","0.0-1.0-681.0-0.0","0","0","98611","","null","","","null","75","","","","","","","","","","","","","","","",""
"","ITI","","html-keyboard-response","495","1235744","0.0-1.0-684.0","0","0","98611","","null","","","null","75","","","","","","","","","","","","","","","NaN",""
"","S1","","html-keyboard-response","496","1235996","0.0-1.0-686.0","0","0","98611","","null","","","null","76","","","","","","","","","","","","","","","",""
"","ISI","","html-keyboard-response","497","1237007","0.0-1.0-687.0","0","0","98611","","null","","","null","76","NaN","","","","","","","","","","","","","","",""
"","S2","","html-keyboard-response","498","1237260","0.0-1.0-688.0","0","0","98611","","null","","","null","76","","NaN","","","","","","","","","","","","","",""
"","response","","html-keyboard-response","499","1237761","0.0-1.0-689.0-0.0","0","0","98611","","499","","","75","76","","","2","76","training","adjacent","DE","4","5","O.jpg","N.jpg","1","1","1","",""
"","feedback","","html-keyboard-response","500","1238771","0.0-1.0-690.0-0.0","0","0","98611","","null","","","null","76","","","","","","","","","","","","","","","",""
"","ITI","","html-keyboard-response","501","1239781","0.0-1.0-693.0","0","0","98611","","null","","","null","76","","","","","","","","","","","","","","","NaN",""
"","S1","","html-keyboard-response","502","1240033","0.0-1.0-695.0","0","0","98611","","null","","","null","77","","","","","","","","","","","","","","","",""
"","ISI","","html-keyboard-response","503","1241046","0.0-1.0-696.0","0","0","98611","","null","","","null","77","NaN","","","","","","","","","","","","","","",""
"","S2","","html-keyboard-response","504","1241312","0.0-1.0-697.0","0","0","98611","","null","","","null","77","","NaN","","","","","","","","","","","","","",""
"","response","","html-keyboard-response","505","1241448","0.0-1.0-698.0-0.0","0","0","98611","","135","","","68","77","","","2","77","training","adjacent","FE","6","5","M.jpg","N.jpg","0","0","1","",""
"","feedback","","html-keyboard-response","506","1242454","0.0-1.0-699.0-0.0","0","0","98611","","null","","","null","77","","","","","","","","","","","","","","","",""
"","ITI","","html-keyboard-response","507","1243457","0.0-1.0-702.0","0","0","98611","","null","","","null","77","","","","","","","","","","","","","","","NaN",""
"","S1","","html-keyboard-response","508","1243709","0.0-1.0-704.0","0","0","98611","","null","","","null","78","","","","","","","","","","","","","","","",""
"","ISI","","html-keyboard-response","509","1244725","0.0-1.0-705.0","0","0","98611","","null","","","null","78","NaN","","","","","","","","","","","","","","",""
"","S2","","html-keyboard-response","510","1244991","0.0-1.0-706.0","0","0","98611","","null","","","null","78","","NaN","","","","","","","","","","","","","",""
"","response","","html-keyboard-response","511","1245288","0.0-1.0-707.0-0.0","0","0","98611","","295","","","75","78","","","2","78","training","adjacent","BA","2","1","Q.jpg","L.jpg","1","0","0","",""
"","feedback","","html-keyboard-response","512","1246290","0.0-1.0-708.0-0.0","0","0","98611","","null","","","null","78","","","","","","","","","","","","","","","",""
"","time_out","","html-keyboard-response","513","1248298","0.0-1.0-710.0-0.0","0","0","98611","","null","","","null","78","","","","","","","","","","","","","","","",""
"","ITI","","html-keyboard-response","514","1249301","0.0-1.0-711.0","0","0","98611","","null","","","null","78","","","","","","","","","","","","","","","NaN",""
"","S1","","html-keyboard-response","515","1249566","0.0-1.0-713.0","0","0","98611","","null","","","null","79","","","","","","","","","","","","","","","",""
"","ISI","","html-keyboard-response","516","1250576","0.0-1.0-714.0","0","0","98611","","null","","","null","79","NaN","","","","","","","","","","","","","","",""
"","S2","","html-keyboard-response","517","1250842","0.0-1.0-715.0","0","0","98611","","null","","","null","79","","NaN","","","","","","","","","","","","","",""
"","response","","html-keyboard-response","518","1251192","0.0-1.0-716.0-0.0","0","0","98611","","349","","","75","79","","","2","79","training","adjacent","DE","4","5","O.jpg","N.jpg","1","1","1","",""
"","feedback","","html-keyboard-response","519","1252204","0.0-1.0-717.0-0.0","0","0","98611","","null","","","null","79","","","","","","","","","","","","","","","",""
"","ITI","","html-keyboard-response","520","1253219","0.0-1.0-720.0","0","0","98611","","null","","","null","79","","","","","","","","","","","","","","","NaN",""
"","S1","","html-keyboard-response","521","1253471","0.0-1.0-722.0","0","0","98611","","null","","","null","80","","","","","","","","","","","","","","","",""
"","ISI","","html-keyboard-response","522","1254472","0.0-1.0-723.0","0","0","98611","","null","","","null","80","NaN","","","","","","","","","","","","","","",""
"","S2","","html-keyboard-response","523","1254725","0.0-1.0-724.0","0","0","98611","","null","","","null","80","","NaN","","","","","","","","","","","","","",""
"","response","","html-keyboard-response","524","1255024","0.0-1.0-725.0-0.0","0","0","98611","","298","","","75","80","","","2","80","training","adjacent","DC","4","3","O.jpg","P.jpg","1","0","0","",""
"","feedback","","html-keyboard-response","525","1256037","0.0-1.0-726.0-0.0","0","0","98611","","null","","","null","80","","","","","","","","","","","","","","","",""
"","time_out","","html-keyboard-response","526","1258049","0.0-1.0-728.0-0.0","0","0","98611","","null","","","null","80","","","","","","","","","","","","","","","",""
"","ITI","","html-keyboard-response","527","1259052","0.0-1.0-729.0","0","0","98611","","null","","","null","80","","","","","","","","","","","","","","","NaN",""
"","S1","","html-keyboard-response","528","1259317","0.0-1.0-731.0","0","0","98611","","null","","","null","81","","","","","","","","","","","","","","","",""
"","ISI","","html-keyboard-response","529","1260330","0.0-1.0-732.0","0","0","98611","","null","","","null","81","NaN","","","","","","","","","","","","","","",""
"","S2","","html-keyboard-response","530","1260594","0.0-1.0-733.0","0","0","98611","","null","","","null","81","","NaN","","","","","","","","","","","","","",""
"","response","","html-keyboard-response","531","1260744","0.0-1.0-734.0-0.0","0","0","98611","","148","","","75","81","","","2","81","training","adjacent","CB","3","2","P.jpg","Q.jpg","1","0","0","",""
"","feedback","","html-keyboard-response","532","1261751","0.0-1.0-735.0-0.0","0","0","98611","","null","","","null","81","","","","","","","","","","","","","","","",""
"","time_out","","html-keyboard-response","533","1263767","0.0-1.0-737.0-0.0","0","0","98611","","null","","","null","81","","","","","","","","","","","","","","","",""
"","ITI","","html-keyboard-response","534","1264780","0.0-1.0-738.0","0","0","98611","","null","","","null","81","","","","","","","","","","","","","","","NaN",""
"","S1","","html-keyboard-response","535","1265046","0.0-1.0-740.0","0","0","98611","","null","","","null","82","","","","","","","","","","","","","","","",""
"","ISI","","html-keyboard-response","536","1266062","0.0-1.0-741.0","0","0","98611","","null","","","null","82","NaN","","","","","","","","","","","","","","",""
"","S2","","html-keyboard-response","537","1266328","0.0-1.0-742.0","0","0","98611","","null","","","null","82","","NaN","","","","","","","","","","","","","",""
"","response","","html-keyboard-response","538","1266559","0.0-1.0-743.0-0.0","0","0","98611","","231","","","68","82","","","2","82","training","adjacent","BC","2","3","Q.jpg","P.jpg","0","1","0","",""
"","feedback","","html-keyboard-response","539","1267565","0.0-1.0-744.0-0.0","0","0","98611","","null","","","null","82","","","","","","","","","","","","","","","",""
"","time_out","","html-keyboard-response","540","1269575","0.0-1.0-746.0-0.0","0","0","98611","","null","","","null","82","","","","","","","","","","","","","","","",""
"","ITI","","html-keyboard-response","541","1270586","0.0-1.0-747.0","0","0","98611","","null","","","null","82","","","","","","","","","","","","","","","NaN",""
"","S1","","html-keyboard-response","542","1270839","0.0-1.0-749.0","0","0","98611","","null","","","null","83","","","","","","","","","","","","","","","",""
"","ISI","","html-keyboard-response","543","1271852","0.0-1.0-750.0","0","0","98611","","null","","","null","83","NaN","","","","","","","","","","","","","","",""
"","S2","","html-keyboard-response","544","1272117","0.0-1.0-751.0","0","0","98611","","null","","","null","83","","NaN","","","","","","","","","","","","","",""
"","response","","html-keyboard-response","545","1272520","0.0-1.0-752.0-0.0","0","0","98611","","401","","","68","83","","","2","83","training","adjacent","CD","3","4","P.jpg","O.jpg","0","1","0","",""
"","feedback","","html-keyboard-response","546","1273534","0.0-1.0-753.0-0.0","0","0","98611","","null","","","null","83","","","","","","","","","","","","","","","",""
"","time_out","","html-keyboard-response","547","1275547","0.0-1.0-755.0-0.0","0","0","98611","","null","","","null","83","","","","","","","","","","","","","","","",""
"","ITI","","html-keyboard-response","548","1276563","0.0-1.0-756.0","0","0","98611","","null","","","null","83","","","","","","","","","","","","","","","NaN",""
"","S1","","html-keyboard-response","549","1276826","0.0-1.0-758.0","0","0","98611","","null","","","null","84","","","","","","","","","","","","","","","",""
"","ISI","","html-keyboard-response","550","1277843","0.0-1.0-759.0","0","0","98611","","null","","","null","84","NaN","","","","","","","","","","","","","","",""
"","S2","","html-keyboard-response","551","1278109","0.0-1.0-760.0","0","0","98611","","null","","","null","84","","NaN","","","","","","","","","","","","","",""
"","response","","html-keyboard-response","552","1278399","0.0-1.0-761.0-0.0","0","0","98611","","288","","","75","84","","","2","84","training","adjacent","EF","5","6","N.jpg","M.jpg","1","1","1","",""
"","feedback","","html-keyboard-response","553","1279407","0.0-1.0-762.0-0.0","0","0","98611","","null","","","null","84","","","","","","","","","","","","","","","",""
"","ITI","","html-keyboard-response","554","1280423","0.0-1.0-765.0","0","0","98611","","null","","","null","84","","","","","","","","","","","","","","","NaN",""
"","S1","","html-keyboard-response","555","1280689","0.0-1.0-767.0","0","0","98611","","null","","","null","85","","","","","","","","","","","","","","","",""
"","ISI","","html-keyboard-response","556","1281705","0.0-1.0-768.0","0","0","98611","","null","","","null","85","NaN","","","","","","","","","","","","","","",""
"","S2","","html-keyboard-response","557","1281956","0.0-1.0-769.0","0","0","98611","","null","","","null","85","","NaN","","","","","","","","","","","","","",""
"","response","","html-keyboard-response","558","1282351","0.0-1.0-770.0-0.0","0","0","98611","","393","","","75","85","","","2","85","training","adjacent","AB","1","2","L.jpg","Q.jpg","1","1","1","",""
"","feedback","","html-keyboard-response","559","1283362","0.0-1.0-771.0-0.0","0","0","98611","","null","","","null","85","","","","","","","","","","","","","","","",""
"","ITI","","html-keyboard-response","560","1284366","0.0-1.0-774.0","0","0","98611","","null","","","null","85","","","","","","","","","","","","","","","NaN",""
"","S1","","html-keyboard-response","561","1284620","0.0-1.0-776.0","0","0","98611","","null","","","null","86","","","","","","","","","","","","","","","",""
"","ISI","","html-keyboard-response","562","1285625","0.0-1.0-777.0","0","0","98611","","null","","","null","86","NaN","","","","","","","","","","","","","","",""
"","S2","","html-keyboard-response","563","1285891","0.0-1.0-778.0","0","0","98611","","null","","","null","86","","NaN","","","","","","","","","","","","","",""
"","response","","html-keyboard-response","564","1286007","0.0-1.0-779.0-0.0","0","0","98611","","115","","","75","86","","","2","86","training","adjacent","ED","5","4","N.jpg","O.jpg","1","0","0","",""
"","feedback","","html-keyboard-response","565","1287018","0.0-1.0-780.0-0.0","0","0","98611","","null","","","null","86","","","","","","","","","","","","","","","",""
"","time_out","","html-keyboard-response","566","1289033","0.0-1.0-782.0-0.0","0","0","98611","","null","","","null","86","","","","","","","","","","","","","","","",""
"","ITI","","html-keyboard-response","567","1290043","0.0-1.0-783.0","0","0","98611","","780","","","75","86","","","","","","","","","","","","","","","k",""
"","S1","","html-keyboard-response","568","1290309","0.0-1.0-785.0","0","0","98611","","null","","","null","87","","","","","","","","","","","","","","","",""
"","ISI","","html-keyboard-response","569","1291323","0.0-1.0-786.0","0","0","98611","","184","","","75","87","k","","","","","","","","","","","","","","",""
"","S2","","html-keyboard-response","570","1291573","0.0-1.0-787.0","0","0","98611","","null","","","null","87","","NaN","","","","","","","","","","","","","",""
"","response","","html-keyboard-response","571","1292662","0.0-1.0-788.0-0.0","0","0","98611","","1087","","","75","87","","","2","87","training","adjacent","BC","2","3","Q.jpg","P.jpg","1","1","1","",""
"","feedback","","html-keyboard-response","572","1293672","0.0-1.0-789.0-0.0","0","0","98611","","null","","","null","87","","","","","","","","","","","","","","","",""
"","ITI","","html-keyboard-response","573","1294676","0.0-1.0-792.0","0","0","98611","","null","","","null","87","","","","","","","","","","","","","","","NaN",""
"","S1","","html-keyboard-response","574","1294929","0.0-1.0-794.0","0","0","98611","","null","","","null","88","","","","","","","","","","","","","","","",""
"","ISI","","html-keyboard-response","575","1295944","0.0-1.0-795.0","0","0","98611","","null","","","null","88","NaN","","","","","","","","","","","","","","",""
"","S2","","html-keyboard-response","576","1296198","0.0-1.0-796.0","0","0","98611","","null","","","null","88","","NaN","","","","","","","","","","","","","",""
"","response","","html-keyboard-response","577","1296446","0.0-1.0-797.0-0.0","0","0","98611","","247","","","68","88","","","2","88","training","adjacent","FE","6","5","M.jpg","N.jpg","0","0","1","",""
"","feedback","","html-keyboard-response","578","1297456","0.0-1.0-798.0-0.0","0","0","98611","","null","","","null","88","","","","","","","","","","","","","","","",""
"","ITI","","html-keyboard-response","579","1298472","0.0-1.0-801.0","0","0","98611","","null","","","null","88","","","","","","","","","","","","","","","NaN",""
