"success","ttype","start_time","trial_type","trial_index","time_elapsed","internal_node_id","warning","missed_checkup","PID","view_history","rt","responses","repeat_instructions","key_press","index","keypress_isi","keypress_S2","block","trial_num","phase","group_type","pair_type","S1_stim","S2_stim","S1_img","S2_img","S1_chosen","S1_higher","accuracy","keypress_iti","total_bonus_tally"
"true","full_screen","d07282022hr2027","fullscreen","0","138357","0.0-0.0","0","0","35674","","","","","","","","","","","","","","","","","","","","","",""
"","instructions","","instructions","1","152956","0.0-1.0-0.0-0.0","0","0","35674","[{""page_index"":0,""viewing_time"":2776},{""page_index"":1,""viewing_time"":4905},{""page_index"":2,""viewing_time"":5531},{""page_index"":3,""viewing_time"":1383}]","14596","","","","","","","","","","","","","","","","","","","",""
"","comprehension_check","","survey-multi-choice","2","167041","0.0-1.0-0.0-1.0","0","0","35674","","14078","{""Q0"":""True"",""Q1"":""True"",""Q2"":""When you see the prompt 'MAKE A CHOICE' after the second image was presented"",""Q3"":""Green mark"",""Q4"":""either D or K""}","0","","","","","","","","","","","","","","","","","",""
"","start_exp","","html-keyboard-response","3","168874","0.0-1.0-1.0","0","0","35674","","1823","","","32","","","","","","","","","","","","","","","","",""
"","S1","","html-keyboard-response","4","169131","0.0-1.0-2.0","0","0","35674","","null","","","null","0","","","","","","","","","","","","","","","",""
"","ISI","","html-keyboard-response","5","171135","0.0-1.0-3.0","0","0","35674","","null","","","null","0","NaN","","","","","","","","","","","","","","",""
"","S2","","html-keyboard-response","6","171391","0.0-1.0-4.0","0","0","35674","","null","","","null","0","","NaN","","","","","","","","","","","","","",""
"","response","","html-keyboard-response","7","171895","0.0-1.0-5.0","0","0","35674","","497","","","75","0","","","1","0","training","adjacent","DC","4","3","N.jpg","P.jpg","0","0","1","",""
"","feedback","","html-keyboard-response","8","172903","0.0-1.0-6.0-0.0","0","0","35674","","null","","","null","0","","","","","","","","","","","","","","","",""
"","ITI","","html-keyboard-response","9","173909","0.0-1.0-9.0","0","0","35674","","null","","","null","0","","","","","","","","","","","","","","","NaN",""
"","S1","","html-keyboard-response","10","174166","0.0-1.0-11.0","0","0","35674","","null","","","null","1","","","","","","","","","","","","","","","",""
"","ISI","","html-keyboard-response","11","176172","0.0-1.0-12.0","0","0","35674","","null","","","null","1","NaN","","","","","","","","","","","","","","",""
"","S2","","html-keyboard-response","12","176425","0.0-1.0-13.0","0","0","35674","","null","","","null","1","","NaN","","","","","","","","","","","","","",""
"","response","","html-keyboard-response","13","176494","0.0-1.0-14.0","0","0","35674","","67","","","68","1","","","1","1","training","adjacent","CD","3","4","P.jpg","N.jpg","1","1","1","",""
"","feedback","","html-keyboard-response","14","177500","0.0-1.0-15.0-0.0","0","0","35674","","null","","","null","1","","","","","","","","","","","","","","","",""
"","ITI","","html-keyboard-response","15","178506","0.0-1.0-18.0","0","0","35674","","null","","","null","1","","","","","","","","","","","","","","","NaN",""
"","S1","","html-keyboard-response","16","178762","0.0-1.0-20.0","0","0","35674","","null","","","null","2","","","","","","","","","","","","","","","",""
"","ISI","","html-keyboard-response","17","180767","0.0-1.0-21.0","0","0","35674","","null","","","null","2","NaN","","","","","","","","","","","","","","",""
"","S2","","html-keyboard-response","18","181021","0.0-1.0-22.0","0","0","35674","","null","","","null","2","","NaN","","","","","","","","","","","","","",""
"","response","","html-keyboard-response","19","181279","0.0-1.0-23.0","0","0","35674","","255","","","75","2","","","1","2","training","adjacent","DC","4","3","N.jpg","P.jpg","0","0","1","",""
"","feedback","","html-keyboard-response","20","182284","0.0-1.0-24.0-0.0","0","0","35674","","null","","","null","2","","","","","","","","","","","","","","","",""
"","ITI","","html-keyboard-response","21","183289","0.0-1.0-27.0","0","0","35674","","null","","","null","2","","","","","","","","","","","","","","","NaN",""
"","S1","","html-keyboard-response","22","183545","0.0-1.0-29.0","0","0","35674","","null","","","null","3","","","","","","","","","","","","","","","",""
"","ISI","","html-keyboard-response","23","185549","0.0-1.0-30.0","0","0","35674","","null","","","null","3","NaN","","","","","","","","","","","","","","",""
"","S2","","html-keyboard-response","24","185805","0.0-1.0-31.0","0","0","35674","","null","","","null","3","","NaN","","","","","","","","","","","","","",""
"","response","","html-keyboard-response","25","186044","0.0-1.0-32.0","0","0","35674","","233","","","75","3","","","1","3","training","adjacent","EF","5","6","O.jpg","M.jpg","0","1","0","",""
"","feedback","","html-keyboard-response","26","187049","0.0-1.0-33.0-0.0","0","0","35674","","null","","","null","3","","","","","","","","","","","","","","","",""
"","time_out","","html-keyboard-response","27","189053","0.0-1.0-35.0-0.0","0","0","35674","","null","","","null","3","","","","","","","","","","","","","","","",""
"","ITI","","html-keyboard-response","28","190060","0.0-1.0-36.0","0","0","35674","","null","","","null","3","","","","","","","","","","","","","","","NaN",""
"","S1","","html-keyboard-response","29","190315","0.0-1.0-38.0","0","0","35674","","null","","","null","4","","","","","","","","","","","","","","","",""
"","ISI","","html-keyboard-response","30","192318","0.0-1.0-39.0","0","0","35674","","null","","","null","4","NaN","","","","","","","","","","","","","","",""
"","S2","","html-keyboard-response","31","192571","0.0-1.0-40.0","0","0","35674","","null","","","null","4","","NaN","","","","","","","","","","","","","",""
"","response","","html-keyboard-response","32","192845","0.0-1.0-41.0","0","0","35674","","270","","","75","4","","","1","4","training","adjacent","BA","2","1","L.jpg","Q.jpg","0","0","1","",""
"","feedback","","html-keyboard-response","33","193850","0.0-1.0-42.0-0.0","0","0","35674","","null","","","null","4","","","","","","","","","","","","","","","",""
"","ITI","","html-keyboard-response","34","194854","0.0-1.0-45.0","0","0","35674","","null","","","null","4","","","","","","","","","","","","","","","NaN",""
"","S1","","html-keyboard-response","35","195108","0.0-1.0-47.0","0","0","35674","","null","","","null","5","","","","","","","","","","","","","","","",""
"","ISI","","html-keyboard-response","36","197111","0.0-1.0-48.0","0","0","35674","","null","","","null","5","NaN","","","","","","","","","","","","","","",""
"","S2","","html-keyboard-response","37","197369","0.0-1.0-49.0","0","0","35674","","null","","","null","5","","NaN","","","","","","","","","","","","","",""
"","response","","html-keyboard-response","38","197786","0.0-1.0-50.0","0","0","35674","","412","","","68","5","","","1","5","training","adjacent","ED","5","4","O.jpg","N.jpg","1","0","0","",""
"","feedback","","html-keyboard-response","39","198791","0.0-1.0-51.0-0.0","0","0","35674","","null","","","null","5","","","","","","","","","","","","","","","",""
"","time_out","","html-keyboard-response","40","200796","0.0-1.0-53.0-0.0","0","0","35674","","null","","","null","5","","","","","","","","","","","","","","","",""
"","ITI","","html-keyboard-response","41","201803","0.0-1.0-54.0","0","0","35674","","null","","","null","5","","","","","","","","","","","","","","","NaN",""
"","S1","","html-keyboard-response","42","202062","0.0-1.0-56.0","0","0","35674","","null","","","null","6","","","","","","","","","","","","","","","",""
"","ISI","","html-keyboard-response","43","204067","0.0-1.0-57.0","0","0","35674","","null","","","null","6","NaN","","","","","","","","","","","","","","",""
"","S2","","html-keyboard-response","44","204322","0.0-1.0-58.0","0","0","35674","","null","","","null","6","","NaN","","","","","","","","","","","","","",""
"","response","","html-keyboard-response","45","204493","0.0-1.0-59.0","0","0","35674","","166","","","75","6","","","1","6","training","adjacent","BA","2","1","L.jpg","Q.jpg","0","0","1","",""
"","feedback","","html-keyboard-response","46","205498","0.0-1.0-60.0-0.0","0","0","35674","","null","","","null","6","","","","","","","","","","","","","","","",""
"","ITI","","html-keyboard-response","47","206504","0.0-1.0-63.0","0","0","35674","","null","","","null","6","","","","","","","","","","","","","","","NaN",""
"","S1","","html-keyboard-response","48","206761","0.0-1.0-65.0","0","0","35674","","null","","","null","7","","","","","","","","","","","","","","","",""
"","ISI","","html-keyboard-response","49","208767","0.0-1.0-66.0","0","0","35674","","null","","","null","7","NaN","","","","","","","","","","","","","","",""
"","S2","","html-keyboard-response","50","209020","0.0-1.0-67.0","0","0","35674","","null","","","null","7","","NaN","","","","","","","","","","","","","",""
"","response","","html-keyboard-response","51","209412","0.0-1.0-68.0","0","0","35674","","387","","","75","7","","","1","7","training","adjacent","EF","5","6","O.jpg","M.jpg","0","1","0","",""
"","feedback","","html-keyboard-response","52","210418","0.0-1.0-69.0-0.0","0","0","35674","","null","","","null","7","","","","","","","","","","","","","","","",""
"","time_out","","html-keyboard-response","53","212422","0.0-1.0-71.0-0.0","0","0","35674","","null","","","null","7","","","","","","","","","","","","","","","",""
"","ITI","","html-keyboard-response","54","213426","0.0-1.0-72.0","0","0","35674","","null","","","null","7","","","","","","","","","","","","","","","NaN",""
"","S1","","html-keyboard-response","55","213680","0.0-1.0-74.0","0","0","35674","","null","","","null","8","","","","","","","","","","","","","","","",""
"","ISI","","html-keyboard-response","56","215683","0.0-1.0-75.0","0","0","35674","","null","","","null","8","NaN","","","","","","","","","","","","","","",""
"","S2","","html-keyboard-response","57","215936","0.0-1.0-76.0","0","0","35674","","null","","","null","8","","NaN","","","","","","","","","","","","","",""
"","response","","html-keyboard-response","58","215952","0.0-1.0-77.0","0","0","35674","","13","","","75","8","","","1","8","training","adjacent","FG","6","7","M.jpg","R.jpg","0","1","0","",""
"","feedback","","html-keyboard-response","59","216955","0.0-1.0-78.0-0.0","0","0","35674","","null","","","null","8","","","","","","","","","","","","","","","",""
"","time_out","","html-keyboard-response","60","218960","0.0-1.0-80.0-0.0","0","0","35674","","null","","","null","8","","","","","","","","","","","","","","","",""
"","ITI","","html-keyboard-response","61","219964","0.0-1.0-81.0","0","0","35674","","null","","","null","8","","","","","","","","","","","","","","","NaN",""
"","S1","","html-keyboard-response","62","220217","0.0-1.0-83.0","0","0","35674","","null","","","null","9","","","","","","","","","","","","","","","",""
"","ISI","","html-keyboard-response","63","222220","0.0-1.0-84.0","0","0","35674","","null","","","null","9","NaN","","","","","","","","","","","","","","",""
"","S2","","html-keyboard-response","64","222474","0.0-1.0-85.0","0","0","35674","","null","","","null","9","","NaN","","","","","","","","","","","","","",""
"","response","","html-keyboard-response","65","222759","0.0-1.0-86.0","0","0","35674","","283","","","68","9","","","1","9","training","adjacent","CD","3","4","P.jpg","N.jpg","1","1","1","",""
"","feedback","","html-keyboard-response","66","223763","0.0-1.0-87.0-0.0","0","0","35674","","null","","","null","9","","","","","","","","","","","","","","","",""
"","ITI","","html-keyboard-response","67","224769","0.0-1.0-90.0","0","0","35674","","null","","","null","9","","","","","","","","","","","","","","","NaN",""
"","S1","","html-keyboard-response","68","225026","0.0-1.0-92.0","0","0","35674","","null","","","null","10","","","","","","","","","","","","","","","",""
"","ISI","","html-keyboard-response","69","227029","0.0-1.0-93.0","0","0","35674","","null","","","null","10","NaN","","","","","","","","","","","","","","",""
"","S2","","html-keyboard-response","70","227282","0.0-1.0-94.0","0","0","35674","","null","","","null","10","","NaN","","","","","","","","","","","","","",""
"","response","","html-keyboard-response","71","227344","0.0-1.0-95.0","0","0","35674","","59","","","68","10","","","1","10","training","adjacent","FG","6","7","M.jpg","R.jpg","1","1","1","",""
"","feedback","","html-keyboard-response","72","228348","0.0-1.0-96.0-0.0","0","0","35674","","null","","","null","10","","","","","","","","","","","","","","","",""
"","ITI","","html-keyboard-response","73","229352","0.0-1.0-99.0","0","0","35674","","null","","","null","10","","","","","","","","","","","","","","","NaN",""
"","S1","","html-keyboard-response","74","229606","0.0-1.0-101.0","0","0","35674","","null","","","null","11","","","","","","","","","","","","","","","",""
"","ISI","","html-keyboard-response","75","231612","0.0-1.0-102.0","0","0","35674","","null","","","null","11","NaN","","","","","","","","","","","","","","",""
"","S2","","html-keyboard-response","76","231868","0.0-1.0-103.0","0","0","35674","","null","","","null","11","","NaN","","","","","","","","","","","","","",""
"","response","","html-keyboard-response","77","231976","0.0-1.0-104.0","0","0","35674","","105","","","75","11","","","1","11","training","adjacent","BC","2","3","L.jpg","P.jpg","0","1","0","",""
"","feedback","","html-keyboard-response","78","232979","0.0-1.0-105.0-0.0","0","0","35674","","null","","","null","11","","","","","","","","","","","","","","","",""
"","time_out","","html-keyboard-response","79","234983","0.0-1.0-107.0-0.0","0","0","35674","","null","","","null","11","","","","","","","","","","","","","","","",""
"","ITI","","html-keyboard-response","80","235986","0.0-1.0-108.0","0","0","35674","","null","","","null","11","","","","","","","","","","","","","","","NaN",""
"","S1","","html-keyboard-response","81","236240","0.0-1.0-110.0","0","0","35674","","null","","","null","12","","","","","","","","","","","","","","","",""
"","ISI","","html-keyboard-response","82","238243","0.0-1.0-111.0","0","0","35674","","null","","","null","12","NaN","","","","","","","","","","","","","","",""
"","S2","","html-keyboard-response","83","238498","0.0-1.0-112.0","0","0","35674","","null","","","null","12","","NaN","","","","","","","","","","","","","",""
"","response","","html-keyboard-response","84","238798","0.0-1.0-113.0","0","0","35674","","296","","","68","12","","","1","12","training","adjacent","BC","2","3","L.jpg","P.jpg","1","1","1","",""
"","feedback","","html-keyboard-response","85","239802","0.0-1.0-114.0-0.0","0","0","35674","","null","","","null","12","","","","","","","","","","","","","","","",""
"","ITI","","html-keyboard-response","86","240806","0.0-1.0-117.0","0","0","35674","","null","","","null","12","","","","","","","","","","","","","","","NaN",""
"","S1","","html-keyboard-response","87","241059","0.0-1.0-119.0","0","0","35674","","null","","","null","13","","","","","","","","","","","","","","","",""
"","ISI","","html-keyboard-response","88","243063","0.0-1.0-120.0","0","0","35674","","null","","","null","13","NaN","","","","","","","","","","","","","","",""
"","S2","","html-keyboard-response","89","243319","0.0-1.0-121.0","0","0","35674","","null","","","null","13","","NaN","","","","","","","","","","","","","",""
"","response","","html-keyboard-response","90","243562","0.0-1.0-122.0","0","0","35674","","232","","","75","13","","","1","13","training","adjacent","DC","4","3","N.jpg","P.jpg","0","0","1","",""
"","feedback","","html-keyboard-response","91","244568","0.0-1.0-123.0-0.0","0","0","35674","","null","","","null","13","","","","","","","","","","","","","","","",""
"","ITI","","html-keyboard-response","92","245572","0.0-1.0-126.0","0","0","35674","","null","","","null","13","","","","","","","","","","","","","","","NaN",""
"","S1","","html-keyboard-response","93","245825","0.0-1.0-128.0","0","0","35674","","null","","","null","14","","","","","","","","","","","","","","","",""
"","ISI","","html-keyboard-response","94","247829","0.0-1.0-129.0","0","0","35674","","null","","","null","14","NaN","","","","","","","","","","","","","","",""
"","S2","","html-keyboard-response","95","248082","0.0-1.0-130.0","0","0","35674","","null","","","null","14","","NaN","","","","","","","","","","","","","",""
"","response","","html-keyboard-response","96","248412","0.0-1.0-131.0","0","0","35674","","326","","","68","14","","","1","14","training","adjacent","EF","5","6","O.jpg","M.jpg","1","1","1","",""
"","feedback","","html-keyboard-response","97","249418","0.0-1.0-132.0-0.0","0","0","35674","","null","","","null","14","","","","","","","","","","","","","","","",""
"","ITI","","html-keyboard-response","98","250423","0.0-1.0-135.0","0","0","35674","","null","","","null","14","","","","","","","","","","","","","","","NaN",""
"","S1","","html-keyboard-response","99","250680","0.0-1.0-137.0","0","0","35674","","null","","","null","15","","","","","","","","","","","","","","","",""
"","ISI","","html-keyboard-response","100","252684","0.0-1.0-138.0","0","0","35674","","null","","","null","15","NaN","","","","","","","","","","","","","","",""
"","S2","","html-keyboard-response","101","252939","0.0-1.0-139.0","0","0","35674","","null","","","null","15","","NaN","","","","","","","","","","","","","",""
"","response","","html-keyboard-response","102","253139","0.0-1.0-140.0","0","0","35674","","194","","","68","15","","","1","15","training","adjacent","AB","1","2","Q.jpg","L.jpg","1","1","1","",""
"","feedback","","html-keyboard-response","103","254146","0.0-1.0-141.0-0.0","0","0","35674","","null","","","null","15","","","","","","","","","","","","","","","",""
"","ITI","","html-keyboard-response","104","255151","0.0-1.0-144.0","0","0","35674","","null","","","null","15","","","","","","","","","","","","","","","NaN",""
"","S1","","html-keyboard-response","105","255405","0.0-1.0-146.0","0","0","35674","","null","","","null","16","","","","","","","","","","","","","","","",""
"","ISI","","html-keyboard-response","106","257408","0.0-1.0-147.0","0","0","35674","","null","","","null","16","NaN","","","","","","","","","","","","","","",""
"","S2","","html-keyboard-response","107","257664","0.0-1.0-148.0","0","0","35674","","null","","","null","16","","NaN","","","","","","","","","","","","","",""
"","response","","html-keyboard-response","108","257886","0.0-1.0-149.0","0","0","35674","","216","","","75","16","","","1","16","training","adjacent","DE","4","5","N.jpg","O.jpg","0","1","0","",""
"","feedback","","html-keyboard-response","109","258892","0.0-1.0-150.0-0.0","0","0","35674","","null","","","null","16","","","","","","","","","","","","","","","",""
"","time_out","","html-keyboard-response","110","260897","0.0-1.0-152.0-0.0","0","0","35674","","null","","","null","16","","","","","","","","","","","","","","","",""
"","ITI","","html-keyboard-response","111","261901","0.0-1.0-153.0","0","0","35674","","null","","","null","16","","","","","","","","","","","","","","","NaN",""
"","S1","","html-keyboard-response","112","262155","0.0-1.0-155.0","0","0","35674","","null","","","null","17","","","","","","","","","","","","","","","",""
"","ISI","","html-keyboard-response","113","264160","0.0-1.0-156.0","0","0","35674","","null","","","null","17","NaN","","","","","","","","","","","","","","",""
"","S2","","html-keyboard-response","114","264417","0.0-1.0-157.0","0","0","35674","","null","","","null","17","","NaN","","","","","","","","","","","","","",""
"","response","","html-keyboard-response","115","264644","0.0-1.0-158.0","0","0","35674","","222","","","68","17","","","1","17","training","adjacent","CB","3","2","P.jpg","L.jpg","1","0","0","",""
"","feedback","","html-keyboard-response","116","265651","0.0-1.0-159.0-0.0","0","0","35674","","null","","","null","17","","","","","","","","","","","","","","","",""
"","time_out","","html-keyboard-response","117","267656","0.0-1.0-161.0-0.0","0","0","35674","","null","","","null","17","","","","","","","","","","","","","","","",""
"","ITI","","html-keyboard-response","118","268662","0.0-1.0-162.0","0","0","35674","","null","","","null","17","","","","","","","","","","","","","","","NaN",""
"","S1","","html-keyboard-response","119","268916","0.0-1.0-164.0","0","0","35674","","null","","","null","18","","","","","","","","","","","","","","","",""
"","ISI","","html-keyboard-response","120","270918","0.0-1.0-165.0","0","0","35674","","null","","","null","18","NaN","","","","","","","","","","","","","","",""
"","S2","","html-keyboard-response","121","271171","0.0-1.0-166.0","0","0","35674","","null","","","null","18","","NaN","","","","","","","","","","","","","",""
"","response","","html-keyboard-response","122","271510","0.0-1.0-167.0","0","0","35674","","335","","","68","18","","","1","18","training","adjacent","ED","5","4","O.jpg","N.jpg","1","0","0","",""
"","feedback","","html-keyboard-response","123","272516","0.0-1.0-168.0-0.0","0","0","35674","","null","","","null","18","","","","","","","","","","","","","","","",""
"","time_out","","html-keyboard-response","124","274521","0.0-1.0-170.0-0.0","0","0","35674","","null","","","null","18","","","","","","","","","","","","","","","",""
"","ITI","","html-keyboard-response","125","275526","0.0-1.0-171.0","0","0","35674","","null","","","null","18","","","","","","","","","","","","","","","NaN",""
"","S1","","html-keyboard-response","126","275779","0.0-1.0-173.0","0","0","35674","","null","","","null","19","","","","","","","","","","","","","","","",""
"","ISI","","html-keyboard-response","127","277782","0.0-1.0-174.0","0","0","35674","","null","","","null","19","NaN","","","","","","","","","","","","","","",""
"","S2","","html-keyboard-response","128","278035","0.0-1.0-175.0","0","0","35674","","null","","","null","19","","NaN","","","","","","","","","","","","","",""
"","response","","html-keyboard-response","129","278186","0.0-1.0-176.0","0","0","35674","","148","","","75","19","","","1","19","training","adjacent","GF","7","6","R.jpg","M.jpg","0","0","1","",""
"","feedback","","html-keyboard-response","130","279190","0.0-1.0-177.0-0.0","0","0","35674","","null","","","null","19","","","","","","","","","","","","","","","",""
"","ITI","","html-keyboard-response","131","280194","0.0-1.0-180.0","0","0","35674","","null","","","null","19","","","","","","","","","","","","","","","NaN",""
"","S1","","html-keyboard-response","132","280448","0.0-1.0-182.0","0","0","35674","","null","","","null","20","","","","","","","","","","","","","","","",""
"","ISI","","html-keyboard-response","133","282452","0.0-1.0-183.0","0","0","35674","","null","","","null","20","NaN","","","","","","","","","","","","","","",""
"","S2","","html-keyboard-response","134","282707","0.0-1.0-184.0","0","0","35674","","null","","","null","20","","NaN","","","","","","","","","","","","","",""
"","response","","html-keyboard-response","135","283020","0.0-1.0-185.0","0","0","35674","","308","","","68","20","","","1","20","training","adjacent","AB","1","2","Q.jpg","L.jpg","1","1","1","",""
"","feedback","","html-keyboard-response","136","284024","0.0-1.0-186.0-0.0","0","0","35674","","null","","","null","20","","","","","","","","","","","","","","","",""
"","ITI","","html-keyboard-response","137","285029","0.0-1.0-189.0","0","0","35674","","null","","","null","20","","","","","","","","","","","","","","","NaN",""
"","S1","","html-keyboard-response","138","285290","0.0-1.0-191.0","0","0","35674","","null","","","null","21","","","","","","","","","","","","","","","",""
"","ISI","","html-keyboard-response","139","287294","0.0-1.0-192.0","0","0","35674","","null","","","null","21","NaN","","","","","","","","","","","","","","",""
"","S2","","html-keyboard-response","140","287547","0.0-1.0-193.0","0","0","35674","","null","","","null","21","","NaN","","","","","","","","","","","","","",""
"","response","","html-keyboard-response","141","288041","0.0-1.0-194.0","0","0","35674","","487","","","75","21","","","1","21","training","adjacent","AB","1","2","Q.jpg","L.jpg","0","1","0","",""
"","feedback","","html-keyboard-response","142","289047","0.0-1.0-195.0-0.0","0","0","35674","","null","","","null","21","","","","","","","","","","","","","","","",""
"","time_out","","html-keyboard-response","143","291052","0.0-1.0-197.0-0.0","0","0","35674","","null","","","null","21","","","","","","","","","","","","","","","",""
"","ITI","","html-keyboard-response","144","292057","0.0-1.0-198.0","0","0","35674","","null","","","null","21","","","","","","","","","","","","","","","NaN",""
"","S1","","html-keyboard-response","145","292312","0.0-1.0-200.0","0","0","35674","","null","","","null","22","","","","","","","","","","","","","","","",""
"","ISI","","html-keyboard-response","146","294315","0.0-1.0-201.0","0","0","35674","","null","","","null","22","NaN","","","","","","","","","","","","","","",""
"","S2","","html-keyboard-response","147","294567","0.0-1.0-202.0","0","0","35674","","null","","","null","22","","NaN","","","","","","","","","","","","","",""
"","response","","html-keyboard-response","148","294691","0.0-1.0-203.0","0","0","35674","","120","","","75","22","","","1","22","training","adjacent","BA","2","1","L.jpg","Q.jpg","0","0","1","",""
"","feedback","","html-keyboard-response","149","295695","0.0-1.0-204.0-0.0","0","0","35674","","null","","","null","22","","","","","","","","","","","","","","","",""
"","ITI","","html-keyboard-response","150","296700","0.0-1.0-207.0","0","0","35674","","null","","","null","22","","","","","","","","","","","","","","","NaN",""
"","S1","","html-keyboard-response","151","296956","0.0-1.0-209.0","0","0","35674","","null","","","null","23","","","","","","","","","","","","","","","",""
"","ISI","","html-keyboard-response","152","298964","0.0-1.0-210.0","0","0","35674","","null","","","null","23","NaN","","","","","","","","","","","","","","",""
"","S2","","html-keyboard-response","153","299217","0.0-1.0-211.0","0","0","35674","","null","","","null","23","","NaN","","","","","","","","","","","","","",""
"","response","","html-keyboard-response","154","299561","0.0-1.0-212.0","0","0","35674","","341","","","75","23","","","1","23","training","adjacent","DE","4","5","N.jpg","O.jpg","0","1","0","",""
"","feedback","","html-keyboard-response","155","300566","0.0-1.0-213.0-0.0","0","0","35674","","null","","","null","23","","","","","","","","","","","","","","","",""
"","time_out","","html-keyboard-response","156","302570","0.0-1.0-215.0-0.0","0","0","35674","","null","","","null","23","","","","","","","","","","","","","","","",""
"","ITI","","html-keyboard-response","157","303576","0.0-1.0-216.0","0","0","35674","","null","","","null","23","","","","","","","","","","","","","","","NaN",""
"","S1","","html-keyboard-response","158","303832","0.0-1.0-218.0","0","0","35674","","null","","","null","24","","","","","","","","","","","","","","","",""
"","ISI","","html-keyboard-response","159","305835","0.0-1.0-219.0","0","0","35674","","null","","","null","24","NaN","","","","","","","","","","","","","","",""
"","S2","","html-keyboard-response","160","306090","0.0-1.0-220.0","0","0","35674","","null","","","null","24","","NaN","","","","","","","","","","","","","",""
"","response","","html-keyboard-response","161","306351","0.0-1.0-221.0","0","0","35674","","257","","","68","24","","","1","24","training","adjacent","DE","4","5","N.jpg","O.jpg","1","1","1","",""
"","feedback","","html-keyboard-response","162","307356","0.0-1.0-222.0-0.0","0","0","35674","","null","","","null","24","","","","","","","","","","","","","","","",""
"","ITI","","html-keyboard-response","163","308361","0.0-1.0-225.0","0","0","35674","","null","","","null","24","","","","","","","","","","","","","","","NaN",""
"","S1","","html-keyboard-response","164","308616","0.0-1.0-227.0","0","0","35674","","null","","","null","25","","","","","","","","","","","","","","","",""
"","ISI","","html-keyboard-response","165","310619","0.0-1.0-228.0","0","0","35674","","null","","","null","25","NaN","","","","","","","","","","","","","","",""
"","S2","","html-keyboard-response","166","310872","0.0-1.0-229.0","0","0","35674","","null","","","null","25","","NaN","","","","","","","","","","","","","",""
"","response","","html-keyboard-response","167","311119","0.0-1.0-230.0","0","0","35674","","245","","","75","25","","","1","25","training","adjacent","BC","2","3","L.jpg","P.jpg","0","1","0","",""
"","feedback","","html-keyboard-response","168","312121","0.0-1.0-231.0-0.0","0","0","35674","","null","","","null","25","","","","","","","","","","","","","","","",""
"","time_out","","html-keyboard-response","169","314125","0.0-1.0-233.0-0.0","0","0","35674","","null","","","null","25","","","","","","","","","","","","","","","",""
"","ITI","","html-keyboard-response","170","315129","0.0-1.0-234.0","0","0","35674","","null","","","null","25","","","","","","","","","","","","","","","NaN",""
"","S1","","html-keyboard-response","171","315382","0.0-1.0-236.0","0","0","35674","","null","","","null","26","","","","","","","","","","","","","","","",""
"","ISI","","html-keyboard-response","172","317388","0.0-1.0-237.0","0","0","35674","","null","","","null","26","NaN","","","","","","","","","","","","","","",""
"","S2","","html-keyboard-response","173","317643","0.0-1.0-238.0","0","0","35674","","null","","","null","26","","NaN","","","","","","","","","","","","","",""
"","response","","html-keyboard-response","174","317935","0.0-1.0-239.0","0","0","35674","","289","","","68","26","","","1","26","training","adjacent","CB","3","2","P.jpg","L.jpg","1","0","0","",""
"","feedback","","html-keyboard-response","175","318938","0.0-1.0-240.0-0.0","0","0","35674","","null","","","null","26","","","","","","","","","","","","","","","",""
"","time_out","","html-keyboard-response","176","320941","0.0-1.0-242.0-0.0","0","0","35674","","null","","","null","26","","","","","","","","","","","","","","","",""
"","ITI","","html-keyboard-response","177","321945","0.0-1.0-243.0","0","0","35674","","null","","","null","26","","","","","","","","","","","","","","","NaN",""
"","S1","","html-keyboard-response","178","322198","0.0-1.0-245.0","0","0","35674","","null","","","null","27","","","","","","","","","","","","","","","",""
"","ISI","","html-keyboard-response","179","324203","0.0-1.0-246.0","0","0","35674","","null","","","null","27","NaN","","","","","","","","","","","","","","",""
"","S2","","html-keyboard-response","180","324458","0.0-1.0-247.0","0","0","35674","","null","","","null","27","","NaN","","","","","","","","","","","","","",""
"","response","","html-keyboard-response","181","324665","0.0-1.0-248.0","0","0","35674","","203","","","68","27","","","1","27","training","adjacent","FE","6","5","M.jpg","O.jpg","1","0","0","",""
"","feedback","","html-keyboard-response","182","325671","0.0-1.0-249.0-0.0","0","0","35674","","null","","","null","27","","","","","","","","","","","","","","","",""
"","time_out","","html-keyboard-response","183","327676","0.0-1.0-251.0-0.0","0","0","35674","","null","","","null","27","","","","","","","","","","","","","","","",""
"","ITI","","html-keyboard-response","184","328679","0.0-1.0-252.0","0","0","35674","","null","","","null","27","","","","","","","","","","","","","","","NaN",""
"","S1","","html-keyboard-response","185","328935","0.0-1.0-254.0","0","0","35674","","null","","","null","28","","","","","","","","","","","","","","","",""
"","ISI","","html-keyboard-response","186","330940","0.0-1.0-255.0","0","0","35674","","null","","","null","28","NaN","","","","","","","","","","","","","","",""
"","S2","","html-keyboard-response","187","331194","0.0-1.0-256.0","0","0","35674","","null","","","null","28","","NaN","","","","","","","","","","","","","",""
"","response","","html-keyboard-response","188","331421","0.0-1.0-257.0","0","0","35674","","224","","","75","28","","","1","28","training","adjacent","CB","3","2","P.jpg","L.jpg","0","0","1","",""
"","feedback","","html-keyboard-response","189","332424","0.0-1.0-258.0-0.0","0","0","35674","","null","","","null","28","","","","","","","","","","","","","","","",""
"","ITI","","html-keyboard-response","190","333426","0.0-1.0-261.0","0","0","35674","","null","","","null","28","","","","","","","","","","","","","","","NaN",""
"","S1","","html-keyboard-response","191","333681","0.0-1.0-263.0","0","0","35674","","null","","","null","29","","","","","","","","","","","","","","","",""
"","ISI","","html-keyboard-response","192","335687","0.0-1.0-264.0","0","0","35674","","null","","","null","29","NaN","","","","","","","","","","","","","","",""
"","S2","","html-keyboard-response","193","335942","0.0-1.0-265.0","0","0","35674","","null","","","null","29","","NaN","","","","","","","","","","","","","",""
"","response","","html-keyboard-response","194","336391","0.0-1.0-266.0","0","0","35674","","444","","","75","29","","","1","29","training","adjacent","GF","7","6","R.jpg","M.jpg","0","0","1","",""
"","feedback","","html-keyboard-response","195","337399","0.0-1.0-267.0-0.0","0","0","35674","","null","","","null","29","","","","","","","","","","","","","","","",""
"","ITI","","html-keyboard-response","196","338403","0.0-1.0-270.0","0","0","35674","","null","","","null","29","","","","","","","","","","","","","","","NaN",""
"","S1","","html-keyboard-response","197","338658","0.0-1.0-272.0","0","0","35674","","null","","","null","30","","","","","","","","","","","","","","","",""
"","ISI","","html-keyboard-response","198","340664","0.0-1.0-273.0","0","0","35674","","null","","","null","30","NaN","","","","","","","","","","","","","","",""
"","S2","","html-keyboard-response","199","340918","0.0-1.0-274.0","0","0","35674","","null","","","null","30","","NaN","","","","","","","","","","","","","",""
"","response","","html-keyboard-response","200","341420","0.0-1.0-275.0","0","0","35674","","500","","","68","30","","","1","30","training","adjacent","FE","6","5","M.jpg","O.jpg","1","0","0","",""
"","feedback","","html-keyboard-response","201","342423","0.0-1.0-276.0-0.0","0","0","35674","","null","","","null","30","","","","","","","","","","","","","","","",""
"","time_out","","html-keyboard-response","202","344426","0.0-1.0-278.0-0.0","0","0","35674","","null","","","null","30","","","","","","","","","","","","","","","",""
"","ITI","","html-keyboard-response","203","345429","0.0-1.0-279.0","0","0","35674","","null","","","null","30","","","","","","","","","","","","","","","NaN",""
"","S1","","html-keyboard-response","204","345683","0.0-1.0-281.0","0","0","35674","","null","","","null","31","","","","","","","","","","","","","","","",""
"","ISI","","html-keyboard-response","205","347689","0.0-1.0-282.0","0","0","35674","","null","","","null","31","NaN","","","","","","","","","","","","","","",""
"","S2","","html-keyboard-response","206","347944","0.0-1.0-283.0","0","0","35674","","null","","","null","31","","NaN","","","","","","","","","","","","","",""
"","response","","html-keyboard-response","207","348299","0.0-1.0-284.0","0","0","35674","","352","","","68","31","","","1","31","training","adjacent","ED","5","4","O.jpg","N.jpg","1","0","0","",""
"","feedback","","html-keyboard-response","208","349301","0.0-1.0-285.0-0.0","0","0","35674","","null","","","null","31","","","","","","","","","","","","","","","",""
"","time_out","","html-keyboard-response","209","351306","0.0-1.0-287.0-0.0","0","0","35674","","null","","","null","31","","","","","","","","","","","","","","","",""
"","ITI","","html-keyboard-response","210","352311","0.0-1.0-288.0","0","0","35674","","null","","","null","31","","","","","","","","","","","","","","","NaN",""
"","S1","","html-keyboard-response","211","352566","0.0-1.0-290.0","0","0","35674","","null","","","null","32","","","","","","","","","","","","","","","",""
"","ISI","","html-keyboard-response","212","354569","0.0-1.0-291.0","0","0","35674","","null","","","null","32","NaN","","","","","","","","","","","","","","",""
"","S2","","html-keyboard-response","213","354823","0.0-1.0-292.0","0","0","35674","","null","","","null","32","","NaN","","","","","","","","","","","","","",""
"","response","","html-keyboard-response","214","355141","0.0-1.0-293.0","0","0","35674","","316","","","68","32","","","1","32","training","adjacent","FG","6","7","M.jpg","R.jpg","1","1","1","",""
"","feedback","","html-keyboard-response","215","356150","0.0-1.0-294.0-0.0","0","0","35674","","null","","","null","32","","","","","","","","","","","","","","","",""
"","ITI","","html-keyboard-response","216","357155","0.0-1.0-297.0","0","0","35674","","null","","","null","32","","","","","","","","","","","","","","","NaN",""
"","S1","","html-keyboard-response","217","357408","0.0-1.0-299.0","0","0","35674","","null","","","null","33","","","","","","","","","","","","","","","",""
"","ISI","","html-keyboard-response","218","359417","0.0-1.0-300.0","0","0","35674","","null","","","null","33","NaN","","","","","","","","","","","","","","",""
"","S2","","html-keyboard-response","219","359672","0.0-1.0-301.0","0","0","35674","","null","","","null","33","","NaN","","","","","","","","","","","","","",""
"","response","","html-keyboard-response","220","359976","0.0-1.0-302.0","0","0","35674","","299","","","75","33","","","1","33","training","adjacent","GF","7","6","R.jpg","M.jpg","0","0","1","",""
"","feedback","","html-keyboard-response","221","360980","0.0-1.0-303.0-0.0","0","0","35674","","null","","","null","33","","","","","","","","","","","","","","","",""
"","ITI","","html-keyboard-response","222","361982","0.0-1.0-306.0","0","0","35674","","null","","","null","33","","","","","","","","","","","","","","","NaN",""
"","S1","","html-keyboard-response","223","362235","0.0-1.0-308.0","0","0","35674","","null","","","null","34","","","","","","","","","","","","","","","",""
"","ISI","","html-keyboard-response","224","364240","0.0-1.0-309.0","0","0","35674","","null","","","null","34","NaN","","","","","","","","","","","","","","",""
"","S2","","html-keyboard-response","225","364494","0.0-1.0-310.0","0","0","35674","","null","","","null","34","","NaN","","","","","","","","","","","","","",""
"","response","","html-keyboard-response","226","364655","0.0-1.0-311.0","0","0","35674","","159","","","75","34","","","1","34","training","adjacent","CB","3","2","P.jpg","L.jpg","0","0","1","",""
"","feedback","","html-keyboard-response","227","365659","0.0-1.0-312.0-0.0","0","0","35674","","null","","","null","34","","","","","","","","","","","","","","","",""
"","ITI","","html-keyboard-response","228","366663","0.0-1.0-315.0","0","0","35674","","null","","","null","34","","","","","","","","","","","","","","","NaN",""
"","S1","","html-keyboard-response","229","366918","0.0-1.0-317.0","0","0","35674","","null","","","null","35","","","","","","","","","","","","","","","",""
"","ISI","","html-keyboard-response","230","368922","0.0-1.0-318.0","0","0","35674","","null","","","null","35","NaN","","","","","","","","","","","","","","",""
"","S2","","html-keyboard-response","231","369176","0.0-1.0-319.0","0","0","35674","","null","","","null","35","","NaN","","","","","","","","","","","","","",""
"","response","","html-keyboard-response","232","369683","0.0-1.0-320.0","0","0","35674","","504","","","75","35","","","1","35","training","adjacent","BC","2","3","L.jpg","P.jpg","0","1","0","",""
"","feedback","","html-keyboard-response","233","370700","0.0-1.0-321.0-0.0","0","0","35674","","null","","","null","35","","","","","","","","","","","","","","","",""
"","time_out","","html-keyboard-response","234","372703","0.0-1.0-323.0-0.0","0","0","35674","","null","","","null","35","","","","","","","","","","","","","","","",""
"","ITI","","html-keyboard-response","235","373707","0.0-1.0-324.0","0","0","35674","","null","","","null","35","","","","","","","","","","","","","","","NaN",""
"","S1","","html-keyboard-response","236","373961","0.0-1.0-326.0","0","0","35674","","null","","","null","36","","","","","","","","","","","","","","","",""
"","ISI","","html-keyboard-response","237","375966","0.0-1.0-327.0","0","0","35674","","null","","","null","36","NaN","","","","","","","","","","","","","","",""
"","S2","","html-keyboard-response","238","376223","0.0-1.0-328.0","0","0","35674","","null","","","null","36","","NaN","","","","","","","","","","","","","",""
"","response","","html-keyboard-response","239","376518","0.0-1.0-329.0","0","0","35674","","292","","","75","36","","","1","36","training","adjacent","BA","2","1","L.jpg","Q.jpg","0","0","1","",""
"","feedback","","html-keyboard-response","240","377521","0.0-1.0-330.0-0.0","0","0","35674","","null","","","null","36","","","","","","","","","","","","","","","",""
"","ITI","","html-keyboard-response","241","378523","0.0-1.0-333.0","0","0","35674","","null","","","null","36","","","","","","","","","","","","","","","NaN",""
"","S1","","html-keyboard-response","242","378779","0.0-1.0-335.0","0","0","35674","","null","","","null","37","","","","","","","","","","","","","","","",""
"","ISI","","html-keyboard-response","243","380784","0.0-1.0-336.0","0","0","35674","","null","","","null","37","NaN","","","","","","","","","","","","","","",""
"","S2","","html-keyboard-response","244","381041","0.0-1.0-337.0","0","0","35674","","null","","","null","37","","NaN","","","","","","","","","","","","","",""
"","response","","html-keyboard-response","245","381635","0.0-1.0-338.0","0","0","35674","","589","","","68","37","","","1","37","training","adjacent","AB","1","2","Q.jpg","L.jpg","1","1","1","",""
"","feedback","","html-keyboard-response","246","382640","0.0-1.0-339.0-0.0","0","0","35674","","null","","","null","37","","","","","","","","","","","","","","","",""
"","ITI","","html-keyboard-response","247","383645","0.0-1.0-342.0","0","0","35674","","null","","","null","37","","","","","","","","","","","","","","","NaN",""
"","S1","","html-keyboard-response","248","383901","0.0-1.0-344.0","0","0","35674","","null","","","null","38","","","","","","","","","","","","","","","",""
"","ISI","","html-keyboard-response","249","385906","0.0-1.0-345.0","0","0","35674","","null","","","null","38","NaN","","","","","","","","","","","","","","",""
"","S2","","html-keyboard-response","250","386162","0.0-1.0-346.0","0","0","35674","","null","","","null","38","","NaN","","","","","","","","","","","","","",""
"","response","","html-keyboard-response","251","386540","0.0-1.0-347.0","0","0","35674","","375","","","68","38","","","1","38","training","adjacent","FE","6","5","M.jpg","O.jpg","1","0","0","",""
"","feedback","","html-keyboard-response","252","387555","0.0-1.0-348.0-0.0","0","0","35674","","null","","","null","38","","","","","","","","","","","","","","","",""
"","time_out","","html-keyboard-response","253","389575","0.0-1.0-350.0-0.0","0","0","35674","","null","","","null","38","","","","","","","","","","","","","","","",""
"","ITI","","html-keyboard-response","254","390581","0.0-1.0-351.0","0","0","35674","","null","","","null","38","","","","","","","","","","","","","","","NaN",""
"","S1","","html-keyboard-response","255","390836","0.0-1.0-353.0","0","0","35674","","null","","","null","39","","","","","","","","","","","","","","","",""
"","ISI","","html-keyboard-response","256","392841","0.0-1.0-354.0","0","0","35674","","null","","","null","39","NaN","","","","","","","","","","","","","","",""
"","S2","","html-keyboard-response","257","393095","0.0-1.0-355.0","0","0","35674","","null","","","null","39","","NaN","","","","","","","","","","","","","",""
"","response","","html-keyboard-response","258","393407","0.0-1.0-356.0","0","0","35674","","310","","","68","39","","","1","39","training","adjacent","CD","3","4","P.jpg","N.jpg","1","1","1","",""
"","feedback","","html-keyboard-response","259","394411","0.0-1.0-357.0-0.0","0","0","35674","","null","","","null","39","","","","","","","","","","","","","","","",""
"","ITI","","html-keyboard-response","260","395415","0.0-1.0-360.0","0","0","35674","","null","","","null","39","","","","","","","","","","","","","","","NaN",""
"","block_over","","html-keyboard-response","261","399172","0.0-1.0-361.0-0.0","0","0","35674","","3750","","","32","39","","","","","","","","","","","","","","","",""
"","S1","","html-keyboard-response","262","399429","0.0-1.0-362.0","0","0","35674","","null","","","null","40","","","","","","","","","","","","","","","",""
"","ISI","","html-keyboard-response","263","401434","0.0-1.0-363.0","0","0","35674","","64","","","75","40","k","","","","","","","","","","","","","","",""
"","S2","","html-keyboard-response","264","401691","0.0-1.0-364.0","0","0","35674","","null","","","null","40","","NaN","","","","","","","","","","","","","",""
"","response","","html-keyboard-response","265","402287","0.0-1.0-365.0","0","0","35674","","592","","","75","40","","","2","40","training","adjacent","GF","7","6","R.jpg","M.jpg","0","0","1","",""
"","feedback","","html-keyboard-response","266","403290","0.0-1.0-366.0-0.0","0","0","35674","","null","","","null","40","","","","","","","","","","","","","","","",""
"","ITI","","html-keyboard-response","267","404296","0.0-1.0-369.0","0","0","35674","","null","","","null","40","","","","","","","","","","","","","","","NaN",""
"","S1","","html-keyboard-response","268","404551","0.0-1.0-371.0","0","0","35674","","null","","","null","41","","","","","","","","","","","","","","","",""
"","ISI","","html-keyboard-response","269","406554","0.0-1.0-372.0","0","0","35674","","null","","","null","41","NaN","","","","","","","","","","","","","","",""
"","S2","","html-keyboard-response","270","406808","0.0-1.0-373.0","0","0","35674","","null","","","null","41","","NaN","","","","","","","","","","","","","",""
"","response","","html-keyboard-response","271","406923","0.0-1.0-374.0","0","0","35674","","111","","","75","41","","","2","41","training","adjacent","GF","7","6","R.jpg","M.jpg","0","0","1","",""
"","feedback","","html-keyboard-response","272","407930","0.0-1.0-375.0-0.0","0","0","35674","","null","","","null","41","","","","","","","","","","","","","","","",""
"","ITI","","html-keyboard-response","273","408935","0.0-1.0-378.0","0","0","35674","","null","","","null","41","","","","","","","","","","","","","","","NaN",""
"","S1","","html-keyboard-response","274","409192","0.0-1.0-380.0","0","0","35674","","null","","","null","42","","","","","","","","","","","","","","","",""
"","ISI","","html-keyboard-response","275","411197","0.0-1.0-381.0","0","0","35674","","null","","","null","42","NaN","","","","","","","","","","","","","","",""
"","S2","","html-keyboard-response","276","411454","0.0-1.0-382.0","0","0","35674","","null","","","null","42","","NaN","","","","","","","","","","","","","",""
"","response","","html-keyboard-response","277","411801","0.0-1.0-383.0","0","0","35674","","340","","","68","42","","","2","42","training","adjacent","BC","2","3","L.jpg","P.jpg","1","1","1","",""
"","feedback","","html-keyboard-response","278","412805","0.0-1.0-384.0-0.0","0","0","35674","","null","","","null","42","","","","","","","","","","","","","","","",""
"","ITI","","html-keyboard-response","279","413810","0.0-1.0-387.0","0","0","35674","","null","","","null","42","","","","","","","","","","","","","","","NaN",""
"","S1","","html-keyboard-response","280","414066","0.0-1.0-389.0","0","0","35674","","null","","","null","43","","","","","","","","","","","","","","","",""
"","ISI","","html-keyboard-response","281","416071","0.0-1.0-390.0","0","0","35674","","null","","","null","43","NaN","","","","","","","","","","","","","","",""
"","S2","","html-keyboard-response","282","416326","0.0-1.0-391.0","0","0","35674","","null","","","null","43","","NaN","","","","","","","","","","","","","",""
"","response","","html-keyboard-response","283","416760","0.0-1.0-392.0","0","0","35674","","431","","","75","43","","","2","43","training","adjacent","EF","5","6","O.jpg","M.jpg","0","1","0","",""
"","feedback","","html-keyboard-response","284","417764","0.0-1.0-393.0-0.0","0","0","35674","","null","","","null","43","","","","","","","","","","","","","","","",""
"","time_out","","html-keyboard-response","285","419769","0.0-1.0-395.0-0.0","0","0","35674","","null","","","null","43","","","","","","","","","","","","","","","",""
"","ITI","","html-keyboard-response","286","420776","0.0-1.0-396.0","0","0","35674","","null","","","null","43","","","","","","","","","","","","","","","NaN",""
"","S1","","html-keyboard-response","287","421030","0.0-1.0-398.0","0","0","35674","","null","","","null","44","","","","","","","","","","","","","","","",""
"","ISI","","html-keyboard-response","288","423034","0.0-1.0-399.0","0","0","35674","","null","","","null","44","NaN","","","","","","","","","","","","","","",""
"","S2","","html-keyboard-response","289","423291","0.0-1.0-400.0","0","0","35674","","null","","","null","44","","NaN","","","","","","","","","","","","","",""
"","response","","html-keyboard-response","290","423717","0.0-1.0-401.0","0","0","35674","","420","","","75","44","","","2","44","training","adjacent","DC","4","3","N.jpg","P.jpg","0","0","1","",""
"","feedback","","html-keyboard-response","291","424723","0.0-1.0-402.0-0.0","0","0","35674","","null","","","null","44","","","","","","","","","","","","","","","",""
"","ITI","","html-keyboard-response","292","425727","0.0-1.0-405.0","0","0","35674","","null","","","null","44","","","","","","","","","","","","","","","NaN",""
"","S1","","html-keyboard-response","293","425980","0.0-1.0-407.0","0","0","35674","","null","","","null","45","","","","","","","","","","","","","","","",""
"","ISI","","html-keyboard-response","294","427984","0.0-1.0-408.0","0","0","35674","","null","","","null","45","NaN","","","","","","","","","","","","","","",""
"","S2","","html-keyboard-response","295","428238","0.0-1.0-409.0","0","0","35674","","null","","","null","45","","NaN","","","","","","","","","","","","","",""
"","response","","html-keyboard-response","296","428534","0.0-1.0-410.0","0","0","35674","","292","","","75","45","","","2","45","training","adjacent","BA","2","1","L.jpg","Q.jpg","0","0","1","",""
"","feedback","","html-keyboard-response","297","429539","0.0-1.0-411.0-0.0","0","0","35674","","null","","","null","45","","","","","","","","","","","","","","","",""
"","ITI","","html-keyboard-response","298","430542","0.0-1.0-414.0","0","0","35674","","null","","","null","45","","","","","","","","","","","","","","","NaN",""
"","S1","","html-keyboard-response","299","430794","0.0-1.0-416.0","0","0","35674","","null","","","null","46","","","","","","","","","","","","","","","",""
"","ISI","","html-keyboard-response","300","432799","0.0-1.0-417.0","0","0","35674","","474","","","75","46","k","","","","","","","","","","","","","","",""
"","S2","","html-keyboard-response","301","433054","0.0-1.0-418.0","0","0","35674","","null","","","null","46","","NaN","","","","","","","","","","","","","",""
"","response","","html-keyboard-response","302","433697","0.0-1.0-419.0","0","0","35674","","641","","","75","46","","","2","46","training","adjacent","EF","5","6","O.jpg","M.jpg","0","1","0","",""
"","feedback","","html-keyboard-response","303","434699","0.0-1.0-420.0-0.0","0","0","35674","","null","","","null","46","","","","","","","","","","","","","","","",""
"","time_out","","html-keyboard-response","304","436702","0.0-1.0-422.0-0.0","0","0","35674","","null","","","null","46","","","","","","","","","","","","","","","",""
"","ITI","","html-keyboard-response","305","437708","0.0-1.0-423.0","0","0","35674","","null","","","null","46","","","","","","","","","","","","","","","NaN",""
"","S1","","html-keyboard-response","306","437962","0.0-1.0-425.0","0","0","35674","","null","","","null","47","","","","","","","","","","","","","","","",""
"","ISI","","html-keyboard-response","307","439966","0.0-1.0-426.0","0","0","35674","","null","","","null","47","NaN","","","","","","","","","","","","","","",""
"","S2","","html-keyboard-response","308","440222","0.0-1.0-427.0","0","0","35674","","null","","","null","47","","NaN","","","","","","","","","","","","","",""
"","response","","html-keyboard-response","309","440581","0.0-1.0-428.0","0","0","35674","","356","","","75","47","","","2","47","training","adjacent","FE","6","5","M.jpg","O.jpg","0","0","1","",""
"","feedback","","html-keyboard-response","310","441590","0.0-1.0-429.0-0.0","0","0","35674","","null","","","null","47","","","","","","","","","","","","","","","",""
"","ITI","","html-keyboard-response","311","442594","0.0-1.0-432.0","0","0","35674","","null","","","null","47","","","","","","","","","","","","","","","NaN",""
"","S1","","html-keyboard-response","312","442849","0.0-1.0-434.0","0","0","35674","","null","","","null","48","","","","","","","","","","","","","","","",""
"","ISI","","html-keyboard-response","313","444853","0.0-1.0-435.0","0","0","35674","","null","","","null","48","NaN","","","","","","","","","","","","","","",""
"","S2","","html-keyboard-response","314","445108","0.0-1.0-436.0","0","0","35674","","null","","","null","48","","NaN","","","","","","","","","","","","","",""
"","response","","html-keyboard-response","315","445469","0.0-1.0-437.0","0","0","35674","","357","","","68","48","","","2","48","training","adjacent","CD","3","4","P.jpg","N.jpg","1","1","1","",""
"","feedback","","html-keyboard-response","316","446473","0.0-1.0-438.0-0.0","0","0","35674","","null","","","null","48","","","","","","","","","","","","","","","",""
"","ITI","","html-keyboard-response","317","447476","0.0-1.0-441.0","0","0","35674","","null","","","null","48","","","","","","","","","","","","","","","NaN",""
"","S1","","html-keyboard-response","318","447730","0.0-1.0-443.0","0","0","35674","","null","","","null","49","","","","","","","","","","","","","","","",""
"","ISI","","html-keyboard-response","319","449735","0.0-1.0-444.0","0","0","35674","","null","","","null","49","NaN","","","","","","","","","","","","","","",""
"","S2","","html-keyboard-response","320","449991","0.0-1.0-445.0","0","0","35674","","null","","","null","49","","NaN","","","","","","","","","","","","","",""
"","response","","html-keyboard-response","321","450269","0.0-1.0-446.0","0","0","35674","","274","","","75","49","","","2","49","training","adjacent","FE","6","5","M.jpg","O.jpg","0","0","1","",""
"","feedback","","html-keyboard-response","322","451272","0.0-1.0-447.0-0.0","0","0","35674","","null","","","null","49","","","","","","","","","","","","","","","",""
"","ITI","","html-keyboard-response","323","452275","0.0-1.0-450.0","0","0","35674","","null","","","null","49","","","","","","","","","","","","","","","NaN",""
"","S1","","html-keyboard-response","324","452528","0.0-1.0-452.0","0","0","35674","","null","","","null","50","","","","","","","","","","","","","","","",""
"","ISI","","html-keyboard-response","325","454532","0.0-1.0-453.0","0","0","35674","","null","","","null","50","NaN","","","","","","","","","","","","","","",""
"","S2","","html-keyboard-response","326","454786","0.0-1.0-454.0","0","0","35674","","null","","","null","50","","NaN","","","","","","","","","","","","","",""
"","response","","html-keyboard-response","327","454980","0.0-1.0-455.0","0","0","35674","","188","","","75","50","","","2","50","training","adjacent","DE","4","5","N.jpg","O.jpg","0","1","0","",""
"","feedback","","html-keyboard-response","328","455987","0.0-1.0-456.0-0.0","0","0","35674","","null","","","null","50","","","","","","","","","","","","","","","",""
"","time_out","","html-keyboard-response","329","457991","0.0-1.0-458.0-0.0","0","0","35674","","null","","","null","50","","","","","","","","","","","","","","","",""
"","ITI","","html-keyboard-response","330","458997","0.0-1.0-459.0","0","0","35674","","null","","","null","50","","","","","","","","","","","","","","","NaN",""
"","S1","","html-keyboard-response","331","459254","0.0-1.0-461.0","0","0","35674","","null","","","null","51","","","","","","","","","","","","","","","",""
"","ISI","","html-keyboard-response","332","461259","0.0-1.0-462.0","0","0","35674","","null","","","null","51","NaN","","","","","","","","","","","","","","",""
"","S2","","html-keyboard-response","333","461515","0.0-1.0-463.0","0","0","35674","","null","","","null","51","","NaN","","","","","","","","","","","","","",""
"","response","","html-keyboard-response","334","461625","0.0-1.0-464.0","0","0","35674","","106","","","68","51","","","2","51","training","adjacent","DE","4","5","N.jpg","O.jpg","1","1","1","",""
"","feedback","","html-keyboard-response","335","462631","0.0-1.0-465.0-0.0","0","0","35674","","null","","","null","51","","","","","","","","","","","","","","","",""
"","ITI","","html-keyboard-response","336","463635","0.0-1.0-468.0","0","0","35674","","null","","","null","51","","","","","","","","","","","","","","","NaN",""
"","S1","","html-keyboard-response","337","463889","0.0-1.0-470.0","0","0","35674","","null","","","null","52","","","","","","","","","","","","","","","",""
"","ISI","","html-keyboard-response","338","465895","0.0-1.0-471.0","0","0","35674","","null","","","null","52","NaN","","","","","","","","","","","","","","",""
"","S2","","html-keyboard-response","339","466151","0.0-1.0-472.0","0","0","35674","","null","","","null","52","","NaN","","","","","","","","","","","","","",""
"","response","","html-keyboard-response","340","466567","0.0-1.0-473.0","0","0","35674","","412","","","68","52","","","2","52","training","adjacent","FG","6","7","M.jpg","R.jpg","1","1","1","",""
"","feedback","","html-keyboard-response","341","467572","0.0-1.0-474.0-0.0","0","0","35674","","null","","","null","52","","","","","","","","","","","","","","","",""
"","ITI","","html-keyboard-response","342","468578","0.0-1.0-477.0","0","0","35674","","null","","","null","52","","","","","","","","","","","","","","","NaN",""
"","S1","","html-keyboard-response","343","468834","0.0-1.0-479.0","0","0","35674","","null","","","null","53","","","","","","","","","","","","","","","",""
"","ISI","","html-keyboard-response","344","470838","0.0-1.0-480.0","0","0","35674","","null","","","null","53","NaN","","","","","","","","","","","","","","",""
"","S2","","html-keyboard-response","345","471091","0.0-1.0-481.0","0","0","35674","","null","","","null","53","","NaN","","","","","","","","","","","","","",""
"","response","","html-keyboard-response","346","471658","0.0-1.0-482.0","0","0","35674","","563","","","75","53","","","2","53","training","adjacent","DC","4","3","N.jpg","P.jpg","0","0","1","",""
"","feedback","","html-keyboard-response","347","472663","0.0-1.0-483.0-0.0","0","0","35674","","null","","","null","53","","","","","","","","","","","","","","","",""
"","ITI","","html-keyboard-response","348","473668","0.0-1.0-486.0","0","0","35674","","null","","","null","53","","","","","","","","","","","","","","","NaN",""
"","S1","","html-keyboard-response","349","473923","0.0-1.0-488.0","0","0","35674","","null","","","null","54","","","","","","","","","","","","","","","",""
"","ISI","","html-keyboard-response","350","475926","0.0-1.0-489.0","0","0","35674","","null","","","null","54","NaN","","","","","","","","","","","","","","",""
"","S2","","html-keyboard-response","351","476182","0.0-1.0-490.0","0","0","35674","","null","","","null","54","","NaN","","","","","","","","","","","","","",""
"","response","","html-keyboard-response","352","476794","0.0-1.0-491.0","0","0","35674","","607","","","75","54","","","2","54","training","adjacent","ED","5","4","O.jpg","N.jpg","0","0","1","",""
"","feedback","","html-keyboard-response","353","477808","0.0-1.0-492.0-0.0","0","0","35674","","null","","","null","54","","","","","","","","","","","","","","","",""
"","ITI","","html-keyboard-response","354","478813","0.0-1.0-495.0","0","0","35674","","null","","","null","54","","","","","","","","","","","","","","","NaN",""
"","S1","","html-keyboard-response","355","479068","0.0-1.0-497.0","0","0","35674","","null","","","null","55","","","","","","","","","","","","","","","",""
"","ISI","","html-keyboard-response","356","481071","0.0-1.0-498.0","0","0","35674","","null","","","null","55","NaN","","","","","","","","","","","","","","",""
"","S2","","html-keyboard-response","357","481324","0.0-1.0-499.0","0","0","35674","","null","","","null","55","","NaN","","","","","","","","","","","","","",""
"","response","","html-keyboard-response","358","481727","0.0-1.0-500.0","0","0","35674","","398","","","68","55","","","2","55","training","adjacent","AB","1","2","Q.jpg","L.jpg","1","1","1","",""
"","feedback","","html-keyboard-response","359","482734","0.0-1.0-501.0-0.0","0","0","35674","","null","","","null","55","","","","","","","","","","","","","","","",""
"","ITI","","html-keyboard-response","360","483738","0.0-1.0-504.0","0","0","35674","","null","","","null","55","","","","","","","","","","","","","","","NaN",""
"","S1","","html-keyboard-response","361","483994","0.0-1.0-506.0","0","0","35674","","null","","","null","56","","","","","","","","","","","","","","","",""
"","ISI","","html-keyboard-response","362","486000","0.0-1.0-507.0","0","0","35674","","null","","","null","56","NaN","","","","","","","","","","","","","","",""
"","S2","","html-keyboard-response","363","486256","0.0-1.0-508.0","0","0","35674","","null","","","null","56","","NaN","","","","","","","","","","","","","",""
"","response","","html-keyboard-response","364","486616","0.0-1.0-509.0","0","0","35674","","356","","","68","56","","","2","56","training","adjacent","FG","6","7","M.jpg","R.jpg","1","1","1","",""
"","feedback","","html-keyboard-response","365","487620","0.0-1.0-510.0-0.0","0","0","35674","","null","","","null","56","","","","","","","","","","","","","","","",""
"","ITI","","html-keyboard-response","366","488623","0.0-1.0-513.0","0","0","35674","","null","","","null","56","","","","","","","","","","","","","","","NaN",""
"","S1","","html-keyboard-response","367","488877","0.0-1.0-515.0","0","0","35674","","null","","","null","57","","","","","","","","","","","","","","","",""
"","ISI","","html-keyboard-response","368","490882","0.0-1.0-516.0","0","0","35674","","null","","","null","57","NaN","","","","","","","","","","","","","","",""
"","S2","","html-keyboard-response","369","491139","0.0-1.0-517.0","0","0","35674","","null","","","null","57","","NaN","","","","","","","","","","","","","",""
"","response","","html-keyboard-response","370","491659","0.0-1.0-518.0","0","0","35674","","515","","","75","57","","","2","57","training","adjacent","ED","5","4","O.jpg","N.jpg","0","0","1","",""
"","feedback","","html-keyboard-response","371","492665","0.0-1.0-519.0-0.0","0","0","35674","","null","","","null","57","","","","","","","","","","","","","","","",""
"","ITI","","html-keyboard-response","372","493671","0.0-1.0-522.0","0","0","35674","","null","","","null","57","","","","","","","","","","","","","","","NaN",""
"","S1","","html-keyboard-response","373","493929","0.0-1.0-524.0","0","0","35674","","null","","","null","58","","","","","","","","","","","","","","","",""
"","ISI","","html-keyboard-response","374","495935","0.0-1.0-525.0","0","0","35674","","null","","","null","58","NaN","","","","","","","","","","","","","","",""
"","S2","","html-keyboard-response","375","496190","0.0-1.0-526.0","0","0","35674","","null","","","null","58","","NaN","","","","","","","","","","","","","",""
"","response","","html-keyboard-response","376","496911","0.0-1.0-527.0","0","0","35674","","716","","","68","58","","","2","58","training","adjacent","DE","4","5","N.jpg","O.jpg","1","1","1","",""
"","feedback","","html-keyboard-response","377","497918","0.0-1.0-528.0-0.0","0","0","35674","","null","","","null","58","","","","","","","","","","","","","","","",""
"","ITI","","html-keyboard-response","378","498924","0.0-1.0-531.0","0","0","35674","","null","","","null","58","","","","","","","","","","","","","","","NaN",""
"","S1","","html-keyboard-response","379","499181","0.0-1.0-533.0","0","0","35674","","null","","","null","59","","","","","","","","","","","","","","","",""
"","ISI","","html-keyboard-response","380","501183","0.0-1.0-534.0","0","0","35674","","null","","","null","59","NaN","","","","","","","","","","","","","","",""
"","S2","","html-keyboard-response","381","501438","0.0-1.0-535.0","0","0","35674","","null","","","null","59","","NaN","","","","","","","","","","","","","",""
"","response","","html-keyboard-response","382","501695","0.0-1.0-536.0","0","0","35674","","253","","","75","59","","","2","59","training","adjacent","BA","2","1","L.jpg","Q.jpg","0","0","1","",""
"","feedback","","html-keyboard-response","383","502713","0.0-1.0-537.0-0.0","0","0","35674","","null","","","null","59","","","","","","","","","","","","","","","",""
"","ITI","","html-keyboard-response","384","503721","0.0-1.0-540.0","0","0","35674","","null","","","null","59","","","","","","","","","","","","","","","NaN",""
"","S1","","html-keyboard-response","385","503976","0.0-1.0-542.0","0","0","35674","","null","","","null","60","","","","","","","","","","","","","","","",""
"","ISI","","html-keyboard-response","386","505983","0.0-1.0-543.0","0","0","35674","","null","","","null","60","NaN","","","","","","","","","","","","","","",""
"","S2","","html-keyboard-response","387","506237","0.0-1.0-544.0","0","0","35674","","null","","","null","60","","NaN","","","","","","","","","","","","","",""
"","response","","html-keyboard-response","388","506703","0.0-1.0-545.0","0","0","35674","","461","","","68","60","","","2","60","training","adjacent","AB","1","2","Q.jpg","L.jpg","1","1","1","",""
"","feedback","","html-keyboard-response","389","507710","0.0-1.0-546.0-0.0","0","0","35674","","null","","","null","60","","","","","","","","","","","","","","","",""
"","ITI","","html-keyboard-response","390","508716","0.0-1.0-549.0","0","0","35674","","null","","","null","60","","","","","","","","","","","","","","","NaN",""
"","S1","","html-keyboard-response","391","508972","0.0-1.0-551.0","0","0","35674","","null","","","null","61","","","","","","","","","","","","","","","",""
"","ISI","","html-keyboard-response","392","510977","0.0-1.0-552.0","0","0","35674","","null","","","null","61","NaN","","","","","","","","","","","","","","",""
"","S2","","html-keyboard-response","393","511233","0.0-1.0-553.0","0","0","35674","","null","","","null","61","","NaN","","","","","","","","","","","","","",""
"","response","","html-keyboard-response","394","511598","0.0-1.0-554.0","0","0","35674","","357","","","75","61","","","2","61","training","adjacent","GF","7","6","R.jpg","M.jpg","0","0","1","",""
"","feedback","","html-keyboard-response","395","512605","0.0-1.0-555.0-0.0","0","0","35674","","null","","","null","61","","","","","","","","","","","","","","","",""
"","ITI","","html-keyboard-response","396","513612","0.0-1.0-558.0","0","0","35674","","null","","","null","61","","","","","","","","","","","","","","","NaN",""
"","S1","","html-keyboard-response","397","513869","0.0-1.0-560.0","0","0","35674","","null","","","null","62","","","","","","","","","","","","","","","",""
"","ISI","","html-keyboard-response","398","515879","0.0-1.0-561.0","0","0","35674","","null","","","null","62","NaN","","","","","","","","","","","","","","",""
"","S2","","html-keyboard-response","399","516134","0.0-1.0-562.0","0","0","35674","","null","","","null","62","","NaN","","","","","","","","","","","","","",""
"","response","","html-keyboard-response","400","516704","0.0-1.0-563.0","0","0","35674","","567","","","68","62","","","2","62","training","adjacent","BC","2","3","L.jpg","P.jpg","1","1","1","",""
"","feedback","","html-keyboard-response","401","517710","0.0-1.0-564.0-0.0","0","0","35674","","null","","","null","62","","","","","","","","","","","","","","","",""
"","ITI","","html-keyboard-response","402","518716","0.0-1.0-567.0","0","0","35674","","null","","","null","62","","","","","","","","","","","","","","","NaN",""
"","S1","","html-keyboard-response","403","518971","0.0-1.0-569.0","0","0","35674","","null","","","null","63","","","","","","","","","","","","","","","",""
"","ISI","","html-keyboard-response","404","520974","0.0-1.0-570.0","0","0","35674","","null","","","null","63","NaN","","","","","","","","","","","","","","",""
"","S2","","html-keyboard-response","405","521230","0.0-1.0-571.0","0","0","35674","","null","","","null","63","","NaN","","","","","","","","","","","","","",""
"","response","","html-keyboard-response","406","521747","0.0-1.0-572.0","0","0","35674","","511","","","75","63","","","2","63","training","adjacent","DC","4","3","N.jpg","P.jpg","0","0","1","",""
"","feedback","","html-keyboard-response","407","522751","0.0-1.0-573.0-0.0","0","0","35674","","null","","","null","63","","","","","","","","","","","","","","","",""
"","ITI","","html-keyboard-response","408","523754","0.0-1.0-576.0","0","0","35674","","null","","","null","63","","","","","","","","","","","","","","","NaN",""
"","S1","","html-keyboard-response","409","524008","0.0-1.0-578.0","0","0","35674","","null","","","null","64","","","","","","","","","","","","","","","",""
"","ISI","","html-keyboard-response","410","526012","0.0-1.0-579.0","0","0","35674","","null","","","null","64","NaN","","","","","","","","","","","","","","",""
"","S2","","html-keyboard-response","411","526267","0.0-1.0-580.0","0","0","35674","","null","","","null","64","","NaN","","","","","","","","","","","","","",""
"","response","","html-keyboard-response","412","527057","0.0-1.0-581.0","0","0","35674","","785","","","68","64","","","2","64","training","adjacent","CD","3","4","P.jpg","N.jpg","1","1","1","",""
"","feedback","","html-keyboard-response","413","528062","0.0-1.0-582.0-0.0","0","0","35674","","null","","","null","64","","","","","","","","","","","","","","","",""
"","ITI","","html-keyboard-response","414","529068","0.0-1.0-585.0","0","0","35674","","null","","","null","64","","","","","","","","","","","","","","","NaN",""
"","S1","","html-keyboard-response","415","529324","0.0-1.0-587.0","0","0","35674","","null","","","null","65","","","","","","","","","","","","","","","",""
"","ISI","","html-keyboard-response","416","531330","0.0-1.0-588.0","0","0","35674","","null","","","null","65","NaN","","","","","","","","","","","","","","",""
"","S2","","html-keyboard-response","417","531584","0.0-1.0-589.0","0","0","35674","","null","","","null","65","","NaN","","","","","","","","","","","","","",""
"","response","","html-keyboard-response","418","532150","0.0-1.0-590.0","0","0","35674","","561","","","75","65","","","2","65","training","adjacent","DE","4","5","N.jpg","O.jpg","0","1","0","",""
"","feedback","","html-keyboard-response","419","533155","0.0-1.0-591.0-0.0","0","0","35674","","null","","","null","65","","","","","","","","","","","","","","","",""
"","time_out","","html-keyboard-response","420","535157","0.0-1.0-593.0-0.0","0","0","35674","","null","","","null","65","","","","","","","","","","","","","","","",""
"","ITI","","html-keyboard-response","421","536160","0.0-1.0-594.0","0","0","35674","","null","","","null","65","","","","","","","","","","","","","","","NaN",""
"","S1","","html-keyboard-response","422","536413","0.0-1.0-596.0","0","0","35674","","null","","","null","66","","","","","","","","","","","","","","","",""
"","ISI","","html-keyboard-response","423","538416","0.0-1.0-597.0","0","0","35674","","null","","","null","66","NaN","","","","","","","","","","","","","","",""
"","S2","","html-keyboard-response","424","538670","0.0-1.0-598.0","0","0","35674","","null","","","null","66","","NaN","","","","","","","","","","","","","",""
"","response","","html-keyboard-response","425","539078","0.0-1.0-599.0","0","0","35674","","406","","","68","66","","","2","66","training","adjacent","EF","5","6","O.jpg","M.jpg","1","1","1","",""
"","feedback","","html-keyboard-response","426","540080","0.0-1.0-600.0-0.0","0","0","35674","","null","","","null","66","","","","","","","","","","","","","","","",""
"","ITI","","html-keyboard-response","427","541085","0.0-1.0-603.0","0","0","35674","","null","","","null","66","","","","","","","","","","","","","","","NaN",""
"","S1","","html-keyboard-response","428","541340","0.0-1.0-605.0","0","0","35674","","null","","","null","67","","","","","","","","","","","","","","","",""
"","ISI","","html-keyboard-response","429","543344","0.0-1.0-606.0","0","0","35674","","null","","","null","67","NaN","","","","","","","","","","","","","","",""
"","S2","","html-keyboard-response","430","543600","0.0-1.0-607.0","0","0","35674","","null","","","null","67","","NaN","","","","","","","","","","","","","",""
"","response","","html-keyboard-response","431","544596","0.0-1.0-608.0","0","0","35674","","990","","","68","67","","","2","67","training","adjacent","CB","3","2","P.jpg","L.jpg","1","0","0","",""
"","feedback","","html-keyboard-response","432","545603","0.0-1.0-609.0-0.0","0","0","35674","","null","","","null","67","","","","","","","","","","","","","","","",""
"","time_out","","html-keyboard-response","433","547607","0.0-1.0-611.0-0.0","0","0","35674","","null","","","null","67","","","","","","","","","","","","","","","",""
"","ITI","","html-keyboard-response","434","548612","0.0-1.0-612.0","0","0","35674","","null","","","null","67","","","","","","","","","","","","","","","NaN",""
"","S1","","html-keyboard-response","435","548866","0.0-1.0-614.0","0","0","35674","","null","","","null","68","","","","","","","","","","","","","","","",""
"","ISI","","html-keyboard-response","436","550872","0.0-1.0-615.0","0","0","35674","","null","","","null","68","NaN","","","","","","","","","","","","","","",""
"","S2","","html-keyboard-response","437","551128","0.0-1.0-616.0","0","0","35674","","null","","","null","68","","NaN","","","","","","","","","","","","","",""
"","response","","html-keyboard-response","438","551492","0.0-1.0-617.0","0","0","35674","","359","","","68","68","","","2","68","training","adjacent","BC","2","3","L.jpg","P.jpg","1","1","1","",""
"","feedback","","html-keyboard-response","439","552498","0.0-1.0-618.0-0.0","0","0","35674","","null","","","null","68","","","","","","","","","","","","","","","",""
"","ITI","","html-keyboard-response","440","553505","0.0-1.0-621.0","0","0","35674","","null","","","null","68","","","","","","","","","","","","","","","NaN",""
"","S1","","html-keyboard-response","441","553761","0.0-1.0-623.0","0","0","35674","","null","","","null","69","","","","","","","","","","","","","","","",""
"","ISI","","html-keyboard-response","442","555767","0.0-1.0-624.0","0","0","35674","","null","","","null","69","NaN","","","","","","","","","","","","","","",""
"","S2","","html-keyboard-response","443","556023","0.0-1.0-625.0","0","0","35674","","null","","","null","69","","NaN","","","","","","","","","","","","","",""
"","response","","html-keyboard-response","444","556505","0.0-1.0-626.0","0","0","35674","","475","","","68","69","","","2","69","training","adjacent","ED","5","4","O.jpg","N.jpg","1","0","0","",""
"","feedback","","html-keyboard-response","445","557512","0.0-1.0-627.0-0.0","0","0","35674","","null","","","null","69","","","","","","","","","","","","","","","",""
"","time_out","","html-keyboard-response","446","559518","0.0-1.0-629.0-0.0","0","0","35674","","null","","","null","69","","","","","","","","","","","","","","","",""
"","ITI","","html-keyboard-response","447","560524","0.0-1.0-630.0","0","0","35674","","null","","","null","69","","","","","","","","","","","","","","","NaN",""
"","S1","","html-keyboard-response","448","560779","0.0-1.0-632.0","0","0","35674","","null","","","null","70","","","","","","","","","","","","","","","",""
"","ISI","","html-keyboard-response","449","562784","0.0-1.0-633.0","0","0","35674","","null","","","null","70","NaN","","","","","","","","","","","","","","",""
"","S2","","html-keyboard-response","450","563040","0.0-1.0-634.0","0","0","35674","","null","","","null","70","","NaN","","","","","","","","","","","","","",""
"","response","","html-keyboard-response","451","563418","0.0-1.0-635.0","0","0","35674","","374","","","68","70","","","2","70","training","adjacent","FG","6","7","M.jpg","R.jpg","1","1","1","",""
"","feedback","","html-keyboard-response","452","564423","0.0-1.0-636.0-0.0","0","0","35674","","null","","","null","70","","","","","","","","","","","","","","","",""
"","ITI","","html-keyboard-response","453","565429","0.0-1.0-639.0","0","0","35674","","null","","","null","70","","","","","","","","","","","","","","","NaN",""
"","S1","","html-keyboard-response","454","565683","0.0-1.0-641.0","0","0","35674","","null","","","null","71","","","","","","","","","","","","","","","",""
"","ISI","","html-keyboard-response","455","567689","0.0-1.0-642.0","0","0","35674","","null","","","null","71","NaN","","","","","","","","","","","","","","",""
"","S2","","html-keyboard-response","456","567945","0.0-1.0-643.0","0","0","35674","","null","","","null","71","","NaN","","","","","","","","","","","","","",""
"","response","","html-keyboard-response","457","568550","0.0-1.0-644.0","0","0","35674","","601","","","75","71","","","2","71","training","adjacent","CB","3","2","P.jpg","L.jpg","0","0","1","",""
"","feedback","","html-keyboard-response","458","569553","0.0-1.0-645.0-0.0","0","0","35674","","null","","","null","71","","","","","","","","","","","","","","","",""
"","ITI","","html-keyboard-response","459","570558","0.0-1.0-648.0","0","0","35674","","null","","","null","71","","","","","","","","","","","","","","","NaN",""
"","S1","","html-keyboard-response","460","570815","0.0-1.0-650.0","0","0","35674","","null","","","null","72","","","","","","","","","","","","","","","",""
"","ISI","","html-keyboard-response","461","572820","0.0-1.0-651.0","0","0","35674","","null","","","null","72","NaN","","","","","","","","","","","","","","",""
"","S2","","html-keyboard-response","462","573075","0.0-1.0-652.0","0","0","35674","","null","","","null","72","","NaN","","","","","","","","","","","","","",""
"","response","","html-keyboard-response","463","573354","0.0-1.0-653.0","0","0","35674","","274","","","68","72","","","2","72","training","adjacent","AB","1","2","Q.jpg","L.jpg","1","1","1","",""
"","feedback","","html-keyboard-response","464","574360","0.0-1.0-654.0-0.0","0","0","35674","","null","","","null","72","","","","","","","","","","","","","","","",""
"","ITI","","html-keyboard-response","465","575366","0.0-1.0-657.0","0","0","35674","","null","","","null","72","","","","","","","","","","","","","","","NaN",""
"","S1","","html-keyboard-response","466","575619","0.0-1.0-659.0","0","0","35674","","null","","","null","73","","","","","","","","","","","","","","","",""
"","ISI","","html-keyboard-response","467","577624","0.0-1.0-660.0","0","0","35674","","null","","","null","73","NaN","","","","","","","","","","","","","","",""
"","S2","","html-keyboard-response","468","577882","0.0-1.0-661.0","0","0","35674","","null","","","null","73","","NaN","","","","","","","","","","","","","",""
"","response","","html-keyboard-response","469","578138","0.0-1.0-662.0","0","0","35674","","252","","","75","73","","","2","73","training","adjacent","ED","5","4","O.jpg","N.jpg","0","0","1","",""
"","feedback","","html-keyboard-response","470","579142","0.0-1.0-663.0-0.0","0","0","35674","","null","","","null","73","","","","","","","","","","","","","","","",""
"","ITI","","html-keyboard-response","471","580146","0.0-1.0-666.0","0","0","35674","","null","","","null","73","","","","","","","","","","","","","","","NaN",""
"","S1","","html-keyboard-response","472","580401","0.0-1.0-668.0","0","0","35674","","null","","","null","74","","","","","","","","","","","","","","","",""
"","ISI","","html-keyboard-response","473","582406","0.0-1.0-669.0","0","0","35674","","null","","","null","74","NaN","","","","","","","","","","","","","","",""
"","S2","","html-keyboard-response","474","582662","0.0-1.0-670.0","0","0","35674","","null","","","null","74","","NaN","","","","","","","","","","","","","",""
"","response","","html-keyboard-response","475","582977","0.0-1.0-671.0","0","0","35674","","312","","","75","74","","","2","74","training","adjacent","BA","2","1","L.jpg","Q.jpg","0","0","1","",""
"","feedback","","html-keyboard-response","476","583981","0.0-1.0-672.0-0.0","0","0","35674","","null","","","null","74","","","","","","","","","","","","","","","",""
"","ITI","","html-keyboard-response","477","584986","0.0-1.0-675.0","0","0","35674","","null","","","null","74","","","","","","","","","","","","","","","NaN",""
"","S1","","html-keyboard-response","478","585243","0.0-1.0-677.0","0","0","35674","","null","","","null","75","","","","","","","","","","","","","","","",""
"","ISI","","html-keyboard-response","479","587247","0.0-1.0-678.0","0","0","35674","","null","","","null","75","NaN","","","","","","","","","","","","","","",""
"","S2","","html-keyboard-response","480","587516","0.0-1.0-679.0","0","0","35674","","null","","","null","75","","NaN","","","","","","","","","","","","","",""
"","response","","html-keyboard-response","481","588145","0.0-1.0-680.0","0","0","35674","","623","","","68","75","","","2","75","training","adjacent","CD","3","4","P.jpg","N.jpg","1","1","1","",""
"","feedback","","html-keyboard-response","482","589149","0.0-1.0-681.0-0.0","0","0","35674","","null","","","null","75","","","","","","","","","","","","","","","",""
"","ITI","","html-keyboard-response","483","590154","0.0-1.0-684.0","0","0","35674","","null","","","null","75","","","","","","","","","","","","","","","NaN",""
"","S1","","html-keyboard-response","484","590411","0.0-1.0-686.0","0","0","35674","","null","","","null","76","","","","","","","","","","","","","","","",""
"","ISI","","html-keyboard-response","485","592416","0.0-1.0-687.0","0","0","35674","","null","","","null","76","NaN","","","","","","","","","","","","","","",""
"","S2","","html-keyboard-response","486","592671","0.0-1.0-688.0","0","0","35674","","null","","","null","76","","NaN","","","","","","","","","","","","","",""
"","response","","html-keyboard-response","487","593201","0.0-1.0-689.0","0","0","35674","","526","","","68","76","","","2","76","training","adjacent","CD","3","4","P.jpg","N.jpg","1","1","1","",""
"","feedback","","html-keyboard-response","488","594205","0.0-1.0-690.0-0.0","0","0","35674","","null","","","null","76","","","","","","","","","","","","","","","",""
"","ITI","","html-keyboard-response","489","595211","0.0-1.0-693.0","0","0","35674","","null","","","null","76","","","","","","","","","","","","","","","NaN",""
"","S1","","html-keyboard-response","490","595467","0.0-1.0-695.0","0","0","35674","","null","","","null","77","","","","","","","","","","","","","","","",""
"","ISI","","html-keyboard-response","491","597471","0.0-1.0-696.0","0","0","35674","","null","","","null","77","NaN","","","","","","","","","","","","","","",""
"","S2","","html-keyboard-response","492","597723","0.0-1.0-697.0","0","0","35674","","null","","","null","77","","NaN","","","","","","","","","","","","","",""
"","response","","html-keyboard-response","493","598073","0.0-1.0-698.0","0","0","35674","","348","","","75","77","","","2","77","training","adjacent","CB","3","2","P.jpg","L.jpg","0","0","1","",""
"","feedback","","html-keyboard-response","494","599076","0.0-1.0-699.0-0.0","0","0","35674","","null","","","null","77","","","","","","","","","","","","","","","",""
"","ITI","","html-keyboard-response","495","600078","0.0-1.0-702.0","0","0","35674","","null","","","null","77","","","","","","","","","","","","","","","NaN",""
"","S1","","html-keyboard-response","496","600331","0.0-1.0-704.0","0","0","35674","","null","","","null","78","","","","","","","","","","","","","","","",""
"","ISI","","html-keyboard-response","497","602336","0.0-1.0-705.0","0","0","35674","","null","","","null","78","NaN","","","","","","","","","","","","","","",""
"","S2","","html-keyboard-response","498","602592","0.0-1.0-706.0","0","0","35674","","null","","","null","78","","NaN","","","","","","","","","","","","","",""
"","response","","html-keyboard-response","499","603034","0.0-1.0-707.0","0","0","35674","","437","","","75","78","","","2","78","training","adjacent","FE","6","5","M.jpg","O.jpg","0","0","1","",""
"","feedback","","html-keyboard-response","500","604045","0.0-1.0-708.0-0.0","0","0","35674","","null","","","null","78","","","","","","","","","","","","","","","",""
"","ITI","","html-keyboard-response","501","605051","0.0-1.0-711.0","0","0","35674","","null","","","null","78","","","","","","","","","","","","","","","NaN",""
"","S1","","html-keyboard-response","502","605307","0.0-1.0-713.0","0","0","35674","","null","","","null","79","","","","","","","","","","","","","","","",""
"","ISI","","html-keyboard-response","503","607312","0.0-1.0-714.0","0","0","35674","","null","","","null","79","NaN","","","","","","","","","","","","","","",""
"","S2","","html-keyboard-response","504","607567","0.0-1.0-715.0","0","0","35674","","null","","","null","79","","NaN","","","","","","","","","","","","","",""
"","response","","html-keyboard-response","505","608138","0.0-1.0-716.0","0","0","35674","","567","","","75","79","","","2","79","training","adjacent","DC","4","3","N.jpg","P.jpg","0","0","1","",""
"","feedback","","html-keyboard-response","506","609143","0.0-1.0-717.0-0.0","0","0","35674","","null","","","null","79","","","","","","","","","","","","","","","",""
"","ITI","","html-keyboard-response","507","610149","0.0-1.0-720.0","0","0","35674","","null","","","null","79","","","","","","","","","","","","","","","NaN",""
"","block_over","","html-keyboard-response","508","611538","0.0-1.0-721.0-0.0","0","0","35674","","1383","","","32","79","","","","","","","","","","","","","","","",""
"","S1","","html-keyboard-response","509","611790","0.0-1.0-722.0","0","0","35674","","null","","","null","80","","","","","","","","","","","","","","","",""
"","ISI","","html-keyboard-response","510","613807","0.0-1.0-723.0","0","0","35674","","null","","","null","80","NaN","","","","","","","","","","","","","","",""
"","S2","","html-keyboard-response","511","614062","0.0-1.0-724.0","0","0","35674","","null","","","null","80","","NaN","","","","","","","","","","","","","",""
"","response","","html-keyboard-response","512","614529","0.0-1.0-725.0","0","0","35674","","463","","","68","80","","","3","80","training","adjacent","BC","2","3","L.jpg","P.jpg","1","1","1","",""
"","feedback","","html-keyboard-response","513","615533","0.0-1.0-726.0-0.0","0","0","35674","","null","","","null","80","","","","","","","","","","","","","","","",""
"","ITI","","html-keyboard-response","514","616539","0.0-1.0-729.0","0","0","35674","","null","","","null","80","","","","","","","","","","","","","","","NaN",""
"","S1","","html-keyboard-response","515","616796","0.0-1.0-731.0","0","0","35674","","null","","","null","81","","","","","","","","","","","","","","","",""
"","ISI","","html-keyboard-response","516","618802","0.0-1.0-732.0","0","0","35674","","null","","","null","81","NaN","","","","","","","","","","","","","","",""
"","S2","","html-keyboard-response","517","619058","0.0-1.0-733.0","0","0","35674","","null","","","null","81","","NaN","","","","","","","","","","","","","",""
"","response","","html-keyboard-response","518","619333","0.0-1.0-734.0","0","0","35674","","270","","","75","81","","","3","81","training","adjacent","CD","3","4","P.jpg","N.jpg","0","1","0","",""
"","feedback","","html-keyboard-response","519","620344","0.0-1.0-735.0-0.0","0","0","35674","","null","","","null","81","","","","","","","","","","","","","","","",""
"","time_out","","html-keyboard-response","520","622348","0.0-1.0-737.0-0.0","0","0","35674","","null","","","null","81","","","","","","","","","","","","","","","",""
"","ITI","","html-keyboard-response","521","623354","0.0-1.0-738.0","0","0","35674","","null","","","null","81","","","","","","","","","","","","","","","NaN",""
"","S1","","html-keyboard-response","522","623609","0.0-1.0-740.0","0","0","35674","","null","","","null","82","","","","","","","","","","","","","","","",""
"","ISI","","html-keyboard-response","523","625612","0.0-1.0-741.0","0","0","35674","","null","","","null","82","NaN","","","","","","","","","","","","","","",""
"","S2","","html-keyboard-response","524","625865","0.0-1.0-742.0","0","0","35674","","null","","","null","82","","NaN","","","","","","","","","","","","","",""
"","response","","html-keyboard-response","525","626225","0.0-1.0-743.0","0","0","35674","","358","","","68","82","","","3","82","training","adjacent","FG","6","7","M.jpg","R.jpg","1","1","1","",""
"","feedback","","html-keyboard-response","526","627229","0.0-1.0-744.0-0.0","0","0","35674","","null","","","null","82","","","","","","","","","","","","","","","",""
"","ITI","","html-keyboard-response","527","628232","0.0-1.0-747.0","0","0","35674","","null","","","null","82","","","","","","","","","","","","","","","NaN",""
"","S1","","html-keyboard-response","528","628485","0.0-1.0-749.0","0","0","35674","","null","","","null","83","","","","","","","","","","","","","","","",""
"","ISI","","html-keyboard-response","529","630490","0.0-1.0-750.0","0","0","35674","","null","","","null","83","NaN","","","","","","","","","","","","","","",""
"","S2","","html-keyboard-response","530","630745","0.0-1.0-751.0","0","0","35674","","null","","","null","83","","NaN","","","","","","","","","","","","","",""
"","response","","html-keyboard-response","531","631096","0.0-1.0-752.0","0","0","35674","","347","","","68","83","","","3","83","training","adjacent","FG","6","7","M.jpg","R.jpg","1","1","1","",""
"","feedback","","html-keyboard-response","532","632105","0.0-1.0-753.0-0.0","0","0","35674","","null","","","null","83","","","","","","","","","","","","","","","",""
"","ITI","","html-keyboard-response","533","633108","0.0-1.0-756.0","0","0","35674","","null","","","null","83","","","","","","","","","","","","","","","NaN",""
"","S1","","html-keyboard-response","534","633361","0.0-1.0-758.0","0","0","35674","","null","","","null","84","","","","","","","","","","","","","","","",""
"","ISI","","html-keyboard-response","535","635365","0.0-1.0-759.0","0","0","35674","","null","","","null","84","NaN","","","","","","","","","","","","","","",""
"","S2","","html-keyboard-response","536","635620","0.0-1.0-760.0","0","0","35674","","null","","","null","84","","NaN","","","","","","","","","","","","","",""
"","response","","html-keyboard-response","537","636128","0.0-1.0-761.0","0","0","35674","","504","","","75","84","","","3","84","training","adjacent","CB","3","2","P.jpg","L.jpg","0","0","1","",""
"","feedback","","html-keyboard-response","538","637135","0.0-1.0-762.0-0.0","0","0","35674","","null","","","null","84","","","","","","","","","","","","","","","",""
"","ITI","","html-keyboard-response","539","638139","0.0-1.0-765.0","0","0","35674","","null","","","null","84","","","","","","","","","","","","","","","NaN",""
"","S1","","html-keyboard-response","540","638393","0.0-1.0-767.0","0","0","35674","","null","","","null","85","","","","","","","","","","","","","","","",""
"","ISI","","html-keyboard-response","541","640397","0.0-1.0-768.0","0","0","35674","","null","","","null","85","NaN","","","","","","","","","","","","","","",""
"","S2","","html-keyboard-response","542","640651","0.0-1.0-769.0","0","0","35674","","null","","","null","85","","NaN","","","","","","","","","","","","","",""
"","response","","html-keyboard-response","543","641193","0.0-1.0-770.0","0","0","35674","","536","","","68","85","","","3","85","training","adjacent","ED","5","4","O.jpg","N.jpg","1","0","0","",""
"","feedback","","html-keyboard-response","544","642197","0.0-1.0-771.0-0.0","0","0","35674","","null","","","null","85","","","","","","","","","","","","","","","",""
"","time_out","","html-keyboard-response","545","644201","0.0-1.0-773.0-0.0","0","0","35674","","null","","","null","85","","","","","","","","","","","","","","","",""
"","ITI","","html-keyboard-response","546","645206","0.0-1.0-774.0","0","0","35674","","null","","","null","85","","","","","","","","","","","","","","","NaN",""
"","S1","","html-keyboard-response","547","645462","0.0-1.0-776.0","0","0","35674","","null","","","null","86","","","","","","","","","","","","","","","",""
"","ISI","","html-keyboard-response","548","647466","0.0-1.0-777.0","0","0","35674","","null","","","null","86","NaN","","","","","","","","","","","","","","",""
"","S2","","html-keyboard-response","549","647719","0.0-1.0-778.0","0","0","35674","","null","","","null","86","","NaN","","","","","","","","","","","","","",""
"","response","","html-keyboard-response","550","648098","0.0-1.0-779.0","0","0","35674","","375","","","75","86","","","3","86","training","adjacent","BA","2","1","L.jpg","Q.jpg","0","0","1","",""
"","feedback","","html-keyboard-response","551","649105","0.0-1.0-780.0-0.0","0","0","35674","","null","","","null","86","","","","","","","","","","","","","","","",""
"","ITI","","html-keyboard-response","552","650110","0.0-1.0-783.0","0","0","35674","","null","","","null","86","","","","","","","","","","","","","","","NaN",""
"","S1","","html-keyboard-response","553","650363","0.0-1.0-785.0","0","0","35674","","null","","","null","87","","","","","","","","","","","","","","","",""
"","ISI","","html-keyboard-response","554","652366","0.0-1.0-786.0","0","0","35674","","null","","","null","87","NaN","","","","","","","","","","","","","","",""
"","S2","","html-keyboard-response","555","652620","0.0-1.0-787.0","0","0","35674","","null","","","null","87","","NaN","","","","","","","","","","","","","",""
"","response","","html-keyboard-response","556","653835","0.0-1.0-788.0","0","0","35674","","1211","","","68","87","","","3","87","training","adjacent","CD","3","4","P.jpg","N.jpg","1","1","1","",""
"","feedback","","html-keyboard-response","557","654839","0.0-1.0-789.0-0.0","0","0","35674","","null","","","null","87","","","","","","","","","","","","","","","",""
"","ITI","","html-keyboard-response","558","655844","0.0-1.0-792.0","0","0","35674","","null","","","null","87","","","","","","","","","","","","","","","NaN",""
"","S1","","html-keyboard-response","559","656099","0.0-1.0-794.0","0","0","35674","","null","","","null","88","","","","","","","","","","","","","","","",""
"","ISI","","html-keyboard-response","560","658103","0.0-1.0-795.0","0","0","35674","","null","","","null","88","NaN","","","","","","","","","","","","","","",""
"","S2","","html-keyboard-response","561","658360","0.0-1.0-796.0","0","0","35674","","null","","","null","88","","NaN","","","","","","","","","","","","","",""
"","response","","html-keyboard-response","562","658924","0.0-1.0-797.0","0","0","35674","","560","","","75","88","","","3","88","training","adjacent","EF","5","6","O.jpg","M.jpg","0","1","0","",""
"","feedback","","html-keyboard-response","563","659931","0.0-1.0-798.0-0.0","0","0","35674","","null","","","null","88","","","","","","","","","","","","","","","",""
"","time_out","","html-keyboard-response","564","661937","0.0-1.0-800.0-0.0","0","0","35674","","null","","","null","88","","","","","","","","","","","","","","","",""
"","ITI","","html-keyboard-response","565","662943","0.0-1.0-801.0","0","0","35674","","null","","","null","88","","","","","","","","","","","","","","","NaN",""
"","S1","","html-keyboard-response","566","663198","0.0-1.0-803.0","0","0","35674","","null","","","null","89","","","","","","","","","","","","","","","",""
"","ISI","","html-keyboard-response","567","665200","0.0-1.0-804.0","0","0","35674","","null","","","null","89","NaN","","","","","","","","","","","","","","",""
"","S2","","html-keyboard-response","568","665453","0.0-1.0-805.0","0","0","35674","","null","","","null","89","","NaN","","","","","","","","","","","","","",""
"","response","","html-keyboard-response","569","666154","0.0-1.0-806.0","0","0","35674","","699","","","75","89","","","3","89","training","adjacent","DC","4","3","N.jpg","P.jpg","0","0","1","",""
"","feedback","","html-keyboard-response","570","667157","0.0-1.0-807.0-0.0","0","0","35674","","null","","","null","89","","","","","","","","","","","","","","","",""
"","ITI","","html-keyboard-response","571","668161","0.0-1.0-810.0","0","0","35674","","null","","","null","89","","","","","","","","","","","","","","","NaN",""
"","S1","","html-keyboard-response","572","668414","0.0-1.0-812.0","0","0","35674","","null","","","null","90","","","","","","","","","","","","","","","",""
"","ISI","","html-keyboard-response","573","670416","0.0-1.0-813.0","0","0","35674","","null","","","null","90","NaN","","","","","","","","","","","","","","",""
"","S2","","html-keyboard-response","574","670670","0.0-1.0-814.0","0","0","35674","","null","","","null","90","","NaN","","","","","","","","","","","","","",""
"","response","","html-keyboard-response","575","671013","0.0-1.0-815.0","0","0","35674","","340","","","75","90","","","3","90","training","adjacent","BA","2","1","L.jpg","Q.jpg","0","0","1","",""
"","feedback","","html-keyboard-response","576","672017","0.0-1.0-816.0-0.0","0","0","35674","","null","","","null","90","","","","","","","","","","","","","","","",""
"","ITI","","html-keyboard-response","577","673037","0.0-1.0-819.0","0","0","35674","","null","","","null","90","","","","","","","","","","","","","","","NaN",""
"","S1","","html-keyboard-response","578","673290","0.0-1.0-821.0","0","0","35674","","null","","","null","91","","","","","","","","","","","","","","","",""
"","ISI","","html-keyboard-response","579","675294","0.0-1.0-822.0","0","0","35674","","null","","","null","91","NaN","","","","","","","","","","","","","","",""
"","S2","","html-keyboard-response","580","675548","0.0-1.0-823.0","0","0","35674","","null","","","null","91","","NaN","","","","","","","","","","","","","",""
"","response","","html-keyboard-response","581","675853","0.0-1.0-824.0","0","0","35674","","301","","","75","91","","","3","91","training","adjacent","GF","7","6","R.jpg","M.jpg","0","0","1","",""
"","feedback","","html-keyboard-response","582","676859","0.0-1.0-825.0-0.0","0","0","35674","","null","","","null","91","","","","","","","","","","","","","","","",""
"","ITI","","html-keyboard-response","583","677864","0.0-1.0-828.0","0","0","35674","","null","","","null","91","","","","","","","","","","","","","","","NaN",""
"","S1","","html-keyboard-response","584","678117","0.0-1.0-830.0","0","0","35674","","null","","","null","92","","","","","","","","","","","","","","","",""
