"success","ttype","start_time","trial_type","trial_index","time_elapsed","internal_node_id","warning","missed_checkup","PID","view_history","rt","responses","repeat_instructions","key_press","index","keypress_isi","keypress_S2","block","trial_num","phase","group_type","pair_type","S1_stim","S2_stim","S1_img","S2_img","S1_chosen","S1_higher","accuracy","keypress_iti","total_bonus_tally"
"true","full_screen","d03032023hr2236","fullscreen","0","29416","0.0-0.0","0","0","68207","","","","","","","","","","","","","","","","","","","","","",""
"","instructions","","instructions","1","56886","0.0-1.0-0.0-0.0","0","0","68207","[{""page_index"":0,""viewing_time"":5705},{""page_index"":1,""viewing_time"":16224},{""page_index"":2,""viewing_time"":4311},{""page_index"":3,""viewing_time"":1215}]","27458","","","","","","","","","","","","","","","","","","","",""
"","comprehension_check","","survey-multi-choice","2","69846","0.0-1.0-0.0-1.0","0","0","68207","","12927","{""Q0"":""True"",""Q1"":""D"",""Q2"":""Once the second image appears and while the screen 'MAKE A CHOICE' is shown"",""Q3"":""Green mark"",""Q4"":""either D or K""}","1","","","","","","","","","","","","","","","","","",""
"","missed_instruction_checkup","","html-keyboard-response","3","73596","0.0-1.0-0.0-2.0-0.0","0","1","68207","","3741","","","32","","","","","","","","","","","","","","","","",""
"","instructions","","instructions","4","77903","0.0-1.0-0.1-0.1","0","0","68207","[{""page_index"":0,""viewing_time"":1383},{""page_index"":1,""viewing_time"":734},{""page_index"":2,""viewing_time"":824},{""page_index"":3,""viewing_time"":1360}]","4301","","","","","","","","","","","","","","","","","","","",""
"","comprehension_check","","survey-multi-choice","5","138031","0.0-1.0-0.1-1.1","0","0","68207","","60107","{""Q0"":""True"",""Q1"":""D"",""Q2"":""Once the second image appears and while the screen 'MAKE A CHOICE' is shown"",""Q3"":""Green mark"",""Q4"":""either D or K""}","1","","","","","","","","","","","","","","","","","",""
"","missed_instruction_checkup","","html-keyboard-response","6","139987","0.0-1.0-0.1-2.1-0.1","0","1","68207","","1946","","","32","","","","","","","","","","","","","","","","",""
"","instructions","","instructions","7","154883","0.0-1.0-0.2-0.2","0","0","68207","[{""page_index"":0,""viewing_time"":3332},{""page_index"":1,""viewing_time"":799},{""page_index"":2,""viewing_time"":1409},{""page_index"":1,""viewing_time"":7742},{""page_index"":2,""viewing_time"":786},{""page_index"":3,""viewing_time"":815}]","14884","","","","","","","","","","","","","","","","","","","",""
"","comprehension_check","","survey-multi-choice","8","164600","0.0-1.0-0.2-1.2","0","0","68207","","9696","{""Q0"":""True"",""Q1"":""K"",""Q2"":""Once the second image appears and while the screen 'MAKE A CHOICE' is shown"",""Q3"":""Green mark"",""Q4"":""either D or K""}","0","","","","","","","","","","","","","","","","","",""
"","start_exp","","html-keyboard-response","9","166201","0.0-1.0-1.0","0","0","68207","","1592","","","32","","","","","","","","","","","","","","","","",""
"","S1","","html-keyboard-response","10","166460","0.0-1.0-2.0","0","0","68207","","null","","","null","0","","","","","","","","","","","","","","","",""
"","ISI","","html-keyboard-response","11","166966","0.0-1.0-3.0","0","0","68207","","null","","","null","0","NaN","","","","","","","","","","","","","","",""
"","S2","","html-keyboard-response","12","167223","0.0-1.0-4.0","0","0","68207","","null","","","null","0","","NaN","","","","","","","","","","","","","",""
"","response","","html-keyboard-response","13","168133","0.0-1.0-5.0-0.0","0","0","68207","","902","","","68","0","","","1","0","training","adjacent","FG","6","7","N.jpg","O.jpg","0","1","0","",""
"","feedback","","html-keyboard-response","14","169139","0.0-1.0-6.0-0.0","0","0","68207","","null","","","null","0","","","","","","","","","","","","","","","",""
"","time_out","","html-keyboard-response","15","171145","0.0-1.0-8.0-0.0","0","0","68207","","null","","","null","0","","","","","","","","","","","","","","","",""
"","ITI","","html-keyboard-response","16","172160","0.0-1.0-9.0","0","0","68207","","null","","","null","0","","","","","","","","","","","","","","","NaN",""
"","S1","","html-keyboard-response","17","172415","0.0-1.0-11.0","0","0","68207","","null","","","null","1","","","","","","","","","","","","","","","",""
"","ISI","","html-keyboard-response","18","172920","0.0-1.0-12.0","0","0","68207","","null","","","null","1","NaN","","","","","","","","","","","","","","",""
"","S2","","html-keyboard-response","19","173176","0.0-1.0-13.0","0","0","68207","","null","","","null","1","","NaN","","","","","","","","","","","","","",""
"","response","","html-keyboard-response","20","173976","0.0-1.0-14.0-0.0","0","0","68207","","793","","","75","1","","","1","1","training","adjacent","DC","4","3","M.jpg","L.jpg","1","0","0","",""
"","feedback","","html-keyboard-response","21","174981","0.0-1.0-15.0-0.0","0","0","68207","","null","","","null","1","","","","","","","","","","","","","","","",""
"","time_out","","html-keyboard-response","22","176987","0.0-1.0-17.0-0.0","0","0","68207","","null","","","null","1","","","","","","","","","","","","","","","",""
"","ITI","","html-keyboard-response","23","177993","0.0-1.0-18.0","0","0","68207","","null","","","null","1","","","","","","","","","","","","","","","NaN",""
"","S1","","html-keyboard-response","24","178248","0.0-1.0-20.0","0","0","68207","","null","","","null","2","","","","","","","","","","","","","","","",""
"","ISI","","html-keyboard-response","25","178751","0.0-1.0-21.0","0","0","68207","","null","","","null","2","NaN","","","","","","","","","","","","","","",""
"","S2","","html-keyboard-response","26","179005","0.0-1.0-22.0","0","0","68207","","null","","","null","2","","NaN","","","","","","","","","","","","","",""
"","response","","html-keyboard-response","27","179636","0.0-1.0-23.0-0.0","0","0","68207","","624","","","68","2","","","1","2","training","adjacent","FE","6","5","N.jpg","P.jpg","0","0","1","",""
"","feedback","","html-keyboard-response","28","180646","0.0-1.0-24.0-0.0","0","0","68207","","null","","","null","2","","","","","","","","","","","","","","","",""
"","ITI","","html-keyboard-response","29","181651","0.0-1.0-27.0","0","0","68207","","null","","","null","2","","","","","","","","","","","","","","","NaN",""
"","S1","","html-keyboard-response","30","181908","0.0-1.0-29.0","0","0","68207","","null","","","null","3","","","","","","","","","","","","","","","",""
"","ISI","","html-keyboard-response","31","182416","0.0-1.0-30.0","0","0","68207","","null","","","null","3","NaN","","","","","","","","","","","","","","",""
"","S2","","html-keyboard-response","32","182674","0.0-1.0-31.0","0","0","68207","","null","","","null","3","","NaN","","","","","","","","","","","","","",""
"","response","","html-keyboard-response","33","183415","0.0-1.0-32.0-0.0","0","0","68207","","739","","","68","3","","","1","3","training","adjacent","CB","3","2","L.jpg","Q.jpg","0","0","1","",""
"","feedback","","html-keyboard-response","34","184419","0.0-1.0-33.0-0.0","0","0","68207","","null","","","null","3","","","","","","","","","","","","","","","",""
"","ITI","","html-keyboard-response","35","185426","0.0-1.0-36.0","0","0","68207","","null","","","null","3","","","","","","","","","","","","","","","NaN",""
"","S1","","html-keyboard-response","36","185680","0.0-1.0-38.0","0","0","68207","","null","","","null","4","","","","","","","","","","","","","","","",""
"","ISI","","html-keyboard-response","37","186186","0.0-1.0-39.0","0","0","68207","","null","","","null","4","NaN","","","","","","","","","","","","","","",""
"","S2","","html-keyboard-response","38","186440","0.0-1.0-40.0","0","0","68207","","null","","","null","4","","NaN","","","","","","","","","","","","","",""
"","response","","html-keyboard-response","39","187164","0.0-1.0-41.0-0.0","0","0","68207","","718","","","68","4","","","1","4","training","adjacent","BC","2","3","Q.jpg","L.jpg","0","1","0","",""
"","feedback","","html-keyboard-response","40","188169","0.0-1.0-42.0-0.0","0","0","68207","","null","","","null","4","","","","","","","","","","","","","","","",""
"","time_out","","html-keyboard-response","41","190173","0.0-1.0-44.0-0.0","0","0","68207","","null","","","null","4","","","","","","","","","","","","","","","",""
"","ITI","","html-keyboard-response","42","191186","0.0-1.0-45.0","0","0","68207","","null","","","null","4","","","","","","","","","","","","","","","NaN",""
"","S1","","html-keyboard-response","43","191444","0.0-1.0-47.0","0","0","68207","","null","","","null","5","","","","","","","","","","","","","","","",""
"","ISI","","html-keyboard-response","44","191948","0.0-1.0-48.0","0","0","68207","","null","","","null","5","NaN","","","","","","","","","","","","","","",""
"","S2","","html-keyboard-response","45","192205","0.0-1.0-49.0","0","0","68207","","null","","","null","5","","NaN","","","","","","","","","","","","","",""
"","response","","html-keyboard-response","46","193032","0.0-1.0-50.0-0.0","0","0","68207","","822","","","75","5","","","1","5","training","adjacent","DC","4","3","M.jpg","L.jpg","1","0","0","",""
"","feedback","","html-keyboard-response","47","194041","0.0-1.0-51.0-0.0","0","0","68207","","null","","","null","5","","","","","","","","","","","","","","","",""
"","time_out","","html-keyboard-response","48","196046","0.0-1.0-53.0-0.0","0","0","68207","","null","","","null","5","","","","","","","","","","","","","","","",""
"","ITI","","html-keyboard-response","49","197053","0.0-1.0-54.0","0","0","68207","","null","","","null","5","","","","","","","","","","","","","","","NaN",""
"","S1","","html-keyboard-response","50","197307","0.0-1.0-56.0","0","0","68207","","null","","","null","6","","","","","","","","","","","","","","","",""
"","ISI","","html-keyboard-response","51","197812","0.0-1.0-57.0","0","0","68207","","null","","","null","6","NaN","","","","","","","","","","","","","","",""
"","S2","","html-keyboard-response","52","198069","0.0-1.0-58.0","0","0","68207","","null","","","null","6","","NaN","","","","","","","","","","","","","",""
"","response","","html-keyboard-response","53","198727","0.0-1.0-59.0-0.0","0","0","68207","","654","","","68","6","","","1","6","training","adjacent","EF","5","6","P.jpg","N.jpg","0","1","0","",""
"","feedback","","html-keyboard-response","54","199733","0.0-1.0-60.0-0.0","0","0","68207","","null","","","null","6","","","","","","","","","","","","","","","",""
"","time_out","","html-keyboard-response","55","201739","0.0-1.0-62.0-0.0","0","0","68207","","null","","","null","6","","","","","","","","","","","","","","","",""
"","ITI","","html-keyboard-response","56","202746","0.0-1.0-63.0","0","0","68207","","null","","","null","6","","","","","","","","","","","","","","","NaN",""
"","S1","","html-keyboard-response","57","203001","0.0-1.0-65.0","0","0","68207","","null","","","null","7","","","","","","","","","","","","","","","",""
"","ISI","","html-keyboard-response","58","203506","0.0-1.0-66.0","0","0","68207","","null","","","null","7","NaN","","","","","","","","","","","","","","",""
"","S2","","html-keyboard-response","59","203761","0.0-1.0-67.0","0","0","68207","","null","","","null","7","","NaN","","","","","","","","","","","","","",""
"","response","","html-keyboard-response","60","204581","0.0-1.0-68.0-0.0","0","0","68207","","817","","","75","7","","","1","7","training","adjacent","BA","2","1","Q.jpg","R.jpg","1","0","0","",""
"","feedback","","html-keyboard-response","61","205587","0.0-1.0-69.0-0.0","0","0","68207","","null","","","null","7","","","","","","","","","","","","","","","",""
"","time_out","","html-keyboard-response","62","207593","0.0-1.0-71.0-0.0","0","0","68207","","null","","","null","7","","","","","","","","","","","","","","","",""
"","ITI","","html-keyboard-response","63","208597","0.0-1.0-72.0","0","0","68207","","null","","","null","7","","","","","","","","","","","","","","","NaN",""
"","S1","","html-keyboard-response","64","208852","0.0-1.0-74.0","0","0","68207","","null","","","null","8","","","","","","","","","","","","","","","",""
"","ISI","","html-keyboard-response","65","209356","0.0-1.0-75.0","0","0","68207","","null","","","null","8","NaN","","","","","","","","","","","","","","",""
"","S2","","html-keyboard-response","66","209615","0.0-1.0-76.0","0","0","68207","","null","","","null","8","","NaN","","","","","","","","","","","","","",""
"","response","","html-keyboard-response","67","210402","0.0-1.0-77.0-0.0","0","0","68207","","783","","","68","8","","","1","8","training","adjacent","ED","5","4","P.jpg","M.jpg","0","0","1","",""
"","feedback","","html-keyboard-response","68","211406","0.0-1.0-78.0-0.0","0","0","68207","","null","","","null","8","","","","","","","","","","","","","","","",""
"","ITI","","html-keyboard-response","69","212414","0.0-1.0-81.0","0","0","68207","","null","","","null","8","","","","","","","","","","","","","","","NaN",""
"","S1","","html-keyboard-response","70","212670","0.0-1.0-83.0","0","0","68207","","null","","","null","9","","","","","","","","","","","","","","","",""
"","ISI","","html-keyboard-response","71","213174","0.0-1.0-84.0","0","0","68207","","null","","","null","9","NaN","","","","","","","","","","","","","","",""
"","S2","","html-keyboard-response","72","213428","0.0-1.0-85.0","0","0","68207","","null","","","null","9","","NaN","","","","","","","","","","","","","",""
"","response","","html-keyboard-response","73","214038","0.0-1.0-86.0-0.0","0","0","68207","","605","","","68","9","","","1","9","training","adjacent","BA","2","1","Q.jpg","R.jpg","0","0","1","",""
"","feedback","","html-keyboard-response","74","215046","0.0-1.0-87.0-0.0","0","0","68207","","null","","","null","9","","","","","","","","","","","","","","","",""
"","ITI","","html-keyboard-response","75","216056","0.0-1.0-90.0","0","0","68207","","null","","","null","9","","","","","","","","","","","","","","","NaN",""
"","S1","","html-keyboard-response","76","216314","0.0-1.0-92.0","0","0","68207","","null","","","null","10","","","","","","","","","","","","","","","",""
"","ISI","","html-keyboard-response","77","216818","0.0-1.0-93.0","0","0","68207","","null","","","null","10","NaN","","","","","","","","","","","","","","",""
"","S2","","html-keyboard-response","78","217075","0.0-1.0-94.0","0","0","68207","","null","","","null","10","","NaN","","","","","","","","","","","","","",""
"","response","","html-keyboard-response","79","217699","0.0-1.0-95.0-0.0","0","0","68207","","617","","","75","10","","","1","10","training","adjacent","BC","2","3","Q.jpg","L.jpg","1","1","1","",""
"","feedback","","html-keyboard-response","80","218708","0.0-1.0-96.0-0.0","0","0","68207","","null","","","null","10","","","","","","","","","","","","","","","",""
"","ITI","","html-keyboard-response","81","219713","0.0-1.0-99.0","0","0","68207","","null","","","null","10","","","","","","","","","","","","","","","NaN",""
"","S1","","html-keyboard-response","82","219975","0.0-1.0-101.0","0","0","68207","","null","","","null","11","","","","","","","","","","","","","","","",""
"","ISI","","html-keyboard-response","83","220481","0.0-1.0-102.0","0","0","68207","","null","","","null","11","NaN","","","","","","","","","","","","","","",""
"","S2","","html-keyboard-response","84","220738","0.0-1.0-103.0","0","0","68207","","null","","","null","11","","NaN","","","","","","","","","","","","","",""
"","response","","html-keyboard-response","85","221319","0.0-1.0-104.0-0.0","0","0","68207","","576","","","68","11","","","1","11","training","adjacent","AB","1","2","R.jpg","Q.jpg","0","1","0","",""
"","feedback","","html-keyboard-response","86","222322","0.0-1.0-105.0-0.0","0","0","68207","","null","","","null","11","","","","","","","","","","","","","","","",""
"","time_out","","html-keyboard-response","87","224338","0.0-1.0-107.0-0.0","0","0","68207","","null","","","null","11","","","","","","","","","","","","","","","",""
"","ITI","","html-keyboard-response","88","225347","0.0-1.0-108.0","0","0","68207","","null","","","null","11","","","","","","","","","","","","","","","NaN",""
"","S1","","html-keyboard-response","89","225605","0.0-1.0-110.0","0","0","68207","","null","","","null","12","","","","","","","","","","","","","","","",""
"","ISI","","html-keyboard-response","90","226109","0.0-1.0-111.0","0","0","68207","","null","","","null","12","NaN","","","","","","","","","","","","","","",""
"","S2","","html-keyboard-response","91","226364","0.0-1.0-112.0","0","0","68207","","null","","","null","12","","NaN","","","","","","","","","","","","","",""
"","response","","html-keyboard-response","92","226830","0.0-1.0-113.0-0.0","0","0","68207","","465","","","75","12","","","1","12","training","adjacent","CD","3","4","L.jpg","M.jpg","1","1","1","",""
"","feedback","","html-keyboard-response","93","227844","0.0-1.0-114.0-0.0","0","0","68207","","null","","","null","12","","","","","","","","","","","","","","","",""
"","ITI","","html-keyboard-response","94","228852","0.0-1.0-117.0","0","0","68207","","null","","","null","12","","","","","","","","","","","","","","","NaN",""
"","S1","","html-keyboard-response","95","229111","0.0-1.0-119.0","0","0","68207","","null","","","null","13","","","","","","","","","","","","","","","",""
"","ISI","","html-keyboard-response","96","229617","0.0-1.0-120.0","0","0","68207","","null","","","null","13","NaN","","","","","","","","","","","","","","",""
"","S2","","html-keyboard-response","97","229876","0.0-1.0-121.0","0","0","68207","","null","","","null","13","","NaN","","","","","","","","","","","","","",""
"","response","","html-keyboard-response","98","230564","0.0-1.0-122.0-0.0","0","0","68207","","679","","","68","13","","","1","13","training","adjacent","FG","6","7","N.jpg","O.jpg","0","1","0","",""
"","feedback","","html-keyboard-response","99","231572","0.0-1.0-123.0-0.0","0","0","68207","","null","","","null","13","","","","","","","","","","","","","","","",""
"","time_out","","html-keyboard-response","100","233577","0.0-1.0-125.0-0.0","0","0","68207","","null","","","null","13","","","","","","","","","","","","","","","",""
"","ITI","","html-keyboard-response","101","234578","0.0-1.0-126.0","0","0","68207","","null","","","null","13","","","","","","","","","","","","","","","NaN",""
"","S1","","html-keyboard-response","102","234833","0.0-1.0-128.0","0","0","68207","","null","","","null","14","","","","","","","","","","","","","","","",""
"","ISI","","html-keyboard-response","103","235337","0.0-1.0-129.0","0","0","68207","","null","","","null","14","NaN","","","","","","","","","","","","","","",""
"","S2","","html-keyboard-response","104","235593","0.0-1.0-130.0","0","0","68207","","null","","","null","14","","NaN","","","","","","","","","","","","","",""
"","response","","html-keyboard-response","105","236012","0.0-1.0-131.0-0.0","0","0","68207","","416","","","75","14","","","1","14","training","adjacent","FG","6","7","N.jpg","O.jpg","1","1","1","",""
"","feedback","","html-keyboard-response","106","237019","0.0-1.0-132.0-0.0","0","0","68207","","null","","","null","14","","","","","","","","","","","","","","","",""
"","ITI","","html-keyboard-response","107","238024","0.0-1.0-135.0","0","0","68207","","null","","","null","14","","","","","","","","","","","","","","","NaN",""
"","S1","","html-keyboard-response","108","238278","0.0-1.0-137.0","0","0","68207","","null","","","null","15","","","","","","","","","","","","","","","",""
"","ISI","","html-keyboard-response","109","238783","0.0-1.0-138.0","0","0","68207","","null","","","null","15","NaN","","","","","","","","","","","","","","",""
"","S2","","html-keyboard-response","110","239039","0.0-1.0-139.0","0","0","68207","","null","","","null","15","","NaN","","","","","","","","","","","","","",""
"","response","","html-keyboard-response","111","239774","0.0-1.0-140.0-0.0","0","0","68207","","729","","","75","15","","","1","15","training","adjacent","BC","2","3","Q.jpg","L.jpg","1","1","1","",""
"","feedback","","html-keyboard-response","112","240782","0.0-1.0-141.0-0.0","0","0","68207","","null","","","null","15","","","","","","","","","","","","","","","",""
"","ITI","","html-keyboard-response","113","241788","0.0-1.0-144.0","0","0","68207","","null","","","null","15","","","","","","","","","","","","","","","NaN",""
"","S1","","html-keyboard-response","114","242042","0.0-1.0-146.0","0","0","68207","","null","","","null","16","","","","","","","","","","","","","","","",""
"","ISI","","html-keyboard-response","115","242548","0.0-1.0-147.0","0","0","68207","","null","","","null","16","NaN","","","","","","","","","","","","","","",""
"","S2","","html-keyboard-response","116","242808","0.0-1.0-148.0","0","0","68207","","null","","","null","16","","NaN","","","","","","","","","","","","","",""
"","response","","html-keyboard-response","117","243275","0.0-1.0-149.0-0.0","0","0","68207","","458","","","68","16","","","1","16","training","adjacent","DC","4","3","M.jpg","L.jpg","0","0","1","",""
"","feedback","","html-keyboard-response","118","244283","0.0-1.0-150.0-0.0","0","0","68207","","null","","","null","16","","","","","","","","","","","","","","","",""
"","ITI","","html-keyboard-response","119","245289","0.0-1.0-153.0","0","0","68207","","null","","","null","16","","","","","","","","","","","","","","","NaN",""
"","S1","","html-keyboard-response","120","245546","0.0-1.0-155.0","0","0","68207","","null","","","null","17","","","","","","","","","","","","","","","",""
"","ISI","","html-keyboard-response","121","246052","0.0-1.0-156.0","0","0","68207","","null","","","null","17","NaN","","","","","","","","","","","","","","",""
"","S2","","html-keyboard-response","122","246309","0.0-1.0-157.0","0","0","68207","","null","","","null","17","","NaN","","","","","","","","","","","","","",""
"","response","","html-keyboard-response","123","247525","0.0-1.0-158.0-0.0","0","0","68207","","1210","","","75","17","","","1","17","training","adjacent","EF","5","6","P.jpg","N.jpg","1","1","1","",""
"","feedback","","html-keyboard-response","124","248534","0.0-1.0-159.0-0.0","0","0","68207","","null","","","null","17","","","","","","","","","","","","","","","",""
"","ITI","","html-keyboard-response","125","249540","0.0-1.0-162.0","0","0","68207","","null","","","null","17","","","","","","","","","","","","","","","NaN",""
"","S1","","html-keyboard-response","126","249795","0.0-1.0-164.0","0","0","68207","","null","","","null","18","","","","","","","","","","","","","","","",""
"","ISI","","html-keyboard-response","127","250299","0.0-1.0-165.0","0","0","68207","","null","","","null","18","NaN","","","","","","","","","","","","","","",""
"","S2","","html-keyboard-response","128","250553","0.0-1.0-166.0","0","0","68207","","null","","","null","18","","NaN","","","","","","","","","","","","","",""
"","response","","html-keyboard-response","129","251162","0.0-1.0-167.0-0.0","0","0","68207","","603","","","68","18","","","1","18","training","adjacent","ED","5","4","P.jpg","M.jpg","0","0","1","",""
"","feedback","","html-keyboard-response","130","252169","0.0-1.0-168.0-0.0","0","0","68207","","null","","","null","18","","","","","","","","","","","","","","","",""
"","ITI","","html-keyboard-response","131","253175","0.0-1.0-171.0","0","0","68207","","null","","","null","18","","","","","","","","","","","","","","","NaN",""
"","S1","","html-keyboard-response","132","253431","0.0-1.0-173.0","0","0","68207","","null","","","null","19","","","","","","","","","","","","","","","",""
"","ISI","","html-keyboard-response","133","253936","0.0-1.0-174.0","0","0","68207","","null","","","null","19","NaN","","","","","","","","","","","","","","",""
"","S2","","html-keyboard-response","134","254191","0.0-1.0-175.0","0","0","68207","","null","","","null","19","","NaN","","","","","","","","","","","","","",""
"","response","","html-keyboard-response","135","255211","0.0-1.0-176.0-0.0","0","0","68207","","1015","","","75","19","","","1","19","training","adjacent","CB","3","2","L.jpg","Q.jpg","1","0","0","",""
"","feedback","","html-keyboard-response","136","256216","0.0-1.0-177.0-0.0","0","0","68207","","null","","","null","19","","","","","","","","","","","","","","","",""
"","time_out","","html-keyboard-response","137","258221","0.0-1.0-179.0-0.0","0","0","68207","","null","","","null","19","","","","","","","","","","","","","","","",""
"","ITI","","html-keyboard-response","138","259228","0.0-1.0-180.0","0","0","68207","","null","","","null","19","","","","","","","","","","","","","","","NaN",""
"","S1","","html-keyboard-response","139","259493","0.0-1.0-182.0","0","0","68207","","null","","","null","20","","","","","","","","","","","","","","","",""
"","ISI","","html-keyboard-response","140","260001","0.0-1.0-183.0","0","0","68207","","null","","","null","20","NaN","","","","","","","","","","","","","","",""
"","S2","","html-keyboard-response","141","260258","0.0-1.0-184.0","0","0","68207","","null","","","null","20","","NaN","","","","","","","","","","","","","",""
"","response","","html-keyboard-response","142","260949","0.0-1.0-185.0-0.0","0","0","68207","","687","","","75","20","","","1","20","training","adjacent","AB","1","2","R.jpg","Q.jpg","1","1","1","",""
"","feedback","","html-keyboard-response","143","261953","0.0-1.0-186.0-0.0","0","0","68207","","null","","","null","20","","","","","","","","","","","","","","","",""
"","ITI","","html-keyboard-response","144","262958","0.0-1.0-189.0","0","0","68207","","null","","","null","20","","","","","","","","","","","","","","","NaN",""
"","S1","","html-keyboard-response","145","263223","0.0-1.0-191.0","0","0","68207","","null","","","null","21","","","","","","","","","","","","","","","",""
"","ISI","","html-keyboard-response","146","263727","0.0-1.0-192.0","0","0","68207","","null","","","null","21","NaN","","","","","","","","","","","","","","",""
"","S2","","html-keyboard-response","147","263983","0.0-1.0-193.0","0","0","68207","","null","","","null","21","","NaN","","","","","","","","","","","","","",""
"","response","","html-keyboard-response","148","264809","0.0-1.0-194.0-0.0","0","0","68207","","820","","","75","21","","","1","21","training","adjacent","DC","4","3","M.jpg","L.jpg","1","0","0","",""
"","feedback","","html-keyboard-response","149","265815","0.0-1.0-195.0-0.0","0","0","68207","","null","","","null","21","","","","","","","","","","","","","","","",""
"","time_out","","html-keyboard-response","150","267822","0.0-1.0-197.0-0.0","0","0","68207","","null","","","null","21","","","","","","","","","","","","","","","",""
"","ITI","","html-keyboard-response","151","268829","0.0-1.0-198.0","0","0","68207","","null","","","null","21","","","","","","","","","","","","","","","NaN",""
"","S1","","html-keyboard-response","152","269086","0.0-1.0-200.0","0","0","68207","","null","","","null","22","","","","","","","","","","","","","","","",""
"","ISI","","html-keyboard-response","153","269593","0.0-1.0-201.0","0","0","68207","","null","","","null","22","NaN","","","","","","","","","","","","","","",""
"","S2","","html-keyboard-response","154","269850","0.0-1.0-202.0","0","0","68207","","null","","","null","22","","NaN","","","","","","","","","","","","","",""
"","response","","html-keyboard-response","155","270411","0.0-1.0-203.0-0.0","0","0","68207","","556","","","68","22","","","1","22","training","adjacent","CB","3","2","L.jpg","Q.jpg","0","0","1","",""
"","feedback","","html-keyboard-response","156","271423","0.0-1.0-204.0-0.0","0","0","68207","","null","","","null","22","","","","","","","","","","","","","","","",""
"","ITI","","html-keyboard-response","157","272428","0.0-1.0-207.0","0","0","68207","","null","","","null","22","","","","","","","","","","","","","","","NaN",""
"","S1","","html-keyboard-response","158","272685","0.0-1.0-209.0","0","0","68207","","null","","","null","23","","","","","","","","","","","","","","","",""
"","ISI","","html-keyboard-response","159","273189","0.0-1.0-210.0","0","0","68207","","null","","","null","23","NaN","","","","","","","","","","","","","","",""
"","S2","","html-keyboard-response","160","273444","0.0-1.0-211.0","0","0","68207","","null","","","null","23","","NaN","","","","","","","","","","","","","",""
"","response","","html-keyboard-response","161","273805","0.0-1.0-212.0-0.0","0","0","68207","","354","","","75","23","","","1","23","training","adjacent","GF","7","6","O.jpg","N.jpg","1","0","0","",""
"","feedback","","html-keyboard-response","162","274810","0.0-1.0-213.0-0.0","0","0","68207","","null","","","null","23","","","","","","","","","","","","","","","",""
"","time_out","","html-keyboard-response","163","276817","0.0-1.0-215.0-0.0","0","0","68207","","null","","","null","23","","","","","","","","","","","","","","","",""
"","ITI","","html-keyboard-response","164","277824","0.0-1.0-216.0","0","0","68207","","null","","","null","23","","","","","","","","","","","","","","","NaN",""
"","S1","","html-keyboard-response","165","278080","0.0-1.0-218.0","0","0","68207","","null","","","null","24","","","","","","","","","","","","","","","",""
"","ISI","","html-keyboard-response","166","278585","0.0-1.0-219.0","0","0","68207","","null","","","null","24","NaN","","","","","","","","","","","","","","",""
"","S2","","html-keyboard-response","167","278841","0.0-1.0-220.0","0","0","68207","","null","","","null","24","","NaN","","","","","","","","","","","","","",""
"","response","","html-keyboard-response","168","279353","0.0-1.0-221.0-0.0","0","0","68207","","507","","","75","24","","","1","24","training","adjacent","FE","6","5","N.jpg","P.jpg","1","0","0","",""
"","feedback","","html-keyboard-response","169","280359","0.0-1.0-222.0-0.0","0","0","68207","","null","","","null","24","","","","","","","","","","","","","","","",""
"","time_out","","html-keyboard-response","170","282365","0.0-1.0-224.0-0.0","0","0","68207","","null","","","null","24","","","","","","","","","","","","","","","",""
"","ITI","","html-keyboard-response","171","283369","0.0-1.0-225.0","0","0","68207","","null","","","null","24","","","","","","","","","","","","","","","NaN",""
"","S1","","html-keyboard-response","172","283626","0.0-1.0-227.0","0","0","68207","","null","","","null","25","","","","","","","","","","","","","","","",""
"","ISI","","html-keyboard-response","173","284134","0.0-1.0-228.0","0","0","68207","","null","","","null","25","NaN","","","","","","","","","","","","","","",""
"","S2","","html-keyboard-response","174","284368","0.0-1.0-229.0","0","0","68207","","226","","","75","25","","k","1","25","training","adjacent","GF","7","6","O.jpg","N.jpg","1","0","0","",""
"","feedback","","html-keyboard-response","175","285377","0.0-1.0-231.0-0.0","0","0","68207","","null","","","null","25","","","","","","","","","","","","","","","",""
"","time_out","","html-keyboard-response","176","287382","0.0-1.0-233.0-0.0","0","0","68207","","null","","","null","25","","","","","","","","","","","","","","","",""
"","ITI","","html-keyboard-response","177","288386","0.0-1.0-234.0","0","0","68207","","null","","","null","25","","","","","","","","","","","","","","","NaN",""
"","S1","","html-keyboard-response","178","288641","0.0-1.0-236.0","0","0","68207","","null","","","null","26","","","","","","","","","","","","","","","",""
"","ISI","","html-keyboard-response","179","289145","0.0-1.0-237.0","0","0","68207","","null","","","null","26","NaN","","","","","","","","","","","","","","",""
"","S2","","html-keyboard-response","180","289402","0.0-1.0-238.0","0","0","68207","","null","","","null","26","","NaN","","","","","","","","","","","","","",""
"","response","","html-keyboard-response","181","289629","0.0-1.0-239.0-0.0","0","0","68207","","220","","","75","26","","","1","26","training","adjacent","ED","5","4","P.jpg","M.jpg","1","0","0","",""
"","feedback","","html-keyboard-response","182","290638","0.0-1.0-240.0-0.0","0","0","68207","","null","","","null","26","","","","","","","","","","","","","","","",""
"","time_out","","html-keyboard-response","183","292644","0.0-1.0-242.0-0.0","0","0","68207","","null","","","null","26","","","","","","","","","","","","","","","",""
"","ITI","","html-keyboard-response","184","293648","0.0-1.0-243.0","0","0","68207","","null","","","null","26","","","","","","","","","","","","","","","NaN",""
"","S1","","html-keyboard-response","185","293902","0.0-1.0-245.0","0","0","68207","","null","","","null","27","","","","","","","","","","","","","","","",""
"","ISI","","html-keyboard-response","186","294406","0.0-1.0-246.0","0","0","68207","","null","","","null","27","NaN","","","","","","","","","","","","","","",""
"","S2","","html-keyboard-response","187","294664","0.0-1.0-247.0","0","0","68207","","null","","","null","27","","NaN","","","","","","","","","","","","","",""
"","response","","html-keyboard-response","188","294876","0.0-1.0-248.0-0.0","0","0","68207","","207","","","68","27","","","1","27","training","adjacent","GF","7","6","O.jpg","N.jpg","0","0","1","",""
"","feedback","","html-keyboard-response","189","295890","0.0-1.0-249.0-0.0","0","0","68207","","null","","","null","27","","","","","","","","","","","","","","","",""
"","ITI","","html-keyboard-response","190","296894","0.0-1.0-252.0","0","0","68207","","null","","","null","27","","","","","","","","","","","","","","","NaN",""
"","S1","","html-keyboard-response","191","297149","0.0-1.0-254.0","0","0","68207","","null","","","null","28","","","","","","","","","","","","","","","",""
"","ISI","","html-keyboard-response","192","297653","0.0-1.0-255.0","0","0","68207","","null","","","null","28","NaN","","","","","","","","","","","","","","",""
"","S2","","html-keyboard-response","193","297908","0.0-1.0-256.0","0","0","68207","","null","","","null","28","","NaN","","","","","","","","","","","","","",""
"","response","","html-keyboard-response","194","298513","0.0-1.0-257.0-0.0","0","0","68207","","597","","","68","28","","","1","28","training","adjacent","ED","5","4","P.jpg","M.jpg","0","0","1","",""
"","feedback","","html-keyboard-response","195","299521","0.0-1.0-258.0-0.0","0","0","68207","","null","","","null","28","","","","","","","","","","","","","","","",""
"","ITI","","html-keyboard-response","196","300525","0.0-1.0-261.0","0","0","68207","","null","","","null","28","","","","","","","","","","","","","","","NaN",""
"","S1","","html-keyboard-response","197","300784","0.0-1.0-263.0","0","0","68207","","null","","","null","29","","","","","","","","","","","","","","","",""
"","ISI","","html-keyboard-response","198","301290","0.0-1.0-264.0","0","0","68207","","null","","","null","29","NaN","","","","","","","","","","","","","","",""
"","S2","","html-keyboard-response","199","301545","0.0-1.0-265.0","0","0","68207","","null","","","null","29","","NaN","","","","","","","","","","","","","",""
"","response","","html-keyboard-response","200","302323","0.0-1.0-266.0-0.0","0","0","68207","","773","","","75","29","","","1","29","training","adjacent","CD","3","4","L.jpg","M.jpg","1","1","1","",""
"","feedback","","html-keyboard-response","201","303331","0.0-1.0-267.0-0.0","0","0","68207","","null","","","null","29","","","","","","","","","","","","","","","",""
"","ITI","","html-keyboard-response","202","304337","0.0-1.0-270.0","0","0","68207","","null","","","null","29","","","","","","","","","","","","","","","NaN",""
"","S1","","html-keyboard-response","203","304593","0.0-1.0-272.0","0","0","68207","","null","","","null","30","","","","","","","","","","","","","","","",""
"","ISI","","html-keyboard-response","204","305097","0.0-1.0-273.0","0","0","68207","","null","","","null","30","NaN","","","","","","","","","","","","","","",""
"","S2","","html-keyboard-response","205","305351","0.0-1.0-274.0","0","0","68207","","null","","","null","30","","NaN","","","","","","","","","","","","","",""
"","response","","html-keyboard-response","206","305992","0.0-1.0-275.0-0.0","0","0","68207","","637","","","68","30","","","1","30","training","adjacent","AB","1","2","R.jpg","Q.jpg","0","1","0","",""
"","feedback","","html-keyboard-response","207","306999","0.0-1.0-276.0-0.0","0","0","68207","","null","","","null","30","","","","","","","","","","","","","","","",""
"","time_out","","html-keyboard-response","208","309003","0.0-1.0-278.0-0.0","0","0","68207","","null","","","null","30","","","","","","","","","","","","","","","",""
"","ITI","","html-keyboard-response","209","310011","0.0-1.0-279.0","0","0","68207","","null","","","null","30","","","","","","","","","","","","","","","NaN",""
"","S1","","html-keyboard-response","210","310268","0.0-1.0-281.0","0","0","68207","","null","","","null","31","","","","","","","","","","","","","","","",""
"","ISI","","html-keyboard-response","211","310772","0.0-1.0-282.0","0","0","68207","","null","","","null","31","NaN","","","","","","","","","","","","","","",""
"","S2","","html-keyboard-response","212","311030","0.0-1.0-283.0","0","0","68207","","null","","","null","31","","NaN","","","","","","","","","","","","","",""
"","response","","html-keyboard-response","213","311165","0.0-1.0-284.0-0.0","0","0","68207","","131","","","75","31","","","1","31","training","adjacent","DE","4","5","M.jpg","P.jpg","1","1","1","",""
"","feedback","","html-keyboard-response","214","312174","0.0-1.0-285.0-0.0","0","0","68207","","null","","","null","31","","","","","","","","","","","","","","","",""
"","ITI","","html-keyboard-response","215","313182","0.0-1.0-288.0","0","0","68207","","null","","","null","31","","","","","","","","","","","","","","","NaN",""
"","S1","","html-keyboard-response","216","313438","0.0-1.0-290.0","0","0","68207","","null","","","null","32","","","","","","","","","","","","","","","",""
"","ISI","","html-keyboard-response","217","313942","0.0-1.0-291.0","0","0","68207","","null","","","null","32","NaN","","","","","","","","","","","","","","",""
"","S2","","html-keyboard-response","218","314201","0.0-1.0-292.0","0","0","68207","","null","","","null","32","","NaN","","","","","","","","","","","","","",""
"","response","","html-keyboard-response","219","314860","0.0-1.0-293.0-0.0","0","0","68207","","653","","","75","32","","","1","32","training","adjacent","BA","2","1","Q.jpg","R.jpg","1","0","0","",""
"","feedback","","html-keyboard-response","220","315867","0.0-1.0-294.0-0.0","0","0","68207","","null","","","null","32","","","","","","","","","","","","","","","",""
"","time_out","","html-keyboard-response","221","317873","0.0-1.0-296.0-0.0","0","0","68207","","null","","","null","32","","","","","","","","","","","","","","","",""
"","ITI","","html-keyboard-response","222","318877","0.0-1.0-297.0","0","0","68207","","null","","","null","32","","","","","","","","","","","","","","","NaN",""
"","S1","","html-keyboard-response","223","319130","0.0-1.0-299.0","0","0","68207","","null","","","null","33","","","","","","","","","","","","","","","",""
"","ISI","","html-keyboard-response","224","319635","0.0-1.0-300.0","0","0","68207","","null","","","null","33","NaN","","","","","","","","","","","","","","",""
"","S2","","html-keyboard-response","225","319890","0.0-1.0-301.0","0","0","68207","","null","","","null","33","","NaN","","","","","","","","","","","","","",""
"","response","","html-keyboard-response","226","320702","0.0-1.0-302.0-0.0","0","0","68207","","806","","","68","33","","","1","33","training","adjacent","DE","4","5","M.jpg","P.jpg","0","1","0","",""
"","feedback","","html-keyboard-response","227","321705","0.0-1.0-303.0-0.0","0","0","68207","","null","","","null","33","","","","","","","","","","","","","","","",""
"","time_out","","html-keyboard-response","228","323710","0.0-1.0-305.0-0.0","0","0","68207","","null","","","null","33","","","","","","","","","","","","","","","",""
"","ITI","","html-keyboard-response","229","324715","0.0-1.0-306.0","0","0","68207","","null","","","null","33","","","","","","","","","","","","","","","NaN",""
"","S1","","html-keyboard-response","230","324970","0.0-1.0-308.0","0","0","68207","","null","","","null","34","","","","","","","","","","","","","","","",""
"","ISI","","html-keyboard-response","231","325473","0.0-1.0-309.0","0","0","68207","","null","","","null","34","NaN","","","","","","","","","","","","","","",""
"","S2","","html-keyboard-response","232","325734","0.0-1.0-310.0","0","0","68207","","null","","","null","34","","NaN","","","","","","","","","","","","","",""
"","response","","html-keyboard-response","233","326130","0.0-1.0-311.0-0.0","0","0","68207","","391","","","75","34","","","1","34","training","adjacent","GF","7","6","O.jpg","N.jpg","1","0","0","",""
"","feedback","","html-keyboard-response","234","327135","0.0-1.0-312.0-0.0","0","0","68207","","null","","","null","34","","","","","","","","","","","","","","","",""
"","time_out","","html-keyboard-response","235","329143","0.0-1.0-314.0-0.0","0","0","68207","","null","","","null","34","","","","","","","","","","","","","","","",""
"","ITI","","html-keyboard-response","236","330151","0.0-1.0-315.0","0","0","68207","","null","","","null","34","","","","","","","","","","","","","","","NaN",""
"","S1","","html-keyboard-response","237","330406","0.0-1.0-317.0","0","0","68207","","null","","","null","35","","","","","","","","","","","","","","","",""
"","ISI","","html-keyboard-response","238","330910","0.0-1.0-318.0","0","0","68207","","null","","","null","35","NaN","","","","","","","","","","","","","","",""
"","S2","","html-keyboard-response","239","331166","0.0-1.0-319.0","0","0","68207","","null","","","null","35","","NaN","","","","","","","","","","","","","",""
"","response","","html-keyboard-response","240","331827","0.0-1.0-320.0-0.0","0","0","68207","","657","","","68","35","","","1","35","training","adjacent","CB","3","2","L.jpg","Q.jpg","0","0","1","",""
"","feedback","","html-keyboard-response","241","332834","0.0-1.0-321.0-0.0","0","0","68207","","null","","","null","35","","","","","","","","","","","","","","","",""
"","ITI","","html-keyboard-response","242","333841","0.0-1.0-324.0","0","0","68207","","null","","","null","35","","","","","","","","","","","","","","","NaN",""
"","S1","","html-keyboard-response","243","334095","0.0-1.0-326.0","0","0","68207","","null","","","null","36","","","","","","","","","","","","","","","",""
"","ISI","","html-keyboard-response","244","334600","0.0-1.0-327.0","0","0","68207","","null","","","null","36","NaN","","","","","","","","","","","","","","",""
"","S2","","html-keyboard-response","245","334854","0.0-1.0-328.0","0","0","68207","","null","","","null","36","","NaN","","","","","","","","","","","","","",""
"","response","","html-keyboard-response","246","335394","0.0-1.0-329.0-0.0","0","0","68207","","535","","","68","36","","","1","36","training","adjacent","BA","2","1","Q.jpg","R.jpg","0","0","1","",""
"","feedback","","html-keyboard-response","247","336399","0.0-1.0-330.0-0.0","0","0","68207","","null","","","null","36","","","","","","","","","","","","","","","",""
"","ITI","","html-keyboard-response","248","337403","0.0-1.0-333.0","0","0","68207","","null","","","null","36","","","","","","","","","","","","","","","NaN",""
"","S1","","html-keyboard-response","249","337661","0.0-1.0-335.0","0","0","68207","","null","","","null","37","","","","","","","","","","","","","","","",""
"","ISI","","html-keyboard-response","250","338166","0.0-1.0-336.0","0","0","68207","","null","","","null","37","NaN","","","","","","","","","","","","","","",""
"","S2","","html-keyboard-response","251","338423","0.0-1.0-337.0","0","0","68207","","null","","","null","37","","NaN","","","","","","","","","","","","","",""
"","response","","html-keyboard-response","252","339057","0.0-1.0-338.0-0.0","0","0","68207","","631","","","75","37","","","1","37","training","adjacent","FE","6","5","N.jpg","P.jpg","1","0","0","",""
"","feedback","","html-keyboard-response","253","340063","0.0-1.0-339.0-0.0","0","0","68207","","null","","","null","37","","","","","","","","","","","","","","","",""
"","time_out","","html-keyboard-response","254","342071","0.0-1.0-341.0-0.0","0","0","68207","","null","","","null","37","","","","","","","","","","","","","","","",""
"","ITI","","html-keyboard-response","255","343079","0.0-1.0-342.0","0","0","68207","","null","","","null","37","","","","","","","","","","","","","","","NaN",""
"","S1","","html-keyboard-response","256","343333","0.0-1.0-344.0","0","0","68207","","null","","","null","38","","","","","","","","","","","","","","","",""
"","ISI","","html-keyboard-response","257","343836","0.0-1.0-345.0","0","0","68207","","null","","","null","38","NaN","","","","","","","","","","","","","","",""
"","S2","","html-keyboard-response","258","344093","0.0-1.0-346.0","0","0","68207","","null","","","null","38","","NaN","","","","","","","","","","","","","",""
"","response","","html-keyboard-response","259","344435","0.0-1.0-347.0-0.0","0","0","68207","","336","","","68","38","","","1","38","training","adjacent","DE","4","5","M.jpg","P.jpg","0","1","0","",""
"","feedback","","html-keyboard-response","260","345445","0.0-1.0-348.0-0.0","0","0","68207","","null","","","null","38","","","","","","","","","","","","","","","",""
"","time_out","","html-keyboard-response","261","347451","0.0-1.0-350.0-0.0","0","0","68207","","null","","","null","38","","","","","","","","","","","","","","","",""
"","ITI","","html-keyboard-response","262","348458","0.0-1.0-351.0","0","0","68207","","null","","","null","38","","","","","","","","","","","","","","","NaN",""
"","S1","","html-keyboard-response","263","348715","0.0-1.0-353.0","0","0","68207","","null","","","null","39","","","","","","","","","","","","","","","",""
"","ISI","","html-keyboard-response","264","349221","0.0-1.0-354.0","0","0","68207","","null","","","null","39","NaN","","","","","","","","","","","","","","",""
"","S2","","html-keyboard-response","265","349476","0.0-1.0-355.0","0","0","68207","","null","","","null","39","","NaN","","","","","","","","","","","","","",""
"","response","","html-keyboard-response","266","350189","0.0-1.0-356.0-0.0","0","0","68207","","707","","","75","39","","","1","39","training","adjacent","BC","2","3","Q.jpg","L.jpg","1","1","1","",""
"","feedback","","html-keyboard-response","267","351195","0.0-1.0-357.0-0.0","0","0","68207","","null","","","null","39","","","","","","","","","","","","","","","",""
"","ITI","","html-keyboard-response","268","352201","0.0-1.0-360.0","0","0","68207","","null","","","null","39","","","","","","","","","","","","","","","NaN",""
"","S1","","html-keyboard-response","269","352454","0.0-1.0-362.0","0","0","68207","","null","","","null","40","","","","","","","","","","","","","","","",""
"","ISI","","html-keyboard-response","270","352959","0.0-1.0-363.0","0","0","68207","","null","","","null","40","NaN","","","","","","","","","","","","","","",""
"","S2","","html-keyboard-response","271","353214","0.0-1.0-364.0","0","0","68207","","null","","","null","40","","NaN","","","","","","","","","","","","","",""
"","response","","html-keyboard-response","272","353816","0.0-1.0-365.0-0.0","0","0","68207","","599","","","75","40","","","1","40","training","adjacent","CD","3","4","L.jpg","M.jpg","1","1","1","",""
"","feedback","","html-keyboard-response","273","354822","0.0-1.0-366.0-0.0","0","0","68207","","null","","","null","40","","","","","","","","","","","","","","","",""
"","ITI","","html-keyboard-response","274","355830","0.0-1.0-369.0","0","0","68207","","null","","","null","40","","","","","","","","","","","","","","","NaN",""
"","S1","","html-keyboard-response","275","356087","0.0-1.0-371.0","0","0","68207","","null","","","null","41","","","","","","","","","","","","","","","",""
"","ISI","","html-keyboard-response","276","356593","0.0-1.0-372.0","0","0","68207","","null","","","null","41","NaN","","","","","","","","","","","","","","",""
"","S2","","html-keyboard-response","277","356851","0.0-1.0-373.0","0","0","68207","","null","","","null","41","","NaN","","","","","","","","","","","","","",""
"","response","","html-keyboard-response","278","358132","0.0-1.0-374.0-0.0","0","0","68207","","1276","","","75","41","","","1","41","training","adjacent","EF","5","6","P.jpg","N.jpg","1","1","1","",""
"","feedback","","html-keyboard-response","279","359141","0.0-1.0-375.0-0.0","0","0","68207","","null","","","null","41","","","","","","","","","","","","","","","",""
"","ITI","","html-keyboard-response","280","360146","0.0-1.0-378.0","0","0","68207","","null","","","null","41","","","","","","","","","","","","","","","NaN",""
"","S1","","html-keyboard-response","281","360402","0.0-1.0-380.0","0","0","68207","","null","","","null","42","","","","","","","","","","","","","","","",""
"","ISI","","html-keyboard-response","282","360914","0.0-1.0-381.0","0","0","68207","","null","","","null","42","NaN","","","","","","","","","","","","","","",""
"","S2","","html-keyboard-response","283","361171","0.0-1.0-382.0","0","0","68207","","null","","","null","42","","NaN","","","","","","","","","","","","","",""
"","response","","html-keyboard-response","284","361725","0.0-1.0-383.0-0.0","0","0","68207","","549","","","75","42","","","1","42","training","adjacent","AB","1","2","R.jpg","Q.jpg","1","1","1","",""
"","feedback","","html-keyboard-response","285","362733","0.0-1.0-384.0-0.0","0","0","68207","","null","","","null","42","","","","","","","","","","","","","","","",""
"","ITI","","html-keyboard-response","286","363740","0.0-1.0-387.0","0","0","68207","","null","","","null","42","","","","","","","","","","","","","","","NaN",""
"","S1","","html-keyboard-response","287","363996","0.0-1.0-389.0","0","0","68207","","null","","","null","43","","","","","","","","","","","","","","","",""
"","ISI","","html-keyboard-response","288","364499","0.0-1.0-390.0","0","0","68207","","null","","","null","43","NaN","","","","","","","","","","","","","","",""
"","S2","","html-keyboard-response","289","364755","0.0-1.0-391.0","0","0","68207","","null","","","null","43","","NaN","","","","","","","","","","","","","",""
"","response","","html-keyboard-response","290","365262","0.0-1.0-392.0-0.0","0","0","68207","","501","","","68","43","","","1","43","training","adjacent","FG","6","7","N.jpg","O.jpg","0","1","0","",""
"","feedback","","html-keyboard-response","291","366269","0.0-1.0-393.0-0.0","0","0","68207","","null","","","null","43","","","","","","","","","","","","","","","",""
"","time_out","","html-keyboard-response","292","368275","0.0-1.0-395.0-0.0","0","0","68207","","null","","","null","43","","","","","","","","","","","","","","","",""
"","ITI","","html-keyboard-response","293","369281","0.0-1.0-396.0","0","0","68207","","null","","","null","43","","","","","","","","","","","","","","","NaN",""
"","S1","","html-keyboard-response","294","369536","0.0-1.0-398.0","0","0","68207","","null","","","null","44","","","","","","","","","","","","","","","",""
"","ISI","","html-keyboard-response","295","370039","0.0-1.0-399.0","0","0","68207","","null","","","null","44","NaN","","","","","","","","","","","","","","",""
"","S2","","html-keyboard-response","296","370294","0.0-1.0-400.0","0","0","68207","","null","","","null","44","","NaN","","","","","","","","","","","","","",""
"","response","","html-keyboard-response","297","370499","0.0-1.0-401.0-0.0","0","0","68207","","199","","","68","44","","","1","44","training","adjacent","FE","6","5","N.jpg","P.jpg","0","0","1","",""
"","feedback","","html-keyboard-response","298","371503","0.0-1.0-402.0-0.0","0","0","68207","","null","","","null","44","","","","","","","","","","","","","","","",""
"","ITI","","html-keyboard-response","299","372509","0.0-1.0-405.0","0","0","68207","","null","","","null","44","","","","","","","","","","","","","","","NaN",""
"","S1","","html-keyboard-response","300","372762","0.0-1.0-407.0","0","0","68207","","null","","","null","45","","","","","","","","","","","","","","","",""
"","ISI","","html-keyboard-response","301","373267","0.0-1.0-408.0","0","0","68207","","null","","","null","45","NaN","","","","","","","","","","","","","","",""
"","S2","","html-keyboard-response","302","373523","0.0-1.0-409.0","0","0","68207","","null","","","null","45","","NaN","","","","","","","","","","","","","",""
"","response","","html-keyboard-response","303","373693","0.0-1.0-410.0-0.0","0","0","68207","","167","","","75","45","","","1","45","training","adjacent","DE","4","5","M.jpg","P.jpg","1","1","1","",""
"","feedback","","html-keyboard-response","304","374708","0.0-1.0-411.0-0.0","0","0","68207","","null","","","null","45","","","","","","","","","","","","","","","",""
"","ITI","","html-keyboard-response","305","375713","0.0-1.0-414.0","0","0","68207","","null","","","null","45","","","","","","","","","","","","","","","NaN",""
"","S1","","html-keyboard-response","306","375967","0.0-1.0-416.0","0","0","68207","","null","","","null","46","","","","","","","","","","","","","","","",""
"","ISI","","html-keyboard-response","307","376473","0.0-1.0-417.0","0","0","68207","","null","","","null","46","NaN","","","","","","","","","","","","","","",""
"","S2","","html-keyboard-response","308","376719","0.0-1.0-418.0","0","0","68207","","240","","","68","46","","d","1","46","training","adjacent","EF","5","6","P.jpg","N.jpg","0","1","0","",""
"","feedback","","html-keyboard-response","309","377724","0.0-1.0-420.0-0.0","0","0","68207","","null","","","null","46","","","","","","","","","","","","","","","",""
"","time_out","","html-keyboard-response","310","379731","0.0-1.0-422.0-0.0","0","0","68207","","null","","","null","46","","","","","","","","","","","","","","","",""
"","ITI","","html-keyboard-response","311","380737","0.0-1.0-423.0","0","0","68207","","null","","","null","46","","","","","","","","","","","","","","","NaN",""
"","S1","","html-keyboard-response","312","380992","0.0-1.0-425.0","0","0","68207","","null","","","null","47","","","","","","","","","","","","","","","",""
"","ISI","","html-keyboard-response","313","381496","0.0-1.0-426.0","0","0","68207","","302","","","68","47","d","","","","","","","","","","","","","","",""
"","S2","","html-keyboard-response","314","381753","0.0-1.0-427.0","0","0","68207","","null","","","null","47","","NaN","","","","","","","","","","","","","",""
"","response","","html-keyboard-response","315","382189","0.0-1.0-428.0-0.0","0","0","68207","","430","","","68","47","","","1","47","training","adjacent","CD","3","4","L.jpg","M.jpg","0","1","0","",""
"","feedback","","html-keyboard-response","316","383194","0.0-1.0-429.0-0.0","0","0","68207","","null","","","null","47","","","","","","","","","","","","","","","",""
"","time_out","","html-keyboard-response","317","385197","0.0-1.0-431.0-0.0","0","0","68207","","null","","","null","47","","","","","","","","","","","","","","","",""
"","ITI","","html-keyboard-response","318","386202","0.0-1.0-432.0","0","0","68207","","null","","","null","47","","","","","","","","","","","","","","","NaN",""
"","block_over","","html-keyboard-response","319","390627","0.0-1.0-433.0-0.0","0","0","68207","","4419","","","32","47","","","","","","","","","","","","","","","",""
"","S1","","html-keyboard-response","320","390882","0.0-1.0-434.0","0","0","68207","","null","","","null","48","","","","","","","","","","","","","","","",""
"","ISI","","html-keyboard-response","321","391391","0.0-1.0-435.0","0","0","68207","","null","","","null","48","NaN","","","","","","","","","","","","","","",""
"","S2","","html-keyboard-response","322","391646","0.0-1.0-436.0","0","0","68207","","null","","","null","48","","NaN","","","","","","","","","","","","","",""
"","response","","html-keyboard-response","323","392004","0.0-1.0-437.0-0.0","0","0","68207","","354","","","75","48","","","2","48","training","adjacent","BC","2","3","Q.jpg","L.jpg","1","1","1","",""
"","feedback","","html-keyboard-response","324","393012","0.0-1.0-438.0-0.0","0","0","68207","","null","","","null","48","","","","","","","","","","","","","","","",""
"","ITI","","html-keyboard-response","325","394019","0.0-1.0-441.0","0","0","68207","","null","","","null","48","","","","","","","","","","","","","","","NaN",""
"","S1","","html-keyboard-response","326","394276","0.0-1.0-443.0","0","0","68207","","null","","","null","49","","","","","","","","","","","","","","","",""
"","ISI","","html-keyboard-response","327","394781","0.0-1.0-444.0","0","0","68207","","null","","","null","49","NaN","","","","","","","","","","","","","","",""
"","S2","","html-keyboard-response","328","395036","0.0-1.0-445.0","0","0","68207","","null","","","null","49","","NaN","","","","","","","","","","","","","",""
"","response","","html-keyboard-response","329","396018","0.0-1.0-446.0-0.0","0","0","68207","","975","","","68","49","","","2","49","training","adjacent","CB","3","2","L.jpg","Q.jpg","0","0","1","",""
"","feedback","","html-keyboard-response","330","397026","0.0-1.0-447.0-0.0","0","0","68207","","null","","","null","49","","","","","","","","","","","","","","","",""
"","ITI","","html-keyboard-response","331","398032","0.0-1.0-450.0","0","0","68207","","null","","","null","49","","","","","","","","","","","","","","","NaN",""
"","S1","","html-keyboard-response","332","398288","0.0-1.0-452.0","0","0","68207","","null","","","null","50","","","","","","","","","","","","","","","",""
"","ISI","","html-keyboard-response","333","398797","0.0-1.0-453.0","0","0","68207","","null","","","null","50","NaN","","","","","","","","","","","","","","",""
"","S2","","html-keyboard-response","334","399058","0.0-1.0-454.0","0","0","68207","","null","","","null","50","","NaN","","","","","","","","","","","","","",""
"","response","","html-keyboard-response","335","400071","0.0-1.0-455.0-0.0","0","0","68207","","1006","","","68","50","","","2","50","training","adjacent","BA","2","1","Q.jpg","R.jpg","0","0","1","",""
"","feedback","","html-keyboard-response","336","401078","0.0-1.0-456.0-0.0","0","0","68207","","null","","","null","50","","","","","","","","","","","","","","","",""
"","ITI","","html-keyboard-response","337","402084","0.0-1.0-459.0","0","0","68207","","null","","","null","50","","","","","","","","","","","","","","","NaN",""
"","S1","","html-keyboard-response","338","402339","0.0-1.0-461.0","0","0","68207","","null","","","null","51","","","","","","","","","","","","","","","",""
"","ISI","","html-keyboard-response","339","402846","0.0-1.0-462.0","0","0","68207","","null","","","null","51","NaN","","","","","","","","","","","","","","",""
"","S2","","html-keyboard-response","340","403102","0.0-1.0-463.0","0","0","68207","","null","","","null","51","","NaN","","","","","","","","","","","","","",""
"","response","","html-keyboard-response","341","404858","0.0-1.0-464.0-0.0","0","0","68207","","null","","","null","51","","","2","51","training","adjacent","FE","6","5","N.jpg","P.jpg","NaN","0","0","",""
"","too_slow_prompt","","html-keyboard-response","342","405863","0.0-1.0-466.0-0.0","1","0","68207","","null","","","null","","","","","","","","","","","","","","","","",""
"","time_out","","html-keyboard-response","343","407868","0.0-1.0-467.0-0.0","0","0","68207","","null","","","null","51","","","","","","","","","","","","","","","",""
"","ITI","","html-keyboard-response","344","408872","0.0-1.0-468.0","0","0","68207","","337","","","75","51","","","","","","","","","","","","","","","k",""
"","S1","","html-keyboard-response","345","409127","0.0-1.0-470.0","0","0","68207","","null","","","null","52","","","","","","","","","","","","","","","",""
"","ISI","","html-keyboard-response","346","409631","0.0-1.0-471.0","0","0","68207","","null","","","null","52","NaN","","","","","","","","","","","","","","",""
"","S2","","html-keyboard-response","347","409884","0.0-1.0-472.0","0","0","68207","","null","","","null","52","","NaN","","","","","","","","","","","","","",""
"","response","","html-keyboard-response","348","409904","0.0-1.0-473.0-0.0","0","0","68207","","17","","","75","52","","","2","52","training","adjacent","FG","6","7","N.jpg","O.jpg","1","1","1","",""
"","feedback","","html-keyboard-response","349","410910","0.0-1.0-474.0-0.0","0","0","68207","","null","","","null","52","","","","","","","","","","","","","","","",""
"","ITI","","html-keyboard-response","350","411915","0.0-1.0-477.0","0","0","68207","","null","","","null","52","","","","","","","","","","","","","","","NaN",""
"","S1","","html-keyboard-response","351","412169","0.0-1.0-479.0","0","0","68207","","null","","","null","53","","","","","","","","","","","","","","","",""
"","ISI","","html-keyboard-response","352","412675","0.0-1.0-480.0","0","0","68207","","null","","","null","53","NaN","","","","","","","","","","","","","","",""
"","S2","","html-keyboard-response","353","412933","0.0-1.0-481.0","0","0","68207","","null","","","null","53","","NaN","","","","","","","","","","","","","",""
"","response","","html-keyboard-response","354","413600","0.0-1.0-482.0-0.0","0","0","68207","","662","","","75","53","","","2","53","training","adjacent","DE","4","5","M.jpg","P.jpg","1","1","1","",""
"","feedback","","html-keyboard-response","355","414603","0.0-1.0-483.0-0.0","0","0","68207","","null","","","null","53","","","","","","","","","","","","","","","",""
"","ITI","","html-keyboard-response","356","415610","0.0-1.0-486.0","0","0","68207","","null","","","null","53","","","","","","","","","","","","","","","NaN",""
"","S1","","html-keyboard-response","357","415866","0.0-1.0-488.0","0","0","68207","","null","","","null","54","","","","","","","","","","","","","","","",""
"","ISI","","html-keyboard-response","358","416370","0.0-1.0-489.0","0","0","68207","","null","","","null","54","NaN","","","","","","","","","","","","","","",""
"","S2","","html-keyboard-response","359","416626","0.0-1.0-490.0","0","0","68207","","null","","","null","54","","NaN","","","","","","","","","","","","","",""
"","response","","html-keyboard-response","360","417180","0.0-1.0-491.0-0.0","0","0","68207","","548","","","68","54","","","2","54","training","adjacent","GF","7","6","O.jpg","N.jpg","0","0","1","",""
"","feedback","","html-keyboard-response","361","418186","0.0-1.0-492.0-0.0","0","0","68207","","null","","","null","54","","","","","","","","","","","","","","","",""
"","ITI","","html-keyboard-response","362","419191","0.0-1.0-495.0","0","0","68207","","null","","","null","54","","","","","","","","","","","","","","","NaN",""
"","S1","","html-keyboard-response","363","419448","0.0-1.0-497.0","0","0","68207","","null","","","null","55","","","","","","","","","","","","","","","",""
"","ISI","","html-keyboard-response","364","419951","0.0-1.0-498.0","0","0","68207","","null","","","null","55","NaN","","","","","","","","","","","","","","",""
"","S2","","html-keyboard-response","365","420205","0.0-1.0-499.0","0","0","68207","","null","","","null","55","","NaN","","","","","","","","","","","","","",""
"","response","","html-keyboard-response","366","420888","0.0-1.0-500.0-0.0","0","0","68207","","676","","","75","55","","","2","55","training","adjacent","FG","6","7","N.jpg","O.jpg","1","1","1","",""
"","feedback","","html-keyboard-response","367","421897","0.0-1.0-501.0-0.0","0","0","68207","","null","","","null","55","","","","","","","","","","","","","","","",""
"","ITI","","html-keyboard-response","368","422906","0.0-1.0-504.0","0","0","68207","","null","","","null","55","","","","","","","","","","","","","","","NaN",""
"","S1","","html-keyboard-response","369","423166","0.0-1.0-506.0","0","0","68207","","null","","","null","56","","","","","","","","","","","","","","","",""
"","ISI","","html-keyboard-response","370","423679","0.0-1.0-507.0","0","0","68207","","null","","","null","56","NaN","","","","","","","","","","","","","","",""
"","S2","","html-keyboard-response","371","423934","0.0-1.0-508.0","0","0","68207","","null","","","null","56","","NaN","","","","","","","","","","","","","",""
"","response","","html-keyboard-response","372","424415","0.0-1.0-509.0-0.0","0","0","68207","","477","","","75","56","","","2","56","training","adjacent","FG","6","7","N.jpg","O.jpg","1","1","1","",""
"","feedback","","html-keyboard-response","373","425419","0.0-1.0-510.0-0.0","0","0","68207","","null","","","null","56","","","","","","","","","","","","","","","",""
"","ITI","","html-keyboard-response","374","426423","0.0-1.0-513.0","0","0","68207","","null","","","null","56","","","","","","","","","","","","","","","NaN",""
"","S1","","html-keyboard-response","375","426679","0.0-1.0-515.0","0","0","68207","","null","","","null","57","","","","","","","","","","","","","","","",""
"","ISI","","html-keyboard-response","376","427185","0.0-1.0-516.0","0","0","68207","","null","","","null","57","NaN","","","","","","","","","","","","","","",""
"","S2","","html-keyboard-response","377","427441","0.0-1.0-517.0","0","0","68207","","null","","","null","57","","NaN","","","","","","","","","","","","","",""
"","response","","html-keyboard-response","378","428112","0.0-1.0-518.0-0.0","0","0","68207","","665","","","75","57","","","2","57","training","adjacent","GF","7","6","O.jpg","N.jpg","1","0","0","",""
"","feedback","","html-keyboard-response","379","429121","0.0-1.0-519.0-0.0","0","0","68207","","null","","","null","57","","","","","","","","","","","","","","","",""
"","time_out","","html-keyboard-response","380","431129","0.0-1.0-521.0-0.0","0","0","68207","","null","","","null","57","","","","","","","","","","","","","","","",""
"","ITI","","html-keyboard-response","381","432136","0.0-1.0-522.0","0","0","68207","","null","","","null","57","","","","","","","","","","","","","","","NaN",""
"","S1","","html-keyboard-response","382","432390","0.0-1.0-524.0","0","0","68207","","null","","","null","58","","","","","","","","","","","","","","","",""
"","ISI","","html-keyboard-response","383","432906","0.0-1.0-525.0","0","0","68207","","null","","","null","58","NaN","","","","","","","","","","","","","","",""
"","S2","","html-keyboard-response","384","433163","0.0-1.0-526.0","0","0","68207","","null","","","null","58","","NaN","","","","","","","","","","","","","",""
"","response","","html-keyboard-response","385","433456","0.0-1.0-527.0-0.0","0","0","68207","","288","","","68","58","","","2","58","training","adjacent","GF","7","6","O.jpg","N.jpg","0","0","1","",""
"","feedback","","html-keyboard-response","386","434464","0.0-1.0-528.0-0.0","0","0","68207","","null","","","null","58","","","","","","","","","","","","","","","",""
"","ITI","","html-keyboard-response","387","435471","0.0-1.0-531.0","0","0","68207","","null","","","null","58","","","","","","","","","","","","","","","NaN",""
"","S1","","html-keyboard-response","388","435726","0.0-1.0-533.0","0","0","68207","","null","","","null","59","","","","","","","","","","","","","","","",""
"","ISI","","html-keyboard-response","389","436231","0.0-1.0-534.0","0","0","68207","","null","","","null","59","NaN","","","","","","","","","","","","","","",""
"","S2","","html-keyboard-response","390","436487","0.0-1.0-535.0","0","0","68207","","null","","","null","59","","NaN","","","","","","","","","","","","","",""
"","response","","html-keyboard-response","391","437263","0.0-1.0-536.0-0.0","0","0","68207","","771","","","68","59","","","2","59","training","adjacent","AB","1","2","R.jpg","Q.jpg","0","1","0","",""
"","feedback","","html-keyboard-response","392","438271","0.0-1.0-537.0-0.0","0","0","68207","","null","","","null","59","","","","","","","","","","","","","","","",""
"","time_out","","html-keyboard-response","393","440280","0.0-1.0-539.0-0.0","0","0","68207","","null","","","null","59","","","","","","","","","","","","","","","",""
"","ITI","","html-keyboard-response","394","441285","0.0-1.0-540.0","0","0","68207","","900","","","75","59","","","","","","","","","","","","","","","k",""
"","S1","","html-keyboard-response","395","441543","0.0-1.0-542.0","0","0","68207","","null","","","null","60","","","","","","","","","","","","","","","",""
"","ISI","","html-keyboard-response","396","442049","0.0-1.0-543.0","0","0","68207","","null","","","null","60","NaN","","","","","","","","","","","","","","",""
"","S2","","html-keyboard-response","397","442306","0.0-1.0-544.0","0","0","68207","","null","","","null","60","","NaN","","","","","","","","","","","","","",""
"","response","","html-keyboard-response","398","442743","0.0-1.0-545.0-0.0","0","0","68207","","430","","","75","60","","","2","60","training","adjacent","EF","5","6","P.jpg","N.jpg","1","1","1","",""
"","feedback","","html-keyboard-response","399","443751","0.0-1.0-546.0-0.0","0","0","68207","","null","","","null","60","","","","","","","","","","","","","","","",""
"","ITI","","html-keyboard-response","400","444761","0.0-1.0-549.0","0","0","68207","","null","","","null","60","","","","","","","","","","","","","","","NaN",""
"","S1","","html-keyboard-response","401","445016","0.0-1.0-551.0","0","0","68207","","null","","","null","61","","","","","","","","","","","","","","","",""
"","ISI","","html-keyboard-response","402","445523","0.0-1.0-552.0","0","0","68207","","null","","","null","61","NaN","","","","","","","","","","","","","","",""
"","S2","","html-keyboard-response","403","445784","0.0-1.0-553.0","0","0","68207","","null","","","null","61","","NaN","","","","","","","","","","","","","",""
"","response","","html-keyboard-response","404","446343","0.0-1.0-554.0-0.0","0","0","68207","","552","","","68","61","","","2","61","training","adjacent","GF","7","6","O.jpg","N.jpg","0","0","1","",""
"","feedback","","html-keyboard-response","405","447353","0.0-1.0-555.0-0.0","0","0","68207","","null","","","null","61","","","","","","","","","","","","","","","",""
"","ITI","","html-keyboard-response","406","448361","0.0-1.0-558.0","0","0","68207","","null","","","null","61","","","","","","","","","","","","","","","NaN",""
"","S1","","html-keyboard-response","407","448621","0.0-1.0-560.0","0","0","68207","","null","","","null","62","","","","","","","","","","","","","","","",""
"","ISI","","html-keyboard-response","408","449128","0.0-1.0-561.0","0","0","68207","","null","","","null","62","NaN","","","","","","","","","","","","","","",""
"","S2","","html-keyboard-response","409","449388","0.0-1.0-562.0","0","0","68207","","null","","","null","62","","NaN","","","","","","","","","","","","","",""
"","response","","html-keyboard-response","410","449962","0.0-1.0-563.0-0.0","0","0","68207","","565","","","75","62","","","2","62","training","adjacent","ED","5","4","P.jpg","M.jpg","1","0","0","",""
"","feedback","","html-keyboard-response","411","450970","0.0-1.0-564.0-0.0","0","0","68207","","null","","","null","62","","","","","","","","","","","","","","","",""
"","time_out","","html-keyboard-response","412","452976","0.0-1.0-566.0-0.0","0","0","68207","","null","","","null","62","","","","","","","","","","","","","","","",""
"","ITI","","html-keyboard-response","413","453981","0.0-1.0-567.0","0","0","68207","","null","","","null","62","","","","","","","","","","","","","","","NaN",""
"","S1","","html-keyboard-response","414","454239","0.0-1.0-569.0","0","0","68207","","null","","","null","63","","","","","","","","","","","","","","","",""
"","ISI","","html-keyboard-response","415","454746","0.0-1.0-570.0","0","0","68207","","null","","","null","63","NaN","","","","","","","","","","","","","","",""
"","S2","","html-keyboard-response","416","455002","0.0-1.0-571.0","0","0","68207","","null","","","null","63","","NaN","","","","","","","","","","","","","",""
"","response","","html-keyboard-response","417","455325","0.0-1.0-572.0-0.0","0","0","68207","","318","","","75","63","","","2","63","training","adjacent","AB","1","2","R.jpg","Q.jpg","1","1","1","",""
"","feedback","","html-keyboard-response","418","456330","0.0-1.0-573.0-0.0","0","0","68207","","null","","","null","63","","","","","","","","","","","","","","","",""
"","ITI","","html-keyboard-response","419","457336","0.0-1.0-576.0","0","0","68207","","null","","","null","63","","","","","","","","","","","","","","","NaN",""
"","S1","","html-keyboard-response","420","457596","0.0-1.0-578.0","0","0","68207","","null","","","null","64","","","","","","","","","","","","","","","",""
"","ISI","","html-keyboard-response","421","458102","0.0-1.0-579.0","0","0","68207","","null","","","null","64","NaN","","","","","","","","","","","","","","",""
"","S2","","html-keyboard-response","422","458359","0.0-1.0-580.0","0","0","68207","","null","","","null","64","","NaN","","","","","","","","","","","","","",""
"","response","","html-keyboard-response","423","459559","0.0-1.0-581.0-0.0","0","0","68207","","1193","","","68","64","","","2","64","training","adjacent","BA","2","1","Q.jpg","R.jpg","0","0","1","",""
"","feedback","","html-keyboard-response","424","460569","0.0-1.0-582.0-0.0","0","0","68207","","null","","","null","64","","","","","","","","","","","","","","","",""
"","ITI","","html-keyboard-response","425","461576","0.0-1.0-585.0","0","0","68207","","null","","","null","64","","","","","","","","","","","","","","","NaN",""
"","S1","","html-keyboard-response","426","461832","0.0-1.0-587.0","0","0","68207","","null","","","null","65","","","","","","","","","","","","","","","",""
"","ISI","","html-keyboard-response","427","462339","0.0-1.0-588.0","0","0","68207","","null","","","null","65","NaN","","","","","","","","","","","","","","",""
"","S2","","html-keyboard-response","428","462597","0.0-1.0-589.0","0","0","68207","","null","","","null","65","","NaN","","","","","","","","","","","","","",""
"","response","","html-keyboard-response","429","463380","0.0-1.0-590.0-0.0","0","0","68207","","773","","","68","65","","","2","65","training","adjacent","EF","5","6","P.jpg","N.jpg","0","1","0","",""
"","feedback","","html-keyboard-response","430","464389","0.0-1.0-591.0-0.0","0","0","68207","","null","","","null","65","","","","","","","","","","","","","","","",""
"","time_out","","html-keyboard-response","431","466395","0.0-1.0-593.0-0.0","0","0","68207","","null","","","null","65","","","","","","","","","","","","","","","",""
"","ITI","","html-keyboard-response","432","467400","0.0-1.0-594.0","0","0","68207","","981","","","75","65","","","","","","","","","","","","","","","k",""
"","S1","","html-keyboard-response","433","467654","0.0-1.0-596.0","0","0","68207","","null","","","null","66","","","","","","","","","","","","","","","",""
"","ISI","","html-keyboard-response","434","468161","0.0-1.0-597.0","0","0","68207","","null","","","null","66","NaN","","","","","","","","","","","","","","",""
"","S2","","html-keyboard-response","435","468417","0.0-1.0-598.0","0","0","68207","","null","","","null","66","","NaN","","","","","","","","","","","","","",""
"","response","","html-keyboard-response","436","470175","0.0-1.0-599.0-0.0","0","0","68207","","null","","","null","66","","","2","66","training","adjacent","FG","6","7","N.jpg","O.jpg","NaN","1","0","",""
"","too_slow_prompt","","html-keyboard-response","437","471182","0.0-1.0-601.0-0.0","1","0","68207","","null","","","null","","","","","","","","","","","","","","","","",""
"","time_out","","html-keyboard-response","438","473191","0.0-1.0-602.0-0.0","0","0","68207","","null","","","null","66","","","","","","","","","","","","","","","",""
"","ITI","","html-keyboard-response","439","474198","0.0-1.0-603.0","0","0","68207","","null","","","null","66","","","","","","","","","","","","","","","NaN",""
"","S1","","html-keyboard-response","440","474455","0.0-1.0-605.0","0","0","68207","","null","","","null","67","","","","","","","","","","","","","","","",""
"","ISI","","html-keyboard-response","441","474960","0.0-1.0-606.0","0","0","68207","","null","","","null","67","NaN","","","","","","","","","","","","","","",""
"","S2","","html-keyboard-response","442","475220","0.0-1.0-607.0","0","0","68207","","null","","","null","67","","NaN","","","","","","","","","","","","","",""
"","response","","html-keyboard-response","443","476590","0.0-1.0-608.0-0.0","0","0","68207","","1362","","","75","67","","","2","67","training","adjacent","DC","4","3","M.jpg","L.jpg","1","0","0","",""
"","feedback","","html-keyboard-response","444","477601","0.0-1.0-609.0-0.0","0","0","68207","","null","","","null","67","","","","","","","","","","","","","","","",""
"","time_out","","html-keyboard-response","445","479611","0.0-1.0-611.0-0.0","0","0","68207","","null","","","null","67","","","","","","","","","","","","","","","",""
"","ITI","","html-keyboard-response","446","480618","0.0-1.0-612.0","0","0","68207","","null","","","null","67","","","","","","","","","","","","","","","NaN",""
"","S1","","html-keyboard-response","447","480874","0.0-1.0-614.0","0","0","68207","","null","","","null","68","","","","","","","","","","","","","","","",""
"","ISI","","html-keyboard-response","448","481383","0.0-1.0-615.0","0","0","68207","","null","","","null","68","NaN","","","","","","","","","","","","","","",""
"","S2","","html-keyboard-response","449","481642","0.0-1.0-616.0","0","0","68207","","null","","","null","68","","NaN","","","","","","","","","","","","","",""
"","response","","html-keyboard-response","450","481731","0.0-1.0-617.0-0.0","0","0","68207","","85","","","68","68","","","2","68","training","adjacent","CD","3","4","L.jpg","M.jpg","0","1","0","",""
"","feedback","","html-keyboard-response","451","482748","0.0-1.0-618.0-0.0","0","0","68207","","null","","","null","68","","","","","","","","","","","","","","","",""
"","time_out","","html-keyboard-response","452","484755","0.0-1.0-620.0-0.0","0","0","68207","","null","","","null","68","","","","","","","","","","","","","","","",""
"","ITI","","html-keyboard-response","453","485761","0.0-1.0-621.0","0","0","68207","","null","","","null","68","","","","","","","","","","","","","","","NaN",""
"","S1","","html-keyboard-response","454","486019","0.0-1.0-623.0","0","0","68207","","null","","","null","69","","","","","","","","","","","","","","","",""
"","ISI","","html-keyboard-response","455","486524","0.0-1.0-624.0","0","0","68207","","null","","","null","69","NaN","","","","","","","","","","","","","","",""
"","S2","","html-keyboard-response","456","486792","0.0-1.0-625.0","0","0","68207","","null","","","null","69","","NaN","","","","","","","","","","","","","",""
"","response","","html-keyboard-response","457","487104","0.0-1.0-626.0-0.0","0","0","68207","","306","","","75","69","","","2","69","training","adjacent","DC","4","3","M.jpg","L.jpg","1","0","0","",""
"","feedback","","html-keyboard-response","458","488112","0.0-1.0-627.0-0.0","0","0","68207","","null","","","null","69","","","","","","","","","","","","","","","",""
"","time_out","","html-keyboard-response","459","490121","0.0-1.0-629.0-0.0","0","0","68207","","null","","","null","69","","","","","","","","","","","","","","","",""
"","ITI","","html-keyboard-response","460","491131","0.0-1.0-630.0","0","0","68207","","null","","","null","69","","","","","","","","","","","","","","","NaN",""
"","S1","","html-keyboard-response","461","491388","0.0-1.0-632.0","0","0","68207","","null","","","null","70","","","","","","","","","","","","","","","",""
"","ISI","","html-keyboard-response","462","491892","0.0-1.0-633.0","0","0","68207","","201","","","75","70","k","","","","","","","","","","","","","","",""
"","S2","","html-keyboard-response","463","492152","0.0-1.0-634.0","0","0","68207","","null","","","null","70","","NaN","","","","","","","","","","","","","",""
"","response","","html-keyboard-response","464","492921","0.0-1.0-635.0-0.0","0","0","68207","","762","","","68","70","","","2","70","training","adjacent","FE","6","5","N.jpg","P.jpg","0","0","1","",""
"","feedback","","html-keyboard-response","465","493926","0.0-1.0-636.0-0.0","0","0","68207","","null","","","null","70","","","","","","","","","","","","","","","",""
"","ITI","","html-keyboard-response","466","494930","0.0-1.0-639.0","0","0","68207","","null","","","null","70","","","","","","","","","","","","","","","NaN",""
"","S1","","html-keyboard-response","467","495185","0.0-1.0-641.0","0","0","68207","","null","","","null","71","","","","","","","","","","","","","","","",""
"","ISI","","html-keyboard-response","468","495690","0.0-1.0-642.0","0","0","68207","","null","","","null","71","NaN","","","","","","","","","","","","","","",""
"","S2","","html-keyboard-response","469","495946","0.0-1.0-643.0","0","0","68207","","null","","","null","71","","NaN","","","","","","","","","","","","","",""
"","response","","html-keyboard-response","470","496781","0.0-1.0-644.0-0.0","0","0","68207","","826","","","68","71","","","2","71","training","adjacent","DE","4","5","M.jpg","P.jpg","0","1","0","",""
"","feedback","","html-keyboard-response","471","497786","0.0-1.0-645.0-0.0","0","0","68207","","null","","","null","71","","","","","","","","","","","","","","","",""
"","time_out","","html-keyboard-response","472","499794","0.0-1.0-647.0-0.0","0","0","68207","","null","","","null","71","","","","","","","","","","","","","","","",""
"","ITI","","html-keyboard-response","473","500803","0.0-1.0-648.0","0","0","68207","","513","","","75","71","","","","","","","","","","","","","","","k",""
"","S1","","html-keyboard-response","474","501068","0.0-1.0-650.0","0","0","68207","","null","","","null","72","","","","","","","","","","","","","","","",""
"","ISI","","html-keyboard-response","475","501578","0.0-1.0-651.0","0","0","68207","","null","","","null","72","NaN","","","","","","","","","","","","","","",""
"","S2","","html-keyboard-response","476","501837","0.0-1.0-652.0","0","0","68207","","null","","","null","72","","NaN","","","","","","","","","","","","","",""
"","response","","html-keyboard-response","477","501855","0.0-1.0-653.0-0.0","0","0","68207","","14","","","75","72","","","2","72","training","adjacent","AB","1","2","R.jpg","Q.jpg","1","1","1","",""
"","feedback","","html-keyboard-response","478","502863","0.0-1.0-654.0-0.0","0","0","68207","","null","","","null","72","","","","","","","","","","","","","","","",""
"","ITI","","html-keyboard-response","479","503870","0.0-1.0-657.0","0","0","68207","","null","","","null","72","","","","","","","","","","","","","","","NaN",""
"","S1","","html-keyboard-response","480","504129","0.0-1.0-659.0","0","0","68207","","null","","","null","73","","","","","","","","","","","","","","","",""
"","ISI","","html-keyboard-response","481","504638","0.0-1.0-660.0","0","0","68207","","null","","","null","73","NaN","","","","","","","","","","","","","","",""
"","S2","","html-keyboard-response","482","504898","0.0-1.0-661.0","0","0","68207","","null","","","null","73","","NaN","","","","","","","","","","","","","",""
"","response","","html-keyboard-response","483","505561","0.0-1.0-662.0-0.0","0","0","68207","","657","","","75","73","","","2","73","training","adjacent","ED","5","4","P.jpg","M.jpg","1","0","0","",""
"","feedback","","html-keyboard-response","484","506566","0.0-1.0-663.0-0.0","0","0","68207","","null","","","null","73","","","","","","","","","","","","","","","",""
"","time_out","","html-keyboard-response","485","508574","0.0-1.0-665.0-0.0","0","0","68207","","null","","","null","73","","","","","","","","","","","","","","","",""
"","ITI","","html-keyboard-response","486","509579","0.0-1.0-666.0","0","0","68207","","null","","","null","73","","","","","","","","","","","","","","","NaN",""
"","S1","","html-keyboard-response","487","509836","0.0-1.0-668.0","0","0","68207","","null","","","null","74","","","","","","","","","","","","","","","",""
"","ISI","","html-keyboard-response","488","510343","0.0-1.0-669.0","0","0","68207","","null","","","null","74","NaN","","","","","","","","","","","","","","",""
"","S2","","html-keyboard-response","489","510602","0.0-1.0-670.0","0","0","68207","","null","","","null","74","","NaN","","","","","","","","","","","","","",""
"","response","","html-keyboard-response","490","510708","0.0-1.0-671.0-0.0","0","0","68207","","99","","","68","74","","","2","74","training","adjacent","ED","5","4","P.jpg","M.jpg","0","0","1","",""
"","feedback","","html-keyboard-response","491","511713","0.0-1.0-672.0-0.0","0","0","68207","","null","","","null","74","","","","","","","","","","","","","","","",""
"","ITI","","html-keyboard-response","492","512722","0.0-1.0-675.0","0","0","68207","","null","","","null","74","","","","","","","","","","","","","","","NaN",""
"","S1","","html-keyboard-response","493","512978","0.0-1.0-677.0","0","0","68207","","null","","","null","75","","","","","","","","","","","","","","","",""
"","ISI","","html-keyboard-response","494","513482","0.0-1.0-678.0","0","0","68207","","null","","","null","75","NaN","","","","","","","","","","","","","","",""
"","S2","","html-keyboard-response","495","513738","0.0-1.0-679.0","0","0","68207","","null","","","null","75","","NaN","","","","","","","","","","","","","",""
"","response","","html-keyboard-response","496","514418","0.0-1.0-680.0-0.0","0","0","68207","","674","","","68","75","","","2","75","training","adjacent","DC","4","3","M.jpg","L.jpg","0","0","1","",""
"","feedback","","html-keyboard-response","497","515428","0.0-1.0-681.0-0.0","0","0","68207","","null","","","null","75","","","","","","","","","","","","","","","",""
"","ITI","","html-keyboard-response","498","516435","0.0-1.0-684.0","0","0","68207","","null","","","null","75","","","","","","","","","","","","","","","NaN",""
"","S1","","html-keyboard-response","499","516689","0.0-1.0-686.0","0","0","68207","","null","","","null","76","","","","","","","","","","","","","","","",""
"","ISI","","html-keyboard-response","500","517194","0.0-1.0-687.0","0","0","68207","","null","","","null","76","NaN","","","","","","","","","","","","","","",""
"","S2","","html-keyboard-response","501","517450","0.0-1.0-688.0","0","0","68207","","null","","","null","76","","NaN","","","","","","","","","","","","","",""
"","response","","html-keyboard-response","502","517754","0.0-1.0-689.0-0.0","0","0","68207","","299","","","68","76","","","2","76","training","adjacent","CB","3","2","L.jpg","Q.jpg","0","0","1","",""
"","feedback","","html-keyboard-response","503","518759","0.0-1.0-690.0-0.0","0","0","68207","","null","","","null","76","","","","","","","","","","","","","","","",""
"","ITI","","html-keyboard-response","504","519763","0.0-1.0-693.0","0","0","68207","","null","","","null","76","","","","","","","","","","","","","","","NaN",""
"","S1","","html-keyboard-response","505","520017","0.0-1.0-695.0","0","0","68207","","null","","","null","77","","","","","","","","","","","","","","","",""
"","ISI","","html-keyboard-response","506","520520","0.0-1.0-696.0","0","0","68207","","null","","","null","77","NaN","","","","","","","","","","","","","","",""
"","S2","","html-keyboard-response","507","520776","0.0-1.0-697.0","0","0","68207","","null","","","null","77","","NaN","","","","","","","","","","","","","",""
"","response","","html-keyboard-response","508","521681","0.0-1.0-698.0-0.0","0","0","68207","","897","","","68","77","","","2","77","training","adjacent","BC","2","3","Q.jpg","L.jpg","0","1","0","",""
"","feedback","","html-keyboard-response","509","522694","0.0-1.0-699.0-0.0","0","0","68207","","null","","","null","77","","","","","","","","","","","","","","","",""
"","time_out","","html-keyboard-response","510","524704","0.0-1.0-701.0-0.0","0","0","68207","","null","","","null","77","","","","","","","","","","","","","","","",""
"","ITI","","html-keyboard-response","511","525713","0.0-1.0-702.0","0","0","68207","","null","","","null","77","","","","","","","","","","","","","","","NaN",""
"","S1","","html-keyboard-response","512","525972","0.0-1.0-704.0","0","0","68207","","null","","","null","78","","","","","","","","","","","","","","","",""
"","ISI","","html-keyboard-response","513","526483","0.0-1.0-705.0","0","0","68207","","null","","","null","78","NaN","","","","","","","","","","","","","","",""
"","S2","","html-keyboard-response","514","526743","0.0-1.0-706.0","0","0","68207","","null","","","null","78","","NaN","","","","","","","","","","","","","",""
"","response","","html-keyboard-response","515","527039","0.0-1.0-707.0-0.0","0","0","68207","","290","","","68","78","","","2","78","training","adjacent","ED","5","4","P.jpg","M.jpg","0","0","1","",""
"","feedback","","html-keyboard-response","516","528056","0.0-1.0-708.0-0.0","0","0","68207","","null","","","null","78","","","","","","","","","","","","","","","",""
"","ITI","","html-keyboard-response","517","529061","0.0-1.0-711.0","0","0","68207","","null","","","null","78","","","","","","","","","","","","","","","NaN",""
"","S1","","html-keyboard-response","518","529318","0.0-1.0-713.0","0","0","68207","","null","","","null","79","","","","","","","","","","","","","","","",""
"","ISI","","html-keyboard-response","519","529825","0.0-1.0-714.0","0","0","68207","","null","","","null","79","NaN","","","","","","","","","","","","","","",""
"","S2","","html-keyboard-response","520","530085","0.0-1.0-715.0","0","0","68207","","null","","","null","79","","NaN","","","","","","","","","","","","","",""
"","response","","html-keyboard-response","521","530687","0.0-1.0-716.0-0.0","0","0","68207","","597","","","75","79","","","2","79","training","adjacent","EF","5","6","P.jpg","N.jpg","1","1","1","",""
"","feedback","","html-keyboard-response","522","531693","0.0-1.0-717.0-0.0","0","0","68207","","null","","","null","79","","","","","","","","","","","","","","","",""
"","ITI","","html-keyboard-response","523","532697","0.0-1.0-720.0","0","0","68207","","null","","","null","79","","","","","","","","","","","","","","","NaN",""
"","S1","","html-keyboard-response","524","532954","0.0-1.0-722.0","0","0","68207","","null","","","null","80","","","","","","","","","","","","","","","",""
"","ISI","","html-keyboard-response","525","533461","0.0-1.0-723.0","0","0","68207","","null","","","null","80","NaN","","","","","","","","","","","","","","",""
"","S2","","html-keyboard-response","526","533721","0.0-1.0-724.0","0","0","68207","","null","","","null","80","","NaN","","","","","","","","","","","","","",""
"","response","","html-keyboard-response","527","534157","0.0-1.0-725.0-0.0","0","0","68207","","429","","","68","80","","","2","80","training","adjacent","CB","3","2","L.jpg","Q.jpg","0","0","1","",""
"","feedback","","html-keyboard-response","528","535177","0.0-1.0-726.0-0.0","0","0","68207","","null","","","null","80","","","","","","","","","","","","","","","",""
"","ITI","","html-keyboard-response","529","536187","0.0-1.0-729.0","0","0","68207","","null","","","null","80","","","","","","","","","","","","","","","NaN",""
"","S1","","html-keyboard-response","530","536445","0.0-1.0-731.0","0","0","68207","","null","","","null","81","","","","","","","","","","","","","","","",""
"","ISI","","html-keyboard-response","531","536957","0.0-1.0-732.0","0","0","68207","","null","","","null","81","NaN","","","","","","","","","","","","","","",""
"","S2","","html-keyboard-response","532","537217","0.0-1.0-733.0","0","0","68207","","null","","","null","81","","NaN","","","","","","","","","","","","","",""
"","response","","html-keyboard-response","533","537744","0.0-1.0-734.0-0.0","0","0","68207","","521","","","68","81","","","2","81","training","adjacent","CD","3","4","L.jpg","M.jpg","0","1","0","",""
"","feedback","","html-keyboard-response","534","538752","0.0-1.0-735.0-0.0","0","0","68207","","null","","","null","81","","","","","","","","","","","","","","","",""
"","time_out","","html-keyboard-response","535","540762","0.0-1.0-737.0-0.0","0","0","68207","","null","","","null","81","","","","","","","","","","","","","","","",""
"","ITI","","html-keyboard-response","536","541770","0.0-1.0-738.0","0","0","68207","","518","","","75","81","","","","","","","","","","","","","","","k",""
"","S1","","html-keyboard-response","537","542026","0.0-1.0-740.0","0","0","68207","","null","","","null","82","","","","","","","","","","","","","","","",""
"","ISI","","html-keyboard-response","538","542530","0.0-1.0-741.0","0","0","68207","","null","","","null","82","NaN","","","","","","","","","","","","","","",""
"","S2","","html-keyboard-response","539","542786","0.0-1.0-742.0","0","0","68207","","null","","","null","82","","NaN","","","","","","","","","","","","","",""
"","response","","html-keyboard-response","540","543063","0.0-1.0-743.0-0.0","0","0","68207","","271","","","75","82","","","2","82","training","adjacent","BA","2","1","Q.jpg","R.jpg","1","0","0","",""
"","feedback","","html-keyboard-response","541","544068","0.0-1.0-744.0-0.0","0","0","68207","","null","","","null","82","","","","","","","","","","","","","","","",""
"","time_out","","html-keyboard-response","542","546072","0.0-1.0-746.0-0.0","0","0","68207","","null","","","null","82","","","","","","","","","","","","","","","",""
"","ITI","","html-keyboard-response","543","547079","0.0-1.0-747.0","0","0","68207","","721","","","68","82","","","","","","","","","","","","","","","d",""
"","S1","","html-keyboard-response","544","547336","0.0-1.0-749.0","0","0","68207","","null","","","null","83","","","","","","","","","","","","","","","",""
"","ISI","","html-keyboard-response","545","547845","0.0-1.0-750.0","0","0","68207","","null","","","null","83","NaN","","","","","","","","","","","","","","",""
"","S2","","html-keyboard-response","546","548103","0.0-1.0-751.0","0","0","68207","","null","","","null","83","","NaN","","","","","","","","","","","","","",""
"","response","","html-keyboard-response","547","548542","0.0-1.0-752.0-0.0","0","0","68207","","430","","","68","83","","","2","83","training","adjacent","FE","6","5","N.jpg","P.jpg","0","0","1","",""
"","feedback","","html-keyboard-response","548","549550","0.0-1.0-753.0-0.0","0","0","68207","","null","","","null","83","","","","","","","","","","","","","","","",""
"","ITI","","html-keyboard-response","549","550558","0.0-1.0-756.0","0","0","68207","","null","","","null","83","","","","","","","","","","","","","","","NaN",""
"","S1","","html-keyboard-response","550","550816","0.0-1.0-758.0","0","0","68207","","null","","","null","84","","","","","","","","","","","","","","","",""
"","ISI","","html-keyboard-response","551","551320","0.0-1.0-759.0","0","0","68207","","null","","","null","84","NaN","","","","","","","","","","","","","","",""
"","S2","","html-keyboard-response","552","551576","0.0-1.0-760.0","0","0","68207","","null","","","null","84","","NaN","","","","","","","","","","","","","",""
"","response","","html-keyboard-response","553","552338","0.0-1.0-761.0-0.0","0","0","68207","","755","","","68","84","","","2","84","training","adjacent","CD","3","4","L.jpg","M.jpg","0","1","0","",""
"","feedback","","html-keyboard-response","554","553346","0.0-1.0-762.0-0.0","0","0","68207","","null","","","null","84","","","","","","","","","","","","","","","",""
"","time_out","","html-keyboard-response","555","555356","0.0-1.0-764.0-0.0","0","0","68207","","null","","","null","84","","","","","","","","","","","","","","","",""
"","ITI","","html-keyboard-response","556","556362","0.0-1.0-765.0","0","0","68207","","763","","","75","84","","","","","","","","","","","","","","","k",""
"","S1","","html-keyboard-response","557","556620","0.0-1.0-767.0","0","0","68207","","null","","","null","85","","","","","","","","","","","","","","","",""
"","ISI","","html-keyboard-response","558","557124","0.0-1.0-768.0","0","0","68207","","null","","","null","85","NaN","","","","","","","","","","","","","","",""
"","S2","","html-keyboard-response","559","557381","0.0-1.0-769.0","0","0","68207","","null","","","null","85","","NaN","","","","","","","","","","","","","",""
"","response","","html-keyboard-response","560","557805","0.0-1.0-770.0-0.0","0","0","68207","","417","","","75","85","","","2","85","training","adjacent","DE","4","5","M.jpg","P.jpg","1","1","1","",""
"","feedback","","html-keyboard-response","561","558819","0.0-1.0-771.0-0.0","0","0","68207","","null","","","null","85","","","","","","","","","","","","","","","",""
"","ITI","","html-keyboard-response","562","559826","0.0-1.0-774.0","0","0","68207","","null","","","null","85","","","","","","","","","","","","","","","NaN",""
"","S1","","html-keyboard-response","563","560081","0.0-1.0-776.0","0","0","68207","","null","","","null","86","","","","","","","","","","","","","","","",""
"","ISI","","html-keyboard-response","564","560587","0.0-1.0-777.0","0","0","68207","","null","","","null","86","NaN","","","","","","","","","","","","","","",""
"","S2","","html-keyboard-response","565","560850","0.0-1.0-778.0","0","0","68207","","null","","","null","86","","NaN","","","","","","","","","","","","","",""
"","response","","html-keyboard-response","566","560856","0.0-1.0-779.0-0.0","0","0","68207","","1","","","75","86","","","2","86","training","adjacent","CB","3","2","L.jpg","Q.jpg","1","0","0","",""
"","feedback","","html-keyboard-response","567","561866","0.0-1.0-780.0-0.0","0","0","68207","","null","","","null","86","","","","","","","","","","","","","","","",""
"","time_out","","html-keyboard-response","568","563875","0.0-1.0-782.0-0.0","0","0","68207","","null","","","null","86","","","","","","","","","","","","","","","",""
"","ITI","","html-keyboard-response","569","564882","0.0-1.0-783.0","0","0","68207","","null","","","null","86","","","","","","","","","","","","","","","NaN",""
"","S1","","html-keyboard-response","570","565140","0.0-1.0-785.0","0","0","68207","","null","","","null","87","","","","","","","","","","","","","","","",""
"","ISI","","html-keyboard-response","571","565646","0.0-1.0-786.0","0","0","68207","","null","","","null","87","NaN","","","","","","","","","","","","","","",""
"","S2","","html-keyboard-response","572","565903","0.0-1.0-787.0","0","0","68207","","null","","","null","87","","NaN","","","","","","","","","","","","","",""
"","response","","html-keyboard-response","573","566191","0.0-1.0-788.0-0.0","0","0","68207","","283","","","75","87","","","2","87","training","adjacent","BA","2","1","Q.jpg","R.jpg","1","0","0","",""
"","feedback","","html-keyboard-response","574","567198","0.0-1.0-789.0-0.0","0","0","68207","","null","","","null","87","","","","","","","","","","","","","","","",""
"","time_out","","html-keyboard-response","575","569205","0.0-1.0-791.0-0.0","0","0","68207","","null","","","null","87","","","","","","","","","","","","","","","",""
"","ITI","","html-keyboard-response","576","570213","0.0-1.0-792.0","0","0","68207","","null","","","null","87","","","","","","","","","","","","","","","NaN",""
"","S1","","html-keyboard-response","577","570471","0.0-1.0-794.0","0","0","68207","","null","","","null","88","","","","","","","","","","","","","","","",""
"","ISI","","html-keyboard-response","578","570980","0.0-1.0-795.0","0","0","68207","","null","","","null","88","NaN","","","","","","","","","","","","","","",""
