"success","ttype","start_time","trial_type","trial_index","time_elapsed","internal_node_id","warning","missed_checkup","PID","view_history","rt","responses","repeat_instructions","key_press","index","keypress_isi","keypress_S2","block","trial_num","phase","group_type","pair_type","S1_stim","S2_stim","S1_img","S2_img","S1_chosen","S1_higher","accuracy","keypress_iti","total_bonus_tally"
"true","full_screen","d04132023hr1910","fullscreen","0","8184","0.0-0.0","0","0","68791","","","","","","","","","","","","","","","","","","","","","",""
"","instructions","","instructions","1","723186","0.0-1.0-0.0-0.0","0","0","68791","[{""page_index"":0,""viewing_time"":656806},{""page_index"":1,""viewing_time"":40553},{""page_index"":2,""viewing_time"":10559},{""page_index"":3,""viewing_time"":7069}]","714989","","","","","","","","","","","","","","","","","","","",""
"","comprehension_check","","survey-multi-choice","2","862630","0.0-1.0-0.0-1.0","0","0","68791","","139421","{""Q0"":""True"",""Q1"":""D"",""Q2"":""Only while the second image is shown"",""Q3"":""Green mark"",""Q4"":""either D or K""}","1","","","","","","","","","","","","","","","","","",""
"","missed_instruction_checkup","","html-keyboard-response","3","865619","0.0-1.0-0.0-2.0-0.0","0","1","68791","","2979","","","32","","","","","","","","","","","","","","","","",""
"","instructions","","instructions","4","905092","0.0-1.0-0.1-0.1","0","0","68791","[{""page_index"":0,""viewing_time"":9318},{""page_index"":1,""viewing_time"":16547},{""page_index"":2,""viewing_time"":11119},{""page_index"":3,""viewing_time"":2479}]","39463","","","","","","","","","","","","","","","","","","","",""
"","comprehension_check","","survey-multi-choice","5","958079","0.0-1.0-0.1-1.1","0","0","68791","","52974","{""Q0"":""True"",""Q1"":""K"",""Q2"":""Once the second image appears and while the screen 'MAKE A CHOICE' is shown"",""Q3"":""Green mark"",""Q4"":""either D or K""}","0","","","","","","","","","","","","","","","","","",""
"","start_exp","","html-keyboard-response","6","965611","0.0-1.0-1.0","0","0","68791","","7513","","","32","","","","","","","","","","","","","","","","",""
"","S1","","html-keyboard-response","7","965875","0.0-1.0-2.0","0","0","68791","","null","","","null","0","","","","","","","","","","","","","","","",""
"","ISI","","html-keyboard-response","8","966879","0.0-1.0-3.0","0","0","68791","","491","","","75","0","k","","","","","","","","","","","","","","",""
"","S2","","html-keyboard-response","9","966938","0.0-1.0-4.0","0","0","68791","","52","","","75","0","","k","1","0","training","adjacent","GF","7","6","L.jpg","M.jpg","1","0","0","",""
"","feedback","","html-keyboard-response","10","967945","0.0-1.0-6.0-0.0","0","0","68791","","null","","","null","0","","","","","","","","","","","","","","","",""
"","time_out","","html-keyboard-response","11","969953","0.0-1.0-8.0-0.0","0","0","68791","","null","","","null","0","","","","","","","","","","","","","","","",""
"","ITI","","html-keyboard-response","12","970960","0.0-1.0-9.0","0","0","68791","","null","","","null","0","","","","","","","","","","","","","","","NaN",""
"","S1","","html-keyboard-response","13","971220","0.0-1.0-11.0","0","0","68791","","null","","","null","1","","","","","","","","","","","","","","","",""
"","ISI","","html-keyboard-response","14","972227","0.0-1.0-12.0","0","0","68791","","898","","","75","1","k","","","","","","","","","","","","","","",""
"","S2","","html-keyboard-response","15","972486","0.0-1.0-13.0","0","0","68791","","null","","","null","1","","NaN","","","","","","","","","","","","","",""
"","response","","html-keyboard-response","16","973058","0.0-1.0-14.0-0.0","0","0","68791","","563","","","75","1","","","1","1","training","adjacent","AB","1","2","N.jpg","R.jpg","1","1","1","",""
"","feedback","","html-keyboard-response","17","974068","0.0-1.0-15.0-0.0","0","0","68791","","null","","","null","1","","","","","","","","","","","","","","","",""
"","ITI","","html-keyboard-response","18","975075","0.0-1.0-18.0","0","0","68791","","null","","","null","1","","","","","","","","","","","","","","","NaN",""
"","S1","","html-keyboard-response","19","975341","0.0-1.0-20.0","0","0","68791","","null","","","null","2","","","","","","","","","","","","","","","",""
"","ISI","","html-keyboard-response","20","976348","0.0-1.0-21.0","0","0","68791","","335","","","68","2","d","","","","","","","","","","","","","","",""
"","S2","","html-keyboard-response","21","976607","0.0-1.0-22.0","0","0","68791","","null","","","null","2","","NaN","","","","","","","","","","","","","",""
"","response","","html-keyboard-response","22","977109","0.0-1.0-23.0-0.0","0","0","68791","","497","","","68","2","","","1","2","training","adjacent","DC","4","3","O.jpg","P.jpg","0","0","1","",""
"","feedback","","html-keyboard-response","23","978116","0.0-1.0-24.0-0.0","0","0","68791","","null","","","null","2","","","","","","","","","","","","","","","",""
"","ITI","","html-keyboard-response","24","979124","0.0-1.0-27.0","0","0","68791","","581","","","75","2","","","","","","","","","","","","","","","k",""
"","S1","","html-keyboard-response","25","979382","0.0-1.0-29.0","0","0","68791","","null","","","null","3","","","","","","","","","","","","","","","",""
"","ISI","","html-keyboard-response","26","980398","0.0-1.0-30.0","0","0","68791","","254","","","68","3","d","","","","","","","","","","","","","","",""
"","S2","","html-keyboard-response","27","980493","0.0-1.0-31.0","0","0","68791","","78","","","68","3","","d","1","3","training","adjacent","CB","3","2","P.jpg","R.jpg","0","0","1","",""
"","feedback","","html-keyboard-response","28","981504","0.0-1.0-33.0-0.0","0","0","68791","","null","","","null","3","","","","","","","","","","","","","","","",""
"","ITI","","html-keyboard-response","29","982511","0.0-1.0-36.0","0","0","68791","","174","","","68","3","","","","","","","","","","","","","","","d",""
"","S1","","html-keyboard-response","30","982766","0.0-1.0-38.0","0","0","68791","","null","","","null","4","","","","","","","","","","","","","","","",""
"","ISI","","html-keyboard-response","31","983773","0.0-1.0-39.0","0","0","68791","","114","","","68","4","d","","","","","","","","","","","","","","",""
"","S2","","html-keyboard-response","32","983982","0.0-1.0-40.0","0","0","68791","","204","","","68","4","","d","1","4","training","adjacent","ED","5","4","Q.jpg","O.jpg","0","0","1","",""
"","feedback","","html-keyboard-response","33","984993","0.0-1.0-42.0-0.0","0","0","68791","","null","","","null","4","","","","","","","","","","","","","","","",""
"","ITI","","html-keyboard-response","34","986002","0.0-1.0-45.0","0","0","68791","","19","","","68","4","","","","","","","","","","","","","","","d",""
"","S1","","html-keyboard-response","35","986266","0.0-1.0-47.0","0","0","68791","","null","","","null","5","","","","","","","","","","","","","","","",""
"","ISI","","html-keyboard-response","36","987272","0.0-1.0-48.0","0","0","68791","","100","","","75","5","k","","","","","","","","","","","","","","",""
"","S2","","html-keyboard-response","37","987355","0.0-1.0-49.0","0","0","68791","","75","","","75","5","","k","1","5","training","adjacent","CD","3","4","P.jpg","O.jpg","1","1","1","",""
"","feedback","","html-keyboard-response","38","988371","0.0-1.0-51.0-0.0","0","0","68791","","null","","","null","5","","","","","","","","","","","","","","","",""
"","ITI","","html-keyboard-response","39","989376","0.0-1.0-54.0","0","0","68791","","226","","","68","5","","","","","","","","","","","","","","","d",""
"","S1","","html-keyboard-response","40","989632","0.0-1.0-56.0","0","0","68791","","null","","","null","6","","","","","","","","","","","","","","","",""
"","ISI","","html-keyboard-response","41","990636","0.0-1.0-57.0","0","0","68791","","249","","","68","6","d","","","","","","","","","","","","","","",""
"","S2","","html-keyboard-response","42","990819","0.0-1.0-58.0","0","0","68791","","176","","","75","6","","k","1","6","training","adjacent","FE","6","5","M.jpg","Q.jpg","1","0","0","",""
"","feedback","","html-keyboard-response","43","991828","0.0-1.0-60.0-0.0","0","0","68791","","null","","","null","6","","","","","","","","","","","","","","","",""
"","time_out","","html-keyboard-response","44","993833","0.0-1.0-62.0-0.0","0","0","68791","","null","","","null","6","","","","","","","","","","","","","","","",""
"","ITI","","html-keyboard-response","45","994839","0.0-1.0-63.0","0","0","68791","","134","","","68","6","","","","","","","","","","","","","","","d",""
"","S1","","html-keyboard-response","46","995096","0.0-1.0-65.0","0","0","68791","","null","","","null","7","","","","","","","","","","","","","","","",""
"","ISI","","html-keyboard-response","47","996127","0.0-1.0-66.0","0","0","68791","","320","","","75","7","k","","","","","","","","","","","","","","",""
"","S2","","html-keyboard-response","48","996383","0.0-1.0-67.0","0","0","68791","","null","","","null","7","","NaN","","","","","","","","","","","","","",""
"","response","","html-keyboard-response","49","996806","0.0-1.0-68.0-0.0","0","0","68791","","419","","","75","7","","","1","7","training","adjacent","CD","3","4","P.jpg","O.jpg","1","1","1","",""
"","feedback","","html-keyboard-response","50","997812","0.0-1.0-69.0-0.0","0","0","68791","","null","","","null","7","","","","","","","","","","","","","","","",""
"","ITI","","html-keyboard-response","51","998821","0.0-1.0-72.0","0","0","68791","","null","","","null","7","","","","","","","","","","","","","","","NaN",""
"","S1","","html-keyboard-response","52","999076","0.0-1.0-74.0","0","0","68791","","null","","","null","8","","","","","","","","","","","","","","","",""
"","ISI","","html-keyboard-response","53","1000081","0.0-1.0-75.0","0","0","68791","","284","","","75","8","k","","","","","","","","","","","","","","",""
"","S2","","html-keyboard-response","54","1000176","0.0-1.0-76.0","0","0","68791","","85","","","75","8","","k","1","8","training","adjacent","ED","5","4","Q.jpg","O.jpg","1","0","0","",""
"","feedback","","html-keyboard-response","55","1001181","0.0-1.0-78.0-0.0","0","0","68791","","null","","","null","8","","","","","","","","","","","","","","","",""
"","time_out","","html-keyboard-response","56","1003186","0.0-1.0-80.0-0.0","0","0","68791","","null","","","null","8","","","","","","","","","","","","","","","",""
"","ITI","","html-keyboard-response","57","1004189","0.0-1.0-81.0","0","0","68791","","null","","","null","8","","","","","","","","","","","","","","","NaN",""
"","S1","","html-keyboard-response","58","1004443","0.0-1.0-83.0","0","0","68791","","null","","","null","9","","","","","","","","","","","","","","","",""
"","ISI","","html-keyboard-response","59","1005448","0.0-1.0-84.0","0","0","68791","","330","","","75","9","k","","","","","","","","","","","","","","",""
"","S2","","html-keyboard-response","60","1005705","0.0-1.0-85.0","0","0","68791","","null","","","null","9","","NaN","","","","","","","","","","","","","",""
"","response","","html-keyboard-response","61","1006127","0.0-1.0-86.0-0.0","0","0","68791","","417","","","75","9","","","1","9","training","adjacent","BA","2","1","R.jpg","N.jpg","1","0","0","",""
"","feedback","","html-keyboard-response","62","1007139","0.0-1.0-87.0-0.0","0","0","68791","","null","","","null","9","","","","","","","","","","","","","","","",""
"","time_out","","html-keyboard-response","63","1009161","0.0-1.0-89.0-0.0","0","0","68791","","null","","","null","9","","","","","","","","","","","","","","","",""
"","ITI","","html-keyboard-response","64","1010170","0.0-1.0-90.0","0","0","68791","","34","","","68","9","","","","","","","","","","","","","","","d",""
"","S1","","html-keyboard-response","65","1010427","0.0-1.0-92.0","0","0","68791","","null","","","null","10","","","","","","","","","","","","","","","",""
"","ISI","","html-keyboard-response","66","1011431","0.0-1.0-93.0","0","0","68791","","19","","","75","10","k","","","","","","","","","","","","","","",""
"","S2","","html-keyboard-response","67","1011485","0.0-1.0-94.0","0","0","68791","","45","","","68","10","","d","1","10","training","adjacent","BA","2","1","R.jpg","N.jpg","0","0","1","",""
"","feedback","","html-keyboard-response","68","1012491","0.0-1.0-96.0-0.0","0","0","68791","","null","","","null","10","","","","","","","","","","","","","","","",""
"","ITI","","html-keyboard-response","69","1013506","0.0-1.0-99.0","0","0","68791","","108","","","68","10","","","","","","","","","","","","","","","d",""
"","S1","","html-keyboard-response","70","1013759","0.0-1.0-101.0","0","0","68791","","null","","","null","11","","","","","","","","","","","","","","","",""
"","ISI","","html-keyboard-response","71","1014765","0.0-1.0-102.0","0","0","68791","","238","","","75","11","k","","","","","","","","","","","","","","",""
"","S2","","html-keyboard-response","72","1015021","0.0-1.0-103.0","0","0","68791","","null","","","null","11","","NaN","","","","","","","","","","","","","",""
"","response","","html-keyboard-response","73","1015104","0.0-1.0-104.0-0.0","0","0","68791","","78","","","75","11","","","1","11","training","adjacent","DE","4","5","O.jpg","Q.jpg","1","1","1","",""
"","feedback","","html-keyboard-response","74","1016110","0.0-1.0-105.0-0.0","0","0","68791","","null","","","null","11","","","","","","","","","","","","","","","",""
"","ITI","","html-keyboard-response","75","1017128","0.0-1.0-108.0","0","0","68791","","118","","","68","11","","","","","","","","","","","","","","","d",""
"","S1","","html-keyboard-response","76","1017387","0.0-1.0-110.0","0","0","68791","","null","","","null","12","","","","","","","","","","","","","","","",""
"","ISI","","html-keyboard-response","77","1018399","0.0-1.0-111.0","0","0","68791","","1","","","75","12","k","","","","","","","","","","","","","","",""
"","S2","","html-keyboard-response","78","1018524","0.0-1.0-112.0","0","0","68791","","115","","","68","12","","d","1","12","training","adjacent","BA","2","1","R.jpg","N.jpg","0","0","1","",""
"","feedback","","html-keyboard-response","79","1019531","0.0-1.0-114.0-0.0","0","0","68791","","null","","","null","12","","","","","","","","","","","","","","","",""
"","ITI","","html-keyboard-response","80","1020541","0.0-1.0-117.0","0","0","68791","","40","","","75","12","","","","","","","","","","","","","","","k",""
"","S1","","html-keyboard-response","81","1020799","0.0-1.0-119.0","0","0","68791","","null","","","null","13","","","","","","","","","","","","","","","",""
"","ISI","","html-keyboard-response","82","1021805","0.0-1.0-120.0","0","0","68791","","12","","","68","13","d","","","","","","","","","","","","","","",""
"","S2","","html-keyboard-response","83","1021860","0.0-1.0-121.0","0","0","68791","","51","","","68","13","","d","1","13","training","adjacent","DE","4","5","O.jpg","Q.jpg","0","1","0","",""
"","feedback","","html-keyboard-response","84","1022867","0.0-1.0-123.0-0.0","0","0","68791","","null","","","null","13","","","","","","","","","","","","","","","",""
"","time_out","","html-keyboard-response","85","1024873","0.0-1.0-125.0-0.0","0","0","68791","","null","","","null","13","","","","","","","","","","","","","","","",""
"","ITI","","html-keyboard-response","86","1025877","0.0-1.0-126.0","0","0","68791","","144","","","75","13","","","","","","","","","","","","","","","k",""
"","S1","","html-keyboard-response","87","1026136","0.0-1.0-128.0","0","0","68791","","null","","","null","14","","","","","","","","","","","","","","","",""
"","ISI","","html-keyboard-response","88","1027144","0.0-1.0-129.0","0","0","68791","","56","","","75","14","k","","","","","","","","","","","","","","",""
"","S2","","html-keyboard-response","89","1027284","0.0-1.0-130.0","0","0","68791","","129","","","68","14","","d","1","14","training","adjacent","FG","6","7","M.jpg","L.jpg","0","1","0","",""
"","feedback","","html-keyboard-response","90","1028293","0.0-1.0-132.0-0.0","0","0","68791","","null","","","null","14","","","","","","","","","","","","","","","",""
"","time_out","","html-keyboard-response","91","1030301","0.0-1.0-134.0-0.0","0","0","68791","","null","","","null","14","","","","","","","","","","","","","","","",""
"","ITI","","html-keyboard-response","92","1031312","0.0-1.0-135.0","0","0","68791","","212","","","68","14","","","","","","","","","","","","","","","d",""
"","S1","","html-keyboard-response","93","1031567","0.0-1.0-137.0","0","0","68791","","null","","","null","15","","","","","","","","","","","","","","","",""
"","ISI","","html-keyboard-response","94","1032575","0.0-1.0-138.0","0","0","68791","","65","","","68","15","d","","","","","","","","","","","","","","",""
"","S2","","html-keyboard-response","95","1032834","0.0-1.0-139.0","0","0","68791","","null","","","null","15","","NaN","","","","","","","","","","","","","",""
"","response","","html-keyboard-response","96","1033063","0.0-1.0-140.0-0.0","0","0","68791","","217","","","68","15","","","1","15","training","adjacent","ED","5","4","Q.jpg","O.jpg","0","0","1","",""
"","feedback","","html-keyboard-response","97","1034075","0.0-1.0-141.0-0.0","0","0","68791","","null","","","null","15","","","","","","","","","","","","","","","",""
"","ITI","","html-keyboard-response","98","1035081","0.0-1.0-144.0","0","0","68791","","38","","","75","15","","","","","","","","","","","","","","","k",""
"","S1","","html-keyboard-response","99","1035342","0.0-1.0-146.0","0","0","68791","","null","","","null","16","","","","","","","","","","","","","","","",""
"","ISI","","html-keyboard-response","100","1036346","0.0-1.0-147.0","0","0","68791","","270","","","75","16","k","","","","","","","","","","","","","","",""
"","S2","","html-keyboard-response","101","1036389","0.0-1.0-148.0","0","0","68791","","35","","","68","16","","d","1","16","training","adjacent","DC","4","3","O.jpg","P.jpg","0","0","1","",""
"","feedback","","html-keyboard-response","102","1037394","0.0-1.0-150.0-0.0","0","0","68791","","null","","","null","16","","","","","","","","","","","","","","","",""
"","ITI","","html-keyboard-response","103","1038399","0.0-1.0-153.0","0","0","68791","","198","","","68","16","","","","","","","","","","","","","","","d",""
"","S1","","html-keyboard-response","104","1038657","0.0-1.0-155.0","0","0","68791","","null","","","null","17","","","","","","","","","","","","","","","",""
"","ISI","","html-keyboard-response","105","1039679","0.0-1.0-156.0","0","0","68791","","200","","","68","17","d","","","","","","","","","","","","","","",""
"","S2","","html-keyboard-response","106","1039719","0.0-1.0-157.0","0","0","68791","","34","","","68","17","","d","1","17","training","adjacent","DE","4","5","O.jpg","Q.jpg","0","1","0","",""
"","feedback","","html-keyboard-response","107","1040725","0.0-1.0-159.0-0.0","0","0","68791","","null","","","null","17","","","","","","","","","","","","","","","",""
"","time_out","","html-keyboard-response","108","1042751","0.0-1.0-161.0-0.0","0","0","68791","","null","","","null","17","","","","","","","","","","","","","","","",""
"","ITI","","html-keyboard-response","109","1043758","0.0-1.0-162.0","0","0","68791","","28","","","68","17","","","","","","","","","","","","","","","d",""
"","S1","","html-keyboard-response","110","1044020","0.0-1.0-164.0","0","0","68791","","null","","","null","18","","","","","","","","","","","","","","","",""
"","ISI","","html-keyboard-response","111","1045023","0.0-1.0-165.0","0","0","68791","","12","","","68","18","d","","","","","","","","","","","","","","",""
"","S2","","html-keyboard-response","112","1045281","0.0-1.0-166.0","0","0","68791","","null","","","null","18","","NaN","","","","","","","","","","","","","",""
"","response","","html-keyboard-response","113","1045311","0.0-1.0-167.0-0.0","0","0","68791","","23","","","68","18","","","1","18","training","adjacent","BA","2","1","R.jpg","N.jpg","0","0","1","",""
"","feedback","","html-keyboard-response","114","1046322","0.0-1.0-168.0-0.0","0","0","68791","","null","","","null","18","","","","","","","","","","","","","","","",""
"","ITI","","html-keyboard-response","115","1047331","0.0-1.0-171.0","0","0","68791","","12","","","68","18","","","","","","","","","","","","","","","d",""
"","S1","","html-keyboard-response","116","1047587","0.0-1.0-173.0","0","0","68791","","null","","","null","19","","","","","","","","","","","","","","","",""
"","ISI","","html-keyboard-response","117","1048591","0.0-1.0-174.0","0","0","68791","","42","","","75","19","k","","","","","","","","","","","","","","",""
"","S2","","html-keyboard-response","118","1048745","0.0-1.0-175.0","0","0","68791","","148","","","68","19","","d","1","19","training","adjacent","FG","6","7","M.jpg","L.jpg","0","1","0","",""
"","feedback","","html-keyboard-response","119","1049755","0.0-1.0-177.0-0.0","0","0","68791","","null","","","null","19","","","","","","","","","","","","","","","",""
"","time_out","","html-keyboard-response","120","1051764","0.0-1.0-179.0-0.0","0","0","68791","","null","","","null","19","","","","","","","","","","","","","","","",""
"","ITI","","html-keyboard-response","121","1052774","0.0-1.0-180.0","0","0","68791","","101","","","75","19","","","","","","","","","","","","","","","k",""
"","S1","","html-keyboard-response","122","1053070","0.0-1.0-182.0","0","0","68791","","null","","","null","20","","","","","","","","","","","","","","","",""
"","ISI","","html-keyboard-response","123","1054074","0.0-1.0-183.0","0","0","68791","","153","","","75","20","k","","","","","","","","","","","","","","",""
"","S2","","html-keyboard-response","124","1054335","0.0-1.0-184.0","0","0","68791","","null","","","null","20","","NaN","","","","","","","","","","","","","",""
"","response","","html-keyboard-response","125","1054522","0.0-1.0-185.0-0.0","0","0","68791","","177","","","68","20","","","1","20","training","adjacent","GF","7","6","L.jpg","M.jpg","0","0","1","",""
"","feedback","","html-keyboard-response","126","1055538","0.0-1.0-186.0-0.0","0","0","68791","","null","","","null","20","","","","","","","","","","","","","","","",""
"","ITI","","html-keyboard-response","127","1056560","0.0-1.0-189.0","0","0","68791","","69","","","75","20","","","","","","","","","","","","","","","k",""
"","S1","","html-keyboard-response","128","1056816","0.0-1.0-191.0","0","0","68791","","null","","","null","21","","","","","","","","","","","","","","","",""
"","ISI","","html-keyboard-response","129","1057820","0.0-1.0-192.0","0","0","68791","","67","","","75","21","k","","","","","","","","","","","","","","",""
"","S2","","html-keyboard-response","130","1057885","0.0-1.0-193.0","0","0","68791","","19","","","75","21","","k","1","21","training","adjacent","AB","1","2","N.jpg","R.jpg","1","1","1","",""
"","feedback","","html-keyboard-response","131","1058890","0.0-1.0-195.0-0.0","0","0","68791","","null","","","null","21","","","","","","","","","","","","","","","",""
"","ITI","","html-keyboard-response","132","1059895","0.0-1.0-198.0","0","0","68791","","9","","","68","21","","","","","","","","","","","","","","","d",""
"","S1","","html-keyboard-response","133","1060152","0.0-1.0-200.0","0","0","68791","","null","","","null","22","","","","","","","","","","","","","","","",""
"","ISI","","html-keyboard-response","134","1061157","0.0-1.0-201.0","0","0","68791","","160","","","68","22","d","","","","","","","","","","","","","","",""
"","S2","","html-keyboard-response","135","1061413","0.0-1.0-202.0","0","0","68791","","null","","","null","22","","NaN","","","","","","","","","","","","","",""
"","response","","html-keyboard-response","136","1061470","0.0-1.0-203.0-0.0","0","0","68791","","51","","","68","22","","","1","22","training","adjacent","BC","2","3","R.jpg","P.jpg","0","1","0","",""
"","feedback","","html-keyboard-response","137","1062477","0.0-1.0-204.0-0.0","0","0","68791","","null","","","null","22","","","","","","","","","","","","","","","",""
"","time_out","","html-keyboard-response","138","1064488","0.0-1.0-206.0-0.0","0","0","68791","","null","","","null","22","","","","","","","","","","","","","","","",""
"","ITI","","html-keyboard-response","139","1065495","0.0-1.0-207.0","0","0","68791","","262","","","75","22","","","","","","","","","","","","","","","k",""
"","S1","","html-keyboard-response","140","1065758","0.0-1.0-209.0","0","0","68791","","null","","","null","23","","","","","","","","","","","","","","","",""
"","ISI","","html-keyboard-response","141","1066768","0.0-1.0-210.0","0","0","68791","","383","","","75","23","k","","","","","","","","","","","","","","",""
"","S2","","html-keyboard-response","142","1066894","0.0-1.0-211.0","0","0","68791","","120","","","75","23","","k","1","23","training","adjacent","CB","3","2","P.jpg","R.jpg","1","0","0","",""
"","feedback","","html-keyboard-response","143","1067901","0.0-1.0-213.0-0.0","0","0","68791","","null","","","null","23","","","","","","","","","","","","","","","",""
"","time_out","","html-keyboard-response","144","1069911","0.0-1.0-215.0-0.0","0","0","68791","","null","","","null","23","","","","","","","","","","","","","","","",""
"","ITI","","html-keyboard-response","145","1070915","0.0-1.0-216.0","0","0","68791","","468","","","68","23","","","","","","","","","","","","","","","d",""
"","S1","","html-keyboard-response","146","1071177","0.0-1.0-218.0","0","0","68791","","null","","","null","24","","","","","","","","","","","","","","","",""
"","ISI","","html-keyboard-response","147","1072183","0.0-1.0-219.0","0","0","68791","","404","","","68","24","d","","","","","","","","","","","","","","",""
"","S2","","html-keyboard-response","148","1072292","0.0-1.0-220.0","0","0","68791","","92","","","68","24","","d","1","24","training","adjacent","DC","4","3","O.jpg","P.jpg","0","0","1","",""
"","feedback","","html-keyboard-response","149","1073303","0.0-1.0-222.0-0.0","0","0","68791","","null","","","null","24","","","","","","","","","","","","","","","",""
"","ITI","","html-keyboard-response","150","1074311","0.0-1.0-225.0","0","0","68791","","104","","","68","24","","","","","","","","","","","","","","","d",""
"","S1","","html-keyboard-response","151","1074569","0.0-1.0-227.0","0","0","68791","","null","","","null","25","","","","","","","","","","","","","","","",""
"","ISI","","html-keyboard-response","152","1075576","0.0-1.0-228.0","0","0","68791","","49","","","68","25","d","","","","","","","","","","","","","","",""
"","S2","","html-keyboard-response","153","1075703","0.0-1.0-229.0","0","0","68791","","122","","","68","25","","d","1","25","training","adjacent","FE","6","5","M.jpg","Q.jpg","0","0","1","",""
"","feedback","","html-keyboard-response","154","1076711","0.0-1.0-231.0-0.0","0","0","68791","","null","","","null","25","","","","","","","","","","","","","","","",""
"","ITI","","html-keyboard-response","155","1077720","0.0-1.0-234.0","0","0","68791","","137","","","68","25","","","","","","","","","","","","","","","d",""
"","S1","","html-keyboard-response","156","1077977","0.0-1.0-236.0","0","0","68791","","null","","","null","26","","","","","","","","","","","","","","","",""
"","ISI","","html-keyboard-response","157","1078986","0.0-1.0-237.0","0","0","68791","","1","","","68","26","d","","","","","","","","","","","","","","",""
"","S2","","html-keyboard-response","158","1079103","0.0-1.0-238.0","0","0","68791","","112","","","68","26","","d","1","26","training","adjacent","ED","5","4","Q.jpg","O.jpg","0","0","1","",""
"","feedback","","html-keyboard-response","159","1080137","0.0-1.0-240.0-0.0","0","0","68791","","null","","","null","26","","","","","","","","","","","","","","","",""
"","ITI","","html-keyboard-response","160","1081143","0.0-1.0-243.0","0","0","68791","","78","","","75","26","","","","","","","","","","","","","","","k",""
"","S1","","html-keyboard-response","161","1081402","0.0-1.0-245.0","0","0","68791","","null","","","null","27","","","","","","","","","","","","","","","",""
"","ISI","","html-keyboard-response","162","1082410","0.0-1.0-246.0","0","0","68791","","198","","","68","27","d","","","","","","","","","","","","","","",""
"","S2","","html-keyboard-response","163","1082613","0.0-1.0-247.0","0","0","68791","","196","","","68","27","","d","1","27","training","adjacent","CB","3","2","P.jpg","R.jpg","0","0","1","",""
"","feedback","","html-keyboard-response","164","1083620","0.0-1.0-249.0-0.0","0","0","68791","","null","","","null","27","","","","","","","","","","","","","","","",""
"","ITI","","html-keyboard-response","165","1084626","0.0-1.0-252.0","0","0","68791","","157","","","68","27","","","","","","","","","","","","","","","d",""
"","S1","","html-keyboard-response","166","1084884","0.0-1.0-254.0","0","0","68791","","null","","","null","28","","","","","","","","","","","","","","","",""
"","ISI","","html-keyboard-response","167","1085888","0.0-1.0-255.0","0","0","68791","","290","","","68","28","d","","","","","","","","","","","","","","",""
"","S2","","html-keyboard-response","168","1086145","0.0-1.0-256.0","0","0","68791","","null","","","null","28","","NaN","","","","","","","","","","","","","",""
"","response","","html-keyboard-response","169","1086173","0.0-1.0-257.0-0.0","0","0","68791","","22","","","75","28","","","1","28","training","adjacent","DE","4","5","O.jpg","Q.jpg","1","1","1","",""
"","feedback","","html-keyboard-response","170","1087181","0.0-1.0-258.0-0.0","0","0","68791","","null","","","null","28","","","","","","","","","","","","","","","",""
"","ITI","","html-keyboard-response","171","1088191","0.0-1.0-261.0","0","0","68791","","428","","","75","28","","","","","","","","","","","","","","","k",""
"","S1","","html-keyboard-response","172","1088455","0.0-1.0-263.0","0","0","68791","","null","","","null","29","","","","","","","","","","","","","","","",""
"","ISI","","html-keyboard-response","173","1089461","0.0-1.0-264.0","0","0","68791","","44","","","75","29","k","","","","","","","","","","","","","","",""
"","S2","","html-keyboard-response","174","1089717","0.0-1.0-265.0","0","0","68791","","null","","","null","29","","NaN","","","","","","","","","","","","","",""
"","response","","html-keyboard-response","175","1089878","0.0-1.0-266.0-0.0","0","0","68791","","152","","","75","29","","","1","29","training","adjacent","EF","5","6","Q.jpg","M.jpg","1","1","1","",""
"","feedback","","html-keyboard-response","176","1090888","0.0-1.0-267.0-0.0","0","0","68791","","null","","","null","29","","","","","","","","","","","","","","","",""
"","ITI","","html-keyboard-response","177","1091894","0.0-1.0-270.0","0","0","68791","","349","","","68","29","","","","","","","","","","","","","","","d",""
"","S1","","html-keyboard-response","178","1092149","0.0-1.0-272.0","0","0","68791","","null","","","null","30","","","","","","","","","","","","","","","",""
"","ISI","","html-keyboard-response","179","1093153","0.0-1.0-273.0","0","0","68791","","374","","","68","30","d","","","","","","","","","","","","","","",""
"","S2","","html-keyboard-response","180","1093400","0.0-1.0-274.0","0","0","68791","","226","","","68","30","","d","1","30","training","adjacent","BC","2","3","R.jpg","P.jpg","0","1","0","",""
"","feedback","","html-keyboard-response","181","1094407","0.0-1.0-276.0-0.0","0","0","68791","","null","","","null","30","","","","","","","","","","","","","","","",""
"","time_out","","html-keyboard-response","182","1096427","0.0-1.0-278.0-0.0","0","0","68791","","null","","","null","30","","","","","","","","","","","","","","","",""
"","ITI","","html-keyboard-response","183","1097439","0.0-1.0-279.0","0","0","68791","","137","","","68","30","","","","","","","","","","","","","","","d",""
"","S1","","html-keyboard-response","184","1097722","0.0-1.0-281.0","0","0","68791","","null","","","null","31","","","","","","","","","","","","","","","",""
"","ISI","","html-keyboard-response","185","1098727","0.0-1.0-282.0","0","0","68791","","295","","","68","31","d","","","","","","","","","","","","","","",""
"","S2","","html-keyboard-response","186","1098838","0.0-1.0-283.0","0","0","68791","","102","","","75","31","","k","1","31","training","adjacent","AB","1","2","N.jpg","R.jpg","1","1","1","",""
"","feedback","","html-keyboard-response","187","1099844","0.0-1.0-285.0-0.0","0","0","68791","","null","","","null","31","","","","","","","","","","","","","","","",""
"","ITI","","html-keyboard-response","188","1100852","0.0-1.0-288.0","0","0","68791","","118","","","68","31","","","","","","","","","","","","","","","d",""
"","S1","","html-keyboard-response","189","1101108","0.0-1.0-290.0","0","0","68791","","null","","","null","32","","","","","","","","","","","","","","","",""
"","ISI","","html-keyboard-response","190","1102114","0.0-1.0-291.0","0","0","68791","","22","","","75","32","k","","","","","","","","","","","","","","",""
"","S2","","html-keyboard-response","191","1102335","0.0-1.0-292.0","0","0","68791","","215","","","68","32","","d","1","32","training","adjacent","FG","6","7","M.jpg","L.jpg","0","1","0","",""
"","feedback","","html-keyboard-response","192","1103341","0.0-1.0-294.0-0.0","0","0","68791","","null","","","null","32","","","","","","","","","","","","","","","",""
"","time_out","","html-keyboard-response","193","1105346","0.0-1.0-296.0-0.0","0","0","68791","","null","","","null","32","","","","","","","","","","","","","","","",""
"","ITI","","html-keyboard-response","194","1106353","0.0-1.0-297.0","0","0","68791","","82","","","68","32","","","","","","","","","","","","","","","d",""
"","S1","","html-keyboard-response","195","1106611","0.0-1.0-299.0","0","0","68791","","null","","","null","33","","","","","","","","","","","","","","","",""
"","ISI","","html-keyboard-response","196","1107619","0.0-1.0-300.0","0","0","68791","","92","","","68","33","d","","","","","","","","","","","","","","",""
"","S2","","html-keyboard-response","197","1107877","0.0-1.0-301.0","0","0","68791","","null","","","null","33","","NaN","","","","","","","","","","","","","",""
"","response","","html-keyboard-response","198","1108084","0.0-1.0-302.0-0.0","0","0","68791","","200","","","68","33","","","1","33","training","adjacent","CD","3","4","P.jpg","O.jpg","0","1","0","",""
"","feedback","","html-keyboard-response","199","1109091","0.0-1.0-303.0-0.0","0","0","68791","","null","","","null","33","","","","","","","","","","","","","","","",""
"","time_out","","html-keyboard-response","200","1111100","0.0-1.0-305.0-0.0","0","0","68791","","null","","","null","33","","","","","","","","","","","","","","","",""
"","ITI","","html-keyboard-response","201","1112117","0.0-1.0-306.0","0","0","68791","","0","","","68","33","","","","","","","","","","","","","","","d",""
"","S1","","html-keyboard-response","202","1112377","0.0-1.0-308.0","0","0","68791","","null","","","null","34","","","","","","","","","","","","","","","",""
"","ISI","","html-keyboard-response","203","1113380","0.0-1.0-309.0","0","0","68791","","578","","","68","34","d","","","","","","","","","","","","","","",""
"","S2","","html-keyboard-response","204","1113647","0.0-1.0-310.0","0","0","68791","","null","","","null","34","","NaN","","","","","","","","","","","","","",""
"","response","","html-keyboard-response","205","1113654","0.0-1.0-311.0-0.0","0","0","68791","","1","","","75","34","","","1","34","training","adjacent","CB","3","2","P.jpg","R.jpg","1","0","0","",""
"","feedback","","html-keyboard-response","206","1114743","0.0-1.0-312.0-0.0","0","0","68791","","null","","","null","34","","","","","","","","","","","","","","","",""
"","time_out","","html-keyboard-response","207","1116754","0.0-1.0-314.0-0.0","0","0","68791","","null","","","null","34","","","","","","","","","","","","","","","",""
"","ITI","","html-keyboard-response","208","1117763","0.0-1.0-315.0","0","0","68791","","11","","","68","34","","","","","","","","","","","","","","","d",""
"","S1","","html-keyboard-response","209","1118018","0.0-1.0-317.0","0","0","68791","","null","","","null","35","","","","","","","","","","","","","","","",""
"","ISI","","html-keyboard-response","210","1119037","0.0-1.0-318.0","0","0","68791","","11","","","75","35","k","","","","","","","","","","","","","","",""
"","S2","","html-keyboard-response","211","1119297","0.0-1.0-319.0","0","0","68791","","null","","","null","35","","NaN","","","","","","","","","","","","","",""
"","response","","html-keyboard-response","212","1119308","0.0-1.0-320.0-0.0","0","0","68791","","2","","","68","35","","","1","35","training","adjacent","FE","6","5","M.jpg","Q.jpg","0","0","1","",""
"","feedback","","html-keyboard-response","213","1120336","0.0-1.0-321.0-0.0","0","0","68791","","null","","","null","35","","","","","","","","","","","","","","","",""
"","ITI","","html-keyboard-response","214","1121351","0.0-1.0-324.0","0","0","68791","","12","","","75","35","","","","","","","","","","","","","","","k",""
"","S1","","html-keyboard-response","215","1121608","0.0-1.0-326.0","0","0","68791","","null","","","null","36","","","","","","","","","","","","","","","",""
"","ISI","","html-keyboard-response","216","1122617","0.0-1.0-327.0","0","0","68791","","78","","","68","36","d","","","","","","","","","","","","","","",""
"","S2","","html-keyboard-response","217","1122878","0.0-1.0-328.0","0","0","68791","","242","","","68","36","","d","1","36","training","adjacent","BC","2","3","R.jpg","P.jpg","0","1","0","",""
"","feedback","","html-keyboard-response","218","1123886","0.0-1.0-330.0-0.0","0","0","68791","","null","","","null","36","","","","","","","","","","","","","","","",""
"","time_out","","html-keyboard-response","219","1125893","0.0-1.0-332.0-0.0","0","0","68791","","null","","","null","36","","","","","","","","","","","","","","","",""
"","ITI","","html-keyboard-response","220","1126900","0.0-1.0-333.0","0","0","68791","","97","","","68","36","","","","","","","","","","","","","","","d",""
"","S1","","html-keyboard-response","221","1127158","0.0-1.0-335.0","0","0","68791","","null","","","null","37","","","","","","","","","","","","","","","",""
"","ISI","","html-keyboard-response","222","1128162","0.0-1.0-336.0","0","0","68791","","421","","","68","37","d","","","","","","","","","","","","","","",""
"","S2","","html-keyboard-response","223","1128421","0.0-1.0-337.0","0","0","68791","","null","","","null","37","","NaN","","","","","","","","","","","","","",""
"","response","","html-keyboard-response","224","1128580","0.0-1.0-338.0-0.0","0","0","68791","","146","","","68","37","","","1","37","training","adjacent","CD","3","4","P.jpg","O.jpg","0","1","0","",""
"","feedback","","html-keyboard-response","225","1129591","0.0-1.0-339.0-0.0","0","0","68791","","null","","","null","37","","","","","","","","","","","","","","","",""
"","time_out","","html-keyboard-response","226","1131596","0.0-1.0-341.0-0.0","0","0","68791","","null","","","null","37","","","","","","","","","","","","","","","",""
"","ITI","","html-keyboard-response","227","1132605","0.0-1.0-342.0","0","0","68791","","234","","","75","37","","","","","","","","","","","","","","","k",""
"","S1","","html-keyboard-response","228","1132865","0.0-1.0-344.0","0","0","68791","","null","","","null","38","","","","","","","","","","","","","","","",""
"","ISI","","html-keyboard-response","229","1133869","0.0-1.0-345.0","0","0","68791","","248","","","75","38","k","","","","","","","","","","","","","","",""
"","S2","","html-keyboard-response","230","1133926","0.0-1.0-346.0","0","0","68791","","51","","","75","38","","k","1","38","training","adjacent","GF","7","6","L.jpg","M.jpg","1","0","0","",""
"","feedback","","html-keyboard-response","231","1134935","0.0-1.0-348.0-0.0","0","0","68791","","null","","","null","38","","","","","","","","","","","","","","","",""
"","time_out","","html-keyboard-response","232","1136977","0.0-1.0-350.0-0.0","0","0","68791","","null","","","null","38","","","","","","","","","","","","","","","",""
"","ITI","","html-keyboard-response","233","1137986","0.0-1.0-351.0","0","0","68791","","204","","","68","38","","","","","","","","","","","","","","","d",""
"","S1","","html-keyboard-response","234","1138241","0.0-1.0-353.0","0","0","68791","","null","","","null","39","","","","","","","","","","","","","","","",""
"","ISI","","html-keyboard-response","235","1139248","0.0-1.0-354.0","0","0","68791","","253","","","75","39","k","","","","","","","","","","","","","","",""
"","S2","","html-keyboard-response","236","1139504","0.0-1.0-355.0","0","0","68791","","null","","","null","39","","NaN","","","","","","","","","","","","","",""
"","response","","html-keyboard-response","237","1139760","0.0-1.0-356.0-0.0","0","0","68791","","251","","","68","39","","","1","39","training","adjacent","GF","7","6","L.jpg","M.jpg","0","0","1","",""
"","feedback","","html-keyboard-response","238","1140772","0.0-1.0-357.0-0.0","0","0","68791","","null","","","null","39","","","","","","","","","","","","","","","",""
"","ITI","","html-keyboard-response","239","1141779","0.0-1.0-360.0","0","0","68791","","null","","","null","39","","","","","","","","","","","","","","","NaN",""
"","S1","","html-keyboard-response","240","1142034","0.0-1.0-362.0","0","0","68791","","null","","","null","40","","","","","","","","","","","","","","","",""
"","ISI","","html-keyboard-response","241","1143042","0.0-1.0-363.0","0","0","68791","","374","","","75","40","k","","","","","","","","","","","","","","",""
"","S2","","html-keyboard-response","242","1143304","0.0-1.0-364.0","0","0","68791","","null","","","null","40","","NaN","","","","","","","","","","","","","",""
"","response","","html-keyboard-response","243","1143856","0.0-1.0-365.0-0.0","0","0","68791","","544","","","68","40","","","1","40","training","adjacent","EF","5","6","Q.jpg","M.jpg","0","1","0","",""
"","feedback","","html-keyboard-response","244","1144865","0.0-1.0-366.0-0.0","0","0","68791","","null","","","null","40","","","","","","","","","","","","","","","",""
"","time_out","","html-keyboard-response","245","1146926","0.0-1.0-368.0-0.0","0","0","68791","","null","","","null","40","","","","","","","","","","","","","","","",""
"","ITI","","html-keyboard-response","246","1147942","0.0-1.0-369.0","0","0","68791","","null","","","null","40","","","","","","","","","","","","","","","NaN",""
"","S1","","html-keyboard-response","247","1148199","0.0-1.0-371.0","0","0","68791","","null","","","null","41","","","","","","","","","","","","","","","",""
"","ISI","","html-keyboard-response","248","1149207","0.0-1.0-372.0","0","0","68791","","351","","","75","41","k","","","","","","","","","","","","","","",""
"","S2","","html-keyboard-response","249","1149469","0.0-1.0-373.0","0","0","68791","","null","","","null","41","","NaN","","","","","","","","","","","","","",""
"","response","","html-keyboard-response","250","1149955","0.0-1.0-374.0-0.0","0","0","68791","","480","","","75","41","","","1","41","training","adjacent","FE","6","5","M.jpg","Q.jpg","1","0","0","",""
"","feedback","","html-keyboard-response","251","1150961","0.0-1.0-375.0-0.0","0","0","68791","","null","","","null","41","","","","","","","","","","","","","","","",""
"","time_out","","html-keyboard-response","252","1152973","0.0-1.0-377.0-0.0","0","0","68791","","null","","","null","41","","","","","","","","","","","","","","","",""
"","ITI","","html-keyboard-response","253","1153984","0.0-1.0-378.0","0","0","68791","","619","","","75","41","","","","","","","","","","","","","","","k",""
"","S1","","html-keyboard-response","254","1154255","0.0-1.0-380.0","0","0","68791","","null","","","null","42","","","","","","","","","","","","","","","",""
"","ISI","","html-keyboard-response","255","1155271","0.0-1.0-381.0","0","0","68791","","105","","","75","42","k","","","","","","","","","","","","","","",""
"","S2","","html-keyboard-response","256","1155529","0.0-1.0-382.0","0","0","68791","","null","","","null","42","","NaN","","","","","","","","","","","","","",""
"","response","","html-keyboard-response","257","1156007","0.0-1.0-383.0-0.0","0","0","68791","","469","","","75","42","","","1","42","training","adjacent","AB","1","2","N.jpg","R.jpg","1","1","1","",""
"","feedback","","html-keyboard-response","258","1157016","0.0-1.0-384.0-0.0","0","0","68791","","null","","","null","42","","","","","","","","","","","","","","","",""
"","ITI","","html-keyboard-response","259","1158049","0.0-1.0-387.0","0","0","68791","","601","","","75","42","","","","","","","","","","","","","","","k",""
"","S1","","html-keyboard-response","260","1158305","0.0-1.0-389.0","0","0","68791","","null","","","null","43","","","","","","","","","","","","","","","",""
"","ISI","","html-keyboard-response","261","1159312","0.0-1.0-390.0","0","0","68791","","30","","","68","43","d","","","","","","","","","","","","","","",""
"","S2","","html-keyboard-response","262","1159570","0.0-1.0-391.0","0","0","68791","","null","","","null","43","","NaN","","","","","","","","","","","","","",""
"","response","","html-keyboard-response","263","1159801","0.0-1.0-392.0-0.0","0","0","68791","","225","","","75","43","","","1","43","training","adjacent","BC","2","3","R.jpg","P.jpg","1","1","1","",""
"","feedback","","html-keyboard-response","264","1160825","0.0-1.0-393.0-0.0","0","0","68791","","null","","","null","43","","","","","","","","","","","","","","","",""
"","ITI","","html-keyboard-response","265","1161831","0.0-1.0-396.0","0","0","68791","","525","","","75","43","","","","","","","","","","","","","","","k",""
"","S1","","html-keyboard-response","266","1162088","0.0-1.0-398.0","0","0","68791","","null","","","null","44","","","","","","","","","","","","","","","",""
"","ISI","","html-keyboard-response","267","1163092","0.0-1.0-399.0","0","0","68791","","649","","","68","44","d","","","","","","","","","","","","","","",""
"","S2","","html-keyboard-response","268","1163390","0.0-1.0-400.0","0","0","68791","","268","","","68","44","","d","1","44","training","adjacent","EF","5","6","Q.jpg","M.jpg","0","1","0","",""
"","feedback","","html-keyboard-response","269","1164407","0.0-1.0-402.0-0.0","0","0","68791","","null","","","null","44","","","","","","","","","","","","","","","",""
"","time_out","","html-keyboard-response","270","1166431","0.0-1.0-404.0-0.0","0","0","68791","","null","","","null","44","","","","","","","","","","","","","","","",""
"","ITI","","html-keyboard-response","271","1167438","0.0-1.0-405.0","0","0","68791","","255","","","68","44","","","","","","","","","","","","","","","d",""
"","S1","","html-keyboard-response","272","1167720","0.0-1.0-407.0","0","0","68791","","null","","","null","45","","","","","","","","","","","","","","","",""
"","ISI","","html-keyboard-response","273","1168726","0.0-1.0-408.0","0","0","68791","","356","","","68","45","d","","","","","","","","","","","","","","",""
"","S2","","html-keyboard-response","274","1168747","0.0-1.0-409.0","0","0","68791","","15","","","68","45","","d","1","45","training","adjacent","DC","4","3","O.jpg","P.jpg","0","0","1","",""
"","feedback","","html-keyboard-response","275","1169758","0.0-1.0-411.0-0.0","0","0","68791","","null","","","null","45","","","","","","","","","","","","","","","",""
"","ITI","","html-keyboard-response","276","1170766","0.0-1.0-414.0","0","0","68791","","384","","","68","45","","","","","","","","","","","","","","","d",""
"","S1","","html-keyboard-response","277","1171022","0.0-1.0-416.0","0","0","68791","","null","","","null","46","","","","","","","","","","","","","","","",""
"","ISI","","html-keyboard-response","278","1172029","0.0-1.0-417.0","0","0","68791","","571","","","68","46","d","","","","","","","","","","","","","","",""
"","S2","","html-keyboard-response","279","1172199","0.0-1.0-418.0","0","0","68791","","157","","","68","46","","d","1","46","training","adjacent","EF","5","6","Q.jpg","M.jpg","0","1","0","",""
"","feedback","","html-keyboard-response","280","1173207","0.0-1.0-420.0-0.0","0","0","68791","","null","","","null","46","","","","","","","","","","","","","","","",""
"","time_out","","html-keyboard-response","281","1175228","0.0-1.0-422.0-0.0","0","0","68791","","null","","","null","46","","","","","","","","","","","","","","","",""
"","ITI","","html-keyboard-response","282","1176235","0.0-1.0-423.0","0","0","68791","","35","","","68","46","","","","","","","","","","","","","","","d",""
"","S1","","html-keyboard-response","283","1176490","0.0-1.0-425.0","0","0","68791","","null","","","null","47","","","","","","","","","","","","","","","",""
"","ISI","","html-keyboard-response","284","1177530","0.0-1.0-426.0","0","0","68791","","0","","","75","47","k","","","","","","","","","","","","","","",""
"","S2","","html-keyboard-response","285","1177757","0.0-1.0-427.0","0","0","68791","","222","","","75","47","","k","1","47","training","adjacent","FG","6","7","M.jpg","L.jpg","1","1","1","",""
"","feedback","","html-keyboard-response","286","1178764","0.0-1.0-429.0-0.0","0","0","68791","","null","","","null","47","","","","","","","","","","","","","","","",""
"","ITI","","html-keyboard-response","287","1179771","0.0-1.0-432.0","0","0","68791","","104","","","68","47","","","","","","","","","","","","","","","d",""
"","block_over","","html-keyboard-response","288","1257327","0.0-1.0-433.0-0.0","0","0","68791","","77536","","","32","47","","","","","","","","","","","","","","","",""
"","S1","","html-keyboard-response","289","1257583","0.0-1.0-434.0","0","0","68791","","null","","","null","48","","","","","","","","","","","","","","","",""
"","ISI","","html-keyboard-response","290","1258591","0.0-1.0-435.0","0","0","68791","","509","","","75","48","k","","","","","","","","","","","","","","",""
"","S2","","html-keyboard-response","291","1258690","0.0-1.0-436.0","0","0","68791","","88","","","75","48","","k","2","48","training","adjacent","DC","4","3","O.jpg","P.jpg","1","0","0","",""
"","feedback","","html-keyboard-response","292","1259698","0.0-1.0-438.0-0.0","0","0","68791","","null","","","null","48","","","","","","","","","","","","","","","",""
"","time_out","","html-keyboard-response","293","1261704","0.0-1.0-440.0-0.0","0","0","68791","","null","","","null","48","","","","","","","","","","","","","","","",""
"","ITI","","html-keyboard-response","294","1262713","0.0-1.0-441.0","0","0","68791","","335","","","68","48","","","","","","","","","","","","","","","d",""
"","S1","","html-keyboard-response","295","1262971","0.0-1.0-443.0","0","0","68791","","null","","","null","49","","","","","","","","","","","","","","","",""
"","ISI","","html-keyboard-response","296","1263980","0.0-1.0-444.0","0","0","68791","","0","","","68","49","d","","","","","","","","","","","","","","",""
"","S2","","html-keyboard-response","297","1264256","0.0-1.0-445.0","0","0","68791","","null","","","null","49","","NaN","","","","","","","","","","","","","",""
"","response","","html-keyboard-response","298","1264354","0.0-1.0-446.0-0.0","0","0","68791","","90","","","75","49","","","2","49","training","adjacent","DC","4","3","O.jpg","P.jpg","1","0","0","",""
"","feedback","","html-keyboard-response","299","1265361","0.0-1.0-447.0-0.0","0","0","68791","","null","","","null","49","","","","","","","","","","","","","","","",""
"","time_out","","html-keyboard-response","300","1267369","0.0-1.0-449.0-0.0","0","0","68791","","null","","","null","49","","","","","","","","","","","","","","","",""
"","ITI","","html-keyboard-response","301","1268375","0.0-1.0-450.0","0","0","68791","","80","","","68","49","","","","","","","","","","","","","","","d",""
"","S1","","html-keyboard-response","302","1268632","0.0-1.0-452.0","0","0","68791","","null","","","null","50","","","","","","","","","","","","","","","",""
"","ISI","","html-keyboard-response","303","1269638","0.0-1.0-453.0","0","0","68791","","170","","","75","50","k","","","","","","","","","","","","","","",""
"","S2","","html-keyboard-response","304","1269669","0.0-1.0-454.0","0","0","68791","","24","","","75","50","","k","2","50","training","adjacent","GF","7","6","L.jpg","M.jpg","1","0","0","",""
"","feedback","","html-keyboard-response","305","1270678","0.0-1.0-456.0-0.0","0","0","68791","","null","","","null","50","","","","","","","","","","","","","","","",""
"","time_out","","html-keyboard-response","306","1272685","0.0-1.0-458.0-0.0","0","0","68791","","null","","","null","50","","","","","","","","","","","","","","","",""
"","ITI","","html-keyboard-response","307","1273691","0.0-1.0-459.0","0","0","68791","","773","","","68","50","","","","","","","","","","","","","","","d",""
"","S1","","html-keyboard-response","308","1273946","0.0-1.0-461.0","0","0","68791","","null","","","null","51","","","","","","","","","","","","","","","",""
"","ISI","","html-keyboard-response","309","1274956","0.0-1.0-462.0","0","0","68791","","291","","","75","51","k","","","","","","","","","","","","","","",""
"","S2","","html-keyboard-response","310","1274967","0.0-1.0-463.0","0","0","68791","","1","","","75","51","","k","2","51","training","adjacent","ED","5","4","Q.jpg","O.jpg","1","0","0","",""
"","feedback","","html-keyboard-response","311","1275975","0.0-1.0-465.0-0.0","0","0","68791","","null","","","null","51","","","","","","","","","","","","","","","",""
"","time_out","","html-keyboard-response","312","1277986","0.0-1.0-467.0-0.0","0","0","68791","","null","","","null","51","","","","","","","","","","","","","","","",""
"","ITI","","html-keyboard-response","313","1279014","0.0-1.0-468.0","0","0","68791","","536","","","75","51","","","","","","","","","","","","","","","k",""
"","S1","","html-keyboard-response","314","1279269","0.0-1.0-470.0","0","0","68791","","null","","","null","52","","","","","","","","","","","","","","","",""
"","ISI","","html-keyboard-response","315","1280277","0.0-1.0-471.0","0","0","68791","","397","","","68","52","d","","","","","","","","","","","","","","",""
"","S2","","html-keyboard-response","316","1280366","0.0-1.0-472.0","0","0","68791","","75","","","68","52","","d","2","52","training","adjacent","ED","5","4","Q.jpg","O.jpg","0","0","1","",""
"","feedback","","html-keyboard-response","317","1281372","0.0-1.0-474.0-0.0","0","0","68791","","null","","","null","52","","","","","","","","","","","","","","","",""
"","ITI","","html-keyboard-response","318","1282392","0.0-1.0-477.0","0","0","68791","","473","","","75","52","","","","","","","","","","","","","","","k",""
"","S1","","html-keyboard-response","319","1282657","0.0-1.0-479.0","0","0","68791","","null","","","null","53","","","","","","","","","","","","","","","",""
"","ISI","","html-keyboard-response","320","1283662","0.0-1.0-480.0","0","0","68791","","455","","","75","53","k","","","","","","","","","","","","","","",""
"","S2","","html-keyboard-response","321","1283853","0.0-1.0-481.0","0","0","68791","","181","","","75","53","","k","2","53","training","adjacent","AB","1","2","N.jpg","R.jpg","1","1","1","",""
"","feedback","","html-keyboard-response","322","1284860","0.0-1.0-483.0-0.0","0","0","68791","","null","","","null","53","","","","","","","","","","","","","","","",""
"","ITI","","html-keyboard-response","323","1285868","0.0-1.0-486.0","0","0","68791","","344","","","68","53","","","","","","","","","","","","","","","d",""
"","S1","","html-keyboard-response","324","1286126","0.0-1.0-488.0","0","0","68791","","null","","","null","54","","","","","","","","","","","","","","","",""
"","ISI","","html-keyboard-response","325","1287130","0.0-1.0-489.0","0","0","68791","","306","","","68","54","d","","","","","","","","","","","","","","",""
"","S2","","html-keyboard-response","326","1287357","0.0-1.0-490.0","0","0","68791","","223","","","68","54","","d","2","54","training","adjacent","GF","7","6","L.jpg","M.jpg","0","0","1","",""
"","feedback","","html-keyboard-response","327","1288364","0.0-1.0-492.0-0.0","0","0","68791","","null","","","null","54","","","","","","","","","","","","","","","",""
"","ITI","","html-keyboard-response","328","1289368","0.0-1.0-495.0","0","0","68791","","326","","","75","54","","","","","","","","","","","","","","","k",""
"","S1","","html-keyboard-response","329","1289625","0.0-1.0-497.0","0","0","68791","","null","","","null","55","","","","","","","","","","","","","","","",""
"","ISI","","html-keyboard-response","330","1290694","0.0-1.0-498.0","0","0","68791","","87","","","75","55","k","","","","","","","","","","","","","","",""
"","S2","","html-keyboard-response","331","1290705","0.0-1.0-499.0","0","0","68791","","7","","","75","55","","k","2","55","training","adjacent","AB","1","2","N.jpg","R.jpg","1","1","1","",""
"","feedback","","html-keyboard-response","332","1291719","0.0-1.0-501.0-0.0","0","0","68791","","null","","","null","55","","","","","","","","","","","","","","","",""
"","ITI","","html-keyboard-response","333","1292732","0.0-1.0-504.0","0","0","68791","","null","","","null","55","","","","","","","","","","","","","","","NaN",""
"","S1","","html-keyboard-response","334","1292988","0.0-1.0-506.0","0","0","68791","","null","","","null","56","","","","","","","","","","","","","","","",""
"","ISI","","html-keyboard-response","335","1293999","0.0-1.0-507.0","0","0","68791","","631","","","75","56","k","","","","","","","","","","","","","","",""
"","S2","","html-keyboard-response","336","1294206","0.0-1.0-508.0","0","0","68791","","196","","","75","56","","k","2","56","training","adjacent","CD","3","4","P.jpg","O.jpg","1","1","1","",""
"","feedback","","html-keyboard-response","337","1295212","0.0-1.0-510.0-0.0","0","0","68791","","null","","","null","56","","","","","","","","","","","","","","","",""
"","ITI","","html-keyboard-response","338","1296217","0.0-1.0-513.0","0","0","68791","","null","","","null","56","","","","","","","","","","","","","","","NaN",""
"","S1","","html-keyboard-response","339","1296546","0.0-1.0-515.0","0","0","68791","","null","","","null","57","","","","","","","","","","","","","","","",""
"","ISI","","html-keyboard-response","340","1297557","0.0-1.0-516.0","0","0","68791","","null","","","null","57","NaN","","","","","","","","","","","","","","",""
"","S2","","html-keyboard-response","341","1297816","0.0-1.0-517.0","0","0","68791","","null","","","null","57","","NaN","","","","","","","","","","","","","",""
"","response","","html-keyboard-response","342","1298013","0.0-1.0-518.0-0.0","0","0","68791","","191","","","68","57","","","2","57","training","adjacent","DE","4","5","O.jpg","Q.jpg","0","1","0","",""
"","feedback","","html-keyboard-response","343","1299021","0.0-1.0-519.0-0.0","0","0","68791","","null","","","null","57","","","","","","","","","","","","","","","",""
"","time_out","","html-keyboard-response","344","1301028","0.0-1.0-521.0-0.0","0","0","68791","","null","","","null","57","","","","","","","","","","","","","","","",""
"","ITI","","html-keyboard-response","345","1302032","0.0-1.0-522.0","0","0","68791","","null","","","null","57","","","","","","","","","","","","","","","NaN",""
"","S1","","html-keyboard-response","346","1302287","0.0-1.0-524.0","0","0","68791","","null","","","null","58","","","","","","","","","","","","","","","",""
"","ISI","","html-keyboard-response","347","1303293","0.0-1.0-525.0","0","0","68791","","null","","","null","58","NaN","","","","","","","","","","","","","","",""
"","S2","","html-keyboard-response","348","1303563","0.0-1.0-526.0","0","0","68791","","null","","","null","58","","NaN","","","","","","","","","","","","","",""
"","response","","html-keyboard-response","349","1304053","0.0-1.0-527.0-0.0","0","0","68791","","483","","","75","58","","","2","58","training","adjacent","BA","2","1","R.jpg","N.jpg","1","0","0","",""
"","feedback","","html-keyboard-response","350","1305062","0.0-1.0-528.0-0.0","0","0","68791","","null","","","null","58","","","","","","","","","","","","","","","",""
"","time_out","","html-keyboard-response","351","1307073","0.0-1.0-530.0-0.0","0","0","68791","","null","","","null","58","","","","","","","","","","","","","","","",""
"","ITI","","html-keyboard-response","352","1308130","0.0-1.0-531.0","0","0","68791","","null","","","null","58","","","","","","","","","","","","","","","NaN",""
"","S1","","html-keyboard-response","353","1308388","0.0-1.0-533.0","0","0","68791","","null","","","null","59","","","","","","","","","","","","","","","",""
"","ISI","","html-keyboard-response","354","1309392","0.0-1.0-534.0","0","0","68791","","null","","","null","59","NaN","","","","","","","","","","","","","","",""
"","S2","","html-keyboard-response","355","1309647","0.0-1.0-535.0","0","0","68791","","null","","","null","59","","NaN","","","","","","","","","","","","","",""
"","response","","html-keyboard-response","356","1310152","0.0-1.0-536.0-0.0","0","0","68791","","502","","","68","59","","","2","59","training","adjacent","BC","2","3","R.jpg","P.jpg","0","1","0","",""
"","feedback","","html-keyboard-response","357","1311157","0.0-1.0-537.0-0.0","0","0","68791","","null","","","null","59","","","","","","","","","","","","","","","",""
"","time_out","","html-keyboard-response","358","1313161","0.0-1.0-539.0-0.0","0","0","68791","","null","","","null","59","","","","","","","","","","","","","","","",""
"","ITI","","html-keyboard-response","359","1314166","0.0-1.0-540.0","0","0","68791","","null","","","null","59","","","","","","","","","","","","","","","NaN",""
"","S1","","html-keyboard-response","360","1314425","0.0-1.0-542.0","0","0","68791","","null","","","null","60","","","","","","","","","","","","","","","",""
"","ISI","","html-keyboard-response","361","1315432","0.0-1.0-543.0","0","0","68791","","null","","","null","60","NaN","","","","","","","","","","","","","","",""
"","S2","","html-keyboard-response","362","1315688","0.0-1.0-544.0","0","0","68791","","null","","","null","60","","NaN","","","","","","","","","","","","","",""
"","response","","html-keyboard-response","363","1316130","0.0-1.0-545.0-0.0","0","0","68791","","439","","","68","60","","","2","60","training","adjacent","EF","5","6","Q.jpg","M.jpg","0","1","0","",""
"","feedback","","html-keyboard-response","364","1317143","0.0-1.0-546.0-0.0","0","0","68791","","null","","","null","60","","","","","","","","","","","","","","","",""
"","time_out","","html-keyboard-response","365","1319177","0.0-1.0-548.0-0.0","0","0","68791","","null","","","null","60","","","","","","","","","","","","","","","",""
"","ITI","","html-keyboard-response","366","1320184","0.0-1.0-549.0","0","0","68791","","null","","","null","60","","","","","","","","","","","","","","","NaN",""
"","S1","","html-keyboard-response","367","1320442","0.0-1.0-551.0","0","0","68791","","null","","","null","61","","","","","","","","","","","","","","","",""
"","ISI","","html-keyboard-response","368","1321445","0.0-1.0-552.0","0","0","68791","","null","","","null","61","NaN","","","","","","","","","","","","","","",""
"","S2","","html-keyboard-response","369","1321702","0.0-1.0-553.0","0","0","68791","","null","","","null","61","","NaN","","","","","","","","","","","","","",""
"","response","","html-keyboard-response","370","1321916","0.0-1.0-554.0-0.0","0","0","68791","","207","","","75","61","","","2","61","training","adjacent","ED","5","4","Q.jpg","O.jpg","1","0","0","",""
"","feedback","","html-keyboard-response","371","1322924","0.0-1.0-555.0-0.0","0","0","68791","","null","","","null","61","","","","","","","","","","","","","","","",""
"","time_out","","html-keyboard-response","372","1324931","0.0-1.0-557.0-0.0","0","0","68791","","null","","","null","61","","","","","","","","","","","","","","","",""
"","ITI","","html-keyboard-response","373","1325937","0.0-1.0-558.0","0","0","68791","","null","","","null","61","","","","","","","","","","","","","","","NaN",""
"","S1","","html-keyboard-response","374","1326191","0.0-1.0-560.0","0","0","68791","","null","","","null","62","","","","","","","","","","","","","","","",""
"","ISI","","html-keyboard-response","375","1327198","0.0-1.0-561.0","0","0","68791","","null","","","null","62","NaN","","","","","","","","","","","","","","",""
"","S2","","html-keyboard-response","376","1327463","0.0-1.0-562.0","0","0","68791","","null","","","null","62","","NaN","","","","","","","","","","","","","",""
"","response","","html-keyboard-response","377","1327819","0.0-1.0-563.0-0.0","0","0","68791","","348","","","75","62","","","2","62","training","adjacent","EF","5","6","Q.jpg","M.jpg","1","1","1","",""
"","feedback","","html-keyboard-response","378","1328825","0.0-1.0-564.0-0.0","0","0","68791","","null","","","null","62","","","","","","","","","","","","","","","",""
"","ITI","","html-keyboard-response","379","1329837","0.0-1.0-567.0","0","0","68791","","null","","","null","62","","","","","","","","","","","","","","","NaN",""
"","S1","","html-keyboard-response","380","1330099","0.0-1.0-569.0","0","0","68791","","null","","","null","63","","","","","","","","","","","","","","","",""
"","ISI","","html-keyboard-response","381","1331109","0.0-1.0-570.0","0","0","68791","","null","","","null","63","NaN","","","","","","","","","","","","","","",""
"","S2","","html-keyboard-response","382","1331368","0.0-1.0-571.0","0","0","68791","","null","","","null","63","","NaN","","","","","","","","","","","","","",""
"","response","","html-keyboard-response","383","1331754","0.0-1.0-572.0-0.0","0","0","68791","","374","","","68","63","","","2","63","training","adjacent","ED","5","4","Q.jpg","O.jpg","0","0","1","",""
"","feedback","","html-keyboard-response","384","1332763","0.0-1.0-573.0-0.0","0","0","68791","","null","","","null","63","","","","","","","","","","","","","","","",""
"","ITI","","html-keyboard-response","385","1333770","0.0-1.0-576.0","0","0","68791","","null","","","null","63","","","","","","","","","","","","","","","NaN",""
"","S1","","html-keyboard-response","386","1334028","0.0-1.0-578.0","0","0","68791","","null","","","null","64","","","","","","","","","","","","","","","",""
"","ISI","","html-keyboard-response","387","1335033","0.0-1.0-579.0","0","0","68791","","null","","","null","64","NaN","","","","","","","","","","","","","","",""
"","S2","","html-keyboard-response","388","1335289","0.0-1.0-580.0","0","0","68791","","null","","","null","64","","NaN","","","","","","","","","","","","","",""
"","response","","html-keyboard-response","389","1335766","0.0-1.0-581.0-0.0","0","0","68791","","468","","","75","64","","","2","64","training","adjacent","DE","4","5","O.jpg","Q.jpg","1","1","1","",""
"","feedback","","html-keyboard-response","390","1336772","0.0-1.0-582.0-0.0","0","0","68791","","null","","","null","64","","","","","","","","","","","","","","","",""
"","ITI","","html-keyboard-response","391","1337778","0.0-1.0-585.0","0","0","68791","","null","","","null","64","","","","","","","","","","","","","","","NaN",""
"","S1","","html-keyboard-response","392","1338032","0.0-1.0-587.0","0","0","68791","","null","","","null","65","","","","","","","","","","","","","","","",""
"","ISI","","html-keyboard-response","393","1339036","0.0-1.0-588.0","0","0","68791","","null","","","null","65","NaN","","","","","","","","","","","","","","",""
"","S2","","html-keyboard-response","394","1339310","0.0-1.0-589.0","0","0","68791","","null","","","null","65","","NaN","","","","","","","","","","","","","",""
"","response","","html-keyboard-response","395","1339837","0.0-1.0-590.0-0.0","0","0","68791","","515","","","68","65","","","2","65","training","adjacent","CB","3","2","P.jpg","R.jpg","0","0","1","",""
"","feedback","","html-keyboard-response","396","1340847","0.0-1.0-591.0-0.0","0","0","68791","","null","","","null","65","","","","","","","","","","","","","","","",""
"","ITI","","html-keyboard-response","397","1341854","0.0-1.0-594.0","0","0","68791","","null","","","null","65","","","","","","","","","","","","","","","NaN",""
"","S1","","html-keyboard-response","398","1342124","0.0-1.0-596.0","0","0","68791","","null","","","null","66","","","","","","","","","","","","","","","",""
"","ISI","","html-keyboard-response","399","1343147","0.0-1.0-597.0","0","0","68791","","null","","","null","66","NaN","","","","","","","","","","","","","","",""
"","S2","","html-keyboard-response","400","1343410","0.0-1.0-598.0","0","0","68791","","null","","","null","66","","NaN","","","","","","","","","","","","","",""
"","response","","html-keyboard-response","401","1343743","0.0-1.0-599.0-0.0","0","0","68791","","329","","","75","66","","","2","66","training","adjacent","BA","2","1","R.jpg","N.jpg","1","0","0","",""
"","feedback","","html-keyboard-response","402","1344750","0.0-1.0-600.0-0.0","0","0","68791","","null","","","null","66","","","","","","","","","","","","","","","",""
"","time_out","","html-keyboard-response","403","1346756","0.0-1.0-602.0-0.0","0","0","68791","","null","","","null","66","","","","","","","","","","","","","","","",""
"","ITI","","html-keyboard-response","404","1347760","0.0-1.0-603.0","0","0","68791","","null","","","null","66","","","","","","","","","","","","","","","NaN",""
"","S1","","html-keyboard-response","405","1348016","0.0-1.0-605.0","0","0","68791","","null","","","null","67","","","","","","","","","","","","","","","",""
"","ISI","","html-keyboard-response","406","1349026","0.0-1.0-606.0","0","0","68791","","null","","","null","67","NaN","","","","","","","","","","","","","","",""
"","S2","","html-keyboard-response","407","1349289","0.0-1.0-607.0","0","0","68791","","null","","","null","67","","NaN","","","","","","","","","","","","","",""
"","response","","html-keyboard-response","408","1349658","0.0-1.0-608.0-0.0","0","0","68791","","360","","","75","67","","","2","67","training","adjacent","DE","4","5","O.jpg","Q.jpg","1","1","1","",""
"","feedback","","html-keyboard-response","409","1350697","0.0-1.0-609.0-0.0","0","0","68791","","null","","","null","67","","","","","","","","","","","","","","","",""
"","ITI","","html-keyboard-response","410","1351705","0.0-1.0-612.0","0","0","68791","","null","","","null","67","","","","","","","","","","","","","","","NaN",""
"","S1","","html-keyboard-response","411","1351960","0.0-1.0-614.0","0","0","68791","","null","","","null","68","","","","","","","","","","","","","","","",""
"","ISI","","html-keyboard-response","412","1352969","0.0-1.0-615.0","0","0","68791","","null","","","null","68","NaN","","","","","","","","","","","","","","",""
"","S2","","html-keyboard-response","413","1353363","0.0-1.0-616.0","0","0","68791","","null","","","null","68","","NaN","","","","","","","","","","","","","",""
"","response","","html-keyboard-response","414","1353562","0.0-1.0-617.0-0.0","0","0","68791","","193","","","68","68","","","2","68","training","adjacent","DE","4","5","O.jpg","Q.jpg","0","1","0","",""
"","feedback","","html-keyboard-response","415","1354568","0.0-1.0-618.0-0.0","0","0","68791","","null","","","null","68","","","","","","","","","","","","","","","",""
"","time_out","","html-keyboard-response","416","1356578","0.0-1.0-620.0-0.0","0","0","68791","","null","","","null","68","","","","","","","","","","","","","","","",""
"","ITI","","html-keyboard-response","417","1357583","0.0-1.0-621.0","0","0","68791","","null","","","null","68","","","","","","","","","","","","","","","NaN",""
"","S1","","html-keyboard-response","418","1357837","0.0-1.0-623.0","0","0","68791","","null","","","null","69","","","","","","","","","","","","","","","",""
"","ISI","","html-keyboard-response","419","1358842","0.0-1.0-624.0","0","0","68791","","null","","","null","69","NaN","","","","","","","","","","","","","","",""
"","S2","","html-keyboard-response","420","1359101","0.0-1.0-625.0","0","0","68791","","null","","","null","69","","NaN","","","","","","","","","","","","","",""
"","response","","html-keyboard-response","421","1359842","0.0-1.0-626.0-0.0","0","0","68791","","737","","","75","69","","","2","69","training","adjacent","CB","3","2","P.jpg","R.jpg","1","0","0","",""
"","feedback","","html-keyboard-response","422","1360849","0.0-1.0-627.0-0.0","0","0","68791","","null","","","null","69","","","","","","","","","","","","","","","",""
"","time_out","","html-keyboard-response","423","1362862","0.0-1.0-629.0-0.0","0","0","68791","","null","","","null","69","","","","","","","","","","","","","","","",""
"","ITI","","html-keyboard-response","424","1363872","0.0-1.0-630.0","0","0","68791","","null","","","null","69","","","","","","","","","","","","","","","NaN",""
"","S1","","html-keyboard-response","425","1364128","0.0-1.0-632.0","0","0","68791","","null","","","null","70","","","","","","","","","","","","","","","",""
"","ISI","","html-keyboard-response","426","1365136","0.0-1.0-633.0","0","0","68791","","null","","","null","70","NaN","","","","","","","","","","","","","","",""
"","S2","","html-keyboard-response","427","1365397","0.0-1.0-634.0","0","0","68791","","null","","","null","70","","NaN","","","","","","","","","","","","","",""
"","response","","html-keyboard-response","428","1365859","0.0-1.0-635.0-0.0","0","0","68791","","451","","","68","70","","","2","70","training","adjacent","CD","3","4","P.jpg","O.jpg","0","1","0","",""
"","feedback","","html-keyboard-response","429","1366871","0.0-1.0-636.0-0.0","0","0","68791","","null","","","null","70","","","","","","","","","","","","","","","",""
"","time_out","","html-keyboard-response","430","1368886","0.0-1.0-638.0-0.0","0","0","68791","","null","","","null","70","","","","","","","","","","","","","","","",""
"","ITI","","html-keyboard-response","431","1369899","0.0-1.0-639.0","0","0","68791","","null","","","null","70","","","","","","","","","","","","","","","NaN",""
"","S1","","html-keyboard-response","432","1370155","0.0-1.0-641.0","0","0","68791","","null","","","null","71","","","","","","","","","","","","","","","",""
"","ISI","","html-keyboard-response","433","1371163","0.0-1.0-642.0","0","0","68791","","566","","","68","71","d","","","","","","","","","","","","","","",""
"","S2","","html-keyboard-response","434","1371423","0.0-1.0-643.0","0","0","68791","","null","","","null","71","","NaN","","","","","","","","","","","","","",""
"","response","","html-keyboard-response","435","1371713","0.0-1.0-644.0-0.0","0","0","68791","","283","","","68","71","","","2","71","training","adjacent","GF","7","6","L.jpg","M.jpg","0","0","1","",""
"","feedback","","html-keyboard-response","436","1372721","0.0-1.0-645.0-0.0","0","0","68791","","null","","","null","71","","","","","","","","","","","","","","","",""
"","ITI","","html-keyboard-response","437","1373725","0.0-1.0-648.0","0","0","68791","","null","","","null","71","","","","","","","","","","","","","","","NaN",""
"","S1","","html-keyboard-response","438","1373979","0.0-1.0-650.0","0","0","68791","","null","","","null","72","","","","","","","","","","","","","","","",""
"","ISI","","html-keyboard-response","439","1374984","0.0-1.0-651.0","0","0","68791","","null","","","null","72","NaN","","","","","","","","","","","","","","",""
"","S2","","html-keyboard-response","440","1375241","0.0-1.0-652.0","0","0","68791","","null","","","null","72","","NaN","","","","","","","","","","","","","",""
"","response","","html-keyboard-response","441","1375967","0.0-1.0-653.0-0.0","0","0","68791","","720","","","75","72","","","2","72","training","adjacent","EF","5","6","Q.jpg","M.jpg","1","1","1","",""
"","feedback","","html-keyboard-response","442","1376978","0.0-1.0-654.0-0.0","0","0","68791","","null","","","null","72","","","","","","","","","","","","","","","",""
"","ITI","","html-keyboard-response","443","1377997","0.0-1.0-657.0","0","0","68791","","null","","","null","72","","","","","","","","","","","","","","","NaN",""
"","S1","","html-keyboard-response","444","1378255","0.0-1.0-659.0","0","0","68791","","null","","","null","73","","","","","","","","","","","","","","","",""
"","ISI","","html-keyboard-response","445","1379261","0.0-1.0-660.0","0","0","68791","","null","","","null","73","NaN","","","","","","","","","","","","","","",""
"","S2","","html-keyboard-response","446","1379518","0.0-1.0-661.0","0","0","68791","","null","","","null","73","","NaN","","","","","","","","","","","","","",""
"","response","","html-keyboard-response","447","1379826","0.0-1.0-662.0-0.0","0","0","68791","","303","","","75","73","","","2","73","training","adjacent","CD","3","4","P.jpg","O.jpg","1","1","1","",""
"","feedback","","html-keyboard-response","448","1380831","0.0-1.0-663.0-0.0","0","0","68791","","null","","","null","73","","","","","","","","","","","","","","","",""
"","ITI","","html-keyboard-response","449","1381836","0.0-1.0-666.0","0","0","68791","","null","","","null","73","","","","","","","","","","","","","","","NaN",""
"","S1","","html-keyboard-response","450","1382090","0.0-1.0-668.0","0","0","68791","","null","","","null","74","","","","","","","","","","","","","","","",""
"","ISI","","html-keyboard-response","451","1383095","0.0-1.0-669.0","0","0","68791","","null","","","null","74","NaN","","","","","","","","","","","","","","",""
"","S2","","html-keyboard-response","452","1383351","0.0-1.0-670.0","0","0","68791","","null","","","null","74","","NaN","","","","","","","","","","","","","",""
"","response","","html-keyboard-response","453","1383643","0.0-1.0-671.0-0.0","0","0","68791","","285","","","68","74","","","2","74","training","adjacent","FE","6","5","M.jpg","Q.jpg","0","0","1","",""
"","feedback","","html-keyboard-response","454","1384667","0.0-1.0-672.0-0.0","0","0","68791","","null","","","null","74","","","","","","","","","","","","","","","",""
"","ITI","","html-keyboard-response","455","1385674","0.0-1.0-675.0","0","0","68791","","null","","","null","74","","","","","","","","","","","","","","","NaN",""
"","S1","","html-keyboard-response","456","1385933","0.0-1.0-677.0","0","0","68791","","null","","","null","75","","","","","","","","","","","","","","","",""
"","ISI","","html-keyboard-response","457","1386937","0.0-1.0-678.0","0","0","68791","","null","","","null","75","NaN","","","","","","","","","","","","","","",""
"","S2","","html-keyboard-response","458","1387195","0.0-1.0-679.0","0","0","68791","","null","","","null","75","","NaN","","","","","","","","","","","","","",""
"","response","","html-keyboard-response","459","1387469","0.0-1.0-680.0-0.0","0","0","68791","","266","","","75","75","","","2","75","training","adjacent","FE","6","5","M.jpg","Q.jpg","1","0","0","",""
"","feedback","","html-keyboard-response","460","1388481","0.0-1.0-681.0-0.0","0","0","68791","","null","","","null","75","","","","","","","","","","","","","","","",""
"","time_out","","html-keyboard-response","461","1390493","0.0-1.0-683.0-0.0","0","0","68791","","null","","","null","75","","","","","","","","","","","","","","","",""
"","ITI","","html-keyboard-response","462","1391501","0.0-1.0-684.0","0","0","68791","","null","","","null","75","","","","","","","","","","","","","","","NaN",""
"","S1","","html-keyboard-response","463","1391756","0.0-1.0-686.0","0","0","68791","","null","","","null","76","","","","","","","","","","","","","","","",""
"","ISI","","html-keyboard-response","464","1392760","0.0-1.0-687.0","0","0","68791","","null","","","null","76","NaN","","","","","","","","","","","","","","",""
"","S2","","html-keyboard-response","465","1393032","0.0-1.0-688.0","0","0","68791","","null","","","null","76","","NaN","","","","","","","","","","","","","",""
"","response","","html-keyboard-response","466","1393607","0.0-1.0-689.0-0.0","0","0","68791","","571","","","75","76","","","2","76","training","adjacent","FG","6","7","M.jpg","L.jpg","1","1","1","",""
"","feedback","","html-keyboard-response","467","1394613","0.0-1.0-690.0-0.0","0","0","68791","","null","","","null","76","","","","","","","","","","","","","","","",""
"","ITI","","html-keyboard-response","468","1395619","0.0-1.0-693.0","0","0","68791","","null","","","null","76","","","","","","","","","","","","","","","NaN",""
"","S1","","html-keyboard-response","469","1395969","0.0-1.0-695.0","0","0","68791","","null","","","null","77","","","","","","","","","","","","","","","",""
"","ISI","","html-keyboard-response","470","1396979","0.0-1.0-696.0","0","0","68791","","null","","","null","77","NaN","","","","","","","","","","","","","","",""
"","S2","","html-keyboard-response","471","1397238","0.0-1.0-697.0","0","0","68791","","null","","","null","77","","NaN","","","","","","","","","","","","","",""
"","response","","html-keyboard-response","472","1397772","0.0-1.0-698.0-0.0","0","0","68791","","529","","","68","77","","","2","77","training","adjacent","FE","6","5","M.jpg","Q.jpg","0","0","1","",""
"","feedback","","html-keyboard-response","473","1398780","0.0-1.0-699.0-0.0","0","0","68791","","null","","","null","77","","","","","","","","","","","","","","","",""
"","ITI","","html-keyboard-response","474","1399788","0.0-1.0-702.0","0","0","68791","","null","","","null","77","","","","","","","","","","","","","","","NaN",""
"","S1","","html-keyboard-response","475","1400046","0.0-1.0-704.0","0","0","68791","","null","","","null","78","","","","","","","","","","","","","","","",""
"","ISI","","html-keyboard-response","476","1401053","0.0-1.0-705.0","0","0","68791","","null","","","null","78","NaN","","","","","","","","","","","","","","",""
"","S2","","html-keyboard-response","477","1401313","0.0-1.0-706.0","0","0","68791","","null","","","null","78","","NaN","","","","","","","","","","","","","",""
"","response","","html-keyboard-response","478","1402142","0.0-1.0-707.0-0.0","0","0","68791","","822","","","68","78","","","2","78","training","adjacent","CD","3","4","P.jpg","O.jpg","0","1","0","",""
"","feedback","","html-keyboard-response","479","1403152","0.0-1.0-708.0-0.0","0","0","68791","","null","","","null","78","","","","","","","","","","","","","","","",""
"","time_out","","html-keyboard-response","480","1405161","0.0-1.0-710.0-0.0","0","0","68791","","null","","","null","78","","","","","","","","","","","","","","","",""
"","ITI","","html-keyboard-response","481","1406165","0.0-1.0-711.0","0","0","68791","","null","","","null","78","","","","","","","","","","","","","","","NaN",""
"","S1","","html-keyboard-response","482","1406421","0.0-1.0-713.0","0","0","68791","","null","","","null","79","","","","","","","","","","","","","","","",""
"","ISI","","html-keyboard-response","483","1407428","0.0-1.0-714.0","0","0","68791","","null","","","null","79","NaN","","","","","","","","","","","","","","",""
"","S2","","html-keyboard-response","484","1407686","0.0-1.0-715.0","0","0","68791","","null","","","null","79","","NaN","","","","","","","","","","","","","",""
"","response","","html-keyboard-response","485","1408078","0.0-1.0-716.0-0.0","0","0","68791","","385","","","75","79","","","2","79","training","adjacent","DC","4","3","O.jpg","P.jpg","1","0","0","",""
"","feedback","","html-keyboard-response","486","1409086","0.0-1.0-717.0-0.0","0","0","68791","","null","","","null","79","","","","","","","","","","","","","","","",""
"","time_out","","html-keyboard-response","487","1411092","0.0-1.0-719.0-0.0","0","0","68791","","null","","","null","79","","","","","","","","","","","","","","","",""
"","ITI","","html-keyboard-response","488","1412099","0.0-1.0-720.0","0","0","68791","","null","","","null","79","","","","","","","","","","","","","","","NaN",""
"","S1","","html-keyboard-response","489","1412353","0.0-1.0-722.0","0","0","68791","","null","","","null","80","","","","","","","","","","","","","","","",""
"","ISI","","html-keyboard-response","490","1413362","0.0-1.0-723.0","0","0","68791","","null","","","null","80","NaN","","","","","","","","","","","","","","",""
"","S2","","html-keyboard-response","491","1413618","0.0-1.0-724.0","0","0","68791","","null","","","null","80","","NaN","","","","","","","","","","","","","",""
"","response","","html-keyboard-response","492","1414329","0.0-1.0-725.0-0.0","0","0","68791","","705","","","75","80","","","2","80","training","adjacent","BC","2","3","R.jpg","P.jpg","1","1","1","",""
"","feedback","","html-keyboard-response","493","1415342","0.0-1.0-726.0-0.0","0","0","68791","","null","","","null","80","","","","","","","","","","","","","","","",""
"","ITI","","html-keyboard-response","494","1416346","0.0-1.0-729.0","0","0","68791","","null","","","null","80","","","","","","","","","","","","","","","NaN",""
"","S1","","html-keyboard-response","495","1416606","0.0-1.0-731.0","0","0","68791","","null","","","null","81","","","","","","","","","","","","","","","",""
"","ISI","","html-keyboard-response","496","1417637","0.0-1.0-732.0","0","0","68791","","null","","","null","81","NaN","","","","","","","","","","","","","","",""
"","S2","","html-keyboard-response","497","1417896","0.0-1.0-733.0","0","0","68791","","null","","","null","81","","NaN","","","","","","","","","","","","","",""
"","response","","html-keyboard-response","498","1418426","0.0-1.0-734.0-0.0","0","0","68791","","522","","","68","81","","","2","81","training","adjacent","GF","7","6","L.jpg","M.jpg","0","0","1","",""
"","feedback","","html-keyboard-response","499","1419452","0.0-1.0-735.0-0.0","0","0","68791","","null","","","null","81","","","","","","","","","","","","","","","",""
"","ITI","","html-keyboard-response","500","1420488","0.0-1.0-738.0","0","0","68791","","null","","","null","81","","","","","","","","","","","","","","","NaN",""
"","S1","","html-keyboard-response","501","1420755","0.0-1.0-740.0","0","0","68791","","null","","","null","82","","","","","","","","","","","","","","","",""
"","ISI","","html-keyboard-response","502","1421762","0.0-1.0-741.0","0","0","68791","","null","","","null","82","NaN","","","","","","","","","","","","","","",""
"","S2","","html-keyboard-response","503","1422024","0.0-1.0-742.0","0","0","68791","","null","","","null","82","","NaN","","","","","","","","","","","","","",""
"","response","","html-keyboard-response","504","1422721","0.0-1.0-743.0-0.0","0","0","68791","","687","","","75","82","","","2","82","training","adjacent","FG","6","7","M.jpg","L.jpg","1","1","1","",""
"","feedback","","html-keyboard-response","505","1423733","0.0-1.0-744.0-0.0","0","0","68791","","null","","","null","82","","","","","","","","","","","","","","","",""
"","ITI","","html-keyboard-response","506","1424741","0.0-1.0-747.0","0","0","68791","","null","","","null","82","","","","","","","","","","","","","","","NaN",""
"","S1","","html-keyboard-response","507","1424996","0.0-1.0-749.0","0","0","68791","","null","","","null","83","","","","","","","","","","","","","","","",""
"","ISI","","html-keyboard-response","508","1426000","0.0-1.0-750.0","0","0","68791","","null","","","null","83","NaN","","","","","","","","","","","","","","",""
"","S2","","html-keyboard-response","509","1426258","0.0-1.0-751.0","0","0","68791","","null","","","null","83","","NaN","","","","","","","","","","","","","",""
"","response","","html-keyboard-response","510","1426904","0.0-1.0-752.0-0.0","0","0","68791","","638","","","75","83","","","2","83","training","adjacent","FG","6","7","M.jpg","L.jpg","1","1","1","",""
"","feedback","","html-keyboard-response","511","1427909","0.0-1.0-753.0-0.0","0","0","68791","","null","","","null","83","","","","","","","","","","","","","","","",""
"","ITI","","html-keyboard-response","512","1428915","0.0-1.0-756.0","0","0","68791","","null","","","null","83","","","","","","","","","","","","","","","NaN",""
"","S1","","html-keyboard-response","513","1429169","0.0-1.0-758.0","0","0","68791","","null","","","null","84","","","","","","","","","","","","","","","",""
"","ISI","","html-keyboard-response","514","1430176","0.0-1.0-759.0","0","0","68791","","null","","","null","84","NaN","","","","","","","","","","","","","","",""
"","S2","","html-keyboard-response","515","1430439","0.0-1.0-760.0","0","0","68791","","null","","","null","84","","NaN","","","","","","","","","","","","","",""
"","response","","html-keyboard-response","516","1431132","0.0-1.0-761.0-0.0","0","0","68791","","686","","","68","84","","","2","84","training","adjacent","BC","2","3","R.jpg","P.jpg","0","1","0","",""
"","feedback","","html-keyboard-response","517","1432140","0.0-1.0-762.0-0.0","0","0","68791","","null","","","null","84","","","","","","","","","","","","","","","",""
"","time_out","","html-keyboard-response","518","1434151","0.0-1.0-764.0-0.0","0","0","68791","","null","","","null","84","","","","","","","","","","","","","","","",""
"","ITI","","html-keyboard-response","519","1435164","0.0-1.0-765.0","0","0","68791","","null","","","null","84","","","","","","","","","","","","","","","NaN",""
"","S1","","html-keyboard-response","520","1435419","0.0-1.0-767.0","0","0","68791","","null","","","null","85","","","","","","","","","","","","","","","",""
"","ISI","","html-keyboard-response","521","1436423","0.0-1.0-768.0","0","0","68791","","null","","","null","85","NaN","","","","","","","","","","","","","","",""
"","S2","","html-keyboard-response","522","1436682","0.0-1.0-769.0","0","0","68791","","null","","","null","85","","NaN","","","","","","","","","","","","","",""
"","response","","html-keyboard-response","523","1436901","0.0-1.0-770.0-0.0","0","0","68791","","206","","","68","85","","","2","85","training","adjacent","AB","1","2","N.jpg","R.jpg","0","1","0","",""
"","feedback","","html-keyboard-response","524","1437908","0.0-1.0-771.0-0.0","0","0","68791","","null","","","null","85","","","","","","","","","","","","","","","",""
"","time_out","","html-keyboard-response","525","1439916","0.0-1.0-773.0-0.0","0","0","68791","","null","","","null","85","","","","","","","","","","","","","","","",""
"","ITI","","html-keyboard-response","526","1440921","0.0-1.0-774.0","0","0","68791","","null","","","null","85","","","","","","","","","","","","","","","NaN",""
"","S1","","html-keyboard-response","527","1441178","0.0-1.0-776.0","0","0","68791","","null","","","null","86","","","","","","","","","","","","","","","",""
"","ISI","","html-keyboard-response","528","1442186","0.0-1.0-777.0","0","0","68791","","null","","","null","86","NaN","","","","","","","","","","","","","","",""
"","S2","","html-keyboard-response","529","1442446","0.0-1.0-778.0","0","0","68791","","null","","","null","86","","NaN","","","","","","","","","","","","","",""
"","response","","html-keyboard-response","530","1443051","0.0-1.0-779.0-0.0","0","0","68791","","596","","","75","86","","","2","86","training","adjacent","AB","1","2","N.jpg","R.jpg","1","1","1","",""
"","feedback","","html-keyboard-response","531","1444057","0.0-1.0-780.0-0.0","0","0","68791","","null","","","null","86","","","","","","","","","","","","","","","",""
"","ITI","","html-keyboard-response","532","1445063","0.0-1.0-783.0","0","0","68791","","null","","","null","86","","","","","","","","","","","","","","","NaN",""
"","S1","","html-keyboard-response","533","1445319","0.0-1.0-785.0","0","0","68791","","null","","","null","87","","","","","","","","","","","","","","","",""
"","ISI","","html-keyboard-response","534","1446326","0.0-1.0-786.0","0","0","68791","","null","","","null","87","NaN","","","","","","","","","","","","","","",""
"","S2","","html-keyboard-response","535","1446586","0.0-1.0-787.0","0","0","68791","","null","","","null","87","","NaN","","","","","","","","","","","","","",""
"","response","","html-keyboard-response","536","1446900","0.0-1.0-788.0-0.0","0","0","68791","","309","","","68","87","","","2","87","training","adjacent","FE","6","5","M.jpg","Q.jpg","0","0","1","",""
"","feedback","","html-keyboard-response","537","1447910","0.0-1.0-789.0-0.0","0","0","68791","","null","","","null","87","","","","","","","","","","","","","","","",""
"","ITI","","html-keyboard-response","538","1448919","0.0-1.0-792.0","0","0","68791","","null","","","null","87","","","","","","","","","","","","","","","NaN",""
"","S1","","html-keyboard-response","539","1449174","0.0-1.0-794.0","0","0","68791","","null","","","null","88","","","","","","","","","","","","","","","",""
"","ISI","","html-keyboard-response","540","1450180","0.0-1.0-795.0","0","0","68791","","null","","","null","88","NaN","","","","","","","","","","","","","","",""
"","S2","","html-keyboard-response","541","1450439","0.0-1.0-796.0","0","0","68791","","null","","","null","88","","NaN","","","","","","","","","","","","","",""
"","response","","html-keyboard-response","542","1451105","0.0-1.0-797.0-0.0","0","0","68791","","658","","","75","88","","","2","88","training","adjacent","CB","3","2","P.jpg","R.jpg","1","0","0","",""
"","feedback","","html-keyboard-response","543","1452111","0.0-1.0-798.0-0.0","0","0","68791","","null","","","null","88","","","","","","","","","","","","","","","",""
"","time_out","","html-keyboard-response","544","1454117","0.0-1.0-800.0-0.0","0","0","68791","","null","","","null","88","","","","","","","","","","","","","","","",""
"","ITI","","html-keyboard-response","545","1455121","0.0-1.0-801.0","0","0","68791","","null","","","null","88","","","","","","","","","","","","","","","NaN",""
"","S1","","html-keyboard-response","546","1455376","0.0-1.0-803.0","0","0","68791","","null","","","null","89","","","","","","","","","","","","","","","",""
"","ISI","","html-keyboard-response","547","1456384","0.0-1.0-804.0","0","0","68791","","null","","","null","89","NaN","","","","","","","","","","","","","","",""
"","S2","","html-keyboard-response","548","1456642","0.0-1.0-805.0","0","0","68791","","null","","","null","89","","NaN","","","","","","","","","","","","","",""
"","response","","html-keyboard-response","549","1457333","0.0-1.0-806.0-0.0","0","0","68791","","685","","","68","89","","","2","89","training","adjacent","BA","2","1","R.jpg","N.jpg","0","0","1","",""
"","feedback","","html-keyboard-response","550","1458345","0.0-1.0-807.0-0.0","0","0","68791","","null","","","null","89","","","","","","","","","","","","","","","",""
"","ITI","","html-keyboard-response","551","1459362","0.0-1.0-810.0","0","0","68791","","null","","","null","89","","","","","","","","","","","","","","","NaN",""
"","S1","","html-keyboard-response","552","1459634","0.0-1.0-812.0","0","0","68791","","null","","","null","90","","","","","","","","","","","","","","","",""
"","ISI","","html-keyboard-response","553","1460650","0.0-1.0-813.0","0","0","68791","","null","","","null","90","NaN","","","","","","","","","","","","","","",""
"","S2","","html-keyboard-response","554","1460911","0.0-1.0-814.0","0","0","68791","","null","","","null","90","","NaN","","","","","","","","","","","","","",""
"","response","","html-keyboard-response","555","1461728","0.0-1.0-815.0-0.0","0","0","68791","","808","","","75","90","","","2","90","training","adjacent","BC","2","3","R.jpg","P.jpg","1","1","1","",""
"","feedback","","html-keyboard-response","556","1462742","0.0-1.0-816.0-0.0","0","0","68791","","null","","","null","90","","","","","","","","","","","","","","","",""
"","ITI","","html-keyboard-response","557","1463776","0.0-1.0-819.0","0","0","68791","","null","","","null","90","","","","","","","","","","","","","","","NaN",""
"","S1","","html-keyboard-response","558","1464038","0.0-1.0-821.0","0","0","68791","","null","","","null","91","","","","","","","","","","","","","","","",""
"","ISI","","html-keyboard-response","559","1465119","0.0-1.0-822.0","0","0","68791","","null","","","null","91","NaN","","","","","","","","","","","","","","",""
"","S2","","html-keyboard-response","560","1465374","0.0-1.0-823.0","0","0","68791","","null","","","null","91","","NaN","","","","","","","","","","","","","",""
"","response","","html-keyboard-response","561","1466186","0.0-1.0-824.0-0.0","0","0","68791","","809","","","75","91","","","2","91","training","adjacent","BA","2","1","R.jpg","N.jpg","1","0","0","",""
"","feedback","","html-keyboard-response","562","1467193","0.0-1.0-825.0-0.0","0","0","68791","","null","","","null","91","","","","","","","","","","","","","","","",""
"","time_out","","html-keyboard-response","563","1469201","0.0-1.0-827.0-0.0","0","0","68791","","null","","","null","91","","","","","","","","","","","","","","","",""
"","ITI","","html-keyboard-response","564","1470207","0.0-1.0-828.0","0","0","68791","","null","","","null","91","","","","","","","","","","","","","","","NaN",""
"","S1","","html-keyboard-response","565","1470470","0.0-1.0-830.0","0","0","68791","","null","","","null","92","","","","","","","","","","","","","","","",""
"","ISI","","html-keyboard-response","566","1471476","0.0-1.0-831.0","0","0","68791","","null","","","null","92","NaN","","","","","","","","","","","","","","",""
"","S2","","html-keyboard-response","567","1471734","0.0-1.0-832.0","0","0","68791","","null","","","null","92","","NaN","","","","","","","","","","","","","",""
"","response","","html-keyboard-response","568","1472306","0.0-1.0-833.0-0.0","0","0","68791","","562","","","75","92","","","2","92","training","adjacent","FG","6","7","M.jpg","L.jpg","1","1","1","",""
"","feedback","","html-keyboard-response","569","1473335","0.0-1.0-834.0-0.0","0","0","68791","","null","","","null","92","","","","","","","","","","","","","","","",""
"","ITI","","html-keyboard-response","570","1474390","0.0-1.0-837.0","0","0","68791","","null","","","null","92","","","","","","","","","","","","","","","NaN",""
"","S1","","html-keyboard-response","571","1474647","0.0-1.0-839.0","0","0","68791","","null","","","null","93","","","","","","","","","","","","","","","",""
"","ISI","","html-keyboard-response","572","1475652","0.0-1.0-840.0","0","0","68791","","null","","","null","93","NaN","","","","","","","","","","","","","","",""
"","S2","","html-keyboard-response","573","1475908","0.0-1.0-841.0","0","0","68791","","null","","","null","93","","NaN","","","","","","","","","","","","","",""
"","response","","html-keyboard-response","574","1476803","0.0-1.0-842.0-0.0","0","0","68791","","889","","","68","93","","","2","93","training","adjacent","CB","3","2","P.jpg","R.jpg","0","0","1","",""
"","feedback","","html-keyboard-response","575","1477811","0.0-1.0-843.0-0.0","0","0","68791","","null","","","null","93","","","","","","","","","","","","","","","",""
"","ITI","","html-keyboard-response","576","1478821","0.0-1.0-846.0","0","0","68791","","null","","","null","93","","","","","","","","","","","","","","","NaN",""
"","S1","","html-keyboard-response","577","1479078","0.0-1.0-848.0","0","0","68791","","null","","","null","94","","","","","","","","","","","","","","","",""
"","ISI","","html-keyboard-response","578","1480098","0.0-1.0-849.0","0","0","68791","","null","","","null","94","NaN","","","","","","","","","","","","","","",""
"","S2","","html-keyboard-response","579","1480428","0.0-1.0-850.0","0","0","68791","","null","","","null","94","","NaN","","","","","","","","","","","","","",""
"","response","","html-keyboard-response","580","1481127","0.0-1.0-851.0-0.0","0","0","68791","","693","","","75","94","","","2","94","training","adjacent","DC","4","3","O.jpg","P.jpg","1","0","0","",""
"","feedback","","html-keyboard-response","581","1482135","0.0-1.0-852.0-0.0","0","0","68791","","null","","","null","94","","","","","","","","","","","","","","","",""
