"success","ttype","start_time","trial_type","trial_index","time_elapsed","internal_node_id","warning","missed_checkup","PID","view_history","rt","responses","repeat_instructions","key_press","index","keypress_isi","keypress_S2","block","trial_num","phase","group_type","pair_type","S1_stim","S2_stim","S1_img","S2_img","S1_chosen","S1_higher","accuracy","keypress_iti","total_bonus_tally"
"true","full_screen","d03032023hr2122","fullscreen","0","37800","0.0-0.0","0","0","25561","","","","","","","","","","","","","","","","","","","","","",""
"","instructions","","instructions","1","153095","0.0-1.0-0.0-0.0","0","0","25561","[{""page_index"":0,""viewing_time"":28091},{""page_index"":1,""viewing_time"":80154},{""page_index"":2,""viewing_time"":1833},{""page_index"":3,""viewing_time"":5203}]","115283","","","","","","","","","","","","","","","","","","","",""
"","comprehension_check","","survey-multi-choice","2","354348","0.0-1.0-0.0-1.0","0","0","25561","","201239","{""Q0"":""True"",""Q1"":""K"",""Q2"":""Once the second image appears and while the screen 'MAKE A CHOICE' is shown"",""Q3"":""Green mark"",""Q4"":""either D or K""}","0","","","","","","","","","","","","","","","","","",""
"","start_exp","","html-keyboard-response","3","360333","0.0-1.0-1.0","0","0","25561","","5972","","","32","","","","","","","","","","","","","","","","",""
"","S1","","html-keyboard-response","4","360591","0.0-1.0-2.0","0","0","25561","","null","","","null","0","","","","","","","","","","","","","","","",""
"","ISI","","html-keyboard-response","5","361096","0.0-1.0-3.0","0","0","25561","","null","","","null","0","NaN","","","","","","","","","","","","","","",""
"","S2","","html-keyboard-response","6","361356","0.0-1.0-4.0","0","0","25561","","null","","","null","0","","NaN","","","","","","","","","","","","","",""
"","response","","html-keyboard-response","7","363123","0.0-1.0-5.0-0.0","0","0","25561","","null","","","null","0","","","1","0","training","adjacent","EF","5","6","P.jpg","L.jpg","NaN","1","0","",""
"","too_slow_prompt","","html-keyboard-response","8","364131","0.0-1.0-7.0-0.0","1","0","25561","","null","","","null","","","","","","","","","","","","","","","","",""
"","time_out","","html-keyboard-response","9","366136","0.0-1.0-8.0-0.0","0","0","25561","","null","","","null","0","","","","","","","","","","","","","","","",""
"","ITI","","html-keyboard-response","10","367147","0.0-1.0-9.0","0","0","25561","","null","","","null","0","","","","","","","","","","","","","","","NaN",""
"","S1","","html-keyboard-response","11","367503","0.0-1.0-11.0","0","0","25561","","null","","","null","1","","","","","","","","","","","","","","","",""
"","ISI","","html-keyboard-response","12","368008","0.0-1.0-12.0","0","0","25561","","null","","","null","1","NaN","","","","","","","","","","","","","","",""
"","S2","","html-keyboard-response","13","368281","0.0-1.0-13.0","0","0","25561","","null","","","null","1","","NaN","","","","","","","","","","","","","",""
"","response","","html-keyboard-response","14","370082","0.0-1.0-14.0-0.0","0","0","25561","","null","","","null","1","","","1","1","training","adjacent","DC","4","3","O.jpg","M.jpg","NaN","0","0","",""
"","too_slow_prompt","","html-keyboard-response","15","371088","0.0-1.0-16.0-0.0","1","0","25561","","null","","","null","","","","","","","","","","","","","","","","",""
"","time_out","","html-keyboard-response","16","373095","0.0-1.0-17.0-0.0","0","0","25561","","null","","","null","1","","","","","","","","","","","","","","","",""
"","ITI","","html-keyboard-response","17","374101","0.0-1.0-18.0","0","0","25561","","null","","","null","1","","","","","","","","","","","","","","","NaN",""
"","S1","","html-keyboard-response","18","374354","0.0-1.0-20.0","0","0","25561","","null","","","null","2","","","","","","","","","","","","","","","",""
"","ISI","","html-keyboard-response","19","374858","0.0-1.0-21.0","0","0","25561","","null","","","null","2","NaN","","","","","","","","","","","","","","",""
"","S2","","html-keyboard-response","20","375116","0.0-1.0-22.0","0","0","25561","","null","","","null","2","","NaN","","","","","","","","","","","","","",""
"","response","","html-keyboard-response","21","376873","0.0-1.0-23.0-0.0","0","0","25561","","null","","","null","2","","","1","2","training","adjacent","BC","2","3","R.jpg","M.jpg","NaN","1","0","",""
"","too_slow_prompt","","html-keyboard-response","22","377878","0.0-1.0-25.0-0.0","1","0","25561","","null","","","null","","","","","","","","","","","","","","","","",""
"","time_out","","html-keyboard-response","23","379884","0.0-1.0-26.0-0.0","0","0","25561","","null","","","null","2","","","","","","","","","","","","","","","",""
"","ITI","","html-keyboard-response","24","380889","0.0-1.0-27.0","0","0","25561","","null","","","null","2","","","","","","","","","","","","","","","NaN",""
"","S1","","html-keyboard-response","25","381146","0.0-1.0-29.0","0","0","25561","","null","","","null","3","","","","","","","","","","","","","","","",""
"","ISI","","html-keyboard-response","26","381653","0.0-1.0-30.0","0","0","25561","","null","","","null","3","NaN","","","","","","","","","","","","","","",""
"","S2","","html-keyboard-response","27","381908","0.0-1.0-31.0","0","0","25561","","null","","","null","3","","NaN","","","","","","","","","","","","","",""
"","response","","html-keyboard-response","28","383664","0.0-1.0-32.0-0.0","0","0","25561","","null","","","null","3","","","1","3","training","adjacent","EF","5","6","P.jpg","L.jpg","NaN","1","0","",""
"","too_slow_prompt","","html-keyboard-response","29","384669","0.0-1.0-34.0-0.0","1","0","25561","","null","","","null","","","","","","","","","","","","","","","","",""
"","time_out","","html-keyboard-response","30","386676","0.0-1.0-35.0-0.0","0","0","25561","","null","","","null","3","","","","","","","","","","","","","","","",""
"","ITI","","html-keyboard-response","31","387686","0.0-1.0-36.0","0","0","25561","","null","","","null","3","","","","","","","","","","","","","","","NaN",""
"","S1","","html-keyboard-response","32","388005","0.0-1.0-38.0","0","0","25561","","null","","","null","4","","","","","","","","","","","","","","","",""
"","ISI","","html-keyboard-response","33","388513","0.0-1.0-39.0","0","0","25561","","null","","","null","4","NaN","","","","","","","","","","","","","","",""
"","S2","","html-keyboard-response","34","388776","0.0-1.0-40.0","0","0","25561","","null","","","null","4","","NaN","","","","","","","","","","","","","",""
"","response","","html-keyboard-response","35","390534","0.0-1.0-41.0-0.0","0","0","25561","","null","","","null","4","","","1","4","training","adjacent","DC","4","3","O.jpg","M.jpg","NaN","0","0","",""
"","too_slow_prompt","","html-keyboard-response","36","391542","0.0-1.0-43.0-0.0","1","0","25561","","null","","","null","","","","","","","","","","","","","","","","",""
"","time_out","","html-keyboard-response","37","393551","0.0-1.0-44.0-0.0","0","0","25561","","null","","","null","4","","","","","","","","","","","","","","","",""
"","ITI","","html-keyboard-response","38","394557","0.0-1.0-45.0","0","0","25561","","null","","","null","4","","","","","","","","","","","","","","","NaN",""
"","S1","","html-keyboard-response","39","394812","0.0-1.0-47.0","0","0","25561","","null","","","null","5","","","","","","","","","","","","","","","",""
"","ISI","","html-keyboard-response","40","395318","0.0-1.0-48.0","0","0","25561","","null","","","null","5","NaN","","","","","","","","","","","","","","",""
"","S2","","html-keyboard-response","41","395575","0.0-1.0-49.0","0","0","25561","","null","","","null","5","","NaN","","","","","","","","","","","","","",""
"","response","","html-keyboard-response","42","397331","0.0-1.0-50.0-0.0","0","0","25561","","null","","","null","5","","","1","5","training","adjacent","GF","7","6","N.jpg","L.jpg","NaN","0","0","",""
"","too_slow_prompt","","html-keyboard-response","43","398339","0.0-1.0-52.0-0.0","1","0","25561","","null","","","null","","","","","","","","","","","","","","","","",""
"","time_out","","html-keyboard-response","44","400355","0.0-1.0-53.0-0.0","0","0","25561","","null","","","null","5","","","","","","","","","","","","","","","",""
"","ITI","","html-keyboard-response","45","401367","0.0-1.0-54.0","0","0","25561","","null","","","null","5","","","","","","","","","","","","","","","NaN",""
"","S1","","html-keyboard-response","46","401642","0.0-1.0-56.0","0","0","25561","","null","","","null","6","","","","","","","","","","","","","","","",""
"","ISI","","html-keyboard-response","47","402146","0.0-1.0-57.0","0","0","25561","","null","","","null","6","NaN","","","","","","","","","","","","","","",""
"","S2","","html-keyboard-response","48","402402","0.0-1.0-58.0","0","0","25561","","null","","","null","6","","NaN","","","","","","","","","","","","","",""
"","response","","html-keyboard-response","49","404161","0.0-1.0-59.0-0.0","0","0","25561","","null","","","null","6","","","1","6","training","adjacent","BA","2","1","R.jpg","Q.jpg","NaN","0","0","",""
"","too_slow_prompt","","html-keyboard-response","50","405166","0.0-1.0-61.0-0.0","1","0","25561","","null","","","null","","","","","","","","","","","","","","","","",""
"","time_out","","html-keyboard-response","51","407174","0.0-1.0-62.0-0.0","0","0","25561","","null","","","null","6","","","","","","","","","","","","","","","",""
"","ITI","","html-keyboard-response","52","408194","0.0-1.0-63.0","0","0","25561","","463","","","75","6","","","","","","","","","","","","","","","k",""
"","S1","","html-keyboard-response","53","408454","0.0-1.0-65.0","0","0","25561","","null","","","null","7","","","","","","","","","","","","","","","",""
"","ISI","","html-keyboard-response","54","408958","0.0-1.0-66.0","0","0","25561","","null","","","null","7","NaN","","","","","","","","","","","","","","",""
"","S2","","html-keyboard-response","55","409025","0.0-1.0-67.0","0","0","25561","","63","","","75","7","","k","1","7","training","adjacent","CB","3","2","M.jpg","R.jpg","1","0","0","",""
"","feedback","","html-keyboard-response","56","410036","0.0-1.0-69.0-0.0","0","0","25561","","null","","","null","7","","","","","","","","","","","","","","","",""
"","time_out","","html-keyboard-response","57","412045","0.0-1.0-71.0-0.0","0","0","25561","","null","","","null","7","","","","","","","","","","","","","","","",""
"","ITI","","html-keyboard-response","58","413054","0.0-1.0-72.0","0","0","25561","","241","","","75","7","","","","","","","","","","","","","","","k",""
"","S1","","html-keyboard-response","59","413394","0.0-1.0-74.0","0","0","25561","","null","","","null","8","","","","","","","","","","","","","","","",""
"","ISI","","html-keyboard-response","60","413898","0.0-1.0-75.0","0","0","25561","","null","","","null","8","NaN","","","","","","","","","","","","","","",""
"","S2","","html-keyboard-response","61","413989","0.0-1.0-76.0","0","0","25561","","87","","","68","8","","d","1","8","training","adjacent","DE","4","5","O.jpg","P.jpg","0","1","0","",""
"","feedback","","html-keyboard-response","62","414993","0.0-1.0-78.0-0.0","0","0","25561","","null","","","null","8","","","","","","","","","","","","","","","",""
"","time_out","","html-keyboard-response","63","417005","0.0-1.0-80.0-0.0","0","0","25561","","null","","","null","8","","","","","","","","","","","","","","","",""
"","ITI","","html-keyboard-response","64","418009","0.0-1.0-81.0","0","0","25561","","240","","","68","8","","","","","","","","","","","","","","","d",""
"","S1","","html-keyboard-response","65","418267","0.0-1.0-83.0","0","0","25561","","null","","","null","9","","","","","","","","","","","","","","","",""
"","ISI","","html-keyboard-response","66","418771","0.0-1.0-84.0","0","0","25561","","274","","","68","9","d","","","","","","","","","","","","","","",""
"","S2","","html-keyboard-response","67","419029","0.0-1.0-85.0","0","0","25561","","null","","","null","9","","NaN","","","","","","","","","","","","","",""
"","response","","html-keyboard-response","68","419068","0.0-1.0-86.0-0.0","0","0","25561","","36","","","75","9","","","1","9","training","adjacent","AB","1","2","Q.jpg","R.jpg","1","1","1","",""
"","feedback","","html-keyboard-response","69","420074","0.0-1.0-87.0-0.0","0","0","25561","","null","","","null","9","","","","","","","","","","","","","","","",""
"","ITI","","html-keyboard-response","70","421079","0.0-1.0-90.0","0","0","25561","","114","","","75","9","","","","","","","","","","","","","","","k",""
"","S1","","html-keyboard-response","71","421332","0.0-1.0-92.0","0","0","25561","","null","","","null","10","","","","","","","","","","","","","","","",""
"","ISI","","html-keyboard-response","72","421837","0.0-1.0-93.0","0","0","25561","","84","","","75","10","k","","","","","","","","","","","","","","",""
"","S2","","html-keyboard-response","73","421950","0.0-1.0-94.0","0","0","25561","","108","","","68","10","","d","1","10","training","adjacent","DC","4","3","O.jpg","M.jpg","0","0","1","",""
"","feedback","","html-keyboard-response","74","422964","0.0-1.0-96.0-0.0","0","0","25561","","null","","","null","10","","","","","","","","","","","","","","","",""
"","ITI","","html-keyboard-response","75","423967","0.0-1.0-99.0","0","0","25561","","71","","","68","10","","","","","","","","","","","","","","","d",""
"","S1","","html-keyboard-response","76","424226","0.0-1.0-101.0","0","0","25561","","null","","","null","11","","","","","","","","","","","","","","","",""
"","ISI","","html-keyboard-response","77","424734","0.0-1.0-102.0","0","0","25561","","461","","","75","11","k","","","","","","","","","","","","","","",""
"","S2","","html-keyboard-response","78","425002","0.0-1.0-103.0","0","0","25561","","null","","","null","11","","NaN","","","","","","","","","","","","","",""
"","response","","html-keyboard-response","79","425265","0.0-1.0-104.0-0.0","0","0","25561","","251","","","68","11","","","1","11","training","adjacent","BC","2","3","R.jpg","M.jpg","0","1","0","",""
"","feedback","","html-keyboard-response","80","426276","0.0-1.0-105.0-0.0","0","0","25561","","null","","","null","11","","","","","","","","","","","","","","","",""
"","time_out","","html-keyboard-response","81","428308","0.0-1.0-107.0-0.0","0","0","25561","","null","","","null","11","","","","","","","","","","","","","","","",""
"","ITI","","html-keyboard-response","82","429312","0.0-1.0-108.0","0","0","25561","","338","","","75","11","","","","","","","","","","","","","","","k",""
"","S1","","html-keyboard-response","83","429567","0.0-1.0-110.0","0","0","25561","","null","","","null","12","","","","","","","","","","","","","","","",""
"","ISI","","html-keyboard-response","84","430082","0.0-1.0-111.0","0","0","25561","","66","","","68","12","d","","","","","","","","","","","","","","",""
"","S2","","html-keyboard-response","85","430171","0.0-1.0-112.0","0","0","25561","","76","","","75","12","","k","1","12","training","adjacent","FG","6","7","L.jpg","N.jpg","1","1","1","",""
"","feedback","","html-keyboard-response","86","431178","0.0-1.0-114.0-0.0","0","0","25561","","null","","","null","12","","","","","","","","","","","","","","","",""
"","ITI","","html-keyboard-response","87","432185","0.0-1.0-117.0","0","0","25561","","16","","","75","12","","","","","","","","","","","","","","","k",""
"","S1","","html-keyboard-response","88","432446","0.0-1.0-119.0","0","0","25561","","null","","","null","13","","","","","","","","","","","","","","","",""
"","ISI","","html-keyboard-response","89","432954","0.0-1.0-120.0","0","0","25561","","20","","","68","13","d","","","","","","","","","","","","","","",""
"","S2","","html-keyboard-response","90","432978","0.0-1.0-121.0","0","0","25561","","21","","","75","13","","k","1","13","training","adjacent","CB","3","2","M.jpg","R.jpg","1","0","0","",""
"","feedback","","html-keyboard-response","91","433982","0.0-1.0-123.0-0.0","0","0","25561","","null","","","null","13","","","","","","","","","","","","","","","",""
"","time_out","","html-keyboard-response","92","436006","0.0-1.0-125.0-0.0","0","0","25561","","null","","","null","13","","","","","","","","","","","","","","","",""
"","ITI","","html-keyboard-response","93","437022","0.0-1.0-126.0","0","0","25561","","508","","","68","13","","","","","","","","","","","","","","","d",""
"","S1","","html-keyboard-response","94","437292","0.0-1.0-128.0","0","0","25561","","null","","","null","14","","","","","","","","","","","","","","","",""
"","ISI","","html-keyboard-response","95","437825","0.0-1.0-129.0","0","0","25561","","278","","","68","14","d","","","","","","","","","","","","","","",""
"","S2","","html-keyboard-response","96","438088","0.0-1.0-130.0","0","0","25561","","247","","","75","14","","k","1","14","training","adjacent","CD","3","4","M.jpg","O.jpg","1","1","1","",""
"","feedback","","html-keyboard-response","97","439103","0.0-1.0-132.0-0.0","0","0","25561","","null","","","null","14","","","","","","","","","","","","","","","",""
"","ITI","","html-keyboard-response","98","440115","0.0-1.0-135.0","0","0","25561","","11","","","75","14","","","","","","","","","","","","","","","k",""
"","S1","","html-keyboard-response","99","440371","0.0-1.0-137.0","0","0","25561","","null","","","null","15","","","","","","","","","","","","","","","",""
"","ISI","","html-keyboard-response","100","440874","0.0-1.0-138.0","0","0","25561","","414","","","68","15","d","","","","","","","","","","","","","","",""
"","S2","","html-keyboard-response","101","441128","0.0-1.0-139.0","0","0","25561","","null","","","null","15","","NaN","","","","","","","","","","","","","",""
"","response","","html-keyboard-response","102","441285","0.0-1.0-140.0-0.0","0","0","25561","","152","","","75","15","","","1","15","training","adjacent","GF","7","6","N.jpg","L.jpg","1","0","0","",""
"","feedback","","html-keyboard-response","103","442342","0.0-1.0-141.0-0.0","0","0","25561","","null","","","null","15","","","","","","","","","","","","","","","",""
"","time_out","","html-keyboard-response","104","444353","0.0-1.0-143.0-0.0","0","0","25561","","null","","","null","15","","","","","","","","","","","","","","","",""
"","ITI","","html-keyboard-response","105","445368","0.0-1.0-144.0","0","0","25561","","123","","","75","15","","","","","","","","","","","","","","","k",""
"","S1","","html-keyboard-response","106","445624","0.0-1.0-146.0","0","0","25561","","null","","","null","16","","","","","","","","","","","","","","","",""
"","ISI","","html-keyboard-response","107","446132","0.0-1.0-147.0","0","0","25561","","422","","","68","16","d","","","","","","","","","","","","","","",""
"","S2","","html-keyboard-response","108","446389","0.0-1.0-148.0","0","0","25561","","null","","","null","16","","NaN","","","","","","","","","","","","","",""
"","response","","html-keyboard-response","109","446608","0.0-1.0-149.0-0.0","0","0","25561","","215","","","75","16","","","1","16","training","adjacent","DE","4","5","O.jpg","P.jpg","1","1","1","",""
"","feedback","","html-keyboard-response","110","447658","0.0-1.0-150.0-0.0","0","0","25561","","null","","","null","16","","","","","","","","","","","","","","","",""
"","ITI","","html-keyboard-response","111","448663","0.0-1.0-153.0","0","0","25561","","11","","","75","16","","","","","","","","","","","","","","","k",""
"","S1","","html-keyboard-response","112","448918","0.0-1.0-155.0","0","0","25561","","null","","","null","17","","","","","","","","","","","","","","","",""
"","ISI","","html-keyboard-response","113","449423","0.0-1.0-156.0","0","0","25561","","null","","","null","17","NaN","","","","","","","","","","","","","","",""
"","S2","","html-keyboard-response","114","449436","0.0-1.0-157.0","0","0","25561","","6","","","68","17","","d","1","17","training","adjacent","BC","2","3","R.jpg","M.jpg","0","1","0","",""
"","feedback","","html-keyboard-response","115","450441","0.0-1.0-159.0-0.0","0","0","25561","","null","","","null","17","","","","","","","","","","","","","","","",""
"","time_out","","html-keyboard-response","116","452455","0.0-1.0-161.0-0.0","0","0","25561","","null","","","null","17","","","","","","","","","","","","","","","",""
"","ITI","","html-keyboard-response","117","453461","0.0-1.0-162.0","0","0","25561","","261","","","68","17","","","","","","","","","","","","","","","d",""
"","S1","","html-keyboard-response","118","453718","0.0-1.0-164.0","0","0","25561","","null","","","null","18","","","","","","","","","","","","","","","",""
"","ISI","","html-keyboard-response","119","454221","0.0-1.0-165.0","0","0","25561","","127","","","68","18","d","","","","","","","","","","","","","","",""
"","S2","","html-keyboard-response","120","454482","0.0-1.0-166.0","0","0","25561","","null","","","null","18","","NaN","","","","","","","","","","","","","",""
"","response","","html-keyboard-response","121","454646","0.0-1.0-167.0-0.0","0","0","25561","","162","","","75","18","","","1","18","training","adjacent","ED","5","4","P.jpg","O.jpg","1","0","0","",""
"","feedback","","html-keyboard-response","122","455653","0.0-1.0-168.0-0.0","0","0","25561","","null","","","null","18","","","","","","","","","","","","","","","",""
"","time_out","","html-keyboard-response","123","457722","0.0-1.0-170.0-0.0","0","0","25561","","null","","","null","18","","","","","","","","","","","","","","","",""
"","ITI","","html-keyboard-response","124","458729","0.0-1.0-171.0","0","0","25561","","2","","","75","18","","","","","","","","","","","","","","","k",""
"","S1","","html-keyboard-response","125","458988","0.0-1.0-173.0","0","0","25561","","null","","","null","19","","","","","","","","","","","","","","","",""
"","ISI","","html-keyboard-response","126","459492","0.0-1.0-174.0","0","0","25561","","428","","","68","19","d","","","","","","","","","","","","","","",""
"","S2","","html-keyboard-response","127","459749","0.0-1.0-175.0","0","0","25561","","null","","","null","19","","NaN","","","","","","","","","","","","","",""
"","response","","html-keyboard-response","128","460009","0.0-1.0-176.0-0.0","0","0","25561","","253","","","75","19","","","1","19","training","adjacent","BA","2","1","R.jpg","Q.jpg","1","0","0","",""
"","feedback","","html-keyboard-response","129","461019","0.0-1.0-177.0-0.0","0","0","25561","","null","","","null","19","","","","","","","","","","","","","","","",""
"","time_out","","html-keyboard-response","130","463024","0.0-1.0-179.0-0.0","0","0","25561","","null","","","null","19","","","","","","","","","","","","","","","",""
"","ITI","","html-keyboard-response","131","464030","0.0-1.0-180.0","0","0","25561","","174","","","68","19","","","","","","","","","","","","","","","d",""
"","S1","","html-keyboard-response","132","464313","0.0-1.0-182.0","0","0","25561","","null","","","null","20","","","","","","","","","","","","","","","",""
"","ISI","","html-keyboard-response","133","464819","0.0-1.0-183.0","0","0","25561","","493","","","68","20","d","","","","","","","","","","","","","","",""
"","S2","","html-keyboard-response","134","465074","0.0-1.0-184.0","0","0","25561","","null","","","null","20","","NaN","","","","","","","","","","","","","",""
"","response","","html-keyboard-response","135","466370","0.0-1.0-185.0-0.0","0","0","25561","","1291","","","75","20","","","1","20","training","adjacent","BA","2","1","R.jpg","Q.jpg","1","0","0","",""
"","feedback","","html-keyboard-response","136","467376","0.0-1.0-186.0-0.0","0","0","25561","","null","","","null","20","","","","","","","","","","","","","","","",""
"","time_out","","html-keyboard-response","137","469386","0.0-1.0-188.0-0.0","0","0","25561","","null","","","null","20","","","","","","","","","","","","","","","",""
"","ITI","","html-keyboard-response","138","470392","0.0-1.0-189.0","0","0","25561","","306","","","75","20","","","","","","","","","","","","","","","k",""
"","S1","","html-keyboard-response","139","470648","0.0-1.0-191.0","0","0","25561","","null","","","null","21","","","","","","","","","","","","","","","",""
"","ISI","","html-keyboard-response","140","471151","0.0-1.0-192.0","0","0","25561","","14","","","75","21","k","","","","","","","","","","","","","","",""
"","S2","","html-keyboard-response","141","471409","0.0-1.0-193.0","0","0","25561","","null","","","null","21","","NaN","","","","","","","","","","","","","",""
"","response","","html-keyboard-response","142","471723","0.0-1.0-194.0-0.0","0","0","25561","","309","","","75","21","","","1","21","training","adjacent","GF","7","6","N.jpg","L.jpg","1","0","0","",""
"","feedback","","html-keyboard-response","143","472728","0.0-1.0-195.0-0.0","0","0","25561","","null","","","null","21","","","","","","","","","","","","","","","",""
"","time_out","","html-keyboard-response","144","474734","0.0-1.0-197.0-0.0","0","0","25561","","null","","","null","21","","","","","","","","","","","","","","","",""
"","ITI","","html-keyboard-response","145","475743","0.0-1.0-198.0","0","0","25561","","482","","","68","21","","","","","","","","","","","","","","","d",""
"","S1","","html-keyboard-response","146","476003","0.0-1.0-200.0","0","0","25561","","null","","","null","22","","","","","","","","","","","","","","","",""
"","ISI","","html-keyboard-response","147","476514","0.0-1.0-201.0","0","0","25561","","433","","","68","22","d","","","","","","","","","","","","","","",""
"","S2","","html-keyboard-response","148","476769","0.0-1.0-202.0","0","0","25561","","null","","","null","22","","NaN","","","","","","","","","","","","","",""
"","response","","html-keyboard-response","149","476924","0.0-1.0-203.0-0.0","0","0","25561","","151","","","75","22","","","1","22","training","adjacent","AB","1","2","Q.jpg","R.jpg","1","1","1","",""
"","feedback","","html-keyboard-response","150","477929","0.0-1.0-204.0-0.0","0","0","25561","","null","","","null","22","","","","","","","","","","","","","","","",""
"","ITI","","html-keyboard-response","151","478938","0.0-1.0-207.0","0","0","25561","","86","","","75","22","","","","","","","","","","","","","","","k",""
"","S1","","html-keyboard-response","152","479215","0.0-1.0-209.0","0","0","25561","","null","","","null","23","","","","","","","","","","","","","","","",""
"","ISI","","html-keyboard-response","153","479719","0.0-1.0-210.0","0","0","25561","","305","","","68","23","d","","","","","","","","","","","","","","",""
"","S2","","html-keyboard-response","154","479974","0.0-1.0-211.0","0","0","25561","","null","","","null","23","","NaN","","","","","","","","","","","","","",""
"","response","","html-keyboard-response","155","480125","0.0-1.0-212.0-0.0","0","0","25561","","146","","","75","23","","","1","23","training","adjacent","FG","6","7","L.jpg","N.jpg","1","1","1","",""
"","feedback","","html-keyboard-response","156","481177","0.0-1.0-213.0-0.0","0","0","25561","","null","","","null","23","","","","","","","","","","","","","","","",""
"","ITI","","html-keyboard-response","157","482184","0.0-1.0-216.0","0","0","25561","","21","","","75","23","","","","","","","","","","","","","","","k",""
"","S1","","html-keyboard-response","158","482450","0.0-1.0-218.0","0","0","25561","","null","","","null","24","","","","","","","","","","","","","","","",""
"","ISI","","html-keyboard-response","159","482955","0.0-1.0-219.0","0","0","25561","","null","","","null","24","NaN","","","","","","","","","","","","","","",""
"","S2","","html-keyboard-response","160","483210","0.0-1.0-220.0","0","0","25561","","null","","","null","24","","NaN","","","","","","","","","","","","","",""
"","response","","html-keyboard-response","161","484326","0.0-1.0-221.0-0.0","0","0","25561","","1111","","","68","24","","","1","24","training","adjacent","DE","4","5","O.jpg","P.jpg","0","1","0","",""
"","feedback","","html-keyboard-response","162","485331","0.0-1.0-222.0-0.0","0","0","25561","","null","","","null","24","","","","","","","","","","","","","","","",""
"","time_out","","html-keyboard-response","163","487340","0.0-1.0-224.0-0.0","0","0","25561","","null","","","null","24","","","","","","","","","","","","","","","",""
"","ITI","","html-keyboard-response","164","488346","0.0-1.0-225.0","0","0","25561","","59","","","68","24","","","","","","","","","","","","","","","d",""
"","S1","","html-keyboard-response","165","488604","0.0-1.0-227.0","0","0","25561","","null","","","null","25","","","","","","","","","","","","","","","",""
"","ISI","","html-keyboard-response","166","489169","0.0-1.0-228.0","0","0","25561","","415","","","75","25","k","","","","","","","","","","","","","","",""
"","S2","","html-keyboard-response","167","489474","0.0-1.0-229.0","0","0","25561","","null","","","null","25","","NaN","","","","","","","","","","","","","",""
"","response","","html-keyboard-response","168","489498","0.0-1.0-230.0-0.0","0","0","25561","","22","","","68","25","","","1","25","training","adjacent","AB","1","2","Q.jpg","R.jpg","0","1","0","",""
"","feedback","","html-keyboard-response","169","490505","0.0-1.0-231.0-0.0","0","0","25561","","null","","","null","25","","","","","","","","","","","","","","","",""
"","time_out","","html-keyboard-response","170","492656","0.0-1.0-233.0-0.0","0","0","25561","","null","","","null","25","","","","","","","","","","","","","","","",""
"","ITI","","html-keyboard-response","171","493663","0.0-1.0-234.0","0","0","25561","","197","","","75","25","","","","","","","","","","","","","","","k",""
"","S1","","html-keyboard-response","172","493919","0.0-1.0-236.0","0","0","25561","","null","","","null","26","","","","","","","","","","","","","","","",""
"","ISI","","html-keyboard-response","173","494424","0.0-1.0-237.0","0","0","25561","","436","","","68","26","d","","","","","","","","","","","","","","",""
"","S2","","html-keyboard-response","174","494679","0.0-1.0-238.0","0","0","25561","","null","","","null","26","","NaN","","","","","","","","","","","","","",""
"","response","","html-keyboard-response","175","494830","0.0-1.0-239.0-0.0","0","0","25561","","147","","","75","26","","","1","26","training","adjacent","FE","6","5","L.jpg","P.jpg","1","0","0","",""
"","feedback","","html-keyboard-response","176","495842","0.0-1.0-240.0-0.0","0","0","25561","","null","","","null","26","","","","","","","","","","","","","","","",""
"","time_out","","html-keyboard-response","177","497854","0.0-1.0-242.0-0.0","0","0","25561","","null","","","null","26","","","","","","","","","","","","","","","",""
"","ITI","","html-keyboard-response","178","498861","0.0-1.0-243.0","0","0","25561","","192","","","75","26","","","","","","","","","","","","","","","k",""
"","S1","","html-keyboard-response","179","499116","0.0-1.0-245.0","0","0","25561","","null","","","null","27","","","","","","","","","","","","","","","",""
"","ISI","","html-keyboard-response","180","499619","0.0-1.0-246.0","0","0","25561","","null","","","null","27","NaN","","","","","","","","","","","","","","",""
"","S2","","html-keyboard-response","181","499720","0.0-1.0-247.0","0","0","25561","","96","","","68","27","","d","1","27","training","adjacent","CB","3","2","M.jpg","R.jpg","0","0","1","",""
"","feedback","","html-keyboard-response","182","500726","0.0-1.0-249.0-0.0","0","0","25561","","null","","","null","27","","","","","","","","","","","","","","","",""
"","ITI","","html-keyboard-response","183","501733","0.0-1.0-252.0","0","0","25561","","135","","","68","27","","","","","","","","","","","","","","","d",""
"","S1","","html-keyboard-response","184","501989","0.0-1.0-254.0","0","0","25561","","null","","","null","28","","","","","","","","","","","","","","","",""
"","ISI","","html-keyboard-response","185","502493","0.0-1.0-255.0","0","0","25561","","359","","","75","28","k","","","","","","","","","","","","","","",""
"","S2","","html-keyboard-response","186","502751","0.0-1.0-256.0","0","0","25561","","null","","","null","28","","NaN","","","","","","","","","","","","","",""
"","response","","html-keyboard-response","187","502985","0.0-1.0-257.0-0.0","0","0","25561","","228","","","68","28","","","1","28","training","adjacent","FE","6","5","L.jpg","P.jpg","0","0","1","",""
"","feedback","","html-keyboard-response","188","503991","0.0-1.0-258.0-0.0","0","0","25561","","null","","","null","28","","","","","","","","","","","","","","","",""
"","ITI","","html-keyboard-response","189","504996","0.0-1.0-261.0","0","0","25561","","115","","","68","28","","","","","","","","","","","","","","","d",""
"","S1","","html-keyboard-response","190","505252","0.0-1.0-263.0","0","0","25561","","null","","","null","29","","","","","","","","","","","","","","","",""
"","ISI","","html-keyboard-response","191","505755","0.0-1.0-264.0","0","0","25561","","460","","","75","29","k","","","","","","","","","","","","","","",""
"","S2","","html-keyboard-response","192","506014","0.0-1.0-265.0","0","0","25561","","null","","","null","29","","NaN","","","","","","","","","","","","","",""
"","response","","html-keyboard-response","193","506354","0.0-1.0-266.0-0.0","0","0","25561","","334","","","68","29","","","1","29","training","adjacent","CB","3","2","M.jpg","R.jpg","0","0","1","",""
"","feedback","","html-keyboard-response","194","507359","0.0-1.0-267.0-0.0","0","0","25561","","null","","","null","29","","","","","","","","","","","","","","","",""
"","ITI","","html-keyboard-response","195","508367","0.0-1.0-270.0","0","0","25561","","336","","","68","29","","","","","","","","","","","","","","","d",""
"","S1","","html-keyboard-response","196","508623","0.0-1.0-272.0","0","0","25561","","null","","","null","30","","","","","","","","","","","","","","","",""
"","ISI","","html-keyboard-response","197","509134","0.0-1.0-273.0","0","0","25561","","365","","","68","30","d","","","","","","","","","","","","","","",""
"","S2","","html-keyboard-response","198","509445","0.0-1.0-274.0","0","0","25561","","null","","","null","30","","NaN","","","","","","","","","","","","","",""
"","response","","html-keyboard-response","199","509548","0.0-1.0-275.0-0.0","0","0","25561","","99","","","75","30","","","1","30","training","adjacent","ED","5","4","P.jpg","O.jpg","1","0","0","",""
"","feedback","","html-keyboard-response","200","510557","0.0-1.0-276.0-0.0","0","0","25561","","null","","","null","30","","","","","","","","","","","","","","","",""
"","time_out","","html-keyboard-response","201","512564","0.0-1.0-278.0-0.0","0","0","25561","","null","","","null","30","","","","","","","","","","","","","","","",""
"","ITI","","html-keyboard-response","202","513566","0.0-1.0-279.0","0","0","25561","","438","","","68","30","","","","","","","","","","","","","","","d",""
"","S1","","html-keyboard-response","203","513829","0.0-1.0-281.0","0","0","25561","","null","","","null","31","","","","","","","","","","","","","","","",""
"","ISI","","html-keyboard-response","204","514335","0.0-1.0-282.0","0","0","25561","","275","","","68","31","d","","","","","","","","","","","","","","",""
"","S2","","html-keyboard-response","205","514590","0.0-1.0-283.0","0","0","25561","","null","","","null","31","","NaN","","","","","","","","","","","","","",""
"","response","","html-keyboard-response","206","514597","0.0-1.0-284.0-0.0","0","0","25561","","3","","","75","31","","","1","31","training","adjacent","GF","7","6","N.jpg","L.jpg","1","0","0","",""
"","feedback","","html-keyboard-response","207","515604","0.0-1.0-285.0-0.0","0","0","25561","","null","","","null","31","","","","","","","","","","","","","","","",""
"","time_out","","html-keyboard-response","208","517617","0.0-1.0-287.0-0.0","0","0","25561","","null","","","null","31","","","","","","","","","","","","","","","",""
"","ITI","","html-keyboard-response","209","518626","0.0-1.0-288.0","0","0","25561","","268","","","75","31","","","","","","","","","","","","","","","k",""
"","S1","","html-keyboard-response","210","518881","0.0-1.0-290.0","0","0","25561","","null","","","null","32","","","","","","","","","","","","","","","",""
"","ISI","","html-keyboard-response","211","519384","0.0-1.0-291.0","0","0","25561","","null","","","null","32","NaN","","","","","","","","","","","","","","",""
"","S2","","html-keyboard-response","212","519640","0.0-1.0-292.0","0","0","25561","","null","","","null","32","","NaN","","","","","","","","","","","","","",""
"","response","","html-keyboard-response","213","520117","0.0-1.0-293.0-0.0","0","0","25561","","471","","","68","32","","","1","32","training","adjacent","ED","5","4","P.jpg","O.jpg","0","0","1","",""
"","feedback","","html-keyboard-response","214","521146","0.0-1.0-294.0-0.0","0","0","25561","","null","","","null","32","","","","","","","","","","","","","","","",""
"","ITI","","html-keyboard-response","215","522153","0.0-1.0-297.0","0","0","25561","","640","","","75","32","","","","","","","","","","","","","","","k",""
"","S1","","html-keyboard-response","216","522407","0.0-1.0-299.0","0","0","25561","","null","","","null","33","","","","","","","","","","","","","","","",""
"","ISI","","html-keyboard-response","217","522915","0.0-1.0-300.0","0","0","25561","","338","","","75","33","k","","","","","","","","","","","","","","",""
"","S2","","html-keyboard-response","218","523169","0.0-1.0-301.0","0","0","25561","","null","","","null","33","","NaN","","","","","","","","","","","","","",""
"","response","","html-keyboard-response","219","523193","0.0-1.0-302.0-0.0","0","0","25561","","21","","","68","33","","","1","33","training","adjacent","CD","3","4","M.jpg","O.jpg","0","1","0","",""
"","feedback","","html-keyboard-response","220","524197","0.0-1.0-303.0-0.0","0","0","25561","","null","","","null","33","","","","","","","","","","","","","","","",""
"","time_out","","html-keyboard-response","221","526202","0.0-1.0-305.0-0.0","0","0","25561","","null","","","null","33","","","","","","","","","","","","","","","",""
"","ITI","","html-keyboard-response","222","527208","0.0-1.0-306.0","0","0","25561","","null","","","null","33","","","","","","","","","","","","","","","NaN",""
"","S1","","html-keyboard-response","223","527463","0.0-1.0-308.0","0","0","25561","","null","","","null","34","","","","","","","","","","","","","","","",""
"","ISI","","html-keyboard-response","224","527966","0.0-1.0-309.0","0","0","25561","","null","","","null","34","NaN","","","","","","","","","","","","","","",""
"","S2","","html-keyboard-response","225","528223","0.0-1.0-310.0","0","0","25561","","null","","","null","34","","NaN","","","","","","","","","","","","","",""
"","response","","html-keyboard-response","226","528526","0.0-1.0-311.0-0.0","0","0","25561","","298","","","68","34","","","1","34","training","adjacent","BA","2","1","R.jpg","Q.jpg","0","0","1","",""
"","feedback","","html-keyboard-response","227","529532","0.0-1.0-312.0-0.0","0","0","25561","","null","","","null","34","","","","","","","","","","","","","","","",""
"","ITI","","html-keyboard-response","228","530538","0.0-1.0-315.0","0","0","25561","","470","","","75","34","","","","","","","","","","","","","","","k",""
"","S1","","html-keyboard-response","229","530795","0.0-1.0-317.0","0","0","25561","","null","","","null","35","","","","","","","","","","","","","","","",""
"","ISI","","html-keyboard-response","230","531311","0.0-1.0-318.0","0","0","25561","","149","","","75","35","k","","","","","","","","","","","","","","",""
"","S2","","html-keyboard-response","231","531394","0.0-1.0-319.0","0","0","25561","","79","","","68","35","","d","1","35","training","adjacent","FE","6","5","L.jpg","P.jpg","0","0","1","",""
"","feedback","","html-keyboard-response","232","532401","0.0-1.0-321.0-0.0","0","0","25561","","null","","","null","35","","","","","","","","","","","","","","","",""
"","ITI","","html-keyboard-response","233","533498","0.0-1.0-324.0","0","0","25561","","301","","","75","35","","","","","","","","","","","","","","","k",""
"","S1","","html-keyboard-response","234","533753","0.0-1.0-326.0","0","0","25561","","null","","","null","36","","","","","","","","","","","","","","","",""
"","ISI","","html-keyboard-response","235","534258","0.0-1.0-327.0","0","0","25561","","436","","","68","36","d","","","","","","","","","","","","","","",""
"","S2","","html-keyboard-response","236","534516","0.0-1.0-328.0","0","0","25561","","null","","","null","36","","NaN","","","","","","","","","","","","","",""
"","response","","html-keyboard-response","237","534675","0.0-1.0-329.0-0.0","0","0","25561","","156","","","75","36","","","1","36","training","adjacent","FE","6","5","L.jpg","P.jpg","1","0","0","",""
"","feedback","","html-keyboard-response","238","535680","0.0-1.0-330.0-0.0","0","0","25561","","null","","","null","36","","","","","","","","","","","","","","","",""
"","time_out","","html-keyboard-response","239","537699","0.0-1.0-332.0-0.0","0","0","25561","","null","","","null","36","","","","","","","","","","","","","","","",""
"","ITI","","html-keyboard-response","240","538708","0.0-1.0-333.0","0","0","25561","","376","","","75","36","","","","","","","","","","","","","","","k",""
"","S1","","html-keyboard-response","241","538965","0.0-1.0-335.0","0","0","25561","","null","","","null","37","","","","","","","","","","","","","","","",""
"","ISI","","html-keyboard-response","242","539471","0.0-1.0-336.0","0","0","25561","","63","","","75","37","k","","","","","","","","","","","","","","",""
"","S2","","html-keyboard-response","243","539727","0.0-1.0-337.0","0","0","25561","","null","","","null","37","","NaN","","","","","","","","","","","","","",""
"","response","","html-keyboard-response","244","539906","0.0-1.0-338.0-0.0","0","0","25561","","173","","","75","37","","","1","37","training","adjacent","ED","5","4","P.jpg","O.jpg","1","0","0","",""
"","feedback","","html-keyboard-response","245","540912","0.0-1.0-339.0-0.0","0","0","25561","","null","","","null","37","","","","","","","","","","","","","","","",""
"","time_out","","html-keyboard-response","246","542920","0.0-1.0-341.0-0.0","0","0","25561","","null","","","null","37","","","","","","","","","","","","","","","",""
"","ITI","","html-keyboard-response","247","543932","0.0-1.0-342.0","0","0","25561","","416","","","75","37","","","","","","","","","","","","","","","k",""
"","S1","","html-keyboard-response","248","544189","0.0-1.0-344.0","0","0","25561","","null","","","null","38","","","","","","","","","","","","","","","",""
"","ISI","","html-keyboard-response","249","544694","0.0-1.0-345.0","0","0","25561","","316","","","68","38","d","","","","","","","","","","","","","","",""
"","S2","","html-keyboard-response","250","544820","0.0-1.0-346.0","0","0","25561","","121","","","75","38","","k","1","38","training","adjacent","EF","5","6","P.jpg","L.jpg","1","1","1","",""
"","feedback","","html-keyboard-response","251","545833","0.0-1.0-348.0-0.0","0","0","25561","","null","","","null","38","","","","","","","","","","","","","","","",""
"","ITI","","html-keyboard-response","252","546841","0.0-1.0-351.0","0","0","25561","","16","","","68","38","","","","","","","","","","","","","","","d",""
"","S1","","html-keyboard-response","253","547134","0.0-1.0-353.0","0","0","25561","","null","","","null","39","","","","","","","","","","","","","","","",""
"","ISI","","html-keyboard-response","254","547639","0.0-1.0-354.0","0","0","25561","","303","","","75","39","k","","","","","","","","","","","","","","",""
"","S2","","html-keyboard-response","255","547778","0.0-1.0-355.0","0","0","25561","","135","","","68","39","","d","1","39","training","adjacent","FG","6","7","L.jpg","N.jpg","0","1","0","",""
"","feedback","","html-keyboard-response","256","548784","0.0-1.0-357.0-0.0","0","0","25561","","null","","","null","39","","","","","","","","","","","","","","","",""
"","time_out","","html-keyboard-response","257","550791","0.0-1.0-359.0-0.0","0","0","25561","","null","","","null","39","","","","","","","","","","","","","","","",""
"","ITI","","html-keyboard-response","258","551888","0.0-1.0-360.0","0","0","25561","","258","","","75","39","","","","","","","","","","","","","","","k",""
"","S1","","html-keyboard-response","259","552175","0.0-1.0-362.0","0","0","25561","","null","","","null","40","","","","","","","","","","","","","","","",""
"","ISI","","html-keyboard-response","260","552683","0.0-1.0-363.0","0","0","25561","","290","","","68","40","d","","","","","","","","","","","","","","",""
"","S2","","html-keyboard-response","261","552859","0.0-1.0-364.0","0","0","25561","","170","","","75","40","","k","1","40","training","adjacent","DE","4","5","O.jpg","P.jpg","1","1","1","",""
"","feedback","","html-keyboard-response","262","553866","0.0-1.0-366.0-0.0","0","0","25561","","null","","","null","40","","","","","","","","","","","","","","","",""
"","ITI","","html-keyboard-response","263","554871","0.0-1.0-369.0","0","0","25561","","328","","","68","40","","","","","","","","","","","","","","","d",""
"","S1","","html-keyboard-response","264","555135","0.0-1.0-371.0","0","0","25561","","null","","","null","41","","","","","","","","","","","","","","","",""
"","ISI","","html-keyboard-response","265","555640","0.0-1.0-372.0","0","0","25561","","368","","","75","41","k","","","","","","","","","","","","","","",""
"","S2","","html-keyboard-response","266","555921","0.0-1.0-373.0","0","0","25561","","null","","","null","41","","NaN","","","","","","","","","","","","","",""
"","response","","html-keyboard-response","267","556017","0.0-1.0-374.0-0.0","0","0","25561","","75","","","68","41","","","1","41","training","adjacent","EF","5","6","P.jpg","L.jpg","0","1","0","",""
"","feedback","","html-keyboard-response","268","557022","0.0-1.0-375.0-0.0","0","0","25561","","null","","","null","41","","","","","","","","","","","","","","","",""
"","time_out","","html-keyboard-response","269","559038","0.0-1.0-377.0-0.0","0","0","25561","","null","","","null","41","","","","","","","","","","","","","","","",""
"","ITI","","html-keyboard-response","270","560041","0.0-1.0-378.0","0","0","25561","","172","","","75","41","","","","","","","","","","","","","","","k",""
"","S1","","html-keyboard-response","271","560296","0.0-1.0-380.0","0","0","25561","","null","","","null","42","","","","","","","","","","","","","","","",""
"","ISI","","html-keyboard-response","272","560821","0.0-1.0-381.0","0","0","25561","","305","","","75","42","k","","","","","","","","","","","","","","",""
"","S2","","html-keyboard-response","273","561082","0.0-1.0-382.0","0","0","25561","","null","","","null","42","","NaN","","","","","","","","","","","","","",""
"","response","","html-keyboard-response","274","561288","0.0-1.0-383.0-0.0","0","0","25561","","203","","","68","42","","","1","42","training","adjacent","FG","6","7","L.jpg","N.jpg","0","1","0","",""
"","feedback","","html-keyboard-response","275","562302","0.0-1.0-384.0-0.0","0","0","25561","","null","","","null","42","","","","","","","","","","","","","","","",""
"","time_out","","html-keyboard-response","276","564312","0.0-1.0-386.0-0.0","0","0","25561","","null","","","null","42","","","","","","","","","","","","","","","",""
"","ITI","","html-keyboard-response","277","565319","0.0-1.0-387.0","0","0","25561","","27","","","75","42","","","","","","","","","","","","","","","k",""
"","S1","","html-keyboard-response","278","565575","0.0-1.0-389.0","0","0","25561","","null","","","null","43","","","","","","","","","","","","","","","",""
"","ISI","","html-keyboard-response","279","566080","0.0-1.0-390.0","0","0","25561","","45","","","75","43","k","","","","","","","","","","","","","","",""
"","S2","","html-keyboard-response","280","566220","0.0-1.0-391.0","0","0","25561","","136","","","68","43","","d","1","43","training","adjacent","CD","3","4","M.jpg","O.jpg","0","1","0","",""
"","feedback","","html-keyboard-response","281","567227","0.0-1.0-393.0-0.0","0","0","25561","","null","","","null","43","","","","","","","","","","","","","","","",""
"","time_out","","html-keyboard-response","282","569247","0.0-1.0-395.0-0.0","0","0","25561","","null","","","null","43","","","","","","","","","","","","","","","",""
"","ITI","","html-keyboard-response","283","570251","0.0-1.0-396.0","0","0","25561","","null","","","null","43","","","","","","","","","","","","","","","NaN",""
"","S1","","html-keyboard-response","284","570506","0.0-1.0-398.0","0","0","25561","","null","","","null","44","","","","","","","","","","","","","","","",""
"","ISI","","html-keyboard-response","285","571013","0.0-1.0-399.0","0","0","25561","","null","","","null","44","NaN","","","","","","","","","","","","","","",""
"","S2","","html-keyboard-response","286","571271","0.0-1.0-400.0","0","0","25561","","null","","","null","44","","NaN","","","","","","","","","","","","","",""
"","response","","html-keyboard-response","287","571690","0.0-1.0-401.0-0.0","0","0","25561","","414","","","68","44","","","1","44","training","adjacent","AB","1","2","Q.jpg","R.jpg","0","1","0","",""
"","feedback","","html-keyboard-response","288","572715","0.0-1.0-402.0-0.0","0","0","25561","","null","","","null","44","","","","","","","","","","","","","","","",""
"","time_out","","html-keyboard-response","289","574723","0.0-1.0-404.0-0.0","0","0","25561","","null","","","null","44","","","","","","","","","","","","","","","",""
"","ITI","","html-keyboard-response","290","575733","0.0-1.0-405.0","0","0","25561","","386","","","75","44","","","","","","","","","","","","","","","k",""
"","S1","","html-keyboard-response","291","575988","0.0-1.0-407.0","0","0","25561","","null","","","null","45","","","","","","","","","","","","","","","",""
"","ISI","","html-keyboard-response","292","576505","0.0-1.0-408.0","0","0","25561","","343","","","75","45","k","","","","","","","","","","","","","","",""
"","S2","","html-keyboard-response","293","576760","0.0-1.0-409.0","0","0","25561","","null","","","null","45","","NaN","","","","","","","","","","","","","",""
"","response","","html-keyboard-response","294","577056","0.0-1.0-410.0-0.0","0","0","25561","","291","","","68","45","","","1","45","training","adjacent","BC","2","3","R.jpg","M.jpg","0","1","0","",""
"","feedback","","html-keyboard-response","295","578268","0.0-1.0-411.0-0.0","0","0","25561","","null","","","null","45","","","","","","","","","","","","","","","",""
"","time_out","","html-keyboard-response","296","580279","0.0-1.0-413.0-0.0","0","0","25561","","null","","","null","45","","","","","","","","","","","","","","","",""
"","ITI","","html-keyboard-response","297","581283","0.0-1.0-414.0","0","0","25561","","null","","","null","45","","","","","","","","","","","","","","","NaN",""
"","S1","","html-keyboard-response","298","581539","0.0-1.0-416.0","0","0","25561","","null","","","null","46","","","","","","","","","","","","","","","",""
"","ISI","","html-keyboard-response","299","582043","0.0-1.0-417.0","0","0","25561","","385","","","68","46","d","","","","","","","","","","","","","","",""
"","S2","","html-keyboard-response","300","582298","0.0-1.0-418.0","0","0","25561","","null","","","null","46","","NaN","","","","","","","","","","","","","",""
"","response","","html-keyboard-response","301","583778","0.0-1.0-419.0-0.0","0","0","25561","","1474","","","75","46","","","1","46","training","adjacent","DC","4","3","O.jpg","M.jpg","1","0","0","",""
"","feedback","","html-keyboard-response","302","584783","0.0-1.0-420.0-0.0","0","0","25561","","null","","","null","46","","","","","","","","","","","","","","","",""
"","time_out","","html-keyboard-response","303","586790","0.0-1.0-422.0-0.0","0","0","25561","","null","","","null","46","","","","","","","","","","","","","","","",""
"","ITI","","html-keyboard-response","304","587796","0.0-1.0-423.0","0","0","25561","","217","","","75","46","","","","","","","","","","","","","","","k",""
"","S1","","html-keyboard-response","305","588054","0.0-1.0-425.0","0","0","25561","","null","","","null","47","","","","","","","","","","","","","","","",""
"","ISI","","html-keyboard-response","306","588558","0.0-1.0-426.0","0","0","25561","","280","","","75","47","k","","","","","","","","","","","","","","",""
"","S2","","html-keyboard-response","307","588815","0.0-1.0-427.0","0","0","25561","","null","","","null","47","","NaN","","","","","","","","","","","","","",""
"","response","","html-keyboard-response","308","588929","0.0-1.0-428.0-0.0","0","0","25561","","109","","","68","47","","","1","47","training","adjacent","CD","3","4","M.jpg","O.jpg","0","1","0","",""
"","feedback","","html-keyboard-response","309","589946","0.0-1.0-429.0-0.0","0","0","25561","","null","","","null","47","","","","","","","","","","","","","","","",""
"","time_out","","html-keyboard-response","310","591959","0.0-1.0-431.0-0.0","0","0","25561","","null","","","null","47","","","","","","","","","","","","","","","",""
"","ITI","","html-keyboard-response","311","592964","0.0-1.0-432.0","0","0","25561","","952","","","75","47","","","","","","","","","","","","","","","k",""
"","block_over","","html-keyboard-response","312","604492","0.0-1.0-433.0-0.0","0","0","25561","","11516","","","32","47","","","","","","","","","","","","","","","",""
"","S1","","html-keyboard-response","313","604749","0.0-1.0-434.0","0","0","25561","","null","","","null","48","","","","","","","","","","","","","","","",""
"","ISI","","html-keyboard-response","314","605256","0.0-1.0-435.0","0","0","25561","","null","","","null","48","NaN","","","","","","","","","","","","","","",""
"","S2","","html-keyboard-response","315","605515","0.0-1.0-436.0","0","0","25561","","null","","","null","48","","NaN","","","","","","","","","","","","","",""
"","response","","html-keyboard-response","316","605935","0.0-1.0-437.0-0.0","0","0","25561","","412","","","68","48","","","2","48","training","adjacent","EF","5","6","P.jpg","L.jpg","0","1","0","",""
"","feedback","","html-keyboard-response","317","607041","0.0-1.0-438.0-0.0","0","0","25561","","null","","","null","48","","","","","","","","","","","","","","","",""
"","time_out","","html-keyboard-response","318","609049","0.0-1.0-440.0-0.0","0","0","25561","","null","","","null","48","","","","","","","","","","","","","","","",""
"","ITI","","html-keyboard-response","319","610054","0.0-1.0-441.0","0","0","25561","","161","","","75","48","","","","","","","","","","","","","","","k",""
"","S1","","html-keyboard-response","320","610312","0.0-1.0-443.0","0","0","25561","","null","","","null","49","","","","","","","","","","","","","","","",""
"","ISI","","html-keyboard-response","321","610817","0.0-1.0-444.0","0","0","25561","","194","","","68","49","d","","","","","","","","","","","","","","",""
"","S2","","html-keyboard-response","322","610940","0.0-1.0-445.0","0","0","25561","","119","","","75","49","","k","2","49","training","adjacent","CB","3","2","M.jpg","R.jpg","1","0","0","",""
"","feedback","","html-keyboard-response","323","611947","0.0-1.0-447.0-0.0","0","0","25561","","null","","","null","49","","","","","","","","","","","","","","","",""
"","time_out","","html-keyboard-response","324","613954","0.0-1.0-449.0-0.0","0","0","25561","","null","","","null","49","","","","","","","","","","","","","","","",""
"","ITI","","html-keyboard-response","325","614973","0.0-1.0-450.0","0","0","25561","","341","","","75","49","","","","","","","","","","","","","","","k",""
"","S1","","html-keyboard-response","326","615238","0.0-1.0-452.0","0","0","25561","","null","","","null","50","","","","","","","","","","","","","","","",""
"","ISI","","html-keyboard-response","327","615743","0.0-1.0-453.0","0","0","25561","","337","","","68","50","d","","","","","","","","","","","","","","",""
"","S2","","html-keyboard-response","328","615997","0.0-1.0-454.0","0","0","25561","","null","","","null","50","","NaN","","","","","","","","","","","","","",""
"","response","","html-keyboard-response","329","616028","0.0-1.0-455.0-0.0","0","0","25561","","28","","","75","50","","","2","50","training","adjacent","BA","2","1","R.jpg","Q.jpg","1","0","0","",""
"","feedback","","html-keyboard-response","330","617032","0.0-1.0-456.0-0.0","0","0","25561","","null","","","null","50","","","","","","","","","","","","","","","",""
"","time_out","","html-keyboard-response","331","619038","0.0-1.0-458.0-0.0","0","0","25561","","null","","","null","50","","","","","","","","","","","","","","","",""
"","ITI","","html-keyboard-response","332","620053","0.0-1.0-459.0","0","0","25561","","57","","","68","50","","","","","","","","","","","","","","","d",""
"","S1","","html-keyboard-response","333","620309","0.0-1.0-461.0","0","0","25561","","null","","","null","51","","","","","","","","","","","","","","","",""
"","ISI","","html-keyboard-response","334","620814","0.0-1.0-462.0","0","0","25561","","310","","","68","51","d","","","","","","","","","","","","","","",""
"","S2","","html-keyboard-response","335","621018","0.0-1.0-463.0","0","0","25561","","200","","","75","51","","k","2","51","training","adjacent","CD","3","4","M.jpg","O.jpg","1","1","1","",""
"","feedback","","html-keyboard-response","336","622023","0.0-1.0-465.0-0.0","0","0","25561","","null","","","null","51","","","","","","","","","","","","","","","",""
"","ITI","","html-keyboard-response","337","623048","0.0-1.0-468.0","0","0","25561","","160","","","68","51","","","","","","","","","","","","","","","d",""
"","S1","","html-keyboard-response","338","623309","0.0-1.0-470.0","0","0","25561","","null","","","null","52","","","","","","","","","","","","","","","",""
"","ISI","","html-keyboard-response","339","623818","0.0-1.0-471.0","0","0","25561","","14","","","75","52","k","","","","","","","","","","","","","","",""
"","S2","","html-keyboard-response","340","624073","0.0-1.0-472.0","0","0","25561","","null","","","null","52","","NaN","","","","","","","","","","","","","",""
"","response","","html-keyboard-response","341","624078","0.0-1.0-473.0-0.0","0","0","25561","","1","","","75","52","","","2","52","training","adjacent","BA","2","1","R.jpg","Q.jpg","1","0","0","",""
"","feedback","","html-keyboard-response","342","625084","0.0-1.0-474.0-0.0","0","0","25561","","null","","","null","52","","","","","","","","","","","","","","","",""
"","time_out","","html-keyboard-response","343","627097","0.0-1.0-476.0-0.0","0","0","25561","","null","","","null","52","","","","","","","","","","","","","","","",""
"","ITI","","html-keyboard-response","344","628101","0.0-1.0-477.0","0","0","25561","","308","","","68","52","","","","","","","","","","","","","","","d",""
"","S1","","html-keyboard-response","345","628362","0.0-1.0-479.0","0","0","25561","","null","","","null","53","","","","","","","","","","","","","","","",""
"","ISI","","html-keyboard-response","346","628868","0.0-1.0-480.0","0","0","25561","","188","","","75","53","k","","","","","","","","","","","","","","",""
"","S2","","html-keyboard-response","347","629123","0.0-1.0-481.0","0","0","25561","","null","","","null","53","","NaN","","","","","","","","","","","","","",""
"","response","","html-keyboard-response","348","629217","0.0-1.0-482.0-0.0","0","0","25561","","90","","","75","53","","","2","53","training","adjacent","DC","4","3","O.jpg","M.jpg","1","0","0","",""
"","feedback","","html-keyboard-response","349","630231","0.0-1.0-483.0-0.0","0","0","25561","","null","","","null","53","","","","","","","","","","","","","","","",""
"","time_out","","html-keyboard-response","350","632239","0.0-1.0-485.0-0.0","0","0","25561","","null","","","null","53","","","","","","","","","","","","","","","",""
"","ITI","","html-keyboard-response","351","633245","0.0-1.0-486.0","0","0","25561","","326","","","68","53","","","","","","","","","","","","","","","d",""
"","S1","","html-keyboard-response","352","633500","0.0-1.0-488.0","0","0","25561","","null","","","null","54","","","","","","","","","","","","","","","",""
"","ISI","","html-keyboard-response","353","634005","0.0-1.0-489.0","0","0","25561","","403","","","75","54","k","","","","","","","","","","","","","","",""
"","S2","","html-keyboard-response","354","634275","0.0-1.0-490.0","0","0","25561","","null","","","null","54","","NaN","","","","","","","","","","","","","",""
"","response","","html-keyboard-response","355","634408","0.0-1.0-491.0-0.0","0","0","25561","","129","","","68","54","","","2","54","training","adjacent","FG","6","7","L.jpg","N.jpg","0","1","0","",""
"","feedback","","html-keyboard-response","356","635414","0.0-1.0-492.0-0.0","0","0","25561","","null","","","null","54","","","","","","","","","","","","","","","",""
"","time_out","","html-keyboard-response","357","637422","0.0-1.0-494.0-0.0","0","0","25561","","null","","","null","54","","","","","","","","","","","","","","","",""
"","ITI","","html-keyboard-response","358","638428","0.0-1.0-495.0","0","0","25561","","301","","","75","54","","","","","","","","","","","","","","","k",""
"","S1","","html-keyboard-response","359","638685","0.0-1.0-497.0","0","0","25561","","null","","","null","55","","","","","","","","","","","","","","","",""
"","ISI","","html-keyboard-response","360","639193","0.0-1.0-498.0","0","0","25561","","null","","","null","55","NaN","","","","","","","","","","","","","","",""
"","S2","","html-keyboard-response","361","639449","0.0-1.0-499.0","0","0","25561","","null","","","null","55","","NaN","","","","","","","","","","","","","",""
"","response","","html-keyboard-response","362","639628","0.0-1.0-500.0-0.0","0","0","25561","","177","","","68","55","","","2","55","training","adjacent","GF","7","6","N.jpg","L.jpg","0","0","1","",""
"","feedback","","html-keyboard-response","363","640635","0.0-1.0-501.0-0.0","0","0","25561","","null","","","null","55","","","","","","","","","","","","","","","",""
"","ITI","","html-keyboard-response","364","641670","0.0-1.0-504.0","0","0","25561","","267","","","68","55","","","","","","","","","","","","","","","d",""
"","S1","","html-keyboard-response","365","641928","0.0-1.0-506.0","0","0","25561","","null","","","null","56","","","","","","","","","","","","","","","",""
"","ISI","","html-keyboard-response","366","642436","0.0-1.0-507.0","0","0","25561","","206","","","68","56","d","","","","","","","","","","","","","","",""
"","S2","","html-keyboard-response","367","642691","0.0-1.0-508.0","0","0","25561","","null","","","null","56","","NaN","","","","","","","","","","","","","",""
"","response","","html-keyboard-response","368","642821","0.0-1.0-509.0-0.0","0","0","25561","","126","","","75","56","","","2","56","training","adjacent","AB","1","2","Q.jpg","R.jpg","1","1","1","",""
"","feedback","","html-keyboard-response","369","643833","0.0-1.0-510.0-0.0","0","0","25561","","null","","","null","56","","","","","","","","","","","","","","","",""
"","ITI","","html-keyboard-response","370","644841","0.0-1.0-513.0","0","0","25561","","97","","","75","56","","","","","","","","","","","","","","","k",""
"","S1","","html-keyboard-response","371","645093","0.0-1.0-515.0","0","0","25561","","null","","","null","57","","","","","","","","","","","","","","","",""
"","ISI","","html-keyboard-response","372","645601","0.0-1.0-516.0","0","0","25561","","312","","","68","57","d","","","","","","","","","","","","","","",""
"","S2","","html-keyboard-response","373","645859","0.0-1.0-517.0","0","0","25561","","null","","","null","57","","NaN","","","","","","","","","","","","","",""
"","response","","html-keyboard-response","374","645884","0.0-1.0-518.0-0.0","0","0","25561","","21","","","75","57","","","2","57","training","adjacent","DE","4","5","O.jpg","P.jpg","1","1","1","",""
"","feedback","","html-keyboard-response","375","646889","0.0-1.0-519.0-0.0","0","0","25561","","null","","","null","57","","","","","","","","","","","","","","","",""
"","ITI","","html-keyboard-response","376","647895","0.0-1.0-522.0","0","0","25561","","340","","","68","57","","","","","","","","","","","","","","","d",""
"","S1","","html-keyboard-response","377","648152","0.0-1.0-524.0","0","0","25561","","null","","","null","58","","","","","","","","","","","","","","","",""
"","ISI","","html-keyboard-response","378","648665","0.0-1.0-525.0","0","0","25561","","75","","","68","58","d","","","","","","","","","","","","","","",""
"","S2","","html-keyboard-response","379","648701","0.0-1.0-526.0","0","0","25561","","22","","","75","58","","k","2","58","training","adjacent","CD","3","4","M.jpg","O.jpg","1","1","1","",""
"","feedback","","html-keyboard-response","380","649709","0.0-1.0-528.0-0.0","0","0","25561","","null","","","null","58","","","","","","","","","","","","","","","",""
"","ITI","","html-keyboard-response","381","650720","0.0-1.0-531.0","0","0","25561","","419","","","75","58","","","","","","","","","","","","","","","k",""
"","S1","","html-keyboard-response","382","650977","0.0-1.0-533.0","0","0","25561","","null","","","null","59","","","","","","","","","","","","","","","",""
"","ISI","","html-keyboard-response","383","651492","0.0-1.0-534.0","0","0","25561","","0","","","68","59","d","","","","","","","","","","","","","","",""
"","S2","","html-keyboard-response","384","651747","0.0-1.0-535.0","0","0","25561","","null","","","null","59","","NaN","","","","","","","","","","","","","",""
"","response","","html-keyboard-response","385","652042","0.0-1.0-536.0-0.0","0","0","25561","","289","","","68","59","","","2","59","training","adjacent","BC","2","3","R.jpg","M.jpg","0","1","0","",""
"","feedback","","html-keyboard-response","386","653051","0.0-1.0-537.0-0.0","0","0","25561","","null","","","null","59","","","","","","","","","","","","","","","",""
"","time_out","","html-keyboard-response","387","655057","0.0-1.0-539.0-0.0","0","0","25561","","null","","","null","59","","","","","","","","","","","","","","","",""
"","ITI","","html-keyboard-response","388","656061","0.0-1.0-540.0","0","0","25561","","375","","","68","59","","","","","","","","","","","","","","","d",""
"","S1","","html-keyboard-response","389","656365","0.0-1.0-542.0","0","0","25561","","null","","","null","60","","","","","","","","","","","","","","","",""
"","ISI","","html-keyboard-response","390","656934","0.0-1.0-543.0","0","0","25561","","211","","","68","60","d","","","","","","","","","","","","","","",""
"","S2","","html-keyboard-response","391","657083","0.0-1.0-544.0","0","0","25561","","145","","","75","60","","k","2","60","training","adjacent","CB","3","2","M.jpg","R.jpg","1","0","0","",""
"","feedback","","html-keyboard-response","392","658100","0.0-1.0-546.0-0.0","0","0","25561","","null","","","null","60","","","","","","","","","","","","","","","",""
"","time_out","","html-keyboard-response","393","660138","0.0-1.0-548.0-0.0","0","0","25561","","null","","","null","60","","","","","","","","","","","","","","","",""
"","ITI","","html-keyboard-response","394","661143","0.0-1.0-549.0","0","0","25561","","512","","","75","60","","","","","","","","","","","","","","","k",""
"","S1","","html-keyboard-response","395","661402","0.0-1.0-551.0","0","0","25561","","null","","","null","61","","","","","","","","","","","","","","","",""
"","ISI","","html-keyboard-response","396","661910","0.0-1.0-552.0","0","0","25561","","386","","","75","61","k","","","","","","","","","","","","","","",""
"","S2","","html-keyboard-response","397","662173","0.0-1.0-553.0","0","0","25561","","null","","","null","61","","NaN","","","","","","","","","","","","","",""
"","response","","html-keyboard-response","398","662422","0.0-1.0-554.0-0.0","0","0","25561","","243","","","68","61","","","2","61","training","adjacent","ED","5","4","P.jpg","O.jpg","0","0","1","",""
"","feedback","","html-keyboard-response","399","663429","0.0-1.0-555.0-0.0","0","0","25561","","null","","","null","61","","","","","","","","","","","","","","","",""
"","ITI","","html-keyboard-response","400","664441","0.0-1.0-558.0","0","0","25561","","62","","","68","61","","","","","","","","","","","","","","","d",""
"","S1","","html-keyboard-response","401","664697","0.0-1.0-560.0","0","0","25561","","null","","","null","62","","","","","","","","","","","","","","","",""
"","ISI","","html-keyboard-response","402","665205","0.0-1.0-561.0","0","0","25561","","11","","","68","62","d","","","","","","","","","","","","","","",""
"","S2","","html-keyboard-response","403","665212","0.0-1.0-562.0","0","0","25561","","1","","","75","62","","k","2","62","training","adjacent","FE","6","5","L.jpg","P.jpg","1","0","0","",""
"","feedback","","html-keyboard-response","404","666330","0.0-1.0-564.0-0.0","0","0","25561","","null","","","null","62","","","","","","","","","","","","","","","",""
"","time_out","","html-keyboard-response","405","668335","0.0-1.0-566.0-0.0","0","0","25561","","null","","","null","62","","","","","","","","","","","","","","","",""
"","ITI","","html-keyboard-response","406","669342","0.0-1.0-567.0","0","0","25561","","65","","","75","62","","","","","","","","","","","","","","","k",""
"","S1","","html-keyboard-response","407","669600","0.0-1.0-569.0","0","0","25561","","null","","","null","63","","","","","","","","","","","","","","","",""
"","ISI","","html-keyboard-response","408","670106","0.0-1.0-570.0","0","0","25561","","null","","","null","63","NaN","","","","","","","","","","","","","","",""
"","S2","","html-keyboard-response","409","670137","0.0-1.0-571.0","0","0","25561","","26","","","68","63","","d","2","63","training","adjacent","GF","7","6","N.jpg","L.jpg","0","0","1","",""
"","feedback","","html-keyboard-response","410","671145","0.0-1.0-573.0-0.0","0","0","25561","","null","","","null","63","","","","","","","","","","","","","","","",""
"","ITI","","html-keyboard-response","411","672150","0.0-1.0-576.0","0","0","25561","","68","","","68","63","","","","","","","","","","","","","","","d",""
"","S1","","html-keyboard-response","412","672403","0.0-1.0-578.0","0","0","25561","","null","","","null","64","","","","","","","","","","","","","","","",""
"","ISI","","html-keyboard-response","413","672909","0.0-1.0-579.0","0","0","25561","","191","","","75","64","k","","","","","","","","","","","","","","",""
"","S2","","html-keyboard-response","414","673122","0.0-1.0-580.0","0","0","25561","","208","","","68","64","","d","2","64","training","adjacent","FG","6","7","L.jpg","N.jpg","0","1","0","",""
"","feedback","","html-keyboard-response","415","674137","0.0-1.0-582.0-0.0","0","0","25561","","null","","","null","64","","","","","","","","","","","","","","","",""
"","time_out","","html-keyboard-response","416","676143","0.0-1.0-584.0-0.0","0","0","25561","","null","","","null","64","","","","","","","","","","","","","","","",""
"","ITI","","html-keyboard-response","417","677149","0.0-1.0-585.0","0","0","25561","","397","","","75","64","","","","","","","","","","","","","","","k",""
"","S1","","html-keyboard-response","418","677402","0.0-1.0-587.0","0","0","25561","","null","","","null","65","","","","","","","","","","","","","","","",""
"","ISI","","html-keyboard-response","419","677910","0.0-1.0-588.0","0","0","25561","","328","","","75","65","k","","","","","","","","","","","","","","",""
"","S2","","html-keyboard-response","420","678166","0.0-1.0-589.0","0","0","25561","","null","","","null","65","","NaN","","","","","","","","","","","","","",""
"","response","","html-keyboard-response","421","678298","0.0-1.0-590.0-0.0","0","0","25561","","126","","","68","65","","","2","65","training","adjacent","BA","2","1","R.jpg","Q.jpg","0","0","1","",""
"","feedback","","html-keyboard-response","422","679303","0.0-1.0-591.0-0.0","0","0","25561","","null","","","null","65","","","","","","","","","","","","","","","",""
"","ITI","","html-keyboard-response","423","680313","0.0-1.0-594.0","0","0","25561","","133","","","68","65","","","","","","","","","","","","","","","d",""
"","S1","","html-keyboard-response","424","680572","0.0-1.0-596.0","0","0","25561","","null","","","null","66","","","","","","","","","","","","","","","",""
"","ISI","","html-keyboard-response","425","681080","0.0-1.0-597.0","0","0","25561","","null","","","null","66","NaN","","","","","","","","","","","","","","",""
"","S2","","html-keyboard-response","426","681091","0.0-1.0-598.0","0","0","25561","","6","","","75","66","","k","2","66","training","adjacent","AB","1","2","Q.jpg","R.jpg","1","1","1","",""
"","feedback","","html-keyboard-response","427","682098","0.0-1.0-600.0-0.0","0","0","25561","","null","","","null","66","","","","","","","","","","","","","","","",""
"","ITI","","html-keyboard-response","428","683112","0.0-1.0-603.0","0","0","25561","","61","","","75","66","","","","","","","","","","","","","","","k",""
"","S1","","html-keyboard-response","429","683369","0.0-1.0-605.0","0","0","25561","","null","","","null","67","","","","","","","","","","","","","","","",""
"","ISI","","html-keyboard-response","430","683885","0.0-1.0-606.0","0","0","25561","","360","","","68","67","d","","","","","","","","","","","","","","",""
"","S2","","html-keyboard-response","431","684141","0.0-1.0-607.0","0","0","25561","","null","","","null","67","","NaN","","","","","","","","","","","","","",""
"","response","","html-keyboard-response","432","684284","0.0-1.0-608.0-0.0","0","0","25561","","139","","","75","67","","","2","67","training","adjacent","BA","2","1","R.jpg","Q.jpg","1","0","0","",""
"","feedback","","html-keyboard-response","433","685289","0.0-1.0-609.0-0.0","0","0","25561","","null","","","null","67","","","","","","","","","","","","","","","",""
"","time_out","","html-keyboard-response","434","687318","0.0-1.0-611.0-0.0","0","0","25561","","null","","","null","67","","","","","","","","","","","","","","","",""
"","ITI","","html-keyboard-response","435","688323","0.0-1.0-612.0","0","0","25561","","298","","","75","67","","","","","","","","","","","","","","","k",""
"","S1","","html-keyboard-response","436","688578","0.0-1.0-614.0","0","0","25561","","null","","","null","68","","","","","","","","","","","","","","","",""
"","ISI","","html-keyboard-response","437","689083","0.0-1.0-615.0","0","0","25561","","203","","","75","68","k","","","","","","","","","","","","","","",""
"","S2","","html-keyboard-response","438","689412","0.0-1.0-616.0","0","0","25561","","null","","","null","68","","NaN","","","","","","","","","","","","","",""
"","response","","html-keyboard-response","439","689416","0.0-1.0-617.0-0.0","0","0","25561","","0","","","68","68","","","2","68","training","adjacent","FG","6","7","L.jpg","N.jpg","0","1","0","",""
"","feedback","","html-keyboard-response","440","690427","0.0-1.0-618.0-0.0","0","0","25561","","null","","","null","68","","","","","","","","","","","","","","","",""
"","time_out","","html-keyboard-response","441","692436","0.0-1.0-620.0-0.0","0","0","25561","","null","","","null","68","","","","","","","","","","","","","","","",""
"","ITI","","html-keyboard-response","442","693442","0.0-1.0-621.0","0","0","25561","","239","","","68","68","","","","","","","","","","","","","","","d",""
"","S1","","html-keyboard-response","443","693708","0.0-1.0-623.0","0","0","25561","","null","","","null","69","","","","","","","","","","","","","","","",""
"","ISI","","html-keyboard-response","444","694213","0.0-1.0-624.0","0","0","25561","","42","","","75","69","k","","","","","","","","","","","","","","",""
"","S2","","html-keyboard-response","445","694465","0.0-1.0-625.0","0","0","25561","","247","","","75","69","","k","2","69","training","adjacent","FG","6","7","L.jpg","N.jpg","1","1","1","",""
"","feedback","","html-keyboard-response","446","695472","0.0-1.0-627.0-0.0","0","0","25561","","null","","","null","69","","","","","","","","","","","","","","","",""
"","ITI","","html-keyboard-response","447","696479","0.0-1.0-630.0","0","0","25561","","164","","","68","69","","","","","","","","","","","","","","","d",""
"","S1","","html-keyboard-response","448","696746","0.0-1.0-632.0","0","0","25561","","null","","","null","70","","","","","","","","","","","","","","","",""
"","ISI","","html-keyboard-response","449","697250","0.0-1.0-633.0","0","0","25561","","183","","","75","70","k","","","","","","","","","","","","","","",""
"","S2","","html-keyboard-response","450","697338","0.0-1.0-634.0","0","0","25561","","85","","","68","70","","d","2","70","training","adjacent","GF","7","6","N.jpg","L.jpg","0","0","1","",""
"","feedback","","html-keyboard-response","451","698345","0.0-1.0-636.0-0.0","0","0","25561","","null","","","null","70","","","","","","","","","","","","","","","",""
"","ITI","","html-keyboard-response","452","699357","0.0-1.0-639.0","0","0","25561","","353","","","75","70","","","","","","","","","","","","","","","k",""
"","S1","","html-keyboard-response","453","699613","0.0-1.0-641.0","0","0","25561","","null","","","null","71","","","","","","","","","","","","","","","",""
"","ISI","","html-keyboard-response","454","700118","0.0-1.0-642.0","0","0","25561","","297","","","68","71","d","","","","","","","","","","","","","","",""
"","S2","","html-keyboard-response","455","700355","0.0-1.0-643.0","0","0","25561","","232","","","75","71","","k","2","71","training","adjacent","BC","2","3","R.jpg","M.jpg","1","1","1","",""
"","feedback","","html-keyboard-response","456","701367","0.0-1.0-645.0-0.0","0","0","25561","","null","","","null","71","","","","","","","","","","","","","","","",""
"","ITI","","html-keyboard-response","457","702438","0.0-1.0-648.0","0","0","25561","","211","","","68","71","","","","","","","","","","","","","","","d",""
"","S1","","html-keyboard-response","458","702694","0.0-1.0-650.0","0","0","25561","","null","","","null","72","","","","","","","","","","","","","","","",""
"","ISI","","html-keyboard-response","459","703199","0.0-1.0-651.0","0","0","25561","","123","","","75","72","k","","","","","","","","","","","","","","",""
"","S2","","html-keyboard-response","460","703361","0.0-1.0-652.0","0","0","25561","","156","","","68","72","","d","2","72","training","adjacent","CD","3","4","M.jpg","O.jpg","0","1","0","",""
"","feedback","","html-keyboard-response","461","704424","0.0-1.0-654.0-0.0","0","0","25561","","null","","","null","72","","","","","","","","","","","","","","","",""
"","time_out","","html-keyboard-response","462","706430","0.0-1.0-656.0-0.0","0","0","25561","","null","","","null","72","","","","","","","","","","","","","","","",""
"","ITI","","html-keyboard-response","463","707434","0.0-1.0-657.0","0","0","25561","","252","","","75","72","","","","","","","","","","","","","","","k",""
"","S1","","html-keyboard-response","464","707711","0.0-1.0-659.0","0","0","25561","","null","","","null","73","","","","","","","","","","","","","","","",""
"","ISI","","html-keyboard-response","465","708218","0.0-1.0-660.0","0","0","25561","","11","","","75","73","k","","","","","","","","","","","","","","",""
"","S2","","html-keyboard-response","466","708282","0.0-1.0-661.0","0","0","25561","","59","","","68","73","","d","2","73","training","adjacent","CB","3","2","M.jpg","R.jpg","0","0","1","",""
"","feedback","","html-keyboard-response","467","709287","0.0-1.0-663.0-0.0","0","0","25561","","null","","","null","73","","","","","","","","","","","","","","","",""
"","ITI","","html-keyboard-response","468","710301","0.0-1.0-666.0","0","0","25561","","147","","","68","73","","","","","","","","","","","","","","","d",""
"","S1","","html-keyboard-response","469","710559","0.0-1.0-668.0","0","0","25561","","null","","","null","74","","","","","","","","","","","","","","","",""
"","ISI","","html-keyboard-response","470","711063","0.0-1.0-669.0","0","0","25561","","468","","","75","74","k","","","","","","","","","","","","","","",""
"","S2","","html-keyboard-response","471","711318","0.0-1.0-670.0","0","0","25561","","null","","","null","74","","NaN","","","","","","","","","","","","","",""
"","response","","html-keyboard-response","472","711639","0.0-1.0-671.0-0.0","0","0","25561","","316","","","68","74","","","2","74","training","adjacent","EF","5","6","P.jpg","L.jpg","0","1","0","",""
"","feedback","","html-keyboard-response","473","712650","0.0-1.0-672.0-0.0","0","0","25561","","null","","","null","74","","","","","","","","","","","","","","","",""
"","time_out","","html-keyboard-response","474","714661","0.0-1.0-674.0-0.0","0","0","25561","","null","","","null","74","","","","","","","","","","","","","","","",""
"","ITI","","html-keyboard-response","475","715665","0.0-1.0-675.0","0","0","25561","","307","","","75","74","","","","","","","","","","","","","","","k",""
"","S1","","html-keyboard-response","476","715931","0.0-1.0-677.0","0","0","25561","","null","","","null","75","","","","","","","","","","","","","","","",""
"","ISI","","html-keyboard-response","477","716439","0.0-1.0-678.0","0","0","25561","","133","","","75","75","k","","","","","","","","","","","","","","",""
"","S2","","html-keyboard-response","478","716568","0.0-1.0-679.0","0","0","25561","","123","","","68","75","","d","2","75","training","adjacent","AB","1","2","Q.jpg","R.jpg","0","1","0","",""
"","feedback","","html-keyboard-response","479","717573","0.0-1.0-681.0-0.0","0","0","25561","","null","","","null","75","","","","","","","","","","","","","","","",""
"","time_out","","html-keyboard-response","480","719581","0.0-1.0-683.0-0.0","0","0","25561","","null","","","null","75","","","","","","","","","","","","","","","",""
"","ITI","","html-keyboard-response","481","720585","0.0-1.0-684.0","0","0","25561","","224","","","75","75","","","","","","","","","","","","","","","k",""
"","S1","","html-keyboard-response","482","720842","0.0-1.0-686.0","0","0","25561","","null","","","null","76","","","","","","","","","","","","","","","",""
"","ISI","","html-keyboard-response","483","721348","0.0-1.0-687.0","0","0","25561","","384","","","68","76","d","","","","","","","","","","","","","","",""
"","S2","","html-keyboard-response","484","721609","0.0-1.0-688.0","0","0","25561","","null","","","null","76","","NaN","","","","","","","","","","","","","",""
"","response","","html-keyboard-response","485","721730","0.0-1.0-689.0-0.0","0","0","25561","","114","","","75","76","","","2","76","training","adjacent","ED","5","4","P.jpg","O.jpg","1","0","0","",""
"","feedback","","html-keyboard-response","486","722741","0.0-1.0-690.0-0.0","0","0","25561","","null","","","null","76","","","","","","","","","","","","","","","",""
"","time_out","","html-keyboard-response","487","724800","0.0-1.0-692.0-0.0","0","0","25561","","null","","","null","76","","","","","","","","","","","","","","","",""
"","ITI","","html-keyboard-response","488","725808","0.0-1.0-693.0","0","0","25561","","0","","","75","76","","","","","","","","","","","","","","","k",""
"","S1","","html-keyboard-response","489","726062","0.0-1.0-695.0","0","0","25561","","null","","","null","77","","","","","","","","","","","","","","","",""
"","ISI","","html-keyboard-response","490","726569","0.0-1.0-696.0","0","0","25561","","309","","","68","77","d","","","","","","","","","","","","","","",""
"","S2","","html-keyboard-response","491","726824","0.0-1.0-697.0","0","0","25561","","null","","","null","77","","NaN","","","","","","","","","","","","","",""
"","response","","html-keyboard-response","492","726930","0.0-1.0-698.0-0.0","0","0","25561","","100","","","75","77","","","2","77","training","adjacent","BC","2","3","R.jpg","M.jpg","1","1","1","",""
"","feedback","","html-keyboard-response","493","727939","0.0-1.0-699.0-0.0","0","0","25561","","null","","","null","77","","","","","","","","","","","","","","","",""
"","ITI","","html-keyboard-response","494","729126","0.0-1.0-702.0","0","0","25561","","128","","","75","77","","","","","","","","","","","","","","","k",""
"","S1","","html-keyboard-response","495","729381","0.0-1.0-704.0","0","0","25561","","null","","","null","78","","","","","","","","","","","","","","","",""
"","ISI","","html-keyboard-response","496","729892","0.0-1.0-705.0","0","0","25561","","199","","","68","78","d","","","","","","","","","","","","","","",""
"","S2","","html-keyboard-response","497","730110","0.0-1.0-706.0","0","0","25561","","211","","","75","78","","k","2","78","training","adjacent","GF","7","6","N.jpg","L.jpg","1","0","0","",""
"","feedback","","html-keyboard-response","498","731115","0.0-1.0-708.0-0.0","0","0","25561","","null","","","null","78","","","","","","","","","","","","","","","",""
"","time_out","","html-keyboard-response","499","733171","0.0-1.0-710.0-0.0","0","0","25561","","null","","","null","78","","","","","","","","","","","","","","","",""
"","ITI","","html-keyboard-response","500","734284","0.0-1.0-711.0","0","0","25561","","605","","","75","78","","","","","","","","","","","","","","","k",""
"","S1","","html-keyboard-response","501","734541","0.0-1.0-713.0","0","0","25561","","null","","","null","79","","","","","","","","","","","","","","","",""
"","ISI","","html-keyboard-response","502","735057","0.0-1.0-714.0","0","0","25561","","284","","","75","79","k","","","","","","","","","","","","","","",""
"","S2","","html-keyboard-response","503","735317","0.0-1.0-715.0","0","0","25561","","null","","","null","79","","NaN","","","","","","","","","","","","","",""
"","response","","html-keyboard-response","504","735372","0.0-1.0-716.0-0.0","0","0","25561","","51","","","68","79","","","2","79","training","adjacent","FE","6","5","L.jpg","P.jpg","0","0","1","",""
"","feedback","","html-keyboard-response","505","736381","0.0-1.0-717.0-0.0","0","0","25561","","null","","","null","79","","","","","","","","","","","","","","","",""
"","ITI","","html-keyboard-response","506","737438","0.0-1.0-720.0","0","0","25561","","null","","","null","79","","","","","","","","","","","","","","","NaN",""
"","S1","","html-keyboard-response","507","737695","0.0-1.0-722.0","0","0","25561","","null","","","null","80","","","","","","","","","","","","","","","",""
"","ISI","","html-keyboard-response","508","738211","0.0-1.0-723.0","0","0","25561","","332","","","75","80","k","","","","","","","","","","","","","","",""
"","S2","","html-keyboard-response","509","738470","0.0-1.0-724.0","0","0","25561","","null","","","null","80","","NaN","","","","","","","","","","","","","",""
"","response","","html-keyboard-response","510","738593","0.0-1.0-725.0-0.0","0","0","25561","","119","","","68","80","","","2","80","training","adjacent","FE","6","5","L.jpg","P.jpg","0","0","1","",""
"","feedback","","html-keyboard-response","511","739602","0.0-1.0-726.0-0.0","0","0","25561","","null","","","null","80","","","","","","","","","","","","","","","",""
"","ITI","","html-keyboard-response","512","740610","0.0-1.0-729.0","0","0","25561","","307","","","75","80","","","","","","","","","","","","","","","k",""
"","S1","","html-keyboard-response","513","740864","0.0-1.0-731.0","0","0","25561","","null","","","null","81","","","","","","","","","","","","","","","",""
"","ISI","","html-keyboard-response","514","741367","0.0-1.0-732.0","0","0","25561","","237","","","75","81","k","","","","","","","","","","","","","","",""
"","S2","","html-keyboard-response","515","741564","0.0-1.0-733.0","0","0","25561","","192","","","68","81","","d","2","81","training","adjacent","DE","4","5","O.jpg","P.jpg","0","1","0","",""
"","feedback","","html-keyboard-response","516","742569","0.0-1.0-735.0-0.0","0","0","25561","","null","","","null","81","","","","","","","","","","","","","","","",""
"","time_out","","html-keyboard-response","517","744580","0.0-1.0-737.0-0.0","0","0","25561","","null","","","null","81","","","","","","","","","","","","","","","",""
"","ITI","","html-keyboard-response","518","745587","0.0-1.0-738.0","0","0","25561","","156","","","68","81","","","","","","","","","","","","","","","d",""
"","S1","","html-keyboard-response","519","745842","0.0-1.0-740.0","0","0","25561","","null","","","null","82","","","","","","","","","","","","","","","",""
"","ISI","","html-keyboard-response","520","746347","0.0-1.0-741.0","0","0","25561","","487","","","75","82","k","","","","","","","","","","","","","","",""
"","S2","","html-keyboard-response","521","746602","0.0-1.0-742.0","0","0","25561","","null","","","null","82","","NaN","","","","","","","","","","","","","",""
"","response","","html-keyboard-response","522","746851","0.0-1.0-743.0-0.0","0","0","25561","","244","","","68","82","","","2","82","training","adjacent","AB","1","2","Q.jpg","R.jpg","0","1","0","",""
"","feedback","","html-keyboard-response","523","747860","0.0-1.0-744.0-0.0","0","0","25561","","null","","","null","82","","","","","","","","","","","","","","","",""
"","time_out","","html-keyboard-response","524","749868","0.0-1.0-746.0-0.0","0","0","25561","","null","","","null","82","","","","","","","","","","","","","","","",""
"","ITI","","html-keyboard-response","525","750873","0.0-1.0-747.0","0","0","25561","","12","","","68","82","","","","","","","","","","","","","","","d",""
"","S1","","html-keyboard-response","526","751126","0.0-1.0-749.0","0","0","25561","","null","","","null","83","","","","","","","","","","","","","","","",""
"","ISI","","html-keyboard-response","527","751632","0.0-1.0-750.0","0","0","25561","","317","","","75","83","k","","","","","","","","","","","","","","",""
"","S2","","html-keyboard-response","528","751888","0.0-1.0-751.0","0","0","25561","","null","","","null","83","","NaN","","","","","","","","","","","","","",""
"","response","","html-keyboard-response","529","751993","0.0-1.0-752.0-0.0","0","0","25561","","102","","","68","83","","","2","83","training","adjacent","DC","4","3","O.jpg","M.jpg","0","0","1","",""
"","feedback","","html-keyboard-response","530","753002","0.0-1.0-753.0-0.0","0","0","25561","","null","","","null","83","","","","","","","","","","","","","","","",""
"","ITI","","html-keyboard-response","531","754006","0.0-1.0-756.0","0","0","25561","","72","","","68","83","","","","","","","","","","","","","","","d",""
"","S1","","html-keyboard-response","532","754262","0.0-1.0-758.0","0","0","25561","","null","","","null","84","","","","","","","","","","","","","","","",""
"","ISI","","html-keyboard-response","533","754766","0.0-1.0-759.0","0","0","25561","","373","","","75","84","k","","","","","","","","","","","","","","",""
"","S2","","html-keyboard-response","534","755023","0.0-1.0-760.0","0","0","25561","","null","","","null","84","","NaN","","","","","","","","","","","","","",""
"","response","","html-keyboard-response","535","755272","0.0-1.0-761.0-0.0","0","0","25561","","244","","","68","84","","","2","84","training","adjacent","BC","2","3","R.jpg","M.jpg","0","1","0","",""
"","feedback","","html-keyboard-response","536","756277","0.0-1.0-762.0-0.0","0","0","25561","","null","","","null","84","","","","","","","","","","","","","","","",""
"","time_out","","html-keyboard-response","537","758284","0.0-1.0-764.0-0.0","0","0","25561","","null","","","null","84","","","","","","","","","","","","","","","",""
"","ITI","","html-keyboard-response","538","759290","0.0-1.0-765.0","0","0","25561","","367","","","68","84","","","","","","","","","","","","","","","d",""
"","S1","","html-keyboard-response","539","759545","0.0-1.0-767.0","0","0","25561","","null","","","null","85","","","","","","","","","","","","","","","",""
"","ISI","","html-keyboard-response","540","760052","0.0-1.0-768.0","0","0","25561","","225","","","68","85","d","","","","","","","","","","","","","","",""
"","S2","","html-keyboard-response","541","760307","0.0-1.0-769.0","0","0","25561","","null","","","null","85","","NaN","","","","","","","","","","","","","",""
"","response","","html-keyboard-response","542","760449","0.0-1.0-770.0-0.0","0","0","25561","","135","","","75","85","","","2","85","training","adjacent","ED","5","4","P.jpg","O.jpg","1","0","0","",""
"","feedback","","html-keyboard-response","543","761455","0.0-1.0-771.0-0.0","0","0","25561","","null","","","null","85","","","","","","","","","","","","","","","",""
"","time_out","","html-keyboard-response","544","763463","0.0-1.0-773.0-0.0","0","0","25561","","null","","","null","85","","","","","","","","","","","","","","","",""
"","ITI","","html-keyboard-response","545","764471","0.0-1.0-774.0","0","0","25561","","410","","","68","85","","","","","","","","","","","","","","","d",""
"","S1","","html-keyboard-response","546","764725","0.0-1.0-776.0","0","0","25561","","null","","","null","86","","","","","","","","","","","","","","","",""
"","ISI","","html-keyboard-response","547","765249","0.0-1.0-777.0","0","0","25561","","388","","","68","86","d","","","","","","","","","","","","","","",""
"","S2","","html-keyboard-response","548","765513","0.0-1.0-778.0","0","0","25561","","null","","","null","86","","NaN","","","","","","","","","","","","","",""
"","response","","html-keyboard-response","549","765853","0.0-1.0-779.0-0.0","0","0","25561","","337","","","75","86","","","2","86","training","adjacent","CB","3","2","M.jpg","R.jpg","1","0","0","",""
"","feedback","","html-keyboard-response","550","766858","0.0-1.0-780.0-0.0","0","0","25561","","null","","","null","86","","","","","","","","","","","","","","","",""
"","time_out","","html-keyboard-response","551","768865","0.0-1.0-782.0-0.0","0","0","25561","","null","","","null","86","","","","","","","","","","","","","","","",""
"","ITI","","html-keyboard-response","552","769870","0.0-1.0-783.0","0","0","25561","","549","","","75","86","","","","","","","","","","","","","","","k",""
"","S1","","html-keyboard-response","553","770124","0.0-1.0-785.0","0","0","25561","","null","","","null","87","","","","","","","","","","","","","","","",""
"","ISI","","html-keyboard-response","554","770627","0.0-1.0-786.0","0","0","25561","","388","","","75","87","k","","","","","","","","","","","","","","",""
"","S2","","html-keyboard-response","555","770883","0.0-1.0-787.0","0","0","25561","","null","","","null","87","","NaN","","","","","","","","","","","","","",""
"","response","","html-keyboard-response","556","771028","0.0-1.0-788.0-0.0","0","0","25561","","140","","","68","87","","","2","87","training","adjacent","DC","4","3","O.jpg","M.jpg","0","0","1","",""
"","feedback","","html-keyboard-response","557","772034","0.0-1.0-789.0-0.0","0","0","25561","","null","","","null","87","","","","","","","","","","","","","","","",""
"","ITI","","html-keyboard-response","558","773081","0.0-1.0-792.0","0","0","25561","","122","","","68","87","","","","","","","","","","","","","","","d",""
"","S1","","html-keyboard-response","559","773338","0.0-1.0-794.0","0","0","25561","","null","","","null","88","","","","","","","","","","","","","","","",""
"","ISI","","html-keyboard-response","560","773844","0.0-1.0-795.0","0","0","25561","","455","","","75","88","k","","","","","","","","","","","","","","",""
"","S2","","html-keyboard-response","561","774104","0.0-1.0-796.0","0","0","25561","","null","","","null","88","","NaN","","","","","","","","","","","","","",""
"","response","","html-keyboard-response","562","774366","0.0-1.0-797.0-0.0","0","0","25561","","256","","","68","88","","","2","88","training","adjacent","DE","4","5","O.jpg","P.jpg","0","1","0","",""
"","feedback","","html-keyboard-response","563","775374","0.0-1.0-798.0-0.0","0","0","25561","","null","","","null","88","","","","","","","","","","","","","","","",""
"","time_out","","html-keyboard-response","564","777397","0.0-1.0-800.0-0.0","0","0","25561","","null","","","null","88","","","","","","","","","","","","","","","",""
"","ITI","","html-keyboard-response","565","778414","0.0-1.0-801.0","0","0","25561","","46","","","75","88","","","","","","","","","","","","","","","k",""
"","S1","","html-keyboard-response","566","778671","0.0-1.0-803.0","0","0","25561","","null","","","null","89","","","","","","","","","","","","","","","",""
"","ISI","","html-keyboard-response","567","779177","0.0-1.0-804.0","0","0","25561","","493","","","68","89","d","","","","","","","","","","","","","","",""
"","S2","","html-keyboard-response","568","779433","0.0-1.0-805.0","0","0","25561","","null","","","null","89","","NaN","","","","","","","","","","","","","",""
"","response","","html-keyboard-response","569","779717","0.0-1.0-806.0-0.0","0","0","25561","","279","","","75","89","","","2","89","training","adjacent","EF","5","6","P.jpg","L.jpg","1","1","1","",""
"","feedback","","html-keyboard-response","570","780723","0.0-1.0-807.0-0.0","0","0","25561","","null","","","null","89","","","","","","","","","","","","","","","",""
"","ITI","","html-keyboard-response","571","781729","0.0-1.0-810.0","0","0","25561","","311","","","75","89","","","","","","","","","","","","","","","k",""
"","S1","","html-keyboard-response","572","781985","0.0-1.0-812.0","0","0","25561","","null","","","null","90","","","","","","","","","","","","","","","",""
"","ISI","","html-keyboard-response","573","782490","0.0-1.0-813.0","0","0","25561","","230","","","75","90","k","","","","","","","","","","","","","","",""
"","S2","","html-keyboard-response","574","782748","0.0-1.0-814.0","0","0","25561","","null","","","null","90","","NaN","","","","","","","","","","","","","",""
"","response","","html-keyboard-response","575","782805","0.0-1.0-815.0-0.0","0","0","25561","","52","","","68","90","","","2","90","training","adjacent","DE","4","5","O.jpg","P.jpg","0","1","0","",""
"","feedback","","html-keyboard-response","576","783811","0.0-1.0-816.0-0.0","0","0","25561","","null","","","null","90","","","","","","","","","","","","","","","",""
"","time_out","","html-keyboard-response","577","785821","0.0-1.0-818.0-0.0","0","0","25561","","null","","","null","90","","","","","","","","","","","","","","","",""
"","ITI","","html-keyboard-response","578","786834","0.0-1.0-819.0","0","0","25561","","258","","","68","90","","","","","","","","","","","","","","","d",""
"","S1","","html-keyboard-response","579","787109","0.0-1.0-821.0","0","0","25561","","null","","","null","91","","","","","","","","","","","","","","","",""
"","ISI","","html-keyboard-response","580","787614","0.0-1.0-822.0","0","0","25561","","67","","","68","91","d","","","","","","","","","","","","","","",""
"","S2","","html-keyboard-response","581","787803","0.0-1.0-823.0","0","0","25561","","186","","","75","91","","k","2","91","training","adjacent","CD","3","4","M.jpg","O.jpg","1","1","1","",""
"","feedback","","html-keyboard-response","582","788809","0.0-1.0-825.0-0.0","0","0","25561","","null","","","null","91","","","","","","","","","","","","","","","",""
"","ITI","","html-keyboard-response","583","789816","0.0-1.0-828.0","0","0","25561","","184","","","75","91","","","","","","","","","","","","","","","k",""
"","S1","","html-keyboard-response","584","790070","0.0-1.0-830.0","0","0","25561","","null","","","null","92","","","","","","","","","","","","","","","",""
"","ISI","","html-keyboard-response","585","790580","0.0-1.0-831.0","0","0","25561","","48","","","75","92","k","","","","","","","","","","","","","","",""
"","S2","","html-keyboard-response","586","790722","0.0-1.0-832.0","0","0","25561","","138","","","68","92","","d","2","92","training","adjacent","EF","5","6","P.jpg","L.jpg","0","1","0","",""
"","feedback","","html-keyboard-response","587","791730","0.0-1.0-834.0-0.0","0","0","25561","","null","","","null","92","","","","","","","","","","","","","","","",""
