"success","ttype","start_time","trial_type","trial_index","time_elapsed","internal_node_id","warning","missed_checkup","PID","view_history","rt","responses","repeat_instructions","key_press","index","keypress_isi","keypress_S2","block","trial_num","phase","group_type","pair_type","S1_stim","S2_stim","S1_img","S2_img","S1_chosen","S1_higher","accuracy","keypress_iti","total_bonus_tally"
"true","full_screen","d08052022hr1249","fullscreen","0","13649","0.0-0.0","0","0","11146","","","","","","","","","","","","","","","","","","","","","",""
"","instructions","","instructions","1","57215","0.0-1.0-0.0-0.0","0","0","11146","[{""page_index"":0,""viewing_time"":11875},{""page_index"":1,""viewing_time"":18836},{""page_index"":2,""viewing_time"":10989},{""page_index"":3,""viewing_time"":1863}]","43563","","","","","","","","","","","","","","","","","","","",""
"","comprehension_check","","survey-multi-choice","2","75575","0.0-1.0-0.0-1.0","0","0","11146","","18355","{""Q0"":""True"",""Q1"":""D"",""Q2"":""Only when the screen 'MAKE A CHOICE' is shown"",""Q3"":""Green mark"",""Q4"":""either D or K""}","1","","","","","","","","","","","","","","","","","",""
"","missed_instruction_checkup","","html-keyboard-response","3","78195","0.0-1.0-0.0-2.0-0.0","0","1","11146","","2615","","","32","","","","","","","","","","","","","","","","",""
"","instructions","","instructions","4","105537","0.0-1.0-0.1-0.1","0","0","11146","[{""page_index"":0,""viewing_time"":10488},{""page_index"":1,""viewing_time"":12498},{""page_index"":2,""viewing_time"":3985},{""page_index"":3,""viewing_time"":368}]","27339","","","","","","","","","","","","","","","","","","","",""
"","comprehension_check","","survey-multi-choice","5","131783","0.0-1.0-0.1-1.1","0","0","11146","","26239","{""Q0"":""False"",""Q1"":""D"",""Q2"":""Only when the screen 'MAKE A CHOICE' is shown"",""Q3"":""Green mark"",""Q4"":""either D or K""}","1","","","","","","","","","","","","","","","","","",""
"","missed_instruction_checkup","","html-keyboard-response","6","132822","0.0-1.0-0.1-2.1-0.1","0","1","11146","","1036","","","32","","","","","","","","","","","","","","","","",""
"","instructions","","instructions","7","137643","0.0-1.0-0.2-0.2","0","0","11146","[{""page_index"":0,""viewing_time"":1724},{""page_index"":1,""viewing_time"":736},{""page_index"":2,""viewing_time"":1149},{""page_index"":3,""viewing_time"":1210}]","4819","","","","","","","","","","","","","","","","","","","",""
"","comprehension_check","","survey-multi-choice","8","154082","0.0-1.0-0.2-1.2","0","0","11146","","16433","{""Q0"":""True"",""Q1"":""D"",""Q2"":""Once the second image appears and while the screen 'MAKE A CHOICE' is shown"",""Q3"":""Green mark"",""Q4"":""either D or K""}","0","","","","","","","","","","","","","","","","","",""
"","start_exp","","html-keyboard-response","9","155647","0.0-1.0-1.0","0","0","11146","","1562","","","32","","","","","","","","","","","","","","","","",""
"","S1","","html-keyboard-response","10","155902","0.0-1.0-2.0","0","0","11146","","null","","","null","0","","","","","","","","","","","","","","","",""
"","ISI","","html-keyboard-response","11","157906","0.0-1.0-3.0","0","0","11146","","null","","","null","0","NaN","","","","","","","","","","","","","","",""
"","S2","","html-keyboard-response","12","158161","0.0-1.0-4.0","0","0","11146","","null","","","null","0","","NaN","","","","","","","","","","","","","",""
"","response","","html-keyboard-response","13","159915","0.0-1.0-5.0-0.0","0","0","11146","","null","","","null","0","","","1","0","training","adjacent","BC","2","3","M.jpg","R.jpg","NaN","1","0","",""
"","too_slow_prompt","","html-keyboard-response","14","160920","0.0-1.0-7.0-0.0","1","0","11146","","null","","","null","","","","","","","","","","","","","","","","",""
"","time_out","","html-keyboard-response","15","162924","0.0-1.0-8.0-0.0","0","0","11146","","null","","","null","0","","","","","","","","","","","","","","","",""
"","ITI","","html-keyboard-response","16","163928","0.0-1.0-9.0","0","0","11146","","null","","","null","0","","","","","","","","","","","","","","","NaN",""
"","S1","","html-keyboard-response","17","164183","0.0-1.0-11.0","0","0","11146","","null","","","null","1","","","","","","","","","","","","","","","",""
"","ISI","","html-keyboard-response","18","166187","0.0-1.0-12.0","0","0","11146","","null","","","null","1","NaN","","","","","","","","","","","","","","",""
"","S2","","html-keyboard-response","19","166441","0.0-1.0-13.0","0","0","11146","","null","","","null","1","","NaN","","","","","","","","","","","","","",""
"","response","","html-keyboard-response","20","167056","0.0-1.0-14.0-0.0","0","0","11146","","611","","","75","1","","","1","1","training","adjacent","EF","5","6","N.jpg","P.jpg","0","1","0","",""
"","feedback","","html-keyboard-response","21","168061","0.0-1.0-15.0-0.0","0","0","11146","","null","","","null","1","","","","","","","","","","","","","","","",""
"","time_out","","html-keyboard-response","22","170064","0.0-1.0-17.0-0.0","0","0","11146","","null","","","null","1","","","","","","","","","","","","","","","",""
"","ITI","","html-keyboard-response","23","171069","0.0-1.0-18.0","0","0","11146","","null","","","null","1","","","","","","","","","","","","","","","NaN",""
"","S1","","html-keyboard-response","24","171324","0.0-1.0-20.0","0","0","11146","","null","","","null","2","","","","","","","","","","","","","","","",""
"","ISI","","html-keyboard-response","25","173328","0.0-1.0-21.0","0","0","11146","","null","","","null","2","NaN","","","","","","","","","","","","","","",""
"","S2","","html-keyboard-response","26","173582","0.0-1.0-22.0","0","0","11146","","null","","","null","2","","NaN","","","","","","","","","","","","","",""
"","response","","html-keyboard-response","27","173684","0.0-1.0-23.0-0.0","0","0","11146","","99","","","68","2","","","1","2","training","adjacent","FG","6","7","P.jpg","O.jpg","1","1","1","",""
"","feedback","","html-keyboard-response","28","174689","0.0-1.0-24.0-0.0","0","0","11146","","null","","","null","2","","","","","","","","","","","","","","","",""
"","ITI","","html-keyboard-response","29","175694","0.0-1.0-27.0","0","0","11146","","null","","","null","2","","","","","","","","","","","","","","","NaN",""
"","S1","","html-keyboard-response","30","175949","0.0-1.0-29.0","0","0","11146","","null","","","null","3","","","","","","","","","","","","","","","",""
"","ISI","","html-keyboard-response","31","177953","0.0-1.0-30.0","0","0","11146","","null","","","null","3","NaN","","","","","","","","","","","","","","",""
"","S2","","html-keyboard-response","32","178207","0.0-1.0-31.0","0","0","11146","","null","","","null","3","","NaN","","","","","","","","","","","","","",""
"","response","","html-keyboard-response","33","178300","0.0-1.0-32.0-0.0","0","0","11146","","90","","","75","3","","","1","3","training","adjacent","ED","5","4","N.jpg","Q.jpg","0","0","1","",""
"","feedback","","html-keyboard-response","34","179306","0.0-1.0-33.0-0.0","0","0","11146","","null","","","null","3","","","","","","","","","","","","","","","",""
"","ITI","","html-keyboard-response","35","180310","0.0-1.0-36.0","0","0","11146","","null","","","null","3","","","","","","","","","","","","","","","NaN",""
"","S1","","html-keyboard-response","36","180564","0.0-1.0-38.0","0","0","11146","","null","","","null","4","","","","","","","","","","","","","","","",""
"","ISI","","html-keyboard-response","37","182568","0.0-1.0-39.0","0","0","11146","","null","","","null","4","NaN","","","","","","","","","","","","","","",""
"","S2","","html-keyboard-response","38","182824","0.0-1.0-40.0","0","0","11146","","null","","","null","4","","NaN","","","","","","","","","","","","","",""
"","response","","html-keyboard-response","39","183337","0.0-1.0-41.0-0.0","0","0","11146","","511","","","68","4","","","1","4","training","adjacent","FE","6","5","P.jpg","N.jpg","1","0","0","",""
"","feedback","","html-keyboard-response","40","184342","0.0-1.0-42.0-0.0","0","0","11146","","null","","","null","4","","","","","","","","","","","","","","","",""
"","time_out","","html-keyboard-response","41","186346","0.0-1.0-44.0-0.0","0","0","11146","","null","","","null","4","","","","","","","","","","","","","","","",""
"","ITI","","html-keyboard-response","42","187350","0.0-1.0-45.0","0","0","11146","","null","","","null","4","","","","","","","","","","","","","","","NaN",""
"","S1","","html-keyboard-response","43","187605","0.0-1.0-47.0","0","0","11146","","null","","","null","5","","","","","","","","","","","","","","","",""
"","ISI","","html-keyboard-response","44","189610","0.0-1.0-48.0","0","0","11146","","null","","","null","5","NaN","","","","","","","","","","","","","","",""
"","S2","","html-keyboard-response","45","189864","0.0-1.0-49.0","0","0","11146","","null","","","null","5","","NaN","","","","","","","","","","","","","",""
"","response","","html-keyboard-response","46","189870","0.0-1.0-50.0-0.0","0","0","11146","","2","","","68","5","","","1","5","training","adjacent","DC","4","3","Q.jpg","R.jpg","1","0","0","",""
"","feedback","","html-keyboard-response","47","190875","0.0-1.0-51.0-0.0","0","0","11146","","null","","","null","5","","","","","","","","","","","","","","","",""
"","time_out","","html-keyboard-response","48","192879","0.0-1.0-53.0-0.0","0","0","11146","","null","","","null","5","","","","","","","","","","","","","","","",""
"","ITI","","html-keyboard-response","49","193883","0.0-1.0-54.0","0","0","11146","","null","","","null","5","","","","","","","","","","","","","","","NaN",""
"","S1","","html-keyboard-response","50","194137","0.0-1.0-56.0","0","0","11146","","null","","","null","6","","","","","","","","","","","","","","","",""
"","ISI","","html-keyboard-response","51","196141","0.0-1.0-57.0","0","0","11146","","null","","","null","6","NaN","","","","","","","","","","","","","","",""
"","S2","","html-keyboard-response","52","196389","0.0-1.0-58.0","0","0","11146","","244","","","68","6","","d","1","6","training","adjacent","AB","1","2","L.jpg","M.jpg","1","1","1","",""
"","feedback","","html-keyboard-response","53","197395","0.0-1.0-60.0-0.0","0","0","11146","","null","","","null","6","","","","","","","","","","","","","","","",""
"","ITI","","html-keyboard-response","54","198399","0.0-1.0-63.0","0","0","11146","","null","","","null","6","","","","","","","","","","","","","","","NaN",""
"","S1","","html-keyboard-response","55","198653","0.0-1.0-65.0","0","0","11146","","null","","","null","7","","","","","","","","","","","","","","","",""
"","ISI","","html-keyboard-response","56","200657","0.0-1.0-66.0","0","0","11146","","null","","","null","7","NaN","","","","","","","","","","","","","","",""
"","S2","","html-keyboard-response","57","200856","0.0-1.0-67.0","0","0","11146","","194","","","75","7","","k","1","7","training","adjacent","GF","7","6","O.jpg","P.jpg","0","0","1","",""
"","feedback","","html-keyboard-response","58","201860","0.0-1.0-69.0-0.0","0","0","11146","","null","","","null","7","","","","","","","","","","","","","","","",""
"","ITI","","html-keyboard-response","59","202864","0.0-1.0-72.0","0","0","11146","","null","","","null","7","","","","","","","","","","","","","","","NaN",""
"","S1","","html-keyboard-response","60","203119","0.0-1.0-74.0","0","0","11146","","null","","","null","8","","","","","","","","","","","","","","","",""
"","ISI","","html-keyboard-response","61","205124","0.0-1.0-75.0","0","0","11146","","null","","","null","8","NaN","","","","","","","","","","","","","","",""
"","S2","","html-keyboard-response","62","205379","0.0-1.0-76.0","0","0","11146","","null","","","null","8","","NaN","","","","","","","","","","","","","",""
"","response","","html-keyboard-response","63","205434","0.0-1.0-77.0-0.0","0","0","11146","","52","","","75","8","","","1","8","training","adjacent","FG","6","7","P.jpg","O.jpg","0","1","0","",""
"","feedback","","html-keyboard-response","64","206441","0.0-1.0-78.0-0.0","0","0","11146","","null","","","null","8","","","","","","","","","","","","","","","",""
"","time_out","","html-keyboard-response","65","208444","0.0-1.0-80.0-0.0","0","0","11146","","null","","","null","8","","","","","","","","","","","","","","","",""
"","ITI","","html-keyboard-response","66","209449","0.0-1.0-81.0","0","0","11146","","null","","","null","8","","","","","","","","","","","","","","","NaN",""
"","S1","","html-keyboard-response","67","209704","0.0-1.0-83.0","0","0","11146","","null","","","null","9","","","","","","","","","","","","","","","",""
"","ISI","","html-keyboard-response","68","211709","0.0-1.0-84.0","0","0","11146","","null","","","null","9","NaN","","","","","","","","","","","","","","",""
"","S2","","html-keyboard-response","69","211964","0.0-1.0-85.0","0","0","11146","","null","","","null","9","","NaN","","","","","","","","","","","","","",""
"","response","","html-keyboard-response","70","212020","0.0-1.0-86.0-0.0","0","0","11146","","53","","","68","9","","","1","9","training","adjacent","BC","2","3","M.jpg","R.jpg","1","1","1","",""
"","feedback","","html-keyboard-response","71","213025","0.0-1.0-87.0-0.0","0","0","11146","","null","","","null","9","","","","","","","","","","","","","","","",""
"","ITI","","html-keyboard-response","72","214030","0.0-1.0-90.0","0","0","11146","","null","","","null","9","","","","","","","","","","","","","","","NaN",""
"","S1","","html-keyboard-response","73","214284","0.0-1.0-92.0","0","0","11146","","null","","","null","10","","","","","","","","","","","","","","","",""
"","ISI","","html-keyboard-response","74","216287","0.0-1.0-93.0","0","0","11146","","1581","","","75","10","k","","","","","","","","","","","","","","",""
"","S2","","html-keyboard-response","75","216541","0.0-1.0-94.0","0","0","11146","","null","","","null","10","","NaN","","","","","","","","","","","","","",""
"","response","","html-keyboard-response","76","216642","0.0-1.0-95.0-0.0","0","0","11146","","98","","","75","10","","","1","10","training","adjacent","DC","4","3","Q.jpg","R.jpg","0","0","1","",""
"","feedback","","html-keyboard-response","77","217647","0.0-1.0-96.0-0.0","0","0","11146","","null","","","null","10","","","","","","","","","","","","","","","",""
"","ITI","","html-keyboard-response","78","218651","0.0-1.0-99.0","0","0","11146","","null","","","null","10","","","","","","","","","","","","","","","NaN",""
"","S1","","html-keyboard-response","79","218906","0.0-1.0-101.0","0","0","11146","","null","","","null","11","","","","","","","","","","","","","","","",""
"","ISI","","html-keyboard-response","80","220910","0.0-1.0-102.0","0","0","11146","","null","","","null","11","NaN","","","","","","","","","","","","","","",""
"","S2","","html-keyboard-response","81","221165","0.0-1.0-103.0","0","0","11146","","null","","","null","11","","NaN","","","","","","","","","","","","","",""
"","response","","html-keyboard-response","82","221217","0.0-1.0-104.0-0.0","0","0","11146","","49","","","75","11","","","1","11","training","adjacent","ED","5","4","N.jpg","Q.jpg","0","0","1","",""
"","feedback","","html-keyboard-response","83","222221","0.0-1.0-105.0-0.0","0","0","11146","","null","","","null","11","","","","","","","","","","","","","","","",""
"","ITI","","html-keyboard-response","84","223227","0.0-1.0-108.0","0","0","11146","","null","","","null","11","","","","","","","","","","","","","","","NaN",""
"","S1","","html-keyboard-response","85","223481","0.0-1.0-110.0","0","0","11146","","null","","","null","12","","","","","","","","","","","","","","","",""
"","ISI","","html-keyboard-response","86","225485","0.0-1.0-111.0","0","0","11146","","null","","","null","12","NaN","","","","","","","","","","","","","","",""
"","S2","","html-keyboard-response","87","225740","0.0-1.0-112.0","0","0","11146","","null","","","null","12","","NaN","","","","","","","","","","","","","",""
"","response","","html-keyboard-response","88","226032","0.0-1.0-113.0-0.0","0","0","11146","","288","","","68","12","","","1","12","training","adjacent","DE","4","5","Q.jpg","N.jpg","1","1","1","",""
"","feedback","","html-keyboard-response","89","227036","0.0-1.0-114.0-0.0","0","0","11146","","null","","","null","12","","","","","","","","","","","","","","","",""
"","ITI","","html-keyboard-response","90","228040","0.0-1.0-117.0","0","0","11146","","null","","","null","12","","","","","","","","","","","","","","","NaN",""
"","S1","","html-keyboard-response","91","228295","0.0-1.0-119.0","0","0","11146","","null","","","null","13","","","","","","","","","","","","","","","",""
"","ISI","","html-keyboard-response","92","230299","0.0-1.0-120.0","0","0","11146","","null","","","null","13","NaN","","","","","","","","","","","","","","",""
"","S2","","html-keyboard-response","93","230553","0.0-1.0-121.0","0","0","11146","","null","","","null","13","","NaN","","","","","","","","","","","","","",""
"","response","","html-keyboard-response","94","230879","0.0-1.0-122.0-0.0","0","0","11146","","323","","","68","13","","","1","13","training","adjacent","FG","6","7","P.jpg","O.jpg","1","1","1","",""
"","feedback","","html-keyboard-response","95","231884","0.0-1.0-123.0-0.0","0","0","11146","","null","","","null","13","","","","","","","","","","","","","","","",""
"","ITI","","html-keyboard-response","96","232889","0.0-1.0-126.0","0","0","11146","","null","","","null","13","","","","","","","","","","","","","","","NaN",""
"","S1","","html-keyboard-response","97","233144","0.0-1.0-128.0","0","0","11146","","null","","","null","14","","","","","","","","","","","","","","","",""
"","ISI","","html-keyboard-response","98","235148","0.0-1.0-129.0","0","0","11146","","null","","","null","14","NaN","","","","","","","","","","","","","","",""
"","S2","","html-keyboard-response","99","235403","0.0-1.0-130.0","0","0","11146","","null","","","null","14","","NaN","","","","","","","","","","","","","",""
"","response","","html-keyboard-response","100","235583","0.0-1.0-131.0-0.0","0","0","11146","","175","","","75","14","","","1","14","training","adjacent","AB","1","2","L.jpg","M.jpg","0","1","0","",""
"","feedback","","html-keyboard-response","101","236588","0.0-1.0-132.0-0.0","0","0","11146","","null","","","null","14","","","","","","","","","","","","","","","",""
"","time_out","","html-keyboard-response","102","238593","0.0-1.0-134.0-0.0","0","0","11146","","null","","","null","14","","","","","","","","","","","","","","","",""
"","ITI","","html-keyboard-response","103","239596","0.0-1.0-135.0","0","0","11146","","null","","","null","14","","","","","","","","","","","","","","","NaN",""
"","S1","","html-keyboard-response","104","239851","0.0-1.0-137.0","0","0","11146","","null","","","null","15","","","","","","","","","","","","","","","",""
"","ISI","","html-keyboard-response","105","241855","0.0-1.0-138.0","0","0","11146","","null","","","null","15","NaN","","","","","","","","","","","","","","",""
"","S2","","html-keyboard-response","106","242110","0.0-1.0-139.0","0","0","11146","","null","","","null","15","","NaN","","","","","","","","","","","","","",""
"","response","","html-keyboard-response","107","242473","0.0-1.0-140.0-0.0","0","0","11146","","360","","","75","15","","","1","15","training","adjacent","CD","3","4","R.jpg","Q.jpg","0","1","0","",""
"","feedback","","html-keyboard-response","108","243479","0.0-1.0-141.0-0.0","0","0","11146","","null","","","null","15","","","","","","","","","","","","","","","",""
"","time_out","","html-keyboard-response","109","245483","0.0-1.0-143.0-0.0","0","0","11146","","null","","","null","15","","","","","","","","","","","","","","","",""
"","ITI","","html-keyboard-response","110","246487","0.0-1.0-144.0","0","0","11146","","null","","","null","15","","","","","","","","","","","","","","","NaN",""
"","S1","","html-keyboard-response","111","246742","0.0-1.0-146.0","0","0","11146","","null","","","null","16","","","","","","","","","","","","","","","",""
"","ISI","","html-keyboard-response","112","248745","0.0-1.0-147.0","0","0","11146","","null","","","null","16","NaN","","","","","","","","","","","","","","",""
"","S2","","html-keyboard-response","113","248999","0.0-1.0-148.0","0","0","11146","","null","","","null","16","","NaN","","","","","","","","","","","","","",""
"","response","","html-keyboard-response","114","249254","0.0-1.0-149.0-0.0","0","0","11146","","252","","","75","16","","","1","16","training","adjacent","CB","3","2","R.jpg","M.jpg","0","0","1","",""
"","feedback","","html-keyboard-response","115","250259","0.0-1.0-150.0-0.0","0","0","11146","","null","","","null","16","","","","","","","","","","","","","","","",""
"","ITI","","html-keyboard-response","116","251263","0.0-1.0-153.0","0","0","11146","","null","","","null","16","","","","","","","","","","","","","","","NaN",""
"","S1","","html-keyboard-response","117","251516","0.0-1.0-155.0","0","0","11146","","null","","","null","17","","","","","","","","","","","","","","","",""
"","ISI","","html-keyboard-response","118","253518","0.0-1.0-156.0","0","0","11146","","null","","","null","17","NaN","","","","","","","","","","","","","","",""
"","S2","","html-keyboard-response","119","253773","0.0-1.0-157.0","0","0","11146","","null","","","null","17","","NaN","","","","","","","","","","","","","",""
"","response","","html-keyboard-response","120","253960","0.0-1.0-158.0-0.0","0","0","11146","","184","","","75","17","","","1","17","training","adjacent","CD","3","4","R.jpg","Q.jpg","0","1","0","",""
"","feedback","","html-keyboard-response","121","254965","0.0-1.0-159.0-0.0","0","0","11146","","null","","","null","17","","","","","","","","","","","","","","","",""
"","time_out","","html-keyboard-response","122","256969","0.0-1.0-161.0-0.0","0","0","11146","","null","","","null","17","","","","","","","","","","","","","","","",""
"","ITI","","html-keyboard-response","123","257973","0.0-1.0-162.0","0","0","11146","","null","","","null","17","","","","","","","","","","","","","","","NaN",""
"","S1","","html-keyboard-response","124","258228","0.0-1.0-164.0","0","0","11146","","null","","","null","18","","","","","","","","","","","","","","","",""
"","ISI","","html-keyboard-response","125","260232","0.0-1.0-165.0","0","0","11146","","null","","","null","18","NaN","","","","","","","","","","","","","","",""
"","S2","","html-keyboard-response","126","260486","0.0-1.0-166.0","0","0","11146","","null","","","null","18","","NaN","","","","","","","","","","","","","",""
"","response","","html-keyboard-response","127","260879","0.0-1.0-167.0-0.0","0","0","11146","","389","","","75","18","","","1","18","training","adjacent","ED","5","4","N.jpg","Q.jpg","0","0","1","",""
"","feedback","","html-keyboard-response","128","261891","0.0-1.0-168.0-0.0","0","0","11146","","null","","","null","18","","","","","","","","","","","","","","","",""
"","ITI","","html-keyboard-response","129","262895","0.0-1.0-171.0","0","0","11146","","null","","","null","18","","","","","","","","","","","","","","","NaN",""
"","S1","","html-keyboard-response","130","263149","0.0-1.0-173.0","0","0","11146","","null","","","null","19","","","","","","","","","","","","","","","",""
"","ISI","","html-keyboard-response","131","265154","0.0-1.0-174.0","0","0","11146","","null","","","null","19","NaN","","","","","","","","","","","","","","",""
"","S2","","html-keyboard-response","132","265408","0.0-1.0-175.0","0","0","11146","","null","","","null","19","","NaN","","","","","","","","","","","","","",""
"","response","","html-keyboard-response","133","265931","0.0-1.0-176.0-0.0","0","0","11146","","520","","","68","19","","","1","19","training","adjacent","BA","2","1","M.jpg","L.jpg","1","0","0","",""
"","feedback","","html-keyboard-response","134","266936","0.0-1.0-177.0-0.0","0","0","11146","","null","","","null","19","","","","","","","","","","","","","","","",""
"","time_out","","html-keyboard-response","135","268940","0.0-1.0-179.0-0.0","0","0","11146","","null","","","null","19","","","","","","","","","","","","","","","",""
"","ITI","","html-keyboard-response","136","269944","0.0-1.0-180.0","0","0","11146","","null","","","null","19","","","","","","","","","","","","","","","NaN",""
"","S1","","html-keyboard-response","137","270198","0.0-1.0-182.0","0","0","11146","","null","","","null","20","","","","","","","","","","","","","","","",""
"","ISI","","html-keyboard-response","138","272203","0.0-1.0-183.0","0","0","11146","","null","","","null","20","NaN","","","","","","","","","","","","","","",""
"","S2","","html-keyboard-response","139","272458","0.0-1.0-184.0","0","0","11146","","null","","","null","20","","NaN","","","","","","","","","","","","","",""
"","response","","html-keyboard-response","140","272684","0.0-1.0-185.0-0.0","0","0","11146","","223","","","75","20","","","1","20","training","adjacent","AB","1","2","L.jpg","M.jpg","0","1","0","",""
"","feedback","","html-keyboard-response","141","273689","0.0-1.0-186.0-0.0","0","0","11146","","null","","","null","20","","","","","","","","","","","","","","","",""
"","time_out","","html-keyboard-response","142","275693","0.0-1.0-188.0-0.0","0","0","11146","","null","","","null","20","","","","","","","","","","","","","","","",""
"","ITI","","html-keyboard-response","143","276698","0.0-1.0-189.0","0","0","11146","","null","","","null","20","","","","","","","","","","","","","","","NaN",""
"","S1","","html-keyboard-response","144","276952","0.0-1.0-191.0","0","0","11146","","null","","","null","21","","","","","","","","","","","","","","","",""
"","ISI","","html-keyboard-response","145","278956","0.0-1.0-192.0","0","0","11146","","null","","","null","21","NaN","","","","","","","","","","","","","","",""
"","S2","","html-keyboard-response","146","279211","0.0-1.0-193.0","0","0","11146","","null","","","null","21","","NaN","","","","","","","","","","","","","",""
"","response","","html-keyboard-response","147","279234","0.0-1.0-194.0-0.0","0","0","11146","","19","","","75","21","","","1","21","training","adjacent","BA","2","1","M.jpg","L.jpg","0","0","1","",""
"","feedback","","html-keyboard-response","148","280239","0.0-1.0-195.0-0.0","0","0","11146","","null","","","null","21","","","","","","","","","","","","","","","",""
"","ITI","","html-keyboard-response","149","281243","0.0-1.0-198.0","0","0","11146","","null","","","null","21","","","","","","","","","","","","","","","NaN",""
"","S1","","html-keyboard-response","150","281498","0.0-1.0-200.0","0","0","11146","","null","","","null","22","","","","","","","","","","","","","","","",""
"","ISI","","html-keyboard-response","151","283501","0.0-1.0-201.0","0","0","11146","","null","","","null","22","NaN","","","","","","","","","","","","","","",""
"","S2","","html-keyboard-response","152","283755","0.0-1.0-202.0","0","0","11146","","null","","","null","22","","NaN","","","","","","","","","","","","","",""
"","response","","html-keyboard-response","153","284383","0.0-1.0-203.0-0.0","0","0","11146","","625","","","68","22","","","1","22","training","adjacent","AB","1","2","L.jpg","M.jpg","1","1","1","",""
"","feedback","","html-keyboard-response","154","285386","0.0-1.0-204.0-0.0","0","0","11146","","null","","","null","22","","","","","","","","","","","","","","","",""
"","ITI","","html-keyboard-response","155","286390","0.0-1.0-207.0","0","0","11146","","null","","","null","22","","","","","","","","","","","","","","","NaN",""
"","S1","","html-keyboard-response","156","286645","0.0-1.0-209.0","0","0","11146","","null","","","null","23","","","","","","","","","","","","","","","",""
"","ISI","","html-keyboard-response","157","288649","0.0-1.0-210.0","0","0","11146","","null","","","null","23","NaN","","","","","","","","","","","","","","",""
"","S2","","html-keyboard-response","158","288903","0.0-1.0-211.0","0","0","11146","","null","","","null","23","","NaN","","","","","","","","","","","","","",""
"","response","","html-keyboard-response","159","289068","0.0-1.0-212.0-0.0","0","0","11146","","161","","","75","23","","","1","23","training","adjacent","EF","5","6","N.jpg","P.jpg","0","1","0","",""
"","feedback","","html-keyboard-response","160","290074","0.0-1.0-213.0-0.0","0","0","11146","","null","","","null","23","","","","","","","","","","","","","","","",""
"","time_out","","html-keyboard-response","161","292078","0.0-1.0-215.0-0.0","0","0","11146","","null","","","null","23","","","","","","","","","","","","","","","",""
"","ITI","","html-keyboard-response","162","293084","0.0-1.0-216.0","0","0","11146","","null","","","null","23","","","","","","","","","","","","","","","NaN",""
"","S1","","html-keyboard-response","163","293339","0.0-1.0-218.0","0","0","11146","","null","","","null","24","","","","","","","","","","","","","","","",""
"","ISI","","html-keyboard-response","164","295343","0.0-1.0-219.0","0","0","11146","","459","","","68","24","d","","","","","","","","","","","","","","",""
"","S2","","html-keyboard-response","165","295598","0.0-1.0-220.0","0","0","11146","","null","","","null","24","","NaN","","","","","","","","","","","","","",""
"","response","","html-keyboard-response","166","296227","0.0-1.0-221.0-0.0","0","0","11146","","626","","","68","24","","","1","24","training","adjacent","FE","6","5","P.jpg","N.jpg","1","0","0","",""
"","feedback","","html-keyboard-response","167","297232","0.0-1.0-222.0-0.0","0","0","11146","","null","","","null","24","","","","","","","","","","","","","","","",""
"","time_out","","html-keyboard-response","168","299236","0.0-1.0-224.0-0.0","0","0","11146","","null","","","null","24","","","","","","","","","","","","","","","",""
"","ITI","","html-keyboard-response","169","300241","0.0-1.0-225.0","0","0","11146","","null","","","null","24","","","","","","","","","","","","","","","NaN",""
"","S1","","html-keyboard-response","170","300495","0.0-1.0-227.0","0","0","11146","","null","","","null","25","","","","","","","","","","","","","","","",""
"","ISI","","html-keyboard-response","171","302500","0.0-1.0-228.0","0","0","11146","","null","","","null","25","NaN","","","","","","","","","","","","","","",""
"","S2","","html-keyboard-response","172","302755","0.0-1.0-229.0","0","0","11146","","null","","","null","25","","NaN","","","","","","","","","","","","","",""
"","response","","html-keyboard-response","173","302875","0.0-1.0-230.0-0.0","0","0","11146","","117","","","75","25","","","1","25","training","adjacent","EF","5","6","N.jpg","P.jpg","0","1","0","",""
"","feedback","","html-keyboard-response","174","303881","0.0-1.0-231.0-0.0","0","0","11146","","null","","","null","25","","","","","","","","","","","","","","","",""
"","time_out","","html-keyboard-response","175","305885","0.0-1.0-233.0-0.0","0","0","11146","","null","","","null","25","","","","","","","","","","","","","","","",""
"","ITI","","html-keyboard-response","176","306890","0.0-1.0-234.0","0","0","11146","","null","","","null","25","","","","","","","","","","","","","","","NaN",""
"","S1","","html-keyboard-response","177","307145","0.0-1.0-236.0","0","0","11146","","null","","","null","26","","","","","","","","","","","","","","","",""
"","ISI","","html-keyboard-response","178","309149","0.0-1.0-237.0","0","0","11146","","null","","","null","26","NaN","","","","","","","","","","","","","","",""
"","S2","","html-keyboard-response","179","309403","0.0-1.0-238.0","0","0","11146","","null","","","null","26","","NaN","","","","","","","","","","","","","",""
"","response","","html-keyboard-response","180","309848","0.0-1.0-239.0-0.0","0","0","11146","","442","","","68","26","","","1","26","training","adjacent","CB","3","2","R.jpg","M.jpg","1","0","0","",""
"","feedback","","html-keyboard-response","181","310853","0.0-1.0-240.0-0.0","0","0","11146","","null","","","null","26","","","","","","","","","","","","","","","",""
"","time_out","","html-keyboard-response","182","312858","0.0-1.0-242.0-0.0","0","0","11146","","null","","","null","26","","","","","","","","","","","","","","","",""
"","ITI","","html-keyboard-response","183","313862","0.0-1.0-243.0","0","0","11146","","null","","","null","26","","","","","","","","","","","","","","","NaN",""
"","S1","","html-keyboard-response","184","314117","0.0-1.0-245.0","0","0","11146","","null","","","null","27","","","","","","","","","","","","","","","",""
"","ISI","","html-keyboard-response","185","316120","0.0-1.0-246.0","0","0","11146","","null","","","null","27","NaN","","","","","","","","","","","","","","",""
"","S2","","html-keyboard-response","186","316375","0.0-1.0-247.0","0","0","11146","","null","","","null","27","","NaN","","","","","","","","","","","","","",""
"","response","","html-keyboard-response","187","317062","0.0-1.0-248.0-0.0","0","0","11146","","683","","","75","27","","","1","27","training","adjacent","CB","3","2","R.jpg","M.jpg","0","0","1","",""
"","feedback","","html-keyboard-response","188","318066","0.0-1.0-249.0-0.0","0","0","11146","","null","","","null","27","","","","","","","","","","","","","","","",""
"","ITI","","html-keyboard-response","189","319070","0.0-1.0-252.0","0","0","11146","","null","","","null","27","","","","","","","","","","","","","","","NaN",""
"","S1","","html-keyboard-response","190","319325","0.0-1.0-254.0","0","0","11146","","null","","","null","28","","","","","","","","","","","","","","","",""
"","ISI","","html-keyboard-response","191","321329","0.0-1.0-255.0","0","0","11146","","null","","","null","28","NaN","","","","","","","","","","","","","","",""
"","S2","","html-keyboard-response","192","321584","0.0-1.0-256.0","0","0","11146","","null","","","null","28","","NaN","","","","","","","","","","","","","",""
"","response","","html-keyboard-response","193","321818","0.0-1.0-257.0-0.0","0","0","11146","","230","","","75","28","","","1","28","training","adjacent","BA","2","1","M.jpg","L.jpg","0","0","1","",""
"","feedback","","html-keyboard-response","194","322822","0.0-1.0-258.0-0.0","0","0","11146","","null","","","null","28","","","","","","","","","","","","","","","",""
"","ITI","","html-keyboard-response","195","323827","0.0-1.0-261.0","0","0","11146","","null","","","null","28","","","","","","","","","","","","","","","NaN",""
"","S1","","html-keyboard-response","196","324082","0.0-1.0-263.0","0","0","11146","","null","","","null","29","","","","","","","","","","","","","","","",""
"","ISI","","html-keyboard-response","197","326086","0.0-1.0-264.0","0","0","11146","","null","","","null","29","NaN","","","","","","","","","","","","","","",""
"","S2","","html-keyboard-response","198","326340","0.0-1.0-265.0","0","0","11146","","null","","","null","29","","NaN","","","","","","","","","","","","","",""
"","response","","html-keyboard-response","199","326540","0.0-1.0-266.0-0.0","0","0","11146","","197","","","68","29","","","1","29","training","adjacent","DE","4","5","Q.jpg","N.jpg","1","1","1","",""
"","feedback","","html-keyboard-response","200","327545","0.0-1.0-267.0-0.0","0","0","11146","","null","","","null","29","","","","","","","","","","","","","","","",""
"","ITI","","html-keyboard-response","201","328550","0.0-1.0-270.0","0","0","11146","","null","","","null","29","","","","","","","","","","","","","","","NaN",""
"","S1","","html-keyboard-response","202","328804","0.0-1.0-272.0","0","0","11146","","null","","","null","30","","","","","","","","","","","","","","","",""
"","ISI","","html-keyboard-response","203","330808","0.0-1.0-273.0","0","0","11146","","null","","","null","30","NaN","","","","","","","","","","","","","","",""
"","S2","","html-keyboard-response","204","331063","0.0-1.0-274.0","0","0","11146","","null","","","null","30","","NaN","","","","","","","","","","","","","",""
"","response","","html-keyboard-response","205","331491","0.0-1.0-275.0-0.0","0","0","11146","","425","","","68","30","","","1","30","training","adjacent","GF","7","6","O.jpg","P.jpg","1","0","0","",""
"","feedback","","html-keyboard-response","206","332498","0.0-1.0-276.0-0.0","0","0","11146","","null","","","null","30","","","","","","","","","","","","","","","",""
"","time_out","","html-keyboard-response","207","334502","0.0-1.0-278.0-0.0","0","0","11146","","null","","","null","30","","","","","","","","","","","","","","","",""
"","ITI","","html-keyboard-response","208","335508","0.0-1.0-279.0","0","0","11146","","null","","","null","30","","","","","","","","","","","","","","","NaN",""
"","S1","","html-keyboard-response","209","335772","0.0-1.0-281.0","0","0","11146","","null","","","null","31","","","","","","","","","","","","","","","",""
"","ISI","","html-keyboard-response","210","337776","0.0-1.0-282.0","0","0","11146","","null","","","null","31","NaN","","","","","","","","","","","","","","",""
"","S2","","html-keyboard-response","211","338031","0.0-1.0-283.0","0","0","11146","","null","","","null","31","","NaN","","","","","","","","","","","","","",""
"","response","","html-keyboard-response","212","338100","0.0-1.0-284.0-0.0","0","0","11146","","65","","","68","31","","","1","31","training","adjacent","DE","4","5","Q.jpg","N.jpg","1","1","1","",""
"","feedback","","html-keyboard-response","213","339105","0.0-1.0-285.0-0.0","0","0","11146","","null","","","null","31","","","","","","","","","","","","","","","",""
"","ITI","","html-keyboard-response","214","340110","0.0-1.0-288.0","0","0","11146","","null","","","null","31","","","","","","","","","","","","","","","NaN",""
"","S1","","html-keyboard-response","215","340364","0.0-1.0-290.0","0","0","11146","","null","","","null","32","","","","","","","","","","","","","","","",""
"","ISI","","html-keyboard-response","216","342368","0.0-1.0-291.0","0","0","11146","","null","","","null","32","NaN","","","","","","","","","","","","","","",""
"","S2","","html-keyboard-response","217","342623","0.0-1.0-292.0","0","0","11146","","null","","","null","32","","NaN","","","","","","","","","","","","","",""
"","response","","html-keyboard-response","218","342712","0.0-1.0-293.0-0.0","0","0","11146","","86","","","75","32","","","1","32","training","adjacent","CD","3","4","R.jpg","Q.jpg","0","1","0","",""
"","feedback","","html-keyboard-response","219","343717","0.0-1.0-294.0-0.0","0","0","11146","","null","","","null","32","","","","","","","","","","","","","","","",""
"","time_out","","html-keyboard-response","220","345721","0.0-1.0-296.0-0.0","0","0","11146","","null","","","null","32","","","","","","","","","","","","","","","",""
"","ITI","","html-keyboard-response","221","346725","0.0-1.0-297.0","0","0","11146","","null","","","null","32","","","","","","","","","","","","","","","NaN",""
"","S1","","html-keyboard-response","222","346980","0.0-1.0-299.0","0","0","11146","","null","","","null","33","","","","","","","","","","","","","","","",""
"","ISI","","html-keyboard-response","223","348985","0.0-1.0-300.0","0","0","11146","","null","","","null","33","NaN","","","","","","","","","","","","","","",""
"","S2","","html-keyboard-response","224","349239","0.0-1.0-301.0","0","0","11146","","null","","","null","33","","NaN","","","","","","","","","","","","","",""
"","response","","html-keyboard-response","225","349707","0.0-1.0-302.0-0.0","0","0","11146","","465","","","68","33","","","1","33","training","adjacent","FE","6","5","P.jpg","N.jpg","1","0","0","",""
"","feedback","","html-keyboard-response","226","350712","0.0-1.0-303.0-0.0","0","0","11146","","null","","","null","33","","","","","","","","","","","","","","","",""
"","time_out","","html-keyboard-response","227","352716","0.0-1.0-305.0-0.0","0","0","11146","","null","","","null","33","","","","","","","","","","","","","","","",""
"","ITI","","html-keyboard-response","228","353720","0.0-1.0-306.0","0","0","11146","","null","","","null","33","","","","","","","","","","","","","","","NaN",""
"","S1","","html-keyboard-response","229","353975","0.0-1.0-308.0","0","0","11146","","null","","","null","34","","","","","","","","","","","","","","","",""
"","ISI","","html-keyboard-response","230","355991","0.0-1.0-309.0","0","0","11146","","null","","","null","34","NaN","","","","","","","","","","","","","","",""
"","S2","","html-keyboard-response","231","356246","0.0-1.0-310.0","0","0","11146","","null","","","null","34","","NaN","","","","","","","","","","","","","",""
"","response","","html-keyboard-response","232","356392","0.0-1.0-311.0-0.0","0","0","11146","","142","","","75","34","","","1","34","training","adjacent","FE","6","5","P.jpg","N.jpg","0","0","1","",""
"","feedback","","html-keyboard-response","233","357398","0.0-1.0-312.0-0.0","0","0","11146","","null","","","null","34","","","","","","","","","","","","","","","",""
"","ITI","","html-keyboard-response","234","358403","0.0-1.0-315.0","0","0","11146","","null","","","null","34","","","","","","","","","","","","","","","NaN",""
"","S1","","html-keyboard-response","235","358657","0.0-1.0-317.0","0","0","11146","","null","","","null","35","","","","","","","","","","","","","","","",""
"","ISI","","html-keyboard-response","236","360662","0.0-1.0-318.0","0","0","11146","","null","","","null","35","NaN","","","","","","","","","","","","","","",""
"","S2","","html-keyboard-response","237","360917","0.0-1.0-319.0","0","0","11146","","null","","","null","35","","NaN","","","","","","","","","","","","","",""
"","response","","html-keyboard-response","238","361202","0.0-1.0-320.0-0.0","0","0","11146","","282","","","68","35","","","1","35","training","adjacent","DC","4","3","Q.jpg","R.jpg","1","0","0","",""
"","feedback","","html-keyboard-response","239","362208","0.0-1.0-321.0-0.0","0","0","11146","","null","","","null","35","","","","","","","","","","","","","","","",""
"","time_out","","html-keyboard-response","240","364212","0.0-1.0-323.0-0.0","0","0","11146","","null","","","null","35","","","","","","","","","","","","","","","",""
"","ITI","","html-keyboard-response","241","365217","0.0-1.0-324.0","0","0","11146","","null","","","null","35","","","","","","","","","","","","","","","NaN",""
"","S1","","html-keyboard-response","242","365471","0.0-1.0-326.0","0","0","11146","","null","","","null","36","","","","","","","","","","","","","","","",""
"","ISI","","html-keyboard-response","243","367475","0.0-1.0-327.0","0","0","11146","","null","","","null","36","NaN","","","","","","","","","","","","","","",""
"","S2","","html-keyboard-response","244","367730","0.0-1.0-328.0","0","0","11146","","null","","","null","36","","NaN","","","","","","","","","","","","","",""
"","response","","html-keyboard-response","245","368054","0.0-1.0-329.0-0.0","0","0","11146","","320","","","68","36","","","1","36","training","adjacent","GF","7","6","O.jpg","P.jpg","1","0","0","",""
"","feedback","","html-keyboard-response","246","369058","0.0-1.0-330.0-0.0","0","0","11146","","null","","","null","36","","","","","","","","","","","","","","","",""
"","time_out","","html-keyboard-response","247","371063","0.0-1.0-332.0-0.0","0","0","11146","","null","","","null","36","","","","","","","","","","","","","","","",""
"","ITI","","html-keyboard-response","248","372067","0.0-1.0-333.0","0","0","11146","","null","","","null","36","","","","","","","","","","","","","","","NaN",""
"","S1","","html-keyboard-response","249","372322","0.0-1.0-335.0","0","0","11146","","null","","","null","37","","","","","","","","","","","","","","","",""
"","ISI","","html-keyboard-response","250","374326","0.0-1.0-336.0","0","0","11146","","null","","","null","37","NaN","","","","","","","","","","","","","","",""
"","S2","","html-keyboard-response","251","374581","0.0-1.0-337.0","0","0","11146","","null","","","null","37","","NaN","","","","","","","","","","","","","",""
"","response","","html-keyboard-response","252","374876","0.0-1.0-338.0-0.0","0","0","11146","","292","","","75","37","","","1","37","training","adjacent","ED","5","4","N.jpg","Q.jpg","0","0","1","",""
"","feedback","","html-keyboard-response","253","375881","0.0-1.0-339.0-0.0","0","0","11146","","null","","","null","37","","","","","","","","","","","","","","","",""
"","ITI","","html-keyboard-response","254","376885","0.0-1.0-342.0","0","0","11146","","null","","","null","37","","","","","","","","","","","","","","","NaN",""
"","S1","","html-keyboard-response","255","377140","0.0-1.0-344.0","0","0","11146","","null","","","null","38","","","","","","","","","","","","","","","",""
"","ISI","","html-keyboard-response","256","379144","0.0-1.0-345.0","0","0","11146","","null","","","null","38","NaN","","","","","","","","","","","","","","",""
"","S2","","html-keyboard-response","257","379398","0.0-1.0-346.0","0","0","11146","","null","","","null","38","","NaN","","","","","","","","","","","","","",""
"","response","","html-keyboard-response","258","379834","0.0-1.0-347.0-0.0","0","0","11146","","432","","","68","38","","","1","38","training","adjacent","DE","4","5","Q.jpg","N.jpg","1","1","1","",""
"","feedback","","html-keyboard-response","259","380839","0.0-1.0-348.0-0.0","0","0","11146","","null","","","null","38","","","","","","","","","","","","","","","",""
"","ITI","","html-keyboard-response","260","381844","0.0-1.0-351.0","0","0","11146","","null","","","null","38","","","","","","","","","","","","","","","NaN",""
"","S1","","html-keyboard-response","261","382098","0.0-1.0-353.0","0","0","11146","","null","","","null","39","","","","","","","","","","","","","","","",""
"","ISI","","html-keyboard-response","262","384103","0.0-1.0-354.0","0","0","11146","","null","","","null","39","NaN","","","","","","","","","","","","","","",""
"","S2","","html-keyboard-response","263","384357","0.0-1.0-355.0","0","0","11146","","null","","","null","39","","NaN","","","","","","","","","","","","","",""
"","response","","html-keyboard-response","264","384849","0.0-1.0-356.0-0.0","0","0","11146","","489","","","68","39","","","1","39","training","adjacent","BC","2","3","M.jpg","R.jpg","1","1","1","",""
"","feedback","","html-keyboard-response","265","385854","0.0-1.0-357.0-0.0","0","0","11146","","null","","","null","39","","","","","","","","","","","","","","","",""
"","ITI","","html-keyboard-response","266","386859","0.0-1.0-360.0","0","0","11146","","null","","","null","39","","","","","","","","","","","","","","","NaN",""
"","S1","","html-keyboard-response","267","387125","0.0-1.0-362.0","0","0","11146","","null","","","null","40","","","","","","","","","","","","","","","",""
"","ISI","","html-keyboard-response","268","389130","0.0-1.0-363.0","0","0","11146","","null","","","null","40","NaN","","","","","","","","","","","","","","",""
"","S2","","html-keyboard-response","269","389385","0.0-1.0-364.0","0","0","11146","","null","","","null","40","","NaN","","","","","","","","","","","","","",""
"","response","","html-keyboard-response","270","390061","0.0-1.0-365.0-0.0","0","0","11146","","672","","","68","40","","","1","40","training","adjacent","GF","7","6","O.jpg","P.jpg","1","0","0","",""
"","feedback","","html-keyboard-response","271","391065","0.0-1.0-366.0-0.0","0","0","11146","","null","","","null","40","","","","","","","","","","","","","","","",""
"","time_out","","html-keyboard-response","272","393070","0.0-1.0-368.0-0.0","0","0","11146","","null","","","null","40","","","","","","","","","","","","","","","",""
"","ITI","","html-keyboard-response","273","394074","0.0-1.0-369.0","0","0","11146","","null","","","null","40","","","","","","","","","","","","","","","NaN",""
"","S1","","html-keyboard-response","274","394328","0.0-1.0-371.0","0","0","11146","","null","","","null","41","","","","","","","","","","","","","","","",""
"","ISI","","html-keyboard-response","275","396331","0.0-1.0-372.0","0","0","11146","","null","","","null","41","NaN","","","","","","","","","","","","","","",""
"","S2","","html-keyboard-response","276","396586","0.0-1.0-373.0","0","0","11146","","null","","","null","41","","NaN","","","","","","","","","","","","","",""
"","response","","html-keyboard-response","277","396969","0.0-1.0-374.0-0.0","0","0","11146","","379","","","75","41","","","1","41","training","adjacent","BA","2","1","M.jpg","L.jpg","0","0","1","",""
"","feedback","","html-keyboard-response","278","397974","0.0-1.0-375.0-0.0","0","0","11146","","null","","","null","41","","","","","","","","","","","","","","","",""
"","ITI","","html-keyboard-response","279","398979","0.0-1.0-378.0","0","0","11146","","null","","","null","41","","","","","","","","","","","","","","","NaN",""
"","S1","","html-keyboard-response","280","399233","0.0-1.0-380.0","0","0","11146","","null","","","null","42","","","","","","","","","","","","","","","",""
"","ISI","","html-keyboard-response","281","401237","0.0-1.0-381.0","0","0","11146","","null","","","null","42","NaN","","","","","","","","","","","","","","",""
"","S2","","html-keyboard-response","282","401489","0.0-1.0-382.0","0","0","11146","","null","","","null","42","","NaN","","","","","","","","","","","","","",""
"","response","","html-keyboard-response","283","402606","0.0-1.0-383.0-0.0","0","0","11146","","1114","","","75","42","","","1","42","training","adjacent","BC","2","3","M.jpg","R.jpg","0","1","0","",""
"","feedback","","html-keyboard-response","284","403611","0.0-1.0-384.0-0.0","0","0","11146","","null","","","null","42","","","","","","","","","","","","","","","",""
"","time_out","","html-keyboard-response","285","405616","0.0-1.0-386.0-0.0","0","0","11146","","null","","","null","42","","","","","","","","","","","","","","","",""
"","ITI","","html-keyboard-response","286","406623","0.0-1.0-387.0","0","0","11146","","null","","","null","42","","","","","","","","","","","","","","","NaN",""
"","S1","","html-keyboard-response","287","406878","0.0-1.0-389.0","0","0","11146","","null","","","null","43","","","","","","","","","","","","","","","",""
"","ISI","","html-keyboard-response","288","408882","0.0-1.0-390.0","0","0","11146","","null","","","null","43","NaN","","","","","","","","","","","","","","",""
"","S2","","html-keyboard-response","289","409137","0.0-1.0-391.0","0","0","11146","","null","","","null","43","","NaN","","","","","","","","","","","","","",""
"","response","","html-keyboard-response","290","409523","0.0-1.0-392.0-0.0","0","0","11146","","382","","","75","43","","","1","43","training","adjacent","CB","3","2","R.jpg","M.jpg","0","0","1","",""
"","feedback","","html-keyboard-response","291","410528","0.0-1.0-393.0-0.0","0","0","11146","","null","","","null","43","","","","","","","","","","","","","","","",""
"","ITI","","html-keyboard-response","292","411534","0.0-1.0-396.0","0","0","11146","","null","","","null","43","","","","","","","","","","","","","","","NaN",""
"","S1","","html-keyboard-response","293","411789","0.0-1.0-398.0","0","0","11146","","null","","","null","44","","","","","","","","","","","","","","","",""
"","ISI","","html-keyboard-response","294","413793","0.0-1.0-399.0","0","0","11146","","null","","","null","44","NaN","","","","","","","","","","","","","","",""
"","S2","","html-keyboard-response","295","414048","0.0-1.0-400.0","0","0","11146","","null","","","null","44","","NaN","","","","","","","","","","","","","",""
"","response","","html-keyboard-response","296","414273","0.0-1.0-401.0-0.0","0","0","11146","","221","","","68","44","","","1","44","training","adjacent","CD","3","4","R.jpg","Q.jpg","1","1","1","",""
"","feedback","","html-keyboard-response","297","415278","0.0-1.0-402.0-0.0","0","0","11146","","null","","","null","44","","","","","","","","","","","","","","","",""
"","ITI","","html-keyboard-response","298","416284","0.0-1.0-405.0","0","0","11146","","null","","","null","44","","","","","","","","","","","","","","","NaN",""
"","S1","","html-keyboard-response","299","416538","0.0-1.0-407.0","0","0","11146","","null","","","null","45","","","","","","","","","","","","","","","",""
"","ISI","","html-keyboard-response","300","418543","0.0-1.0-408.0","0","0","11146","","null","","","null","45","NaN","","","","","","","","","","","","","","",""
"","S2","","html-keyboard-response","301","418798","0.0-1.0-409.0","0","0","11146","","null","","","null","45","","NaN","","","","","","","","","","","","","",""
"","response","","html-keyboard-response","302","419135","0.0-1.0-410.0-0.0","0","0","11146","","334","","","75","45","","","1","45","training","adjacent","EF","5","6","N.jpg","P.jpg","0","1","0","",""
"","feedback","","html-keyboard-response","303","420139","0.0-1.0-411.0-0.0","0","0","11146","","null","","","null","45","","","","","","","","","","","","","","","",""
"","time_out","","html-keyboard-response","304","422158","0.0-1.0-413.0-0.0","0","0","11146","","null","","","null","45","","","","","","","","","","","","","","","",""
"","ITI","","html-keyboard-response","305","423163","0.0-1.0-414.0","0","0","11146","","null","","","null","45","","","","","","","","","","","","","","","NaN",""
"","S1","","html-keyboard-response","306","423418","0.0-1.0-416.0","0","0","11146","","null","","","null","46","","","","","","","","","","","","","","","",""
"","ISI","","html-keyboard-response","307","425422","0.0-1.0-417.0","0","0","11146","","null","","","null","46","NaN","","","","","","","","","","","","","","",""
"","S2","","html-keyboard-response","308","425678","0.0-1.0-418.0","0","0","11146","","null","","","null","46","","NaN","","","","","","","","","","","","","",""
"","response","","html-keyboard-response","309","426049","0.0-1.0-419.0-0.0","0","0","11146","","368","","","75","46","","","1","46","training","adjacent","FG","6","7","P.jpg","O.jpg","0","1","0","",""
"","feedback","","html-keyboard-response","310","427055","0.0-1.0-420.0-0.0","0","0","11146","","null","","","null","46","","","","","","","","","","","","","","","",""
"","time_out","","html-keyboard-response","311","429059","0.0-1.0-422.0-0.0","0","0","11146","","null","","","null","46","","","","","","","","","","","","","","","",""
"","ITI","","html-keyboard-response","312","430064","0.0-1.0-423.0","0","0","11146","","null","","","null","46","","","","","","","","","","","","","","","NaN",""
"","S1","","html-keyboard-response","313","430319","0.0-1.0-425.0","0","0","11146","","null","","","null","47","","","","","","","","","","","","","","","",""
"","ISI","","html-keyboard-response","314","432323","0.0-1.0-426.0","0","0","11146","","null","","","null","47","NaN","","","","","","","","","","","","","","",""
"","S2","","html-keyboard-response","315","432578","0.0-1.0-427.0","0","0","11146","","null","","","null","47","","NaN","","","","","","","","","","","","","",""
"","response","","html-keyboard-response","316","432668","0.0-1.0-428.0-0.0","0","0","11146","","87","","","75","47","","","1","47","training","adjacent","DC","4","3","Q.jpg","R.jpg","0","0","1","",""
"","feedback","","html-keyboard-response","317","433673","0.0-1.0-429.0-0.0","0","0","11146","","null","","","null","47","","","","","","","","","","","","","","","",""
"","ITI","","html-keyboard-response","318","434680","0.0-1.0-432.0","0","0","11146","","null","","","null","47","","","","","","","","","","","","","","","NaN",""
"","block_over","","html-keyboard-response","319","441355","0.0-1.0-433.0-0.0","0","0","11146","","6671","","","32","47","","","","","","","","","","","","","","","",""
"","S1","","html-keyboard-response","320","441610","0.0-1.0-434.0","0","0","11146","","null","","","null","48","","","","","","","","","","","","","","","",""
"","ISI","","html-keyboard-response","321","443614","0.0-1.0-435.0","0","0","11146","","null","","","null","48","NaN","","","","","","","","","","","","","","",""
"","S2","","html-keyboard-response","322","443868","0.0-1.0-436.0","0","0","11146","","null","","","null","48","","NaN","","","","","","","","","","","","","",""
"","response","","html-keyboard-response","323","444212","0.0-1.0-437.0-0.0","0","0","11146","","340","","","75","48","","","2","48","training","adjacent","DC","4","3","Q.jpg","R.jpg","0","0","1","",""
"","feedback","","html-keyboard-response","324","445218","0.0-1.0-438.0-0.0","0","0","11146","","null","","","null","48","","","","","","","","","","","","","","","",""
"","ITI","","html-keyboard-response","325","446223","0.0-1.0-441.0","0","0","11146","","null","","","null","48","","","","","","","","","","","","","","","NaN",""
"","S1","","html-keyboard-response","326","446476","0.0-1.0-443.0","0","0","11146","","null","","","null","49","","","","","","","","","","","","","","","",""
"","ISI","","html-keyboard-response","327","448478","0.0-1.0-444.0","0","0","11146","","null","","","null","49","NaN","","","","","","","","","","","","","","",""
"","S2","","html-keyboard-response","328","448731","0.0-1.0-445.0","0","0","11146","","null","","","null","49","","NaN","","","","","","","","","","","","","",""
"","response","","html-keyboard-response","329","449046","0.0-1.0-446.0-0.0","0","0","11146","","314","","","75","49","","","2","49","training","adjacent","BC","2","3","M.jpg","R.jpg","0","1","0","",""
"","feedback","","html-keyboard-response","330","450049","0.0-1.0-447.0-0.0","0","0","11146","","null","","","null","49","","","","","","","","","","","","","","","",""
"","time_out","","html-keyboard-response","331","452052","0.0-1.0-449.0-0.0","0","0","11146","","null","","","null","49","","","","","","","","","","","","","","","",""
"","ITI","","html-keyboard-response","332","453054","0.0-1.0-450.0","0","0","11146","","null","","","null","49","","","","","","","","","","","","","","","NaN",""
"","S1","","html-keyboard-response","333","453307","0.0-1.0-452.0","0","0","11146","","null","","","null","50","","","","","","","","","","","","","","","",""
"","ISI","","html-keyboard-response","334","455311","0.0-1.0-453.0","0","0","11146","","null","","","null","50","NaN","","","","","","","","","","","","","","",""
"","S2","","html-keyboard-response","335","455567","0.0-1.0-454.0","0","0","11146","","null","","","null","50","","NaN","","","","","","","","","","","","","",""
"","response","","html-keyboard-response","336","455817","0.0-1.0-455.0-0.0","0","0","11146","","245","","","75","50","","","2","50","training","adjacent","CD","3","4","R.jpg","Q.jpg","0","1","0","",""
"","feedback","","html-keyboard-response","337","456822","0.0-1.0-456.0-0.0","0","0","11146","","null","","","null","50","","","","","","","","","","","","","","","",""
"","time_out","","html-keyboard-response","338","458825","0.0-1.0-458.0-0.0","0","0","11146","","null","","","null","50","","","","","","","","","","","","","","","",""
"","ITI","","html-keyboard-response","339","459829","0.0-1.0-459.0","0","0","11146","","null","","","null","50","","","","","","","","","","","","","","","NaN",""
"","S1","","html-keyboard-response","340","460083","0.0-1.0-461.0","0","0","11146","","null","","","null","51","","","","","","","","","","","","","","","",""
"","ISI","","html-keyboard-response","341","462088","0.0-1.0-462.0","0","0","11146","","null","","","null","51","NaN","","","","","","","","","","","","","","",""
"","S2","","html-keyboard-response","342","462343","0.0-1.0-463.0","0","0","11146","","null","","","null","51","","NaN","","","","","","","","","","","","","",""
"","response","","html-keyboard-response","343","462714","0.0-1.0-464.0-0.0","0","0","11146","","367","","","75","51","","","2","51","training","adjacent","CD","3","4","R.jpg","Q.jpg","0","1","0","",""
"","feedback","","html-keyboard-response","344","463719","0.0-1.0-465.0-0.0","0","0","11146","","null","","","null","51","","","","","","","","","","","","","","","",""
"","time_out","","html-keyboard-response","345","465724","0.0-1.0-467.0-0.0","0","0","11146","","null","","","null","51","","","","","","","","","","","","","","","",""
"","ITI","","html-keyboard-response","346","466728","0.0-1.0-468.0","0","0","11146","","null","","","null","51","","","","","","","","","","","","","","","NaN",""
"","S1","","html-keyboard-response","347","466984","0.0-1.0-470.0","0","0","11146","","null","","","null","52","","","","","","","","","","","","","","","",""
"","ISI","","html-keyboard-response","348","468988","0.0-1.0-471.0","0","0","11146","","null","","","null","52","NaN","","","","","","","","","","","","","","",""
"","S2","","html-keyboard-response","349","469243","0.0-1.0-472.0","0","0","11146","","null","","","null","52","","NaN","","","","","","","","","","","","","",""
"","response","","html-keyboard-response","350","469826","0.0-1.0-473.0-0.0","0","0","11146","","580","","","68","52","","","2","52","training","adjacent","BC","2","3","M.jpg","R.jpg","1","1","1","",""
"","feedback","","html-keyboard-response","351","470831","0.0-1.0-474.0-0.0","0","0","11146","","null","","","null","52","","","","","","","","","","","","","","","",""
"","ITI","","html-keyboard-response","352","471838","0.0-1.0-477.0","0","0","11146","","null","","","null","52","","","","","","","","","","","","","","","NaN",""
"","S1","","html-keyboard-response","353","472093","0.0-1.0-479.0","0","0","11146","","null","","","null","53","","","","","","","","","","","","","","","",""
"","ISI","","html-keyboard-response","354","474097","0.0-1.0-480.0","0","0","11146","","null","","","null","53","NaN","","","","","","","","","","","","","","",""
"","S2","","html-keyboard-response","355","474352","0.0-1.0-481.0","0","0","11146","","null","","","null","53","","NaN","","","","","","","","","","","","","",""
"","response","","html-keyboard-response","356","475416","0.0-1.0-482.0-0.0","0","0","11146","","1061","","","68","53","","","2","53","training","adjacent","GF","7","6","O.jpg","P.jpg","1","0","0","",""
"","feedback","","html-keyboard-response","357","476421","0.0-1.0-483.0-0.0","0","0","11146","","null","","","null","53","","","","","","","","","","","","","","","",""
"","time_out","","html-keyboard-response","358","478425","0.0-1.0-485.0-0.0","0","0","11146","","null","","","null","53","","","","","","","","","","","","","","","",""
"","ITI","","html-keyboard-response","359","479430","0.0-1.0-486.0","0","0","11146","","null","","","null","53","","","","","","","","","","","","","","","NaN",""
"","S1","","html-keyboard-response","360","479685","0.0-1.0-488.0","0","0","11146","","null","","","null","54","","","","","","","","","","","","","","","",""
"","ISI","","html-keyboard-response","361","481689","0.0-1.0-489.0","0","0","11146","","null","","","null","54","NaN","","","","","","","","","","","","","","",""
"","S2","","html-keyboard-response","362","481942","0.0-1.0-490.0","0","0","11146","","null","","","null","54","","NaN","","","","","","","","","","","","","",""
"","response","","html-keyboard-response","363","482369","0.0-1.0-491.0-0.0","0","0","11146","","424","","","75","54","","","2","54","training","adjacent","FE","6","5","P.jpg","N.jpg","0","0","1","",""
"","feedback","","html-keyboard-response","364","483375","0.0-1.0-492.0-0.0","0","0","11146","","null","","","null","54","","","","","","","","","","","","","","","",""
"","ITI","","html-keyboard-response","365","484379","0.0-1.0-495.0","0","0","11146","","null","","","null","54","","","","","","","","","","","","","","","NaN",""
"","S1","","html-keyboard-response","366","484634","0.0-1.0-497.0","0","0","11146","","null","","","null","55","","","","","","","","","","","","","","","",""
"","ISI","","html-keyboard-response","367","486638","0.0-1.0-498.0","0","0","11146","","null","","","null","55","NaN","","","","","","","","","","","","","","",""
"","S2","","html-keyboard-response","368","486893","0.0-1.0-499.0","0","0","11146","","null","","","null","55","","NaN","","","","","","","","","","","","","",""
"","response","","html-keyboard-response","369","487045","0.0-1.0-500.0-0.0","0","0","11146","","147","","","75","55","","","2","55","training","adjacent","DE","4","5","Q.jpg","N.jpg","0","1","0","",""
"","feedback","","html-keyboard-response","370","488050","0.0-1.0-501.0-0.0","0","0","11146","","null","","","null","55","","","","","","","","","","","","","","","",""
"","time_out","","html-keyboard-response","371","490054","0.0-1.0-503.0-0.0","0","0","11146","","null","","","null","55","","","","","","","","","","","","","","","",""
"","ITI","","html-keyboard-response","372","491066","0.0-1.0-504.0","0","0","11146","","null","","","null","55","","","","","","","","","","","","","","","NaN",""
"","S1","","html-keyboard-response","373","491320","0.0-1.0-506.0","0","0","11146","","null","","","null","56","","","","","","","","","","","","","","","",""
"","ISI","","html-keyboard-response","374","493325","0.0-1.0-507.0","0","0","11146","","null","","","null","56","NaN","","","","","","","","","","","","","","",""
"","S2","","html-keyboard-response","375","493578","0.0-1.0-508.0","0","0","11146","","null","","","null","56","","NaN","","","","","","","","","","","","","",""
"","response","","html-keyboard-response","376","494310","0.0-1.0-509.0-0.0","0","0","11146","","729","","","75","56","","","2","56","training","adjacent","DC","4","3","Q.jpg","R.jpg","0","0","1","",""
"","feedback","","html-keyboard-response","377","495315","0.0-1.0-510.0-0.0","0","0","11146","","null","","","null","56","","","","","","","","","","","","","","","",""
"","ITI","","html-keyboard-response","378","496320","0.0-1.0-513.0","0","0","11146","","null","","","null","56","","","","","","","","","","","","","","","NaN",""
"","S1","","html-keyboard-response","379","496574","0.0-1.0-515.0","0","0","11146","","null","","","null","57","","","","","","","","","","","","","","","",""
"","ISI","","html-keyboard-response","380","498578","0.0-1.0-516.0","0","0","11146","","null","","","null","57","NaN","","","","","","","","","","","","","","",""
"","S2","","html-keyboard-response","381","498833","0.0-1.0-517.0","0","0","11146","","null","","","null","57","","NaN","","","","","","","","","","","","","",""
"","response","","html-keyboard-response","382","499599","0.0-1.0-518.0-0.0","0","0","11146","","762","","","75","57","","","2","57","training","adjacent","CD","3","4","R.jpg","Q.jpg","0","1","0","",""
"","feedback","","html-keyboard-response","383","500603","0.0-1.0-519.0-0.0","0","0","11146","","null","","","null","57","","","","","","","","","","","","","","","",""
"","time_out","","html-keyboard-response","384","502608","0.0-1.0-521.0-0.0","0","0","11146","","null","","","null","57","","","","","","","","","","","","","","","",""
"","ITI","","html-keyboard-response","385","503612","0.0-1.0-522.0","0","0","11146","","null","","","null","57","","","","","","","","","","","","","","","NaN",""
"","S1","","html-keyboard-response","386","503867","0.0-1.0-524.0","0","0","11146","","null","","","null","58","","","","","","","","","","","","","","","",""
"","ISI","","html-keyboard-response","387","505871","0.0-1.0-525.0","0","0","11146","","null","","","null","58","NaN","","","","","","","","","","","","","","",""
"","S2","","html-keyboard-response","388","506126","0.0-1.0-526.0","0","0","11146","","null","","","null","58","","NaN","","","","","","","","","","","","","",""
"","response","","html-keyboard-response","389","506512","0.0-1.0-527.0-0.0","0","0","11146","","383","","","68","58","","","2","58","training","adjacent","DE","4","5","Q.jpg","N.jpg","1","1","1","",""
"","feedback","","html-keyboard-response","390","507531","0.0-1.0-528.0-0.0","0","0","11146","","null","","","null","58","","","","","","","","","","","","","","","",""
"","ITI","","html-keyboard-response","391","508536","0.0-1.0-531.0","0","0","11146","","null","","","null","58","","","","","","","","","","","","","","","NaN",""
"","S1","","html-keyboard-response","392","508790","0.0-1.0-533.0","0","0","11146","","null","","","null","59","","","","","","","","","","","","","","","",""
"","ISI","","html-keyboard-response","393","510794","0.0-1.0-534.0","0","0","11146","","null","","","null","59","NaN","","","","","","","","","","","","","","",""
"","S2","","html-keyboard-response","394","511049","0.0-1.0-535.0","0","0","11146","","null","","","null","59","","NaN","","","","","","","","","","","","","",""
"","response","","html-keyboard-response","395","511544","0.0-1.0-536.0-0.0","0","0","11146","","491","","","75","59","","","2","59","training","adjacent","FG","6","7","P.jpg","O.jpg","0","1","0","",""
"","feedback","","html-keyboard-response","396","512549","0.0-1.0-537.0-0.0","0","0","11146","","null","","","null","59","","","","","","","","","","","","","","","",""
"","time_out","","html-keyboard-response","397","514554","0.0-1.0-539.0-0.0","0","0","11146","","null","","","null","59","","","","","","","","","","","","","","","",""
"","ITI","","html-keyboard-response","398","515558","0.0-1.0-540.0","0","0","11146","","null","","","null","59","","","","","","","","","","","","","","","NaN",""
"","S1","","html-keyboard-response","399","515813","0.0-1.0-542.0","0","0","11146","","null","","","null","60","","","","","","","","","","","","","","","",""
"","ISI","","html-keyboard-response","400","517818","0.0-1.0-543.0","0","0","11146","","null","","","null","60","NaN","","","","","","","","","","","","","","",""
"","S2","","html-keyboard-response","401","518073","0.0-1.0-544.0","0","0","11146","","null","","","null","60","","NaN","","","","","","","","","","","","","",""
"","response","","html-keyboard-response","402","518844","0.0-1.0-545.0-0.0","0","0","11146","","768","","","75","60","","","2","60","training","adjacent","ED","5","4","N.jpg","Q.jpg","0","0","1","",""
"","feedback","","html-keyboard-response","403","519849","0.0-1.0-546.0-0.0","0","0","11146","","null","","","null","60","","","","","","","","","","","","","","","",""
"","ITI","","html-keyboard-response","404","520853","0.0-1.0-549.0","0","0","11146","","null","","","null","60","","","","","","","","","","","","","","","NaN",""
"","S1","","html-keyboard-response","405","521108","0.0-1.0-551.0","0","0","11146","","null","","","null","61","","","","","","","","","","","","","","","",""
"","ISI","","html-keyboard-response","406","523111","0.0-1.0-552.0","0","0","11146","","null","","","null","61","NaN","","","","","","","","","","","","","","",""
"","S2","","html-keyboard-response","407","523366","0.0-1.0-553.0","0","0","11146","","null","","","null","61","","NaN","","","","","","","","","","","","","",""
"","response","","html-keyboard-response","408","523736","0.0-1.0-554.0-0.0","0","0","11146","","367","","","68","61","","","2","61","training","adjacent","CB","3","2","R.jpg","M.jpg","1","0","0","",""
"","feedback","","html-keyboard-response","409","524740","0.0-1.0-555.0-0.0","0","0","11146","","null","","","null","61","","","","","","","","","","","","","","","",""
"","time_out","","html-keyboard-response","410","526745","0.0-1.0-557.0-0.0","0","0","11146","","null","","","null","61","","","","","","","","","","","","","","","",""
"","ITI","","html-keyboard-response","411","527749","0.0-1.0-558.0","0","0","11146","","null","","","null","61","","","","","","","","","","","","","","","NaN",""
"","S1","","html-keyboard-response","412","528004","0.0-1.0-560.0","0","0","11146","","null","","","null","62","","","","","","","","","","","","","","","",""
"","ISI","","html-keyboard-response","413","530008","0.0-1.0-561.0","0","0","11146","","null","","","null","62","NaN","","","","","","","","","","","","","","",""
"","S2","","html-keyboard-response","414","530262","0.0-1.0-562.0","0","0","11146","","null","","","null","62","","NaN","","","","","","","","","","","","","",""
"","response","","html-keyboard-response","415","530713","0.0-1.0-563.0-0.0","0","0","11146","","447","","","75","62","","","2","62","training","adjacent","ED","5","4","N.jpg","Q.jpg","0","0","1","",""
"","feedback","","html-keyboard-response","416","531717","0.0-1.0-564.0-0.0","0","0","11146","","null","","","null","62","","","","","","","","","","","","","","","",""
"","ITI","","html-keyboard-response","417","532722","0.0-1.0-567.0","0","0","11146","","null","","","null","62","","","","","","","","","","","","","","","NaN",""
"","S1","","html-keyboard-response","418","532976","0.0-1.0-569.0","0","0","11146","","null","","","null","63","","","","","","","","","","","","","","","",""
"","ISI","","html-keyboard-response","419","534981","0.0-1.0-570.0","0","0","11146","","null","","","null","63","NaN","","","","","","","","","","","","","","",""
"","S2","","html-keyboard-response","420","535236","0.0-1.0-571.0","0","0","11146","","null","","","null","63","","NaN","","","","","","","","","","","","","",""
"","response","","html-keyboard-response","421","536053","0.0-1.0-572.0-0.0","0","0","11146","","814","","","75","63","","","2","63","training","adjacent","FE","6","5","P.jpg","N.jpg","0","0","1","",""
"","feedback","","html-keyboard-response","422","537058","0.0-1.0-573.0-0.0","0","0","11146","","null","","","null","63","","","","","","","","","","","","","","","",""
"","ITI","","html-keyboard-response","423","538064","0.0-1.0-576.0","0","0","11146","","null","","","null","63","","","","","","","","","","","","","","","NaN",""
"","S1","","html-keyboard-response","424","538318","0.0-1.0-578.0","0","0","11146","","null","","","null","64","","","","","","","","","","","","","","","",""
"","ISI","","html-keyboard-response","425","540322","0.0-1.0-579.0","0","0","11146","","null","","","null","64","NaN","","","","","","","","","","","","","","",""
"","S2","","html-keyboard-response","426","540577","0.0-1.0-580.0","0","0","11146","","null","","","null","64","","NaN","","","","","","","","","","","","","",""
"","response","","html-keyboard-response","427","541184","0.0-1.0-581.0-0.0","0","0","11146","","604","","","75","64","","","2","64","training","adjacent","FG","6","7","P.jpg","O.jpg","0","1","0","",""
"","feedback","","html-keyboard-response","428","542189","0.0-1.0-582.0-0.0","0","0","11146","","null","","","null","64","","","","","","","","","","","","","","","",""
"","time_out","","html-keyboard-response","429","544193","0.0-1.0-584.0-0.0","0","0","11146","","null","","","null","64","","","","","","","","","","","","","","","",""
"","ITI","","html-keyboard-response","430","545198","0.0-1.0-585.0","0","0","11146","","null","","","null","64","","","","","","","","","","","","","","","NaN",""
"","S1","","html-keyboard-response","431","545453","0.0-1.0-587.0","0","0","11146","","null","","","null","65","","","","","","","","","","","","","","","",""
"","ISI","","html-keyboard-response","432","547457","0.0-1.0-588.0","0","0","11146","","null","","","null","65","NaN","","","","","","","","","","","","","","",""
"","S2","","html-keyboard-response","433","547713","0.0-1.0-589.0","0","0","11146","","null","","","null","65","","NaN","","","","","","","","","","","","","",""
"","response","","html-keyboard-response","434","548067","0.0-1.0-590.0-0.0","0","0","11146","","352","","","75","65","","","2","65","training","adjacent","BA","2","1","M.jpg","L.jpg","0","0","1","",""
"","feedback","","html-keyboard-response","435","549071","0.0-1.0-591.0-0.0","0","0","11146","","null","","","null","65","","","","","","","","","","","","","","","",""
"","ITI","","html-keyboard-response","436","550075","0.0-1.0-594.0","0","0","11146","","null","","","null","65","","","","","","","","","","","","","","","NaN",""
"","S1","","html-keyboard-response","437","550330","0.0-1.0-596.0","0","0","11146","","null","","","null","66","","","","","","","","","","","","","","","",""
"","ISI","","html-keyboard-response","438","552335","0.0-1.0-597.0","0","0","11146","","null","","","null","66","NaN","","","","","","","","","","","","","","",""
"","S2","","html-keyboard-response","439","552590","0.0-1.0-598.0","0","0","11146","","null","","","null","66","","NaN","","","","","","","","","","","","","",""
"","response","","html-keyboard-response","440","553279","0.0-1.0-599.0-0.0","0","0","11146","","686","","","68","66","","","2","66","training","adjacent","DC","4","3","Q.jpg","R.jpg","1","0","0","",""
"","feedback","","html-keyboard-response","441","554285","0.0-1.0-600.0-0.0","0","0","11146","","null","","","null","66","","","","","","","","","","","","","","","",""
"","time_out","","html-keyboard-response","442","556290","0.0-1.0-602.0-0.0","0","0","11146","","null","","","null","66","","","","","","","","","","","","","","","",""
"","ITI","","html-keyboard-response","443","557294","0.0-1.0-603.0","0","0","11146","","null","","","null","66","","","","","","","","","","","","","","","NaN",""
"","S1","","html-keyboard-response","444","557549","0.0-1.0-605.0","0","0","11146","","null","","","null","67","","","","","","","","","","","","","","","",""
"","ISI","","html-keyboard-response","445","559554","0.0-1.0-606.0","0","0","11146","","null","","","null","67","NaN","","","","","","","","","","","","","","",""
"","S2","","html-keyboard-response","446","559808","0.0-1.0-607.0","0","0","11146","","null","","","null","67","","NaN","","","","","","","","","","","","","",""
"","response","","html-keyboard-response","447","560121","0.0-1.0-608.0-0.0","0","0","11146","","309","","","75","67","","","2","67","training","adjacent","BA","2","1","M.jpg","L.jpg","0","0","1","",""
"","feedback","","html-keyboard-response","448","561127","0.0-1.0-609.0-0.0","0","0","11146","","null","","","null","67","","","","","","","","","","","","","","","",""
"","ITI","","html-keyboard-response","449","562131","0.0-1.0-612.0","0","0","11146","","null","","","null","67","","","","","","","","","","","","","","","NaN",""
"","S1","","html-keyboard-response","450","562385","0.0-1.0-614.0","0","0","11146","","null","","","null","68","","","","","","","","","","","","","","","",""
"","ISI","","html-keyboard-response","451","564389","0.0-1.0-615.0","0","0","11146","","null","","","null","68","NaN","","","","","","","","","","","","","","",""
"","S2","","html-keyboard-response","452","564644","0.0-1.0-616.0","0","0","11146","","null","","","null","68","","NaN","","","","","","","","","","","","","",""
"","response","","html-keyboard-response","453","565000","0.0-1.0-617.0-0.0","0","0","11146","","353","","","75","68","","","2","68","training","adjacent","BA","2","1","M.jpg","L.jpg","0","0","1","",""
"","feedback","","html-keyboard-response","454","566005","0.0-1.0-618.0-0.0","0","0","11146","","null","","","null","68","","","","","","","","","","","","","","","",""
"","ITI","","html-keyboard-response","455","567010","0.0-1.0-621.0","0","0","11146","","null","","","null","68","","","","","","","","","","","","","","","NaN",""
"","S1","","html-keyboard-response","456","567264","0.0-1.0-623.0","0","0","11146","","null","","","null","69","","","","","","","","","","","","","","","",""
"","ISI","","html-keyboard-response","457","569268","0.0-1.0-624.0","0","0","11146","","null","","","null","69","NaN","","","","","","","","","","","","","","",""
"","S2","","html-keyboard-response","458","569523","0.0-1.0-625.0","0","0","11146","","null","","","null","69","","NaN","","","","","","","","","","","","","",""
"","response","","html-keyboard-response","459","570039","0.0-1.0-626.0-0.0","0","0","11146","","513","","","68","69","","","2","69","training","adjacent","CB","3","2","R.jpg","M.jpg","1","0","0","",""
"","feedback","","html-keyboard-response","460","571044","0.0-1.0-627.0-0.0","0","0","11146","","null","","","null","69","","","","","","","","","","","","","","","",""
"","time_out","","html-keyboard-response","461","573048","0.0-1.0-629.0-0.0","0","0","11146","","null","","","null","69","","","","","","","","","","","","","","","",""
"","ITI","","html-keyboard-response","462","574053","0.0-1.0-630.0","0","0","11146","","null","","","null","69","","","","","","","","","","","","","","","NaN",""
"","S1","","html-keyboard-response","463","574307","0.0-1.0-632.0","0","0","11146","","null","","","null","70","","","","","","","","","","","","","","","",""
"","ISI","","html-keyboard-response","464","576311","0.0-1.0-633.0","0","0","11146","","null","","","null","70","NaN","","","","","","","","","","","","","","",""
"","S2","","html-keyboard-response","465","576565","0.0-1.0-634.0","0","0","11146","","null","","","null","70","","NaN","","","","","","","","","","","","","",""
"","response","","html-keyboard-response","466","576716","0.0-1.0-635.0-0.0","0","0","11146","","146","","","75","70","","","2","70","training","adjacent","DE","4","5","Q.jpg","N.jpg","0","1","0","",""
"","feedback","","html-keyboard-response","467","577721","0.0-1.0-636.0-0.0","0","0","11146","","null","","","null","70","","","","","","","","","","","","","","","",""
"","time_out","","html-keyboard-response","468","579726","0.0-1.0-638.0-0.0","0","0","11146","","null","","","null","70","","","","","","","","","","","","","","","",""
"","ITI","","html-keyboard-response","469","580730","0.0-1.0-639.0","0","0","11146","","null","","","null","70","","","","","","","","","","","","","","","NaN",""
"","S1","","html-keyboard-response","470","580984","0.0-1.0-641.0","0","0","11146","","null","","","null","71","","","","","","","","","","","","","","","",""
"","ISI","","html-keyboard-response","471","582988","0.0-1.0-642.0","0","0","11146","","null","","","null","71","NaN","","","","","","","","","","","","","","",""
"","S2","","html-keyboard-response","472","583242","0.0-1.0-643.0","0","0","11146","","null","","","null","71","","NaN","","","","","","","","","","","","","",""
"","response","","html-keyboard-response","473","584297","0.0-1.0-644.0-0.0","0","0","11146","","1051","","","75","71","","","2","71","training","adjacent","AB","1","2","L.jpg","M.jpg","0","1","0","",""
"","feedback","","html-keyboard-response","474","585302","0.0-1.0-645.0-0.0","0","0","11146","","null","","","null","71","","","","","","","","","","","","","","","",""
"","time_out","","html-keyboard-response","475","587307","0.0-1.0-647.0-0.0","0","0","11146","","null","","","null","71","","","","","","","","","","","","","","","",""
"","ITI","","html-keyboard-response","476","588311","0.0-1.0-648.0","0","0","11146","","null","","","null","71","","","","","","","","","","","","","","","NaN",""
"","S1","","html-keyboard-response","477","588566","0.0-1.0-650.0","0","0","11146","","null","","","null","72","","","","","","","","","","","","","","","",""
"","ISI","","html-keyboard-response","478","590570","0.0-1.0-651.0","0","0","11146","","null","","","null","72","NaN","","","","","","","","","","","","","","",""
"","S2","","html-keyboard-response","479","590825","0.0-1.0-652.0","0","0","11146","","null","","","null","72","","NaN","","","","","","","","","","","","","",""
"","response","","html-keyboard-response","480","591036","0.0-1.0-653.0-0.0","0","0","11146","","207","","","68","72","","","2","72","training","adjacent","GF","7","6","O.jpg","P.jpg","1","0","0","",""
"","feedback","","html-keyboard-response","481","592052","0.0-1.0-654.0-0.0","0","0","11146","","null","","","null","72","","","","","","","","","","","","","","","",""
"","time_out","","html-keyboard-response","482","594056","0.0-1.0-656.0-0.0","0","0","11146","","null","","","null","72","","","","","","","","","","","","","","","",""
"","ITI","","html-keyboard-response","483","595060","0.0-1.0-657.0","0","0","11146","","null","","","null","72","","","","","","","","","","","","","","","NaN",""
"","S1","","html-keyboard-response","484","595315","0.0-1.0-659.0","0","0","11146","","null","","","null","73","","","","","","","","","","","","","","","",""
"","ISI","","html-keyboard-response","485","597320","0.0-1.0-660.0","0","0","11146","","null","","","null","73","NaN","","","","","","","","","","","","","","",""
"","S2","","html-keyboard-response","486","597575","0.0-1.0-661.0","0","0","11146","","null","","","null","73","","NaN","","","","","","","","","","","","","",""
"","response","","html-keyboard-response","487","597639","0.0-1.0-662.0-0.0","0","0","11146","","61","","","68","73","","","2","73","training","adjacent","AB","1","2","L.jpg","M.jpg","1","1","1","",""
"","feedback","","html-keyboard-response","488","598644","0.0-1.0-663.0-0.0","0","0","11146","","null","","","null","73","","","","","","","","","","","","","","","",""
"","ITI","","html-keyboard-response","489","599649","0.0-1.0-666.0","0","0","11146","","null","","","null","73","","","","","","","","","","","","","","","NaN",""
"","S1","","html-keyboard-response","490","599903","0.0-1.0-668.0","0","0","11146","","null","","","null","74","","","","","","","","","","","","","","","",""
"","ISI","","html-keyboard-response","491","601908","0.0-1.0-669.0","0","0","11146","","null","","","null","74","NaN","","","","","","","","","","","","","","",""
"","S2","","html-keyboard-response","492","602163","0.0-1.0-670.0","0","0","11146","","null","","","null","74","","NaN","","","","","","","","","","","","","",""
"","response","","html-keyboard-response","493","603917","0.0-1.0-671.0-0.0","0","0","11146","","null","","","null","74","","","2","74","training","adjacent","CB","3","2","R.jpg","M.jpg","NaN","0","0","",""
"","too_slow_prompt","","html-keyboard-response","494","604922","0.0-1.0-673.0-0.0","1","0","11146","","null","","","null","","","","","","","","","","","","","","","","",""
"","time_out","","html-keyboard-response","495","606926","0.0-1.0-674.0-0.0","0","0","11146","","null","","","null","74","","","","","","","","","","","","","","","",""
"","ITI","","html-keyboard-response","496","607930","0.0-1.0-675.0","0","0","11146","","null","","","null","74","","","","","","","","","","","","","","","NaN",""
"","S1","","html-keyboard-response","497","608185","0.0-1.0-677.0","0","0","11146","","null","","","null","75","","","","","","","","","","","","","","","",""
"","ISI","","html-keyboard-response","498","610188","0.0-1.0-678.0","0","0","11146","","null","","","null","75","NaN","","","","","","","","","","","","","","",""
"","S2","","html-keyboard-response","499","610443","0.0-1.0-679.0","0","0","11146","","null","","","null","75","","NaN","","","","","","","","","","","","","",""
"","response","","html-keyboard-response","500","610526","0.0-1.0-680.0-0.0","0","0","11146","","79","","","75","75","","","2","75","training","adjacent","BA","2","1","M.jpg","L.jpg","0","0","1","",""
"","feedback","","html-keyboard-response","501","611529","0.0-1.0-681.0-0.0","0","0","11146","","null","","","null","75","","","","","","","","","","","","","","","",""
"","ITI","","html-keyboard-response","502","612532","0.0-1.0-684.0","0","0","11146","","null","","","null","75","","","","","","","","","","","","","","","NaN",""
"","S1","","html-keyboard-response","503","612787","0.0-1.0-686.0","0","0","11146","","null","","","null","76","","","","","","","","","","","","","","","",""
"","ISI","","html-keyboard-response","504","614790","0.0-1.0-687.0","0","0","11146","","null","","","null","76","NaN","","","","","","","","","","","","","","",""
"","S2","","html-keyboard-response","505","615045","0.0-1.0-688.0","0","0","11146","","null","","","null","76","","NaN","","","","","","","","","","","","","",""
"","response","","html-keyboard-response","506","615284","0.0-1.0-689.0-0.0","0","0","11146","","235","","","68","76","","","2","76","training","adjacent","FG","6","7","P.jpg","O.jpg","1","1","1","",""
"","feedback","","html-keyboard-response","507","616289","0.0-1.0-690.0-0.0","0","0","11146","","null","","","null","76","","","","","","","","","","","","","","","",""
"","ITI","","html-keyboard-response","508","617294","0.0-1.0-693.0","0","0","11146","","null","","","null","76","","","","","","","","","","","","","","","NaN",""
"","S1","","html-keyboard-response","509","617549","0.0-1.0-695.0","0","0","11146","","null","","","null","77","","","","","","","","","","","","","","","",""
"","ISI","","html-keyboard-response","510","619553","0.0-1.0-696.0","0","0","11146","","null","","","null","77","NaN","","","","","","","","","","","","","","",""
"","S2","","html-keyboard-response","511","619808","0.0-1.0-697.0","0","0","11146","","null","","","null","77","","NaN","","","","","","","","","","","","","",""
"","response","","html-keyboard-response","512","620045","0.0-1.0-698.0-0.0","0","0","11146","","234","","","68","77","","","2","77","training","adjacent","AB","1","2","L.jpg","M.jpg","1","1","1","",""
"","feedback","","html-keyboard-response","513","621050","0.0-1.0-699.0-0.0","0","0","11146","","null","","","null","77","","","","","","","","","","","","","","","",""
"","ITI","","html-keyboard-response","514","622055","0.0-1.0-702.0","0","0","11146","","null","","","null","77","","","","","","","","","","","","","","","NaN",""
"","S1","","html-keyboard-response","515","622309","0.0-1.0-704.0","0","0","11146","","null","","","null","78","","","","","","","","","","","","","","","",""
"","ISI","","html-keyboard-response","516","624313","0.0-1.0-705.0","0","0","11146","","null","","","null","78","NaN","","","","","","","","","","","","","","",""
"","S2","","html-keyboard-response","517","624568","0.0-1.0-706.0","0","0","11146","","null","","","null","78","","NaN","","","","","","","","","","","","","",""
"","response","","html-keyboard-response","518","624946","0.0-1.0-707.0-0.0","0","0","11146","","374","","","68","78","","","2","78","training","adjacent","CD","3","4","R.jpg","Q.jpg","1","1","1","",""
"","feedback","","html-keyboard-response","519","625951","0.0-1.0-708.0-0.0","0","0","11146","","null","","","null","78","","","","","","","","","","","","","","","",""
"","ITI","","html-keyboard-response","520","626956","0.0-1.0-711.0","0","0","11146","","null","","","null","78","","","","","","","","","","","","","","","NaN",""
"","S1","","html-keyboard-response","521","627211","0.0-1.0-713.0","0","0","11146","","null","","","null","79","","","","","","","","","","","","","","","",""
"","ISI","","html-keyboard-response","522","629215","0.0-1.0-714.0","0","0","11146","","null","","","null","79","NaN","","","","","","","","","","","","","","",""
"","S2","","html-keyboard-response","523","629470","0.0-1.0-715.0","0","0","11146","","null","","","null","79","","NaN","","","","","","","","","","","","","",""
"","response","","html-keyboard-response","524","629899","0.0-1.0-716.0-0.0","0","0","11146","","426","","","75","79","","","2","79","training","adjacent","BC","2","3","M.jpg","R.jpg","0","1","0","",""
"","feedback","","html-keyboard-response","525","630905","0.0-1.0-717.0-0.0","0","0","11146","","null","","","null","79","","","","","","","","","","","","","","","",""
"","time_out","","html-keyboard-response","526","632909","0.0-1.0-719.0-0.0","0","0","11146","","null","","","null","79","","","","","","","","","","","","","","","",""
"","ITI","","html-keyboard-response","527","633914","0.0-1.0-720.0","0","0","11146","","null","","","null","79","","","","","","","","","","","","","","","NaN",""
"","S1","","html-keyboard-response","528","634169","0.0-1.0-722.0","0","0","11146","","null","","","null","80","","","","","","","","","","","","","","","",""
"","ISI","","html-keyboard-response","529","636174","0.0-1.0-723.0","0","0","11146","","null","","","null","80","NaN","","","","","","","","","","","","","","",""
"","S2","","html-keyboard-response","530","636428","0.0-1.0-724.0","0","0","11146","","null","","","null","80","","NaN","","","","","","","","","","","","","",""
"","response","","html-keyboard-response","531","636898","0.0-1.0-725.0-0.0","0","0","11146","","467","","","75","80","","","2","80","training","adjacent","EF","5","6","N.jpg","P.jpg","0","1","0","",""
"","feedback","","html-keyboard-response","532","637904","0.0-1.0-726.0-0.0","0","0","11146","","null","","","null","80","","","","","","","","","","","","","","","",""
"","time_out","","html-keyboard-response","533","639909","0.0-1.0-728.0-0.0","0","0","11146","","null","","","null","80","","","","","","","","","","","","","","","",""
"","ITI","","html-keyboard-response","534","640913","0.0-1.0-729.0","0","0","11146","","null","","","null","80","","","","","","","","","","","","","","","NaN",""
"","S1","","html-keyboard-response","535","641168","0.0-1.0-731.0","0","0","11146","","null","","","null","81","","","","","","","","","","","","","","","",""
"","ISI","","html-keyboard-response","536","643171","0.0-1.0-732.0","0","0","11146","","null","","","null","81","NaN","","","","","","","","","","","","","","",""
"","S2","","html-keyboard-response","537","643426","0.0-1.0-733.0","0","0","11146","","null","","","null","81","","NaN","","","","","","","","","","","","","",""
"","response","","html-keyboard-response","538","643958","0.0-1.0-734.0-0.0","0","0","11146","","529","","","68","81","","","2","81","training","adjacent","CB","3","2","R.jpg","M.jpg","1","0","0","",""
"","feedback","","html-keyboard-response","539","644964","0.0-1.0-735.0-0.0","0","0","11146","","null","","","null","81","","","","","","","","","","","","","","","",""
"","time_out","","html-keyboard-response","540","646969","0.0-1.0-737.0-0.0","0","0","11146","","null","","","null","81","","","","","","","","","","","","","","","",""
"","ITI","","html-keyboard-response","541","647973","0.0-1.0-738.0","0","0","11146","","null","","","null","81","","","","","","","","","","","","","","","NaN",""
"","S1","","html-keyboard-response","542","648228","0.0-1.0-740.0","0","0","11146","","null","","","null","82","","","","","","","","","","","","","","","",""
"","ISI","","html-keyboard-response","543","650232","0.0-1.0-741.0","0","0","11146","","null","","","null","82","NaN","","","","","","","","","","","","","","",""
"","S2","","html-keyboard-response","544","650487","0.0-1.0-742.0","0","0","11146","","null","","","null","82","","NaN","","","","","","","","","","","","","",""
"","response","","html-keyboard-response","545","650876","0.0-1.0-743.0-0.0","0","0","11146","","386","","","75","82","","","2","82","training","adjacent","EF","5","6","N.jpg","P.jpg","0","1","0","",""
"","feedback","","html-keyboard-response","546","651881","0.0-1.0-744.0-0.0","0","0","11146","","null","","","null","82","","","","","","","","","","","","","","","",""
"","time_out","","html-keyboard-response","547","653888","0.0-1.0-746.0-0.0","0","0","11146","","null","","","null","82","","","","","","","","","","","","","","","",""
"","ITI","","html-keyboard-response","548","654893","0.0-1.0-747.0","0","0","11146","","null","","","null","82","","","","","","","","","","","","","","","NaN",""
"","S1","","html-keyboard-response","549","655147","0.0-1.0-749.0","0","0","11146","","null","","","null","83","","","","","","","","","","","","","","","",""
"","ISI","","html-keyboard-response","550","657151","0.0-1.0-750.0","0","0","11146","","null","","","null","83","NaN","","","","","","","","","","","","","","",""
"","S2","","html-keyboard-response","551","657406","0.0-1.0-751.0","0","0","11146","","null","","","null","83","","NaN","","","","","","","","","","","","","",""
"","response","","html-keyboard-response","552","657475","0.0-1.0-752.0-0.0","0","0","11146","","66","","","68","83","","","2","83","training","adjacent","AB","1","2","L.jpg","M.jpg","1","1","1","",""
"","feedback","","html-keyboard-response","553","658480","0.0-1.0-753.0-0.0","0","0","11146","","null","","","null","83","","","","","","","","","","","","","","","",""
"","ITI","","html-keyboard-response","554","659485","0.0-1.0-756.0","0","0","11146","","null","","","null","83","","","","","","","","","","","","","","","NaN",""
"","S1","","html-keyboard-response","555","659740","0.0-1.0-758.0","0","0","11146","","null","","","null","84","","","","","","","","","","","","","","","",""
"","ISI","","html-keyboard-response","556","661744","0.0-1.0-759.0","0","0","11146","","null","","","null","84","NaN","","","","","","","","","","","","","","",""
"","S2","","html-keyboard-response","557","661998","0.0-1.0-760.0","0","0","11146","","null","","","null","84","","NaN","","","","","","","","","","","","","",""
"","response","","html-keyboard-response","558","662781","0.0-1.0-761.0-0.0","0","0","11146","","779","","","75","84","","","2","84","training","adjacent","ED","5","4","N.jpg","Q.jpg","0","0","1","",""
"","feedback","","html-keyboard-response","559","663788","0.0-1.0-762.0-0.0","0","0","11146","","null","","","null","84","","","","","","","","","","","","","","","",""
"","ITI","","html-keyboard-response","560","664793","0.0-1.0-765.0","0","0","11146","","null","","","null","84","","","","","","","","","","","","","","","NaN",""
"","S1","","html-keyboard-response","561","665048","0.0-1.0-767.0","0","0","11146","","null","","","null","85","","","","","","","","","","","","","","","",""
"","ISI","","html-keyboard-response","562","667052","0.0-1.0-768.0","0","0","11146","","null","","","null","85","NaN","","","","","","","","","","","","","","",""
"","S2","","html-keyboard-response","563","667307","0.0-1.0-769.0","0","0","11146","","null","","","null","85","","NaN","","","","","","","","","","","","","",""
"","response","","html-keyboard-response","564","667867","0.0-1.0-770.0-0.0","0","0","11146","","556","","","75","85","","","2","85","training","adjacent","DC","4","3","Q.jpg","R.jpg","0","0","1","",""
"","feedback","","html-keyboard-response","565","668872","0.0-1.0-771.0-0.0","0","0","11146","","null","","","null","85","","","","","","","","","","","","","","","",""
"","ITI","","html-keyboard-response","566","669877","0.0-1.0-774.0","0","0","11146","","null","","","null","85","","","","","","","","","","","","","","","NaN",""
"","S1","","html-keyboard-response","567","670133","0.0-1.0-776.0","0","0","11146","","null","","","null","86","","","","","","","","","","","","","","","",""
"","ISI","","html-keyboard-response","568","672138","0.0-1.0-777.0","0","0","11146","","null","","","null","86","NaN","","","","","","","","","","","","","","",""
"","S2","","html-keyboard-response","569","672393","0.0-1.0-778.0","0","0","11146","","null","","","null","86","","NaN","","","","","","","","","","","","","",""
"","response","","html-keyboard-response","570","672635","0.0-1.0-779.0-0.0","0","0","11146","","239","","","68","86","","","2","86","training","adjacent","GF","7","6","O.jpg","P.jpg","1","0","0","",""
"","feedback","","html-keyboard-response","571","673640","0.0-1.0-780.0-0.0","0","0","11146","","null","","","null","86","","","","","","","","","","","","","","","",""
"","time_out","","html-keyboard-response","572","675644","0.0-1.0-782.0-0.0","0","0","11146","","null","","","null","86","","","","","","","","","","","","","","","",""
"","ITI","","html-keyboard-response","573","676647","0.0-1.0-783.0","0","0","11146","","null","","","null","86","","","","","","","","","","","","","","","NaN",""
"","S1","","html-keyboard-response","574","676901","0.0-1.0-785.0","0","0","11146","","null","","","null","87","","","","","","","","","","","","","","","",""
"","ISI","","html-keyboard-response","575","678905","0.0-1.0-786.0","0","0","11146","","null","","","null","87","NaN","","","","","","","","","","","","","","",""
"","S2","","html-keyboard-response","576","679159","0.0-1.0-787.0","0","0","11146","","null","","","null","87","","NaN","","","","","","","","","","","","","",""
"","response","","html-keyboard-response","577","680235","0.0-1.0-788.0-0.0","0","0","11146","","1072","","","68","87","","","2","87","training","adjacent","BC","2","3","M.jpg","R.jpg","1","1","1","",""
"","feedback","","html-keyboard-response","578","681240","0.0-1.0-789.0-0.0","0","0","11146","","null","","","null","87","","","","","","","","","","","","","","","",""
"","ITI","","html-keyboard-response","579","682245","0.0-1.0-792.0","0","0","11146","","null","","","null","87","","","","","","","","","","","","","","","NaN",""
