"success","ttype","start_time","trial_type","trial_index","time_elapsed","internal_node_id","warning","missed_checkup","PID","view_history","rt","responses","repeat_instructions","key_press","index","keypress_isi","keypress_S2","block","trial_num","phase","group_type","pair_type","S1_stim","S2_stim","S1_img","S2_img","S1_chosen","S1_higher","accuracy","keypress_iti","total_bonus_tally"
"true","full_screen","d03082023hr1442","fullscreen","0","25799","0.0-0.0","0","0","54673","","","","","","","","","","","","","","","","","","","","","",""
"","instructions","","instructions","1","112098","0.0-1.0-0.0-0.0","0","0","54673","[{""page_index"":0,""viewing_time"":6549},{""page_index"":1,""viewing_time"":69214},{""page_index"":2,""viewing_time"":8276},{""page_index"":3,""viewing_time"":2250}]","86290","","","","","","","","","","","","","","","","","","","",""
"","comprehension_check","","survey-multi-choice","2","154286","0.0-1.0-0.0-1.0","0","0","54673","","42175","{""Q0"":""True"",""Q1"":""K"",""Q2"":""Only when the screen 'MAKE A CHOICE' is shown"",""Q3"":""Green mark"",""Q4"":""either D or K""}","1","","","","","","","","","","","","","","","","","",""
"","missed_instruction_checkup","","html-keyboard-response","3","157824","0.0-1.0-0.0-2.0-0.0","0","1","54673","","3530","","","32","","","","","","","","","","","","","","","","",""
"","instructions","","instructions","4","200507","0.0-1.0-0.1-0.1","0","0","54673","[{""page_index"":0,""viewing_time"":8370},{""page_index"":1,""viewing_time"":28119},{""page_index"":2,""viewing_time"":4018},{""page_index"":3,""viewing_time"":2162}]","42670","","","","","","","","","","","","","","","","","","","",""
"","comprehension_check","","survey-multi-choice","5","276740","0.0-1.0-0.1-1.1","0","0","54673","","76215","{""Q0"":""False"",""Q1"":""K"",""Q2"":""Only while the second image is shown"",""Q3"":""Green mark"",""Q4"":""either D or K""}","1","","","","","","","","","","","","","","","","","",""
"","missed_instruction_checkup","","html-keyboard-response","6","278811","0.0-1.0-0.1-2.1-0.1","0","1","54673","","2063","","","32","","","","","","","","","","","","","","","","",""
"","instructions","","instructions","7","289505","0.0-1.0-0.2-0.2","0","0","54673","[{""page_index"":0,""viewing_time"":6946},{""page_index"":1,""viewing_time"":1296},{""page_index"":2,""viewing_time"":887},{""page_index"":3,""viewing_time"":1553}]","10683","","","","","","","","","","","","","","","","","","","",""
"","comprehension_check","","survey-multi-choice","8","302693","0.0-1.0-0.2-1.2","0","0","54673","","13171","{""Q0"":""False"",""Q1"":""K"",""Q2"":""Once the second image appears and while the screen 'MAKE A CHOICE' is shown"",""Q3"":""Green mark"",""Q4"":""either D or K""}","1","","","","","","","","","","","","","","","","","",""
"","missed_instruction_checkup","","html-keyboard-response","9","304236","0.0-1.0-0.2-2.2-0.2","0","1","54673","","1537","","","32","","","","","","","","","","","","","","","","",""
"","instructions","","instructions","10","307987","0.0-1.0-0.3-0.3","0","0","54673","[{""page_index"":0,""viewing_time"":1754},{""page_index"":1,""viewing_time"":343},{""page_index"":2,""viewing_time"":706},{""page_index"":3,""viewing_time"":943}]","3746","","","","","","","","","","","","","","","","","","","",""
"","comprehension_check","","survey-multi-choice","11","318516","0.0-1.0-0.3-1.3","0","0","54673","","10517","{""Q0"":""True"",""Q1"":""K"",""Q2"":""Once the second image appears and while the screen 'MAKE A CHOICE' is shown"",""Q3"":""Green mark"",""Q4"":""either D or K""}","0","","","","","","","","","","","","","","","","","",""
"","start_exp","","html-keyboard-response","12","320446","0.0-1.0-1.0","0","0","54673","","1923","","","32","","","","","","","","","","","","","","","","",""
"","S1","","html-keyboard-response","13","320709","0.0-1.0-2.0","0","0","54673","","null","","","null","0","","","","","","","","","","","","","","","",""
"","ISI","","html-keyboard-response","14","320865","0.0-1.0-3.0","0","0","54673","","null","","","null","0","NaN","","","","","","","","","","","","","","",""
"","S2","","html-keyboard-response","15","321125","0.0-1.0-4.0","0","0","54673","","null","","","null","0","","NaN","","","","","","","","","","","","","",""
"","response","","html-keyboard-response","16","322881","0.0-1.0-5.0-0.0","0","0","54673","","null","","","null","0","","","1","0","training","adjacent","CD","3","4","R.jpg","P.jpg","NaN","1","0","",""
"","too_slow_prompt","","html-keyboard-response","17","323885","0.0-1.0-7.0-0.0","1","0","54673","","null","","","null","","","","","","","","","","","","","","","","",""
"","time_out","","html-keyboard-response","18","325891","0.0-1.0-8.0-0.0","0","0","54673","","null","","","null","0","","","","","","","","","","","","","","","",""
"","ITI","","html-keyboard-response","19","326897","0.0-1.0-9.0","0","0","54673","","null","","","null","0","","","","","","","","","","","","","","","NaN",""
"","S1","","html-keyboard-response","20","327153","0.0-1.0-11.0","0","0","54673","","null","","","null","1","","","","","","","","","","","","","","","",""
"","ISI","","html-keyboard-response","21","327307","0.0-1.0-12.0","0","0","54673","","null","","","null","1","NaN","","","","","","","","","","","","","","",""
"","S2","","html-keyboard-response","22","327553","0.0-1.0-13.0","0","0","54673","","242","","","75","1","","k","1","1","training","adjacent","FG","6","7","N.jpg","L.jpg","1","1","1","",""
"","feedback","","html-keyboard-response","23","328558","0.0-1.0-15.0-0.0","0","0","54673","","null","","","null","1","","","","","","","","","","","","","","","",""
"","ITI","","html-keyboard-response","24","329563","0.0-1.0-18.0","0","0","54673","","null","","","null","1","","","","","","","","","","","","","","","NaN",""
"","S1","","html-keyboard-response","25","329818","0.0-1.0-20.0","0","0","54673","","null","","","null","2","","","","","","","","","","","","","","","",""
"","ISI","","html-keyboard-response","26","329974","0.0-1.0-21.0","0","0","54673","","null","","","null","2","NaN","","","","","","","","","","","","","","",""
"","S2","","html-keyboard-response","27","330128","0.0-1.0-22.0","0","0","54673","","150","","","75","2","","k","1","2","training","adjacent","ED","5","4","M.jpg","P.jpg","1","0","0","",""
"","feedback","","html-keyboard-response","28","331134","0.0-1.0-24.0-0.0","0","0","54673","","null","","","null","2","","","","","","","","","","","","","","","",""
"","time_out","","html-keyboard-response","29","333141","0.0-1.0-26.0-0.0","0","0","54673","","null","","","null","2","","","","","","","","","","","","","","","",""
"","ITI","","html-keyboard-response","30","334146","0.0-1.0-27.0","0","0","54673","","null","","","null","2","","","","","","","","","","","","","","","NaN",""
"","S1","","html-keyboard-response","31","334400","0.0-1.0-29.0","0","0","54673","","null","","","null","3","","","","","","","","","","","","","","","",""
"","ISI","","html-keyboard-response","32","334553","0.0-1.0-30.0","0","0","54673","","null","","","null","3","NaN","","","","","","","","","","","","","","",""
"","S2","","html-keyboard-response","33","334659","0.0-1.0-31.0","0","0","54673","","102","","","75","3","","k","1","3","training","adjacent","FE","6","5","N.jpg","M.jpg","1","0","0","",""
"","feedback","","html-keyboard-response","34","335664","0.0-1.0-33.0-0.0","0","0","54673","","null","","","null","3","","","","","","","","","","","","","","","",""
"","time_out","","html-keyboard-response","35","337670","0.0-1.0-35.0-0.0","0","0","54673","","null","","","null","3","","","","","","","","","","","","","","","",""
"","ITI","","html-keyboard-response","36","338677","0.0-1.0-36.0","0","0","54673","","null","","","null","3","","","","","","","","","","","","","","","NaN",""
"","S1","","html-keyboard-response","37","338933","0.0-1.0-38.0","0","0","54673","","null","","","null","4","","","","","","","","","","","","","","","",""
"","ISI","","html-keyboard-response","38","339088","0.0-1.0-39.0","0","0","54673","","null","","","null","4","NaN","","","","","","","","","","","","","","",""
"","S2","","html-keyboard-response","39","339300","0.0-1.0-40.0","0","0","54673","","207","","","68","4","","d","1","4","training","adjacent","ED","5","4","M.jpg","P.jpg","0","0","1","",""
"","feedback","","html-keyboard-response","40","340306","0.0-1.0-42.0-0.0","0","0","54673","","null","","","null","4","","","","","","","","","","","","","","","",""
"","ITI","","html-keyboard-response","41","341310","0.0-1.0-45.0","0","0","54673","","null","","","null","4","","","","","","","","","","","","","","","NaN",""
"","S1","","html-keyboard-response","42","341566","0.0-1.0-47.0","0","0","54673","","null","","","null","5","","","","","","","","","","","","","","","",""
"","ISI","","html-keyboard-response","43","341720","0.0-1.0-48.0","0","0","54673","","null","","","null","5","NaN","","","","","","","","","","","","","","",""
"","S2","","html-keyboard-response","44","341977","0.0-1.0-49.0","0","0","54673","","null","","","null","5","","NaN","","","","","","","","","","","","","",""
"","response","","html-keyboard-response","45","342045","0.0-1.0-50.0-0.0","0","0","54673","","63","","","75","5","","","1","5","training","adjacent","FE","6","5","N.jpg","M.jpg","1","0","0","",""
"","feedback","","html-keyboard-response","46","343047","0.0-1.0-51.0-0.0","0","0","54673","","null","","","null","5","","","","","","","","","","","","","","","",""
"","time_out","","html-keyboard-response","47","345051","0.0-1.0-53.0-0.0","0","0","54673","","null","","","null","5","","","","","","","","","","","","","","","",""
"","ITI","","html-keyboard-response","48","346056","0.0-1.0-54.0","0","0","54673","","null","","","null","5","","","","","","","","","","","","","","","NaN",""
"","S1","","html-keyboard-response","49","346314","0.0-1.0-56.0","0","0","54673","","null","","","null","6","","","","","","","","","","","","","","","",""
"","ISI","","html-keyboard-response","50","346469","0.0-1.0-57.0","0","0","54673","","null","","","null","6","NaN","","","","","","","","","","","","","","",""
"","S2","","html-keyboard-response","51","346723","0.0-1.0-58.0","0","0","54673","","null","","","null","6","","NaN","","","","","","","","","","","","","",""
"","response","","html-keyboard-response","52","346791","0.0-1.0-59.0-0.0","0","0","54673","","66","","","68","6","","","1","6","training","adjacent","EF","5","6","M.jpg","N.jpg","0","1","0","",""
"","feedback","","html-keyboard-response","53","347798","0.0-1.0-60.0-0.0","0","0","54673","","null","","","null","6","","","","","","","","","","","","","","","",""
"","time_out","","html-keyboard-response","54","349801","0.0-1.0-62.0-0.0","0","0","54673","","null","","","null","6","","","","","","","","","","","","","","","",""
"","ITI","","html-keyboard-response","55","350805","0.0-1.0-63.0","0","0","54673","","null","","","null","6","","","","","","","","","","","","","","","NaN",""
"","S1","","html-keyboard-response","56","351059","0.0-1.0-65.0","0","0","54673","","null","","","null","7","","","","","","","","","","","","","","","",""
"","ISI","","html-keyboard-response","57","351212","0.0-1.0-66.0","0","0","54673","","null","","","null","7","NaN","","","","","","","","","","","","","","",""
"","S2","","html-keyboard-response","58","351466","0.0-1.0-67.0","0","0","54673","","null","","","null","7","","NaN","","","","","","","","","","","","","",""
"","response","","html-keyboard-response","59","351481","0.0-1.0-68.0-0.0","0","0","54673","","13","","","75","7","","","1","7","training","adjacent","CD","3","4","R.jpg","P.jpg","1","1","1","",""
"","feedback","","html-keyboard-response","60","352486","0.0-1.0-69.0-0.0","0","0","54673","","null","","","null","7","","","","","","","","","","","","","","","",""
"","ITI","","html-keyboard-response","61","353496","0.0-1.0-72.0","0","0","54673","","null","","","null","7","","","","","","","","","","","","","","","NaN",""
"","S1","","html-keyboard-response","62","353750","0.0-1.0-74.0","0","0","54673","","null","","","null","8","","","","","","","","","","","","","","","",""
"","ISI","","html-keyboard-response","63","353905","0.0-1.0-75.0","0","0","54673","","null","","","null","8","NaN","","","","","","","","","","","","","","",""
"","S2","","html-keyboard-response","64","354164","0.0-1.0-76.0","0","0","54673","","null","","","null","8","","NaN","","","","","","","","","","","","","",""
"","response","","html-keyboard-response","65","354412","0.0-1.0-77.0-0.0","0","0","54673","","245","","","68","8","","","1","8","training","adjacent","DC","4","3","P.jpg","R.jpg","0","0","1","",""
"","feedback","","html-keyboard-response","66","355416","0.0-1.0-78.0-0.0","0","0","54673","","null","","","null","8","","","","","","","","","","","","","","","",""
"","ITI","","html-keyboard-response","67","356422","0.0-1.0-81.0","0","0","54673","","null","","","null","8","","","","","","","","","","","","","","","NaN",""
"","S1","","html-keyboard-response","68","356675","0.0-1.0-83.0","0","0","54673","","null","","","null","9","","","","","","","","","","","","","","","",""
"","ISI","","html-keyboard-response","69","356829","0.0-1.0-84.0","0","0","54673","","null","","","null","9","NaN","","","","","","","","","","","","","","",""
"","S2","","html-keyboard-response","70","357083","0.0-1.0-85.0","0","0","54673","","null","","","null","9","","NaN","","","","","","","","","","","","","",""
"","response","","html-keyboard-response","71","357326","0.0-1.0-86.0-0.0","0","0","54673","","238","","","75","9","","","1","9","training","adjacent","BC","2","3","O.jpg","R.jpg","1","1","1","",""
"","feedback","","html-keyboard-response","72","358330","0.0-1.0-87.0-0.0","0","0","54673","","null","","","null","9","","","","","","","","","","","","","","","",""
"","ITI","","html-keyboard-response","73","359336","0.0-1.0-90.0","0","0","54673","","null","","","null","9","","","","","","","","","","","","","","","NaN",""
"","S1","","html-keyboard-response","74","359591","0.0-1.0-92.0","0","0","54673","","null","","","null","10","","","","","","","","","","","","","","","",""
"","ISI","","html-keyboard-response","75","359746","0.0-1.0-93.0","0","0","54673","","null","","","null","10","NaN","","","","","","","","","","","","","","",""
"","S2","","html-keyboard-response","76","360008","0.0-1.0-94.0","0","0","54673","","null","","","null","10","","NaN","","","","","","","","","","","","","",""
"","response","","html-keyboard-response","77","360078","0.0-1.0-95.0-0.0","0","0","54673","","68","","","68","10","","","1","10","training","adjacent","DE","4","5","P.jpg","M.jpg","0","1","0","",""
"","feedback","","html-keyboard-response","78","361082","0.0-1.0-96.0-0.0","0","0","54673","","null","","","null","10","","","","","","","","","","","","","","","",""
"","time_out","","html-keyboard-response","79","363089","0.0-1.0-98.0-0.0","0","0","54673","","null","","","null","10","","","","","","","","","","","","","","","",""
"","ITI","","html-keyboard-response","80","364094","0.0-1.0-99.0","0","0","54673","","null","","","null","10","","","","","","","","","","","","","","","NaN",""
"","S1","","html-keyboard-response","81","364352","0.0-1.0-101.0","0","0","54673","","null","","","null","11","","","","","","","","","","","","","","","",""
"","ISI","","html-keyboard-response","82","364502","0.0-1.0-102.0","0","0","54673","","null","","","null","11","NaN","","","","","","","","","","","","","","",""
"","S2","","html-keyboard-response","83","364755","0.0-1.0-103.0","0","0","54673","","null","","","null","11","","NaN","","","","","","","","","","","","","",""
"","response","","html-keyboard-response","84","364792","0.0-1.0-104.0-0.0","0","0","54673","","33","","","75","11","","","1","11","training","adjacent","CD","3","4","R.jpg","P.jpg","1","1","1","",""
"","feedback","","html-keyboard-response","85","365796","0.0-1.0-105.0-0.0","0","0","54673","","null","","","null","11","","","","","","","","","","","","","","","",""
"","ITI","","html-keyboard-response","86","366802","0.0-1.0-108.0","0","0","54673","","null","","","null","11","","","","","","","","","","","","","","","NaN",""
"","S1","","html-keyboard-response","87","367058","0.0-1.0-110.0","0","0","54673","","null","","","null","12","","","","","","","","","","","","","","","",""
"","ISI","","html-keyboard-response","88","367211","0.0-1.0-111.0","0","0","54673","","null","","","null","12","NaN","","","","","","","","","","","","","","",""
"","S2","","html-keyboard-response","89","367467","0.0-1.0-112.0","0","0","54673","","null","","","null","12","","NaN","","","","","","","","","","","","","",""
"","response","","html-keyboard-response","90","367679","0.0-1.0-113.0-0.0","0","0","54673","","208","","","75","12","","","1","12","training","adjacent","EF","5","6","M.jpg","N.jpg","1","1","1","",""
"","feedback","","html-keyboard-response","91","368692","0.0-1.0-114.0-0.0","0","0","54673","","null","","","null","12","","","","","","","","","","","","","","","",""
"","ITI","","html-keyboard-response","92","369696","0.0-1.0-117.0","0","0","54673","","null","","","null","12","","","","","","","","","","","","","","","NaN",""
"","S1","","html-keyboard-response","93","369962","0.0-1.0-119.0","0","0","54673","","null","","","null","13","","","","","","","","","","","","","","","",""
"","ISI","","html-keyboard-response","94","370115","0.0-1.0-120.0","0","0","54673","","null","","","null","13","NaN","","","","","","","","","","","","","","",""
"","S2","","html-keyboard-response","95","370307","0.0-1.0-121.0","0","0","54673","","187","","","68","13","","d","1","13","training","adjacent","BA","2","1","O.jpg","Q.jpg","0","0","1","",""
"","feedback","","html-keyboard-response","96","371314","0.0-1.0-123.0-0.0","0","0","54673","","null","","","null","13","","","","","","","","","","","","","","","",""
"","ITI","","html-keyboard-response","97","372318","0.0-1.0-126.0","0","0","54673","","null","","","null","13","","","","","","","","","","","","","","","NaN",""
"","S1","","html-keyboard-response","98","372573","0.0-1.0-128.0","0","0","54673","","null","","","null","14","","","","","","","","","","","","","","","",""
"","ISI","","html-keyboard-response","99","372727","0.0-1.0-129.0","0","0","54673","","null","","","null","14","NaN","","","","","","","","","","","","","","",""
"","S2","","html-keyboard-response","100","372980","0.0-1.0-130.0","0","0","54673","","null","","","null","14","","NaN","","","","","","","","","","","","","",""
"","response","","html-keyboard-response","101","373136","0.0-1.0-131.0-0.0","0","0","54673","","153","","","75","14","","","1","14","training","adjacent","ED","5","4","M.jpg","P.jpg","1","0","0","",""
"","feedback","","html-keyboard-response","102","374142","0.0-1.0-132.0-0.0","0","0","54673","","null","","","null","14","","","","","","","","","","","","","","","",""
"","time_out","","html-keyboard-response","103","376153","0.0-1.0-134.0-0.0","0","0","54673","","null","","","null","14","","","","","","","","","","","","","","","",""
"","ITI","","html-keyboard-response","104","377160","0.0-1.0-135.0","0","0","54673","","null","","","null","14","","","","","","","","","","","","","","","NaN",""
"","S1","","html-keyboard-response","105","377414","0.0-1.0-137.0","0","0","54673","","null","","","null","15","","","","","","","","","","","","","","","",""
"","ISI","","html-keyboard-response","106","377568","0.0-1.0-138.0","0","0","54673","","null","","","null","15","NaN","","","","","","","","","","","","","","",""
"","S2","","html-keyboard-response","107","377823","0.0-1.0-139.0","0","0","54673","","null","","","null","15","","NaN","","","","","","","","","","","","","",""
"","response","","html-keyboard-response","108","378010","0.0-1.0-140.0-0.0","0","0","54673","","181","","","68","15","","","1","15","training","adjacent","BA","2","1","O.jpg","Q.jpg","0","0","1","",""
"","feedback","","html-keyboard-response","109","379021","0.0-1.0-141.0-0.0","0","0","54673","","null","","","null","15","","","","","","","","","","","","","","","",""
"","ITI","","html-keyboard-response","110","380032","0.0-1.0-144.0","0","0","54673","","null","","","null","15","","","","","","","","","","","","","","","NaN",""
"","S1","","html-keyboard-response","111","380287","0.0-1.0-146.0","0","0","54673","","null","","","null","16","","","","","","","","","","","","","","","",""
"","ISI","","html-keyboard-response","112","380439","0.0-1.0-147.0","0","0","54673","","null","","","null","16","NaN","","","","","","","","","","","","","","",""
"","S2","","html-keyboard-response","113","380693","0.0-1.0-148.0","0","0","54673","","null","","","null","16","","NaN","","","","","","","","","","","","","",""
"","response","","html-keyboard-response","114","380892","0.0-1.0-149.0-0.0","0","0","54673","","195","","","68","16","","","1","16","training","adjacent","CD","3","4","R.jpg","P.jpg","0","1","0","",""
"","feedback","","html-keyboard-response","115","381924","0.0-1.0-150.0-0.0","0","0","54673","","null","","","null","16","","","","","","","","","","","","","","","",""
"","time_out","","html-keyboard-response","116","383927","0.0-1.0-152.0-0.0","0","0","54673","","null","","","null","16","","","","","","","","","","","","","","","",""
"","ITI","","html-keyboard-response","117","384932","0.0-1.0-153.0","0","0","54673","","null","","","null","16","","","","","","","","","","","","","","","NaN",""
"","S1","","html-keyboard-response","118","385189","0.0-1.0-155.0","0","0","54673","","null","","","null","17","","","","","","","","","","","","","","","",""
"","ISI","","html-keyboard-response","119","385342","0.0-1.0-156.0","0","0","54673","","null","","","null","17","NaN","","","","","","","","","","","","","","",""
"","S2","","html-keyboard-response","120","385597","0.0-1.0-157.0","0","0","54673","","null","","","null","17","","NaN","","","","","","","","","","","","","",""
"","response","","html-keyboard-response","121","385764","0.0-1.0-158.0-0.0","0","0","54673","","164","","","75","17","","","1","17","training","adjacent","BC","2","3","O.jpg","R.jpg","1","1","1","",""
"","feedback","","html-keyboard-response","122","386770","0.0-1.0-159.0-0.0","0","0","54673","","null","","","null","17","","","","","","","","","","","","","","","",""
"","ITI","","html-keyboard-response","123","387776","0.0-1.0-162.0","0","0","54673","","null","","","null","17","","","","","","","","","","","","","","","NaN",""
"","S1","","html-keyboard-response","124","388065","0.0-1.0-164.0","0","0","54673","","null","","","null","18","","","","","","","","","","","","","","","",""
"","ISI","","html-keyboard-response","125","388220","0.0-1.0-165.0","0","0","54673","","null","","","null","18","NaN","","","","","","","","","","","","","","",""
"","S2","","html-keyboard-response","126","388473","0.0-1.0-166.0","0","0","54673","","null","","","null","18","","NaN","","","","","","","","","","","","","",""
"","response","","html-keyboard-response","127","388682","0.0-1.0-167.0-0.0","0","0","54673","","204","","","75","18","","","1","18","training","adjacent","DE","4","5","P.jpg","M.jpg","1","1","1","",""
"","feedback","","html-keyboard-response","128","389688","0.0-1.0-168.0-0.0","0","0","54673","","null","","","null","18","","","","","","","","","","","","","","","",""
"","ITI","","html-keyboard-response","129","390695","0.0-1.0-171.0","0","0","54673","","null","","","null","18","","","","","","","","","","","","","","","NaN",""
"","S1","","html-keyboard-response","130","390950","0.0-1.0-173.0","0","0","54673","","null","","","null","19","","","","","","","","","","","","","","","",""
"","ISI","","html-keyboard-response","131","391105","0.0-1.0-174.0","0","0","54673","","null","","","null","19","NaN","","","","","","","","","","","","","","",""
"","S2","","html-keyboard-response","132","391291","0.0-1.0-175.0","0","0","54673","","183","","","68","19","","d","1","19","training","adjacent","DC","4","3","P.jpg","R.jpg","0","0","1","",""
"","feedback","","html-keyboard-response","133","392294","0.0-1.0-177.0-0.0","0","0","54673","","null","","","null","19","","","","","","","","","","","","","","","",""
"","ITI","","html-keyboard-response","134","393300","0.0-1.0-180.0","0","0","54673","","null","","","null","19","","","","","","","","","","","","","","","NaN",""
"","S1","","html-keyboard-response","135","393555","0.0-1.0-182.0","0","0","54673","","null","","","null","20","","","","","","","","","","","","","","","",""
"","ISI","","html-keyboard-response","136","393709","0.0-1.0-183.0","0","0","54673","","null","","","null","20","NaN","","","","","","","","","","","","","","",""
"","S2","","html-keyboard-response","137","393963","0.0-1.0-184.0","0","0","54673","","null","","","null","20","","NaN","","","","","","","","","","","","","",""
"","response","","html-keyboard-response","138","394234","0.0-1.0-185.0-0.0","0","0","54673","","268","","","75","20","","","1","20","training","adjacent","AB","1","2","Q.jpg","O.jpg","1","1","1","",""
"","feedback","","html-keyboard-response","139","395266","0.0-1.0-186.0-0.0","0","0","54673","","null","","","null","20","","","","","","","","","","","","","","","",""
"","ITI","","html-keyboard-response","140","396272","0.0-1.0-189.0","0","0","54673","","null","","","null","20","","","","","","","","","","","","","","","NaN",""
"","S1","","html-keyboard-response","141","396529","0.0-1.0-191.0","0","0","54673","","null","","","null","21","","","","","","","","","","","","","","","",""
"","ISI","","html-keyboard-response","142","396684","0.0-1.0-192.0","0","0","54673","","null","","","null","21","NaN","","","","","","","","","","","","","","",""
"","S2","","html-keyboard-response","143","396937","0.0-1.0-193.0","0","0","54673","","null","","","null","21","","NaN","","","","","","","","","","","","","",""
"","response","","html-keyboard-response","144","397113","0.0-1.0-194.0-0.0","0","0","54673","","169","","","68","21","","","1","21","training","adjacent","GF","7","6","L.jpg","N.jpg","0","0","1","",""
"","feedback","","html-keyboard-response","145","398118","0.0-1.0-195.0-0.0","0","0","54673","","null","","","null","21","","","","","","","","","","","","","","","",""
"","ITI","","html-keyboard-response","146","399124","0.0-1.0-198.0","0","0","54673","","null","","","null","21","","","","","","","","","","","","","","","NaN",""
"","S1","","html-keyboard-response","147","399379","0.0-1.0-200.0","0","0","54673","","null","","","null","22","","","","","","","","","","","","","","","",""
"","ISI","","html-keyboard-response","148","399535","0.0-1.0-201.0","0","0","54673","","null","","","null","22","NaN","","","","","","","","","","","","","","",""
"","S2","","html-keyboard-response","149","399791","0.0-1.0-202.0","0","0","54673","","null","","","null","22","","NaN","","","","","","","","","","","","","",""
"","response","","html-keyboard-response","150","399994","0.0-1.0-203.0-0.0","0","0","54673","","201","","","75","22","","","1","22","training","adjacent","DE","4","5","P.jpg","M.jpg","1","1","1","",""
"","feedback","","html-keyboard-response","151","401002","0.0-1.0-204.0-0.0","0","0","54673","","null","","","null","22","","","","","","","","","","","","","","","",""
"","ITI","","html-keyboard-response","152","402006","0.0-1.0-207.0","0","0","54673","","null","","","null","22","","","","","","","","","","","","","","","NaN",""
"","S1","","html-keyboard-response","153","402275","0.0-1.0-209.0","0","0","54673","","null","","","null","23","","","","","","","","","","","","","","","",""
"","ISI","","html-keyboard-response","154","402429","0.0-1.0-210.0","0","0","54673","","null","","","null","23","NaN","","","","","","","","","","","","","","",""
"","S2","","html-keyboard-response","155","402684","0.0-1.0-211.0","0","0","54673","","null","","","null","23","","NaN","","","","","","","","","","","","","",""
"","response","","html-keyboard-response","156","402918","0.0-1.0-212.0-0.0","0","0","54673","","230","","","68","23","","","1","23","training","adjacent","DC","4","3","P.jpg","R.jpg","0","0","1","",""
"","feedback","","html-keyboard-response","157","403925","0.0-1.0-213.0-0.0","0","0","54673","","null","","","null","23","","","","","","","","","","","","","","","",""
"","ITI","","html-keyboard-response","158","404928","0.0-1.0-216.0","0","0","54673","","null","","","null","23","","","","","","","","","","","","","","","NaN",""
"","S1","","html-keyboard-response","159","405181","0.0-1.0-218.0","0","0","54673","","null","","","null","24","","","","","","","","","","","","","","","",""
"","ISI","","html-keyboard-response","160","405337","0.0-1.0-219.0","0","0","54673","","null","","","null","24","NaN","","","","","","","","","","","","","","",""
"","S2","","html-keyboard-response","161","405592","0.0-1.0-220.0","0","0","54673","","null","","","null","24","","NaN","","","","","","","","","","","","","",""
"","response","","html-keyboard-response","162","405782","0.0-1.0-221.0-0.0","0","0","54673","","186","","","75","24","","","1","24","training","adjacent","AB","1","2","Q.jpg","O.jpg","1","1","1","",""
"","feedback","","html-keyboard-response","163","406785","0.0-1.0-222.0-0.0","0","0","54673","","null","","","null","24","","","","","","","","","","","","","","","",""
"","ITI","","html-keyboard-response","164","407791","0.0-1.0-225.0","0","0","54673","","null","","","null","24","","","","","","","","","","","","","","","NaN",""
"","S1","","html-keyboard-response","165","408045","0.0-1.0-227.0","0","0","54673","","null","","","null","25","","","","","","","","","","","","","","","",""
"","ISI","","html-keyboard-response","166","408205","0.0-1.0-228.0","0","0","54673","","null","","","null","25","NaN","","","","","","","","","","","","","","",""
"","S2","","html-keyboard-response","167","408459","0.0-1.0-229.0","0","0","54673","","null","","","null","25","","NaN","","","","","","","","","","","","","",""
"","response","","html-keyboard-response","168","408583","0.0-1.0-230.0-0.0","0","0","54673","","122","","","68","25","","","1","25","training","adjacent","FE","6","5","N.jpg","M.jpg","0","0","1","",""
"","feedback","","html-keyboard-response","169","409590","0.0-1.0-231.0-0.0","0","0","54673","","null","","","null","25","","","","","","","","","","","","","","","",""
"","ITI","","html-keyboard-response","170","410596","0.0-1.0-234.0","0","0","54673","","null","","","null","25","","","","","","","","","","","","","","","NaN",""
"","S1","","html-keyboard-response","171","410851","0.0-1.0-236.0","0","0","54673","","null","","","null","26","","","","","","","","","","","","","","","",""
"","ISI","","html-keyboard-response","172","411004","0.0-1.0-237.0","0","0","54673","","null","","","null","26","NaN","","","","","","","","","","","","","","",""
"","S2","","html-keyboard-response","173","411260","0.0-1.0-238.0","0","0","54673","","null","","","null","26","","NaN","","","","","","","","","","","","","",""
"","response","","html-keyboard-response","174","411426","0.0-1.0-239.0-0.0","0","0","54673","","161","","","75","26","","","1","26","training","adjacent","EF","5","6","M.jpg","N.jpg","1","1","1","",""
"","feedback","","html-keyboard-response","175","412430","0.0-1.0-240.0-0.0","0","0","54673","","null","","","null","26","","","","","","","","","","","","","","","",""
"","ITI","","html-keyboard-response","176","413436","0.0-1.0-243.0","0","0","54673","","null","","","null","26","","","","","","","","","","","","","","","NaN",""
"","S1","","html-keyboard-response","177","413690","0.0-1.0-245.0","0","0","54673","","null","","","null","27","","","","","","","","","","","","","","","",""
"","ISI","","html-keyboard-response","178","413842","0.0-1.0-246.0","0","0","54673","","null","","","null","27","NaN","","","","","","","","","","","","","","",""
"","S2","","html-keyboard-response","179","414096","0.0-1.0-247.0","0","0","54673","","null","","","null","27","","NaN","","","","","","","","","","","","","",""
"","response","","html-keyboard-response","180","414352","0.0-1.0-248.0-0.0","0","0","54673","","255","","","68","27","","","1","27","training","adjacent","FG","6","7","N.jpg","L.jpg","0","1","0","",""
"","feedback","","html-keyboard-response","181","415357","0.0-1.0-249.0-0.0","0","0","54673","","null","","","null","27","","","","","","","","","","","","","","","",""
"","time_out","","html-keyboard-response","182","417362","0.0-1.0-251.0-0.0","0","0","54673","","null","","","null","27","","","","","","","","","","","","","","","",""
"","ITI","","html-keyboard-response","183","418370","0.0-1.0-252.0","0","0","54673","","null","","","null","27","","","","","","","","","","","","","","","NaN",""
"","S1","","html-keyboard-response","184","418627","0.0-1.0-254.0","0","0","54673","","null","","","null","28","","","","","","","","","","","","","","","",""
"","ISI","","html-keyboard-response","185","418782","0.0-1.0-255.0","0","0","54673","","null","","","null","28","NaN","","","","","","","","","","","","","","",""
"","S2","","html-keyboard-response","186","419035","0.0-1.0-256.0","0","0","54673","","null","","","null","28","","NaN","","","","","","","","","","","","","",""
"","response","","html-keyboard-response","187","419246","0.0-1.0-257.0-0.0","0","0","54673","","209","","","75","28","","","1","28","training","adjacent","FG","6","7","N.jpg","L.jpg","1","1","1","",""
"","feedback","","html-keyboard-response","188","420253","0.0-1.0-258.0-0.0","0","0","54673","","null","","","null","28","","","","","","","","","","","","","","","",""
"","ITI","","html-keyboard-response","189","421257","0.0-1.0-261.0","0","0","54673","","null","","","null","28","","","","","","","","","","","","","","","NaN",""
"","S1","","html-keyboard-response","190","421527","0.0-1.0-263.0","0","0","54673","","null","","","null","29","","","","","","","","","","","","","","","",""
"","ISI","","html-keyboard-response","191","421681","0.0-1.0-264.0","0","0","54673","","null","","","null","29","NaN","","","","","","","","","","","","","","",""
"","S2","","html-keyboard-response","192","421936","0.0-1.0-265.0","0","0","54673","","null","","","null","29","","NaN","","","","","","","","","","","","","",""
"","response","","html-keyboard-response","193","421961","0.0-1.0-266.0-0.0","0","0","54673","","23","","","68","29","","","1","29","training","adjacent","CB","3","2","R.jpg","O.jpg","0","0","1","",""
"","feedback","","html-keyboard-response","194","422965","0.0-1.0-267.0-0.0","0","0","54673","","null","","","null","29","","","","","","","","","","","","","","","",""
"","ITI","","html-keyboard-response","195","423970","0.0-1.0-270.0","0","0","54673","","null","","","null","29","","","","","","","","","","","","","","","NaN",""
"","S1","","html-keyboard-response","196","424225","0.0-1.0-272.0","0","0","54673","","null","","","null","30","","","","","","","","","","","","","","","",""
"","ISI","","html-keyboard-response","197","424378","0.0-1.0-273.0","0","0","54673","","null","","","null","30","NaN","","","","","","","","","","","","","","",""
"","S2","","html-keyboard-response","198","424632","0.0-1.0-274.0","0","0","54673","","null","","","null","30","","NaN","","","","","","","","","","","","","",""
"","response","","html-keyboard-response","199","424689","0.0-1.0-275.0-0.0","0","0","54673","","52","","","75","30","","","1","30","training","adjacent","EF","5","6","M.jpg","N.jpg","1","1","1","",""
"","feedback","","html-keyboard-response","200","425694","0.0-1.0-276.0-0.0","0","0","54673","","null","","","null","30","","","","","","","","","","","","","","","",""
"","ITI","","html-keyboard-response","201","426698","0.0-1.0-279.0","0","0","54673","","null","","","null","30","","","","","","","","","","","","","","","NaN",""
"","S1","","html-keyboard-response","202","426953","0.0-1.0-281.0","0","0","54673","","null","","","null","31","","","","","","","","","","","","","","","",""
"","ISI","","html-keyboard-response","203","427106","0.0-1.0-282.0","0","0","54673","","null","","","null","31","NaN","","","","","","","","","","","","","","",""
"","S2","","html-keyboard-response","204","427359","0.0-1.0-283.0","0","0","54673","","null","","","null","31","","NaN","","","","","","","","","","","","","",""
"","response","","html-keyboard-response","205","427606","0.0-1.0-284.0-0.0","0","0","54673","","243","","","75","31","","","1","31","training","adjacent","GF","7","6","L.jpg","N.jpg","1","0","0","",""
"","feedback","","html-keyboard-response","206","428613","0.0-1.0-285.0-0.0","0","0","54673","","null","","","null","31","","","","","","","","","","","","","","","",""
"","time_out","","html-keyboard-response","207","430618","0.0-1.0-287.0-0.0","0","0","54673","","null","","","null","31","","","","","","","","","","","","","","","",""
"","ITI","","html-keyboard-response","208","431622","0.0-1.0-288.0","0","0","54673","","null","","","null","31","","","","","","","","","","","","","","","NaN",""
"","S1","","html-keyboard-response","209","431876","0.0-1.0-290.0","0","0","54673","","null","","","null","32","","","","","","","","","","","","","","","",""
"","ISI","","html-keyboard-response","210","432030","0.0-1.0-291.0","0","0","54673","","null","","","null","32","NaN","","","","","","","","","","","","","","",""
"","S2","","html-keyboard-response","211","432286","0.0-1.0-292.0","0","0","54673","","null","","","null","32","","NaN","","","","","","","","","","","","","",""
"","response","","html-keyboard-response","212","432491","0.0-1.0-293.0-0.0","0","0","54673","","201","","","75","32","","","1","32","training","adjacent","CB","3","2","R.jpg","O.jpg","1","0","0","",""
"","feedback","","html-keyboard-response","213","433497","0.0-1.0-294.0-0.0","0","0","54673","","null","","","null","32","","","","","","","","","","","","","","","",""
"","time_out","","html-keyboard-response","214","435504","0.0-1.0-296.0-0.0","0","0","54673","","null","","","null","32","","","","","","","","","","","","","","","",""
"","ITI","","html-keyboard-response","215","436508","0.0-1.0-297.0","0","0","54673","","null","","","null","32","","","","","","","","","","","","","","","NaN",""
"","S1","","html-keyboard-response","216","436764","0.0-1.0-299.0","0","0","54673","","null","","","null","33","","","","","","","","","","","","","","","",""
"","ISI","","html-keyboard-response","217","436916","0.0-1.0-300.0","0","0","54673","","null","","","null","33","NaN","","","","","","","","","","","","","","",""
"","S2","","html-keyboard-response","218","437169","0.0-1.0-301.0","0","0","54673","","null","","","null","33","","NaN","","","","","","","","","","","","","",""
"","response","","html-keyboard-response","219","437384","0.0-1.0-302.0-0.0","0","0","54673","","210","","","68","33","","","1","33","training","adjacent","GF","7","6","L.jpg","N.jpg","0","0","1","",""
"","feedback","","html-keyboard-response","220","438393","0.0-1.0-303.0-0.0","0","0","54673","","null","","","null","33","","","","","","","","","","","","","","","",""
"","ITI","","html-keyboard-response","221","439398","0.0-1.0-306.0","0","0","54673","","null","","","null","33","","","","","","","","","","","","","","","NaN",""
"","S1","","html-keyboard-response","222","439652","0.0-1.0-308.0","0","0","54673","","null","","","null","34","","","","","","","","","","","","","","","",""
"","ISI","","html-keyboard-response","223","439807","0.0-1.0-309.0","0","0","54673","","null","","","null","34","NaN","","","","","","","","","","","","","","",""
"","S2","","html-keyboard-response","224","440063","0.0-1.0-310.0","0","0","54673","","null","","","null","34","","NaN","","","","","","","","","","","","","",""
"","response","","html-keyboard-response","225","440380","0.0-1.0-311.0-0.0","0","0","54673","","312","","","68","34","","","1","34","training","adjacent","DE","4","5","P.jpg","M.jpg","0","1","0","",""
"","feedback","","html-keyboard-response","226","441385","0.0-1.0-312.0-0.0","0","0","54673","","null","","","null","34","","","","","","","","","","","","","","","",""
"","time_out","","html-keyboard-response","227","443391","0.0-1.0-314.0-0.0","0","0","54673","","null","","","null","34","","","","","","","","","","","","","","","",""
"","ITI","","html-keyboard-response","228","444397","0.0-1.0-315.0","0","0","54673","","null","","","null","34","","","","","","","","","","","","","","","NaN",""
"","S1","","html-keyboard-response","229","444651","0.0-1.0-317.0","0","0","54673","","null","","","null","35","","","","","","","","","","","","","","","",""
"","ISI","","html-keyboard-response","230","444803","0.0-1.0-318.0","0","0","54673","","null","","","null","35","NaN","","","","","","","","","","","","","","",""
"","S2","","html-keyboard-response","231","445058","0.0-1.0-319.0","0","0","54673","","null","","","null","35","","NaN","","","","","","","","","","","","","",""
"","response","","html-keyboard-response","232","445166","0.0-1.0-320.0-0.0","0","0","54673","","105","","","75","35","","","1","35","training","adjacent","AB","1","2","Q.jpg","O.jpg","1","1","1","",""
"","feedback","","html-keyboard-response","233","446185","0.0-1.0-321.0-0.0","0","0","54673","","null","","","null","35","","","","","","","","","","","","","","","",""
"","ITI","","html-keyboard-response","234","447250","0.0-1.0-324.0","0","0","54673","","null","","","null","35","","","","","","","","","","","","","","","NaN",""
"","S1","","html-keyboard-response","235","447516","0.0-1.0-326.0","0","0","54673","","null","","","null","36","","","","","","","","","","","","","","","",""
"","ISI","","html-keyboard-response","236","447667","0.0-1.0-327.0","0","0","54673","","null","","","null","36","NaN","","","","","","","","","","","","","","",""
"","S2","","html-keyboard-response","237","447920","0.0-1.0-328.0","0","0","54673","","null","","","null","36","","NaN","","","","","","","","","","","","","",""
"","response","","html-keyboard-response","238","448240","0.0-1.0-329.0-0.0","0","0","54673","","315","","","75","36","","","1","36","training","adjacent","AB","1","2","Q.jpg","O.jpg","1","1","1","",""
"","feedback","","html-keyboard-response","239","449245","0.0-1.0-330.0-0.0","0","0","54673","","null","","","null","36","","","","","","","","","","","","","","","",""
"","ITI","","html-keyboard-response","240","450252","0.0-1.0-333.0","0","0","54673","","null","","","null","36","","","","","","","","","","","","","","","NaN",""
"","S1","","html-keyboard-response","241","450506","0.0-1.0-335.0","0","0","54673","","null","","","null","37","","","","","","","","","","","","","","","",""
"","ISI","","html-keyboard-response","242","450660","0.0-1.0-336.0","0","0","54673","","null","","","null","37","NaN","","","","","","","","","","","","","","",""
"","S2","","html-keyboard-response","243","450913","0.0-1.0-337.0","0","0","54673","","null","","","null","37","","NaN","","","","","","","","","","","","","",""
"","response","","html-keyboard-response","244","451096","0.0-1.0-338.0-0.0","0","0","54673","","177","","","75","37","","","1","37","training","adjacent","CB","3","2","R.jpg","O.jpg","1","0","0","",""
"","feedback","","html-keyboard-response","245","452101","0.0-1.0-339.0-0.0","0","0","54673","","null","","","null","37","","","","","","","","","","","","","","","",""
"","time_out","","html-keyboard-response","246","454107","0.0-1.0-341.0-0.0","0","0","54673","","null","","","null","37","","","","","","","","","","","","","","","",""
"","ITI","","html-keyboard-response","247","455111","0.0-1.0-342.0","0","0","54673","","null","","","null","37","","","","","","","","","","","","","","","NaN",""
"","S1","","html-keyboard-response","248","455365","0.0-1.0-344.0","0","0","54673","","null","","","null","38","","","","","","","","","","","","","","","",""
"","ISI","","html-keyboard-response","249","455539","0.0-1.0-345.0","0","0","54673","","null","","","null","38","NaN","","","","","","","","","","","","","","",""
"","S2","","html-keyboard-response","250","455793","0.0-1.0-346.0","0","0","54673","","null","","","null","38","","NaN","","","","","","","","","","","","","",""
"","response","","html-keyboard-response","251","456168","0.0-1.0-347.0-0.0","0","0","54673","","372","","","68","38","","","1","38","training","adjacent","CB","3","2","R.jpg","O.jpg","0","0","1","",""
"","feedback","","html-keyboard-response","252","457173","0.0-1.0-348.0-0.0","0","0","54673","","null","","","null","38","","","","","","","","","","","","","","","",""
"","ITI","","html-keyboard-response","253","458178","0.0-1.0-351.0","0","0","54673","","null","","","null","38","","","","","","","","","","","","","","","NaN",""
"","S1","","html-keyboard-response","254","458433","0.0-1.0-353.0","0","0","54673","","null","","","null","39","","","","","","","","","","","","","","","",""
"","ISI","","html-keyboard-response","255","458586","0.0-1.0-354.0","0","0","54673","","null","","","null","39","NaN","","","","","","","","","","","","","","",""
"","S2","","html-keyboard-response","256","458840","0.0-1.0-355.0","0","0","54673","","null","","","null","39","","NaN","","","","","","","","","","","","","",""
"","response","","html-keyboard-response","257","459086","0.0-1.0-356.0-0.0","0","0","54673","","243","","","68","39","","","1","39","training","adjacent","FE","6","5","N.jpg","M.jpg","0","0","1","",""
"","feedback","","html-keyboard-response","258","460091","0.0-1.0-357.0-0.0","0","0","54673","","null","","","null","39","","","","","","","","","","","","","","","",""
"","ITI","","html-keyboard-response","259","461098","0.0-1.0-360.0","0","0","54673","","null","","","null","39","","","","","","","","","","","","","","","NaN",""
"","S1","","html-keyboard-response","260","461354","0.0-1.0-362.0","0","0","54673","","null","","","null","40","","","","","","","","","","","","","","","",""
"","ISI","","html-keyboard-response","261","461512","0.0-1.0-363.0","0","0","54673","","null","","","null","40","NaN","","","","","","","","","","","","","","",""
"","S2","","html-keyboard-response","262","461768","0.0-1.0-364.0","0","0","54673","","null","","","null","40","","NaN","","","","","","","","","","","","","",""
"","response","","html-keyboard-response","263","462044","0.0-1.0-365.0-0.0","0","0","54673","","273","","","68","40","","","1","40","training","adjacent","BA","2","1","O.jpg","Q.jpg","0","0","1","",""
"","feedback","","html-keyboard-response","264","463050","0.0-1.0-366.0-0.0","0","0","54673","","null","","","null","40","","","","","","","","","","","","","","","",""
"","ITI","","html-keyboard-response","265","464057","0.0-1.0-369.0","0","0","54673","","null","","","null","40","","","","","","","","","","","","","","","NaN",""
"","S1","","html-keyboard-response","266","464311","0.0-1.0-371.0","0","0","54673","","null","","","null","41","","","","","","","","","","","","","","","",""
"","ISI","","html-keyboard-response","267","464464","0.0-1.0-372.0","0","0","54673","","null","","","null","41","NaN","","","","","","","","","","","","","","",""
"","S2","","html-keyboard-response","268","464720","0.0-1.0-373.0","0","0","54673","","null","","","null","41","","NaN","","","","","","","","","","","","","",""
"","response","","html-keyboard-response","269","464910","0.0-1.0-374.0-0.0","0","0","54673","","185","","","75","41","","","1","41","training","adjacent","DC","4","3","P.jpg","R.jpg","1","0","0","",""
"","feedback","","html-keyboard-response","270","465915","0.0-1.0-375.0-0.0","0","0","54673","","null","","","null","41","","","","","","","","","","","","","","","",""
"","time_out","","html-keyboard-response","271","467921","0.0-1.0-377.0-0.0","0","0","54673","","null","","","null","41","","","","","","","","","","","","","","","",""
"","ITI","","html-keyboard-response","272","468925","0.0-1.0-378.0","0","0","54673","","null","","","null","41","","","","","","","","","","","","","","","NaN",""
"","S1","","html-keyboard-response","273","469179","0.0-1.0-380.0","0","0","54673","","null","","","null","42","","","","","","","","","","","","","","","",""
"","ISI","","html-keyboard-response","274","469333","0.0-1.0-381.0","0","0","54673","","null","","","null","42","NaN","","","","","","","","","","","","","","",""
"","S2","","html-keyboard-response","275","469588","0.0-1.0-382.0","0","0","54673","","null","","","null","42","","NaN","","","","","","","","","","","","","",""
"","response","","html-keyboard-response","276","469802","0.0-1.0-383.0-0.0","0","0","54673","","204","","","68","42","","","1","42","training","adjacent","GF","7","6","L.jpg","N.jpg","0","0","1","",""
"","feedback","","html-keyboard-response","277","470808","0.0-1.0-384.0-0.0","0","0","54673","","null","","","null","42","","","","","","","","","","","","","","","",""
"","ITI","","html-keyboard-response","278","471814","0.0-1.0-387.0","0","0","54673","","null","","","null","42","","","","","","","","","","","","","","","NaN",""
"","S1","","html-keyboard-response","279","472067","0.0-1.0-389.0","0","0","54673","","null","","","null","43","","","","","","","","","","","","","","","",""
"","ISI","","html-keyboard-response","280","472237","0.0-1.0-390.0","0","0","54673","","null","","","null","43","NaN","","","","","","","","","","","","","","",""
"","S2","","html-keyboard-response","281","472492","0.0-1.0-391.0","0","0","54673","","null","","","null","43","","NaN","","","","","","","","","","","","","",""
"","response","","html-keyboard-response","282","472762","0.0-1.0-392.0-0.0","0","0","54673","","268","","","68","43","","","1","43","training","adjacent","BC","2","3","O.jpg","R.jpg","0","1","0","",""
"","feedback","","html-keyboard-response","283","473766","0.0-1.0-393.0-0.0","0","0","54673","","null","","","null","43","","","","","","","","","","","","","","","",""
"","time_out","","html-keyboard-response","284","475771","0.0-1.0-395.0-0.0","0","0","54673","","null","","","null","43","","","","","","","","","","","","","","","",""
"","ITI","","html-keyboard-response","285","476775","0.0-1.0-396.0","0","0","54673","","null","","","null","43","","","","","","","","","","","","","","","NaN",""
"","S1","","html-keyboard-response","286","477029","0.0-1.0-398.0","0","0","54673","","null","","","null","44","","","","","","","","","","","","","","","",""
"","ISI","","html-keyboard-response","287","477184","0.0-1.0-399.0","0","0","54673","","null","","","null","44","NaN","","","","","","","","","","","","","","",""
"","S2","","html-keyboard-response","288","477439","0.0-1.0-400.0","0","0","54673","","null","","","null","44","","NaN","","","","","","","","","","","","","",""
"","response","","html-keyboard-response","289","477810","0.0-1.0-401.0-0.0","0","0","54673","","366","","","68","44","","","1","44","training","adjacent","BC","2","3","O.jpg","R.jpg","0","1","0","",""
"","feedback","","html-keyboard-response","290","478816","0.0-1.0-402.0-0.0","0","0","54673","","null","","","null","44","","","","","","","","","","","","","","","",""
"","time_out","","html-keyboard-response","291","480823","0.0-1.0-404.0-0.0","0","0","54673","","null","","","null","44","","","","","","","","","","","","","","","",""
"","ITI","","html-keyboard-response","292","481828","0.0-1.0-405.0","0","0","54673","","null","","","null","44","","","","","","","","","","","","","","","NaN",""
"","S1","","html-keyboard-response","293","482082","0.0-1.0-407.0","0","0","54673","","null","","","null","45","","","","","","","","","","","","","","","",""
"","ISI","","html-keyboard-response","294","482243","0.0-1.0-408.0","0","0","54673","","null","","","null","45","NaN","","","","","","","","","","","","","","",""
"","S2","","html-keyboard-response","295","482498","0.0-1.0-409.0","0","0","54673","","null","","","null","45","","NaN","","","","","","","","","","","","","",""
"","response","","html-keyboard-response","296","482775","0.0-1.0-410.0-0.0","0","0","54673","","265","","","68","45","","","1","45","training","adjacent","FG","6","7","N.jpg","L.jpg","0","1","0","",""
"","feedback","","html-keyboard-response","297","483781","0.0-1.0-411.0-0.0","0","0","54673","","null","","","null","45","","","","","","","","","","","","","","","",""
"","time_out","","html-keyboard-response","298","485796","0.0-1.0-413.0-0.0","0","0","54673","","null","","","null","45","","","","","","","","","","","","","","","",""
"","ITI","","html-keyboard-response","299","486799","0.0-1.0-414.0","0","0","54673","","null","","","null","45","","","","","","","","","","","","","","","NaN",""
"","S1","","html-keyboard-response","300","487053","0.0-1.0-416.0","0","0","54673","","null","","","null","46","","","","","","","","","","","","","","","",""
"","ISI","","html-keyboard-response","301","487207","0.0-1.0-417.0","0","0","54673","","null","","","null","46","NaN","","","","","","","","","","","","","","",""
"","S2","","html-keyboard-response","302","487463","0.0-1.0-418.0","0","0","54673","","null","","","null","46","","NaN","","","","","","","","","","","","","",""
"","response","","html-keyboard-response","303","487672","0.0-1.0-419.0-0.0","0","0","54673","","205","","","75","46","","","1","46","training","adjacent","BA","2","1","O.jpg","Q.jpg","1","0","0","",""
"","feedback","","html-keyboard-response","304","488679","0.0-1.0-420.0-0.0","0","0","54673","","null","","","null","46","","","","","","","","","","","","","","","",""
"","time_out","","html-keyboard-response","305","490685","0.0-1.0-422.0-0.0","0","0","54673","","null","","","null","46","","","","","","","","","","","","","","","",""
"","ITI","","html-keyboard-response","306","491688","0.0-1.0-423.0","0","0","54673","","null","","","null","46","","","","","","","","","","","","","","","NaN",""
"","S1","","html-keyboard-response","307","491943","0.0-1.0-425.0","0","0","54673","","null","","","null","47","","","","","","","","","","","","","","","",""
"","ISI","","html-keyboard-response","308","492095","0.0-1.0-426.0","0","0","54673","","null","","","null","47","NaN","","","","","","","","","","","","","","",""
"","S2","","html-keyboard-response","309","492348","0.0-1.0-427.0","0","0","54673","","null","","","null","47","","NaN","","","","","","","","","","","","","",""
"","response","","html-keyboard-response","310","492489","0.0-1.0-428.0-0.0","0","0","54673","","138","","","68","47","","","1","47","training","adjacent","ED","5","4","M.jpg","P.jpg","0","0","1","",""
"","feedback","","html-keyboard-response","311","493494","0.0-1.0-429.0-0.0","0","0","54673","","null","","","null","47","","","","","","","","","","","","","","","",""
"","ITI","","html-keyboard-response","312","494510","0.0-1.0-432.0","0","0","54673","","null","","","null","47","","","","","","","","","","","","","","","NaN",""
"","block_over","","html-keyboard-response","313","514385","0.0-1.0-433.0-0.0","0","0","54673","","19861","","","32","47","","","","","","","","","","","","","","","",""
"","S1","","html-keyboard-response","314","514644","0.0-1.0-434.0","0","0","54673","","null","","","null","48","","","","","","","","","","","","","","","",""
"","ISI","","html-keyboard-response","315","514798","0.0-1.0-435.0","0","0","54673","","null","","","null","48","NaN","","","","","","","","","","","","","","",""
"","S2","","html-keyboard-response","316","515051","0.0-1.0-436.0","0","0","54673","","null","","","null","48","","NaN","","","","","","","","","","","","","",""
"","response","","html-keyboard-response","317","515306","0.0-1.0-437.0-0.0","0","0","54673","","253","","","75","48","","","2","48","training","adjacent","FE","6","5","N.jpg","M.jpg","1","0","0","",""
"","feedback","","html-keyboard-response","318","516311","0.0-1.0-438.0-0.0","0","0","54673","","null","","","null","48","","","","","","","","","","","","","","","",""
"","time_out","","html-keyboard-response","319","518316","0.0-1.0-440.0-0.0","0","0","54673","","null","","","null","48","","","","","","","","","","","","","","","",""
"","ITI","","html-keyboard-response","320","519320","0.0-1.0-441.0","0","0","54673","","null","","","null","48","","","","","","","","","","","","","","","NaN",""
"","S1","","html-keyboard-response","321","519576","0.0-1.0-443.0","0","0","54673","","null","","","null","49","","","","","","","","","","","","","","","",""
"","ISI","","html-keyboard-response","322","519730","0.0-1.0-444.0","0","0","54673","","null","","","null","49","NaN","","","","","","","","","","","","","","",""
"","S2","","html-keyboard-response","323","520015","0.0-1.0-445.0","0","0","54673","","null","","","null","49","","NaN","","","","","","","","","","","","","",""
"","response","","html-keyboard-response","324","520098","0.0-1.0-446.0-0.0","0","0","54673","","78","","","68","49","","","2","49","training","adjacent","BC","2","3","O.jpg","R.jpg","0","1","0","",""
"","feedback","","html-keyboard-response","325","521100","0.0-1.0-447.0-0.0","0","0","54673","","null","","","null","49","","","","","","","","","","","","","","","",""
"","time_out","","html-keyboard-response","326","523103","0.0-1.0-449.0-0.0","0","0","54673","","null","","","null","49","","","","","","","","","","","","","","","",""
"","ITI","","html-keyboard-response","327","524109","0.0-1.0-450.0","0","0","54673","","null","","","null","49","","","","","","","","","","","","","","","NaN",""
"","S1","","html-keyboard-response","328","524363","0.0-1.0-452.0","0","0","54673","","null","","","null","50","","","","","","","","","","","","","","","",""
"","ISI","","html-keyboard-response","329","524516","0.0-1.0-453.0","0","0","54673","","null","","","null","50","NaN","","","","","","","","","","","","","","",""
"","S2","","html-keyboard-response","330","524770","0.0-1.0-454.0","0","0","54673","","null","","","null","50","","NaN","","","","","","","","","","","","","",""
"","response","","html-keyboard-response","331","525039","0.0-1.0-455.0-0.0","0","0","54673","","265","","","68","50","","","2","50","training","adjacent","FG","6","7","N.jpg","L.jpg","0","1","0","",""
"","feedback","","html-keyboard-response","332","526046","0.0-1.0-456.0-0.0","0","0","54673","","null","","","null","50","","","","","","","","","","","","","","","",""
"","time_out","","html-keyboard-response","333","528051","0.0-1.0-458.0-0.0","0","0","54673","","null","","","null","50","","","","","","","","","","","","","","","",""
"","ITI","","html-keyboard-response","334","529057","0.0-1.0-459.0","0","0","54673","","null","","","null","50","","","","","","","","","","","","","","","NaN",""
"","S1","","html-keyboard-response","335","529312","0.0-1.0-461.0","0","0","54673","","null","","","null","51","","","","","","","","","","","","","","","",""
"","ISI","","html-keyboard-response","336","529467","0.0-1.0-462.0","0","0","54673","","null","","","null","51","NaN","","","","","","","","","","","","","","",""
"","S2","","html-keyboard-response","337","529721","0.0-1.0-463.0","0","0","54673","","null","","","null","51","","NaN","","","","","","","","","","","","","",""
"","response","","html-keyboard-response","338","530041","0.0-1.0-464.0-0.0","0","0","54673","","317","","","68","51","","","2","51","training","adjacent","BA","2","1","O.jpg","Q.jpg","0","0","1","",""
"","feedback","","html-keyboard-response","339","531045","0.0-1.0-465.0-0.0","0","0","54673","","null","","","null","51","","","","","","","","","","","","","","","",""
"","ITI","","html-keyboard-response","340","532050","0.0-1.0-468.0","0","0","54673","","null","","","null","51","","","","","","","","","","","","","","","NaN",""
"","S1","","html-keyboard-response","341","532304","0.0-1.0-470.0","0","0","54673","","null","","","null","52","","","","","","","","","","","","","","","",""
"","ISI","","html-keyboard-response","342","532458","0.0-1.0-471.0","0","0","54673","","null","","","null","52","NaN","","","","","","","","","","","","","","",""
"","S2","","html-keyboard-response","343","532714","0.0-1.0-472.0","0","0","54673","","null","","","null","52","","NaN","","","","","","","","","","","","","",""
"","response","","html-keyboard-response","344","533013","0.0-1.0-473.0-0.0","0","0","54673","","296","","","75","52","","","2","52","training","adjacent","DE","4","5","P.jpg","M.jpg","1","1","1","",""
"","feedback","","html-keyboard-response","345","534027","0.0-1.0-474.0-0.0","0","0","54673","","null","","","null","52","","","","","","","","","","","","","","","",""
"","ITI","","html-keyboard-response","346","535037","0.0-1.0-477.0","0","0","54673","","null","","","null","52","","","","","","","","","","","","","","","NaN",""
"","S1","","html-keyboard-response","347","535291","0.0-1.0-479.0","0","0","54673","","null","","","null","53","","","","","","","","","","","","","","","",""
"","ISI","","html-keyboard-response","348","535445","0.0-1.0-480.0","0","0","54673","","null","","","null","53","NaN","","","","","","","","","","","","","","",""
"","S2","","html-keyboard-response","349","535703","0.0-1.0-481.0","0","0","54673","","null","","","null","53","","NaN","","","","","","","","","","","","","",""
"","response","","html-keyboard-response","350","535893","0.0-1.0-482.0-0.0","0","0","54673","","184","","","68","53","","","2","53","training","adjacent","FE","6","5","N.jpg","M.jpg","0","0","1","",""
"","feedback","","html-keyboard-response","351","536897","0.0-1.0-483.0-0.0","0","0","54673","","null","","","null","53","","","","","","","","","","","","","","","",""
"","ITI","","html-keyboard-response","352","537901","0.0-1.0-486.0","0","0","54673","","null","","","null","53","","","","","","","","","","","","","","","NaN",""
"","S1","","html-keyboard-response","353","538153","0.0-1.0-488.0","0","0","54673","","null","","","null","54","","","","","","","","","","","","","","","",""
"","ISI","","html-keyboard-response","354","538307","0.0-1.0-489.0","0","0","54673","","null","","","null","54","NaN","","","","","","","","","","","","","","",""
"","S2","","html-keyboard-response","355","538563","0.0-1.0-490.0","0","0","54673","","null","","","null","54","","NaN","","","","","","","","","","","","","",""
"","response","","html-keyboard-response","356","538825","0.0-1.0-491.0-0.0","0","0","54673","","258","","","68","54","","","2","54","training","adjacent","EF","5","6","M.jpg","N.jpg","0","1","0","",""
"","feedback","","html-keyboard-response","357","539831","0.0-1.0-492.0-0.0","0","0","54673","","null","","","null","54","","","","","","","","","","","","","","","",""
"","time_out","","html-keyboard-response","358","541837","0.0-1.0-494.0-0.0","0","0","54673","","null","","","null","54","","","","","","","","","","","","","","","",""
"","ITI","","html-keyboard-response","359","542841","0.0-1.0-495.0","0","0","54673","","null","","","null","54","","","","","","","","","","","","","","","NaN",""
"","S1","","html-keyboard-response","360","543097","0.0-1.0-497.0","0","0","54673","","null","","","null","55","","","","","","","","","","","","","","","",""
"","ISI","","html-keyboard-response","361","543251","0.0-1.0-498.0","0","0","54673","","null","","","null","55","NaN","","","","","","","","","","","","","","",""
"","S2","","html-keyboard-response","362","543543","0.0-1.0-499.0","0","0","54673","","null","","","null","55","","NaN","","","","","","","","","","","","","",""
"","response","","html-keyboard-response","363","543773","0.0-1.0-500.0-0.0","0","0","54673","","226","","","68","55","","","2","55","training","adjacent","GF","7","6","L.jpg","N.jpg","0","0","1","",""
"","feedback","","html-keyboard-response","364","544779","0.0-1.0-501.0-0.0","0","0","54673","","null","","","null","55","","","","","","","","","","","","","","","",""
"","ITI","","html-keyboard-response","365","545783","0.0-1.0-504.0","0","0","54673","","null","","","null","55","","","","","","","","","","","","","","","NaN",""
"","S1","","html-keyboard-response","366","546036","0.0-1.0-506.0","0","0","54673","","null","","","null","56","","","","","","","","","","","","","","","",""
"","ISI","","html-keyboard-response","367","546193","0.0-1.0-507.0","0","0","54673","","null","","","null","56","NaN","","","","","","","","","","","","","","",""
"","S2","","html-keyboard-response","368","546450","0.0-1.0-508.0","0","0","54673","","null","","","null","56","","NaN","","","","","","","","","","","","","",""
"","response","","html-keyboard-response","369","546703","0.0-1.0-509.0-0.0","0","0","54673","","250","","","68","56","","","2","56","training","adjacent","ED","5","4","M.jpg","P.jpg","0","0","1","",""
"","feedback","","html-keyboard-response","370","547708","0.0-1.0-510.0-0.0","0","0","54673","","null","","","null","56","","","","","","","","","","","","","","","",""
"","ITI","","html-keyboard-response","371","548711","0.0-1.0-513.0","0","0","54673","","null","","","null","56","","","","","","","","","","","","","","","NaN",""
"","S1","","html-keyboard-response","372","548965","0.0-1.0-515.0","0","0","54673","","null","","","null","57","","","","","","","","","","","","","","","",""
"","ISI","","html-keyboard-response","373","549117","0.0-1.0-516.0","0","0","54673","","null","","","null","57","NaN","","","","","","","","","","","","","","",""
"","S2","","html-keyboard-response","374","549370","0.0-1.0-517.0","0","0","54673","","null","","","null","57","","NaN","","","","","","","","","","","","","",""
"","response","","html-keyboard-response","375","549786","0.0-1.0-518.0-0.0","0","0","54673","","413","","","75","57","","","2","57","training","adjacent","BC","2","3","O.jpg","R.jpg","1","1","1","",""
"","feedback","","html-keyboard-response","376","550791","0.0-1.0-519.0-0.0","0","0","54673","","null","","","null","57","","","","","","","","","","","","","","","",""
"","ITI","","html-keyboard-response","377","551796","0.0-1.0-522.0","0","0","54673","","null","","","null","57","","","","","","","","","","","","","","","NaN",""
"","S1","","html-keyboard-response","378","552049","0.0-1.0-524.0","0","0","54673","","null","","","null","58","","","","","","","","","","","","","","","",""
"","ISI","","html-keyboard-response","379","552202","0.0-1.0-525.0","0","0","54673","","null","","","null","58","NaN","","","","","","","","","","","","","","",""
"","S2","","html-keyboard-response","380","552458","0.0-1.0-526.0","0","0","54673","","null","","","null","58","","NaN","","","","","","","","","","","","","",""
"","response","","html-keyboard-response","381","552740","0.0-1.0-527.0-0.0","0","0","54673","","279","","","75","58","","","2","58","training","adjacent","CB","3","2","R.jpg","O.jpg","1","0","0","",""
"","feedback","","html-keyboard-response","382","553743","0.0-1.0-528.0-0.0","0","0","54673","","null","","","null","58","","","","","","","","","","","","","","","",""
"","time_out","","html-keyboard-response","383","555747","0.0-1.0-530.0-0.0","0","0","54673","","null","","","null","58","","","","","","","","","","","","","","","",""
"","ITI","","html-keyboard-response","384","556752","0.0-1.0-531.0","0","0","54673","","null","","","null","58","","","","","","","","","","","","","","","NaN",""
"","S1","","html-keyboard-response","385","557006","0.0-1.0-533.0","0","0","54673","","null","","","null","59","","","","","","","","","","","","","","","",""
"","ISI","","html-keyboard-response","386","557161","0.0-1.0-534.0","0","0","54673","","null","","","null","59","NaN","","","","","","","","","","","","","","",""
"","S2","","html-keyboard-response","387","557416","0.0-1.0-535.0","0","0","54673","","null","","","null","59","","NaN","","","","","","","","","","","","","",""
"","response","","html-keyboard-response","388","557794","0.0-1.0-536.0-0.0","0","0","54673","","374","","","68","59","","","2","59","training","adjacent","CB","3","2","R.jpg","O.jpg","0","0","1","",""
"","feedback","","html-keyboard-response","389","558800","0.0-1.0-537.0-0.0","0","0","54673","","null","","","null","59","","","","","","","","","","","","","","","",""
"","ITI","","html-keyboard-response","390","559804","0.0-1.0-540.0","0","0","54673","","null","","","null","59","","","","","","","","","","","","","","","NaN",""
"","S1","","html-keyboard-response","391","560058","0.0-1.0-542.0","0","0","54673","","null","","","null","60","","","","","","","","","","","","","","","",""
"","ISI","","html-keyboard-response","392","560215","0.0-1.0-543.0","0","0","54673","","null","","","null","60","NaN","","","","","","","","","","","","","","",""
"","S2","","html-keyboard-response","393","560471","0.0-1.0-544.0","0","0","54673","","null","","","null","60","","NaN","","","","","","","","","","","","","",""
"","response","","html-keyboard-response","394","560747","0.0-1.0-545.0-0.0","0","0","54673","","272","","","68","60","","","2","60","training","adjacent","DE","4","5","P.jpg","M.jpg","0","1","0","",""
"","feedback","","html-keyboard-response","395","561752","0.0-1.0-546.0-0.0","0","0","54673","","null","","","null","60","","","","","","","","","","","","","","","",""
"","time_out","","html-keyboard-response","396","563760","0.0-1.0-548.0-0.0","0","0","54673","","null","","","null","60","","","","","","","","","","","","","","","",""
"","ITI","","html-keyboard-response","397","564764","0.0-1.0-549.0","0","0","54673","","null","","","null","60","","","","","","","","","","","","","","","NaN",""
"","S1","","html-keyboard-response","398","565020","0.0-1.0-551.0","0","0","54673","","null","","","null","61","","","","","","","","","","","","","","","",""
"","ISI","","html-keyboard-response","399","565175","0.0-1.0-552.0","0","0","54673","","null","","","null","61","NaN","","","","","","","","","","","","","","",""
"","S2","","html-keyboard-response","400","565430","0.0-1.0-553.0","0","0","54673","","null","","","null","61","","NaN","","","","","","","","","","","","","",""
"","response","","html-keyboard-response","401","565647","0.0-1.0-554.0-0.0","0","0","54673","","213","","","68","61","","","2","61","training","adjacent","FG","6","7","N.jpg","L.jpg","0","1","0","",""
"","feedback","","html-keyboard-response","402","566653","0.0-1.0-555.0-0.0","0","0","54673","","null","","","null","61","","","","","","","","","","","","","","","",""
"","time_out","","html-keyboard-response","403","568659","0.0-1.0-557.0-0.0","0","0","54673","","null","","","null","61","","","","","","","","","","","","","","","",""
"","ITI","","html-keyboard-response","404","569668","0.0-1.0-558.0","0","0","54673","","null","","","null","61","","","","","","","","","","","","","","","NaN",""
"","S1","","html-keyboard-response","405","569922","0.0-1.0-560.0","0","0","54673","","null","","","null","62","","","","","","","","","","","","","","","",""
"","ISI","","html-keyboard-response","406","570076","0.0-1.0-561.0","0","0","54673","","null","","","null","62","NaN","","","","","","","","","","","","","","",""
"","S2","","html-keyboard-response","407","570358","0.0-1.0-562.0","0","0","54673","","null","","","null","62","","NaN","","","","","","","","","","","","","",""
"","response","","html-keyboard-response","408","570564","0.0-1.0-563.0-0.0","0","0","54673","","203","","","68","62","","","2","62","training","adjacent","AB","1","2","Q.jpg","O.jpg","0","1","0","",""
"","feedback","","html-keyboard-response","409","571570","0.0-1.0-564.0-0.0","0","0","54673","","null","","","null","62","","","","","","","","","","","","","","","",""
"","time_out","","html-keyboard-response","410","573576","0.0-1.0-566.0-0.0","0","0","54673","","null","","","null","62","","","","","","","","","","","","","","","",""
"","ITI","","html-keyboard-response","411","574580","0.0-1.0-567.0","0","0","54673","","null","","","null","62","","","","","","","","","","","","","","","NaN",""
"","S1","","html-keyboard-response","412","574836","0.0-1.0-569.0","0","0","54673","","null","","","null","63","","","","","","","","","","","","","","","",""
"","ISI","","html-keyboard-response","413","574992","0.0-1.0-570.0","0","0","54673","","null","","","null","63","NaN","","","","","","","","","","","","","","",""
"","S2","","html-keyboard-response","414","575247","0.0-1.0-571.0","0","0","54673","","null","","","null","63","","NaN","","","","","","","","","","","","","",""
"","response","","html-keyboard-response","415","575342","0.0-1.0-572.0-0.0","0","0","54673","","91","","","75","63","","","2","63","training","adjacent","ED","5","4","M.jpg","P.jpg","1","0","0","",""
"","feedback","","html-keyboard-response","416","576362","0.0-1.0-573.0-0.0","0","0","54673","","null","","","null","63","","","","","","","","","","","","","","","",""
"","time_out","","html-keyboard-response","417","578367","0.0-1.0-575.0-0.0","0","0","54673","","null","","","null","63","","","","","","","","","","","","","","","",""
"","ITI","","html-keyboard-response","418","579372","0.0-1.0-576.0","0","0","54673","","null","","","null","63","","","","","","","","","","","","","","","NaN",""
"","S1","","html-keyboard-response","419","579626","0.0-1.0-578.0","0","0","54673","","null","","","null","64","","","","","","","","","","","","","","","",""
"","ISI","","html-keyboard-response","420","579777","0.0-1.0-579.0","0","0","54673","","null","","","null","64","NaN","","","","","","","","","","","","","","",""
"","S2","","html-keyboard-response","421","580031","0.0-1.0-580.0","0","0","54673","","null","","","null","64","","NaN","","","","","","","","","","","","","",""
"","response","","html-keyboard-response","422","580459","0.0-1.0-581.0-0.0","0","0","54673","","424","","","68","64","","","2","64","training","adjacent","DC","4","3","P.jpg","R.jpg","0","0","1","",""
"","feedback","","html-keyboard-response","423","581466","0.0-1.0-582.0-0.0","0","0","54673","","null","","","null","64","","","","","","","","","","","","","","","",""
"","ITI","","html-keyboard-response","424","582473","0.0-1.0-585.0","0","0","54673","","null","","","null","64","","","","","","","","","","","","","","","NaN",""
"","S1","","html-keyboard-response","425","582729","0.0-1.0-587.0","0","0","54673","","null","","","null","65","","","","","","","","","","","","","","","",""
"","ISI","","html-keyboard-response","426","582883","0.0-1.0-588.0","0","0","54673","","null","","","null","65","NaN","","","","","","","","","","","","","","",""
"","S2","","html-keyboard-response","427","583136","0.0-1.0-589.0","0","0","54673","","null","","","null","65","","NaN","","","","","","","","","","","","","",""
"","response","","html-keyboard-response","428","583506","0.0-1.0-590.0-0.0","0","0","54673","","366","","","68","65","","","2","65","training","adjacent","DE","4","5","P.jpg","M.jpg","0","1","0","",""
"","feedback","","html-keyboard-response","429","584510","0.0-1.0-591.0-0.0","0","0","54673","","null","","","null","65","","","","","","","","","","","","","","","",""
"","time_out","","html-keyboard-response","430","586521","0.0-1.0-593.0-0.0","0","0","54673","","null","","","null","65","","","","","","","","","","","","","","","",""
"","ITI","","html-keyboard-response","431","587523","0.0-1.0-594.0","0","0","54673","","null","","","null","65","","","","","","","","","","","","","","","NaN",""
"","S1","","html-keyboard-response","432","587779","0.0-1.0-596.0","0","0","54673","","null","","","null","66","","","","","","","","","","","","","","","",""
"","ISI","","html-keyboard-response","433","587933","0.0-1.0-597.0","0","0","54673","","null","","","null","66","NaN","","","","","","","","","","","","","","",""
"","S2","","html-keyboard-response","434","588187","0.0-1.0-598.0","0","0","54673","","null","","","null","66","","NaN","","","","","","","","","","","","","",""
"","response","","html-keyboard-response","435","588497","0.0-1.0-599.0-0.0","0","0","54673","","305","","","68","66","","","2","66","training","adjacent","CD","3","4","R.jpg","P.jpg","0","1","0","",""
"","feedback","","html-keyboard-response","436","589509","0.0-1.0-600.0-0.0","0","0","54673","","null","","","null","66","","","","","","","","","","","","","","","",""
"","time_out","","html-keyboard-response","437","591537","0.0-1.0-602.0-0.0","0","0","54673","","null","","","null","66","","","","","","","","","","","","","","","",""
"","ITI","","html-keyboard-response","438","592560","0.0-1.0-603.0","0","0","54673","","null","","","null","66","","","","","","","","","","","","","","","NaN",""
"","S1","","html-keyboard-response","439","592815","0.0-1.0-605.0","0","0","54673","","null","","","null","67","","","","","","","","","","","","","","","",""
"","ISI","","html-keyboard-response","440","592979","0.0-1.0-606.0","0","0","54673","","null","","","null","67","NaN","","","","","","","","","","","","","","",""
"","S2","","html-keyboard-response","441","593235","0.0-1.0-607.0","0","0","54673","","null","","","null","67","","NaN","","","","","","","","","","","","","",""
"","response","","html-keyboard-response","442","593509","0.0-1.0-608.0-0.0","0","0","54673","","271","","","68","67","","","2","67","training","adjacent","AB","1","2","Q.jpg","O.jpg","0","1","0","",""
"","feedback","","html-keyboard-response","443","594515","0.0-1.0-609.0-0.0","0","0","54673","","null","","","null","67","","","","","","","","","","","","","","","",""
"","time_out","","html-keyboard-response","444","596526","0.0-1.0-611.0-0.0","0","0","54673","","null","","","null","67","","","","","","","","","","","","","","","",""
"","ITI","","html-keyboard-response","445","597537","0.0-1.0-612.0","0","0","54673","","null","","","null","67","","","","","","","","","","","","","","","NaN",""
"","S1","","html-keyboard-response","446","597790","0.0-1.0-614.0","0","0","54673","","null","","","null","68","","","","","","","","","","","","","","","",""
"","ISI","","html-keyboard-response","447","597943","0.0-1.0-615.0","0","0","54673","","null","","","null","68","NaN","","","","","","","","","","","","","","",""
"","S2","","html-keyboard-response","448","598053","0.0-1.0-616.0","0","0","54673","","108","","","75","68","","k","2","68","training","adjacent","EF","5","6","M.jpg","N.jpg","1","1","1","",""
"","feedback","","html-keyboard-response","449","599057","0.0-1.0-618.0-0.0","0","0","54673","","null","","","null","68","","","","","","","","","","","","","","","",""
"","ITI","","html-keyboard-response","450","600059","0.0-1.0-621.0","0","0","54673","","null","","","null","68","","","","","","","","","","","","","","","NaN",""
"","S1","","html-keyboard-response","451","600312","0.0-1.0-623.0","0","0","54673","","null","","","null","69","","","","","","","","","","","","","","","",""
"","ISI","","html-keyboard-response","452","600468","0.0-1.0-624.0","0","0","54673","","null","","","null","69","NaN","","","","","","","","","","","","","","",""
"","S2","","html-keyboard-response","453","600737","0.0-1.0-625.0","0","0","54673","","null","","","null","69","","NaN","","","","","","","","","","","","","",""
"","response","","html-keyboard-response","454","601028","0.0-1.0-626.0-0.0","0","0","54673","","287","","","68","69","","","2","69","training","adjacent","AB","1","2","Q.jpg","O.jpg","0","1","0","",""
"","feedback","","html-keyboard-response","455","602033","0.0-1.0-627.0-0.0","0","0","54673","","null","","","null","69","","","","","","","","","","","","","","","",""
"","time_out","","html-keyboard-response","456","604038","0.0-1.0-629.0-0.0","0","0","54673","","null","","","null","69","","","","","","","","","","","","","","","",""
"","ITI","","html-keyboard-response","457","605042","0.0-1.0-630.0","0","0","54673","","null","","","null","69","","","","","","","","","","","","","","","NaN",""
"","S1","","html-keyboard-response","458","605297","0.0-1.0-632.0","0","0","54673","","null","","","null","70","","","","","","","","","","","","","","","",""
"","ISI","","html-keyboard-response","459","605452","0.0-1.0-633.0","0","0","54673","","null","","","null","70","NaN","","","","","","","","","","","","","","",""
"","S2","","html-keyboard-response","460","605655","0.0-1.0-634.0","0","0","54673","","197","","","75","70","","k","2","70","training","adjacent","ED","5","4","M.jpg","P.jpg","1","0","0","",""
"","feedback","","html-keyboard-response","461","606662","0.0-1.0-636.0-0.0","0","0","54673","","null","","","null","70","","","","","","","","","","","","","","","",""
"","time_out","","html-keyboard-response","462","608670","0.0-1.0-638.0-0.0","0","0","54673","","null","","","null","70","","","","","","","","","","","","","","","",""
"","ITI","","html-keyboard-response","463","609675","0.0-1.0-639.0","0","0","54673","","null","","","null","70","","","","","","","","","","","","","","","NaN",""
"","S1","","html-keyboard-response","464","609930","0.0-1.0-641.0","0","0","54673","","null","","","null","71","","","","","","","","","","","","","","","",""
"","ISI","","html-keyboard-response","465","610084","0.0-1.0-642.0","0","0","54673","","null","","","null","71","NaN","","","","","","","","","","","","","","",""
"","S2","","html-keyboard-response","466","610335","0.0-1.0-643.0","0","0","54673","","246","","","68","71","","d","2","71","training","adjacent","BA","2","1","O.jpg","Q.jpg","0","0","1","",""
"","feedback","","html-keyboard-response","467","611340","0.0-1.0-645.0-0.0","0","0","54673","","null","","","null","71","","","","","","","","","","","","","","","",""
"","ITI","","html-keyboard-response","468","612354","0.0-1.0-648.0","0","0","54673","","null","","","null","71","","","","","","","","","","","","","","","NaN",""
"","S1","","html-keyboard-response","469","612610","0.0-1.0-650.0","0","0","54673","","null","","","null","72","","","","","","","","","","","","","","","",""
"","ISI","","html-keyboard-response","470","612768","0.0-1.0-651.0","0","0","54673","","null","","","null","72","NaN","","","","","","","","","","","","","","",""
"","S2","","html-keyboard-response","471","613023","0.0-1.0-652.0","0","0","54673","","null","","","null","72","","NaN","","","","","","","","","","","","","",""
"","response","","html-keyboard-response","472","613264","0.0-1.0-653.0-0.0","0","0","54673","","237","","","75","72","","","2","72","training","adjacent","FG","6","7","N.jpg","L.jpg","1","1","1","",""
"","feedback","","html-keyboard-response","473","614267","0.0-1.0-654.0-0.0","0","0","54673","","null","","","null","72","","","","","","","","","","","","","","","",""
"","ITI","","html-keyboard-response","474","615271","0.0-1.0-657.0","0","0","54673","","null","","","null","72","","","","","","","","","","","","","","","NaN",""
"","S1","","html-keyboard-response","475","615525","0.0-1.0-659.0","0","0","54673","","null","","","null","73","","","","","","","","","","","","","","","",""
"","ISI","","html-keyboard-response","476","615678","0.0-1.0-660.0","0","0","54673","","null","","","null","73","NaN","","","","","","","","","","","","","","",""
"","S2","","html-keyboard-response","477","615932","0.0-1.0-661.0","0","0","54673","","null","","","null","73","","NaN","","","","","","","","","","","","","",""
"","response","","html-keyboard-response","478","616114","0.0-1.0-662.0-0.0","0","0","54673","","178","","","68","73","","","2","73","training","adjacent","ED","5","4","M.jpg","P.jpg","0","0","1","",""
"","feedback","","html-keyboard-response","479","617118","0.0-1.0-663.0-0.0","0","0","54673","","null","","","null","73","","","","","","","","","","","","","","","",""
"","ITI","","html-keyboard-response","480","618124","0.0-1.0-666.0","0","0","54673","","null","","","null","73","","","","","","","","","","","","","","","NaN",""
"","S1","","html-keyboard-response","481","618410","0.0-1.0-668.0","0","0","54673","","null","","","null","74","","","","","","","","","","","","","","","",""
"","ISI","","html-keyboard-response","482","618564","0.0-1.0-669.0","0","0","54673","","null","","","null","74","NaN","","","","","","","","","","","","","","",""
"","S2","","html-keyboard-response","483","618819","0.0-1.0-670.0","0","0","54673","","null","","","null","74","","NaN","","","","","","","","","","","","","",""
"","response","","html-keyboard-response","484","619196","0.0-1.0-671.0-0.0","0","0","54673","","375","","","68","74","","","2","74","training","adjacent","BC","2","3","O.jpg","R.jpg","0","1","0","",""
"","feedback","","html-keyboard-response","485","620208","0.0-1.0-672.0-0.0","0","0","54673","","null","","","null","74","","","","","","","","","","","","","","","",""
"","time_out","","html-keyboard-response","486","622214","0.0-1.0-674.0-0.0","0","0","54673","","null","","","null","74","","","","","","","","","","","","","","","",""
"","ITI","","html-keyboard-response","487","623229","0.0-1.0-675.0","0","0","54673","","null","","","null","74","","","","","","","","","","","","","","","NaN",""
"","S1","","html-keyboard-response","488","623487","0.0-1.0-677.0","0","0","54673","","null","","","null","75","","","","","","","","","","","","","","","",""
"","ISI","","html-keyboard-response","489","623641","0.0-1.0-678.0","0","0","54673","","null","","","null","75","NaN","","","","","","","","","","","","","","",""
"","S2","","html-keyboard-response","490","623894","0.0-1.0-679.0","0","0","54673","","null","","","null","75","","NaN","","","","","","","","","","","","","",""
"","response","","html-keyboard-response","491","624184","0.0-1.0-680.0-0.0","0","0","54673","","286","","","75","75","","","2","75","training","adjacent","CD","3","4","R.jpg","P.jpg","1","1","1","",""
"","feedback","","html-keyboard-response","492","625188","0.0-1.0-681.0-0.0","0","0","54673","","null","","","null","75","","","","","","","","","","","","","","","",""
"","ITI","","html-keyboard-response","493","626198","0.0-1.0-684.0","0","0","54673","","null","","","null","75","","","","","","","","","","","","","","","NaN",""
"","S1","","html-keyboard-response","494","626470","0.0-1.0-686.0","0","0","54673","","null","","","null","76","","","","","","","","","","","","","","","",""
"","ISI","","html-keyboard-response","495","626624","0.0-1.0-687.0","0","0","54673","","null","","","null","76","NaN","","","","","","","","","","","","","","",""
"","S2","","html-keyboard-response","496","626878","0.0-1.0-688.0","0","0","54673","","null","","","null","76","","NaN","","","","","","","","","","","","","",""
"","response","","html-keyboard-response","497","627383","0.0-1.0-689.0-0.0","0","0","54673","","501","","","75","76","","","2","76","training","adjacent","DC","4","3","P.jpg","R.jpg","1","0","0","",""
"","feedback","","html-keyboard-response","498","628389","0.0-1.0-690.0-0.0","0","0","54673","","null","","","null","76","","","","","","","","","","","","","","","",""
"","time_out","","html-keyboard-response","499","630397","0.0-1.0-692.0-0.0","0","0","54673","","null","","","null","76","","","","","","","","","","","","","","","",""
"","ITI","","html-keyboard-response","500","631402","0.0-1.0-693.0","0","0","54673","","null","","","null","76","","","","","","","","","","","","","","","NaN",""
"","S1","","html-keyboard-response","501","631658","0.0-1.0-695.0","0","0","54673","","null","","","null","77","","","","","","","","","","","","","","","",""
"","ISI","","html-keyboard-response","502","631813","0.0-1.0-696.0","0","0","54673","","null","","","null","77","NaN","","","","","","","","","","","","","","",""
"","S2","","html-keyboard-response","503","632070","0.0-1.0-697.0","0","0","54673","","null","","","null","77","","NaN","","","","","","","","","","","","","",""
"","response","","html-keyboard-response","504","632300","0.0-1.0-698.0-0.0","0","0","54673","","225","","","68","77","","","2","77","training","adjacent","DC","4","3","P.jpg","R.jpg","0","0","1","",""
"","feedback","","html-keyboard-response","505","633304","0.0-1.0-699.0-0.0","0","0","54673","","null","","","null","77","","","","","","","","","","","","","","","",""
"","ITI","","html-keyboard-response","506","634309","0.0-1.0-702.0","0","0","54673","","null","","","null","77","","","","","","","","","","","","","","","NaN",""
"","S1","","html-keyboard-response","507","634565","0.0-1.0-704.0","0","0","54673","","null","","","null","78","","","","","","","","","","","","","","","",""
"","ISI","","html-keyboard-response","508","634719","0.0-1.0-705.0","0","0","54673","","null","","","null","78","NaN","","","","","","","","","","","","","","",""
"","S2","","html-keyboard-response","509","634972","0.0-1.0-706.0","0","0","54673","","null","","","null","78","","NaN","","","","","","","","","","","","","",""
"","response","","html-keyboard-response","510","635555","0.0-1.0-707.0-0.0","0","0","54673","","578","","","68","78","","","2","78","training","adjacent","GF","7","6","L.jpg","N.jpg","0","0","1","",""
"","feedback","","html-keyboard-response","511","636559","0.0-1.0-708.0-0.0","0","0","54673","","null","","","null","78","","","","","","","","","","","","","","","",""
"","ITI","","html-keyboard-response","512","637563","0.0-1.0-711.0","0","0","54673","","null","","","null","78","","","","","","","","","","","","","","","NaN",""
"","S1","","html-keyboard-response","513","637818","0.0-1.0-713.0","0","0","54673","","null","","","null","79","","","","","","","","","","","","","","","",""
"","ISI","","html-keyboard-response","514","637972","0.0-1.0-714.0","0","0","54673","","null","","","null","79","NaN","","","","","","","","","","","","","","",""
"","S2","","html-keyboard-response","515","638227","0.0-1.0-715.0","0","0","54673","","null","","","null","79","","NaN","","","","","","","","","","","","","",""
"","response","","html-keyboard-response","516","638641","0.0-1.0-716.0-0.0","0","0","54673","","409","","","68","79","","","2","79","training","adjacent","GF","7","6","L.jpg","N.jpg","0","0","1","",""
"","feedback","","html-keyboard-response","517","639645","0.0-1.0-717.0-0.0","0","0","54673","","null","","","null","79","","","","","","","","","","","","","","","",""
"","ITI","","html-keyboard-response","518","640648","0.0-1.0-720.0","0","0","54673","","null","","","null","79","","","","","","","","","","","","","","","NaN",""
"","S1","","html-keyboard-response","519","640902","0.0-1.0-722.0","0","0","54673","","null","","","null","80","","","","","","","","","","","","","","","",""
"","ISI","","html-keyboard-response","520","641057","0.0-1.0-723.0","0","0","54673","","null","","","null","80","NaN","","","","","","","","","","","","","","",""
"","S2","","html-keyboard-response","521","641310","0.0-1.0-724.0","0","0","54673","","null","","","null","80","","NaN","","","","","","","","","","","","","",""
"","response","","html-keyboard-response","522","641685","0.0-1.0-725.0-0.0","0","0","54673","","371","","","68","80","","","2","80","training","adjacent","FG","6","7","N.jpg","L.jpg","0","1","0","",""
"","feedback","","html-keyboard-response","523","642690","0.0-1.0-726.0-0.0","0","0","54673","","null","","","null","80","","","","","","","","","","","","","","","",""
"","time_out","","html-keyboard-response","524","644695","0.0-1.0-728.0-0.0","0","0","54673","","null","","","null","80","","","","","","","","","","","","","","","",""
"","ITI","","html-keyboard-response","525","645701","0.0-1.0-729.0","0","0","54673","","null","","","null","80","","","","","","","","","","","","","","","NaN",""
"","S1","","html-keyboard-response","526","645955","0.0-1.0-731.0","0","0","54673","","null","","","null","81","","","","","","","","","","","","","","","",""
"","ISI","","html-keyboard-response","527","646108","0.0-1.0-732.0","0","0","54673","","null","","","null","81","NaN","","","","","","","","","","","","","","",""
"","S2","","html-keyboard-response","528","646362","0.0-1.0-733.0","0","0","54673","","null","","","null","81","","NaN","","","","","","","","","","","","","",""
"","response","","html-keyboard-response","529","646826","0.0-1.0-734.0-0.0","0","0","54673","","461","","","75","81","","","2","81","training","adjacent","CB","3","2","R.jpg","O.jpg","1","0","0","",""
"","feedback","","html-keyboard-response","530","647831","0.0-1.0-735.0-0.0","0","0","54673","","null","","","null","81","","","","","","","","","","","","","","","",""
"","time_out","","html-keyboard-response","531","649836","0.0-1.0-737.0-0.0","0","0","54673","","null","","","null","81","","","","","","","","","","","","","","","",""
"","ITI","","html-keyboard-response","532","650843","0.0-1.0-738.0","0","0","54673","","null","","","null","81","","","","","","","","","","","","","","","NaN",""
"","S1","","html-keyboard-response","533","651097","0.0-1.0-740.0","0","0","54673","","null","","","null","82","","","","","","","","","","","","","","","",""
"","ISI","","html-keyboard-response","534","651252","0.0-1.0-741.0","0","0","54673","","null","","","null","82","NaN","","","","","","","","","","","","","","",""
"","S2","","html-keyboard-response","535","651507","0.0-1.0-742.0","0","0","54673","","null","","","null","82","","NaN","","","","","","","","","","","","","",""
"","response","","html-keyboard-response","536","651949","0.0-1.0-743.0-0.0","0","0","54673","","439","","","68","82","","","2","82","training","adjacent","BA","2","1","O.jpg","Q.jpg","0","0","1","",""
"","feedback","","html-keyboard-response","537","652954","0.0-1.0-744.0-0.0","0","0","54673","","null","","","null","82","","","","","","","","","","","","","","","",""
"","ITI","","html-keyboard-response","538","653979","0.0-1.0-747.0","0","0","54673","","null","","","null","82","","","","","","","","","","","","","","","NaN",""
"","S1","","html-keyboard-response","539","654259","0.0-1.0-749.0","0","0","54673","","null","","","null","83","","","","","","","","","","","","","","","",""
"","ISI","","html-keyboard-response","540","654412","0.0-1.0-750.0","0","0","54673","","null","","","null","83","NaN","","","","","","","","","","","","","","",""
"","S2","","html-keyboard-response","541","654665","0.0-1.0-751.0","0","0","54673","","null","","","null","83","","NaN","","","","","","","","","","","","","",""
"","response","","html-keyboard-response","542","655142","0.0-1.0-752.0-0.0","0","0","54673","","473","","","68","83","","","2","83","training","adjacent","CD","3","4","R.jpg","P.jpg","0","1","0","",""
"","feedback","","html-keyboard-response","543","656147","0.0-1.0-753.0-0.0","0","0","54673","","null","","","null","83","","","","","","","","","","","","","","","",""
"","time_out","","html-keyboard-response","544","658153","0.0-1.0-755.0-0.0","0","0","54673","","null","","","null","83","","","","","","","","","","","","","","","",""
"","ITI","","html-keyboard-response","545","659159","0.0-1.0-756.0","0","0","54673","","null","","","null","83","","","","","","","","","","","","","","","NaN",""
"","S1","","html-keyboard-response","546","659414","0.0-1.0-758.0","0","0","54673","","null","","","null","84","","","","","","","","","","","","","","","",""
"","ISI","","html-keyboard-response","547","659568","0.0-1.0-759.0","0","0","54673","","null","","","null","84","NaN","","","","","","","","","","","","","","",""
"","S2","","html-keyboard-response","548","659823","0.0-1.0-760.0","0","0","54673","","null","","","null","84","","NaN","","","","","","","","","","","","","",""
"","response","","html-keyboard-response","549","660224","0.0-1.0-761.0-0.0","0","0","54673","","395","","","75","84","","","2","84","training","adjacent","FE","6","5","N.jpg","M.jpg","1","0","0","",""
"","feedback","","html-keyboard-response","550","661233","0.0-1.0-762.0-0.0","0","0","54673","","null","","","null","84","","","","","","","","","","","","","","","",""
"","time_out","","html-keyboard-response","551","663243","0.0-1.0-764.0-0.0","0","0","54673","","null","","","null","84","","","","","","","","","","","","","","","",""
"","ITI","","html-keyboard-response","552","664248","0.0-1.0-765.0","0","0","54673","","null","","","null","84","","","","","","","","","","","","","","","NaN",""
"","S1","","html-keyboard-response","553","664507","0.0-1.0-767.0","0","0","54673","","null","","","null","85","","","","","","","","","","","","","","","",""
"","ISI","","html-keyboard-response","554","664660","0.0-1.0-768.0","0","0","54673","","null","","","null","85","NaN","","","","","","","","","","","","","","",""
"","S2","","html-keyboard-response","555","664913","0.0-1.0-769.0","0","0","54673","","null","","","null","85","","NaN","","","","","","","","","","","","","",""
"","response","","html-keyboard-response","556","664916","0.0-1.0-770.0-0.0","0","0","54673","","0","","","75","85","","","2","85","training","adjacent","EF","5","6","M.jpg","N.jpg","1","1","1","",""
"","feedback","","html-keyboard-response","557","665958","0.0-1.0-771.0-0.0","0","0","54673","","null","","","null","85","","","","","","","","","","","","","","","",""
"","ITI","","html-keyboard-response","558","666991","0.0-1.0-774.0","0","0","54673","","null","","","null","85","","","","","","","","","","","","","","","NaN",""
"","S1","","html-keyboard-response","559","667245","0.0-1.0-776.0","0","0","54673","","null","","","null","86","","","","","","","","","","","","","","","",""
"","ISI","","html-keyboard-response","560","667398","0.0-1.0-777.0","0","0","54673","","null","","","null","86","NaN","","","","","","","","","","","","","","",""
"","S2","","html-keyboard-response","561","667652","0.0-1.0-778.0","0","0","54673","","null","","","null","86","","NaN","","","","","","","","","","","","","",""
"","response","","html-keyboard-response","562","667854","0.0-1.0-779.0-0.0","0","0","54673","","198","","","68","86","","","2","86","training","adjacent","DE","4","5","P.jpg","M.jpg","0","1","0","",""
"","feedback","","html-keyboard-response","563","668863","0.0-1.0-780.0-0.0","0","0","54673","","null","","","null","86","","","","","","","","","","","","","","","",""
"","time_out","","html-keyboard-response","564","670871","0.0-1.0-782.0-0.0","0","0","54673","","null","","","null","86","","","","","","","","","","","","","","","",""
"","ITI","","html-keyboard-response","565","671875","0.0-1.0-783.0","0","0","54673","","null","","","null","86","","","","","","","","","","","","","","","NaN",""
"","S1","","html-keyboard-response","566","672130","0.0-1.0-785.0","0","0","54673","","null","","","null","87","","","","","","","","","","","","","","","",""
"","ISI","","html-keyboard-response","567","672309","0.0-1.0-786.0","0","0","54673","","null","","","null","87","NaN","","","","","","","","","","","","","","",""
"","S2","","html-keyboard-response","568","672564","0.0-1.0-787.0","0","0","54673","","null","","","null","87","","NaN","","","","","","","","","","","","","",""
"","response","","html-keyboard-response","569","672671","0.0-1.0-788.0-0.0","0","0","54673","","104","","","68","87","","","2","87","training","adjacent","DC","4","3","P.jpg","R.jpg","0","0","1","",""
"","feedback","","html-keyboard-response","570","673676","0.0-1.0-789.0-0.0","0","0","54673","","null","","","null","87","","","","","","","","","","","","","","","",""
"","ITI","","html-keyboard-response","571","674682","0.0-1.0-792.0","0","0","54673","","null","","","null","87","","","","","","","","","","","","","","","NaN",""
"","S1","","html-keyboard-response","572","674938","0.0-1.0-794.0","0","0","54673","","null","","","null","88","","","","","","","","","","","","","","","",""
"","ISI","","html-keyboard-response","573","675095","0.0-1.0-795.0","0","0","54673","","null","","","null","88","NaN","","","","","","","","","","","","","","",""
"","S2","","html-keyboard-response","574","675350","0.0-1.0-796.0","0","0","54673","","null","","","null","88","","NaN","","","","","","","","","","","","","",""
"","response","","html-keyboard-response","575","675568","0.0-1.0-797.0-0.0","0","0","54673","","214","","","75","88","","","2","88","training","adjacent","GF","7","6","L.jpg","N.jpg","1","0","0","",""
"","feedback","","html-keyboard-response","576","676575","0.0-1.0-798.0-0.0","0","0","54673","","null","","","null","88","","","","","","","","","","","","","","","",""
"","time_out","","html-keyboard-response","577","678593","0.0-1.0-800.0-0.0","0","0","54673","","null","","","null","88","","","","","","","","","","","","","","","",""
