"success","ttype","start_time","trial_type","trial_index","time_elapsed","internal_node_id","warning","missed_checkup","PID","view_history","rt","responses","repeat_instructions","key_press","index","keypress_isi","keypress_S2","block","trial_num","phase","group_type","pair_type","S1_stim","S2_stim","S1_img","S2_img","S1_chosen","S1_higher","accuracy","keypress_iti","total_bonus_tally"
"true","full_screen","d08052022hr1225","fullscreen","0","11135","0.0-0.0","0","0","49985","","","","","","","","","","","","","","","","","","","","","",""
"","instructions","","instructions","1","34194","0.0-1.0-0.0-0.0","0","0","49985","[{""page_index"":0,""viewing_time"":4217},{""page_index"":1,""viewing_time"":3360},{""page_index"":2,""viewing_time"":14605},{""page_index"":3,""viewing_time"":874}]","23057","","","","","","","","","","","","","","","","","","","",""
"","comprehension_check","","survey-multi-choice","2","59612","0.0-1.0-0.0-1.0","0","0","49985","","25413","{""Q0"":""True"",""Q1"":""D"",""Q2"":""Once the second image appears and while the screen 'MAKE A CHOICE' is shown"",""Q3"":""Green mark"",""Q4"":""either D or K""}","1","","","","","","","","","","","","","","","","","",""
"","missed_instruction_checkup","","html-keyboard-response","3","62593","0.0-1.0-0.0-2.0-0.0","0","1","49985","","2978","","","32","","","","","","","","","","","","","","","","",""
"","instructions","","instructions","4","72704","0.0-1.0-0.1-0.1","0","0","49985","[{""page_index"":0,""viewing_time"":1611},{""page_index"":1,""viewing_time"":6962},{""page_index"":2,""viewing_time"":840},{""page_index"":3,""viewing_time"":696}]","10109","","","","","","","","","","","","","","","","","","","",""
"","comprehension_check","","survey-multi-choice","5","84639","0.0-1.0-0.1-1.1","0","0","49985","","11928","{""Q0"":""True"",""Q1"":""D"",""Q2"":""Only when the screen 'MAKE A CHOICE' is shown"",""Q3"":""Green mark"",""Q4"":""either D or K""}","1","","","","","","","","","","","","","","","","","",""
"","missed_instruction_checkup","","html-keyboard-response","6","86248","0.0-1.0-0.1-2.1-0.1","0","1","49985","","1607","","","32","","","","","","","","","","","","","","","","",""
"","instructions","","instructions","7","106034","0.0-1.0-0.2-0.2","0","0","49985","[{""page_index"":0,""viewing_time"":4251},{""page_index"":1,""viewing_time"":10523},{""page_index"":2,""viewing_time"":4297},{""page_index"":3,""viewing_time"":713}]","19784","","","","","","","","","","","","","","","","","","","",""
"","comprehension_check","","survey-multi-choice","8","116620","0.0-1.0-0.2-1.2","0","0","49985","","10580","{""Q0"":""True"",""Q1"":""D"",""Q2"":""Once the second image appears and while the screen 'MAKE A CHOICE' is shown"",""Q3"":""Green mark"",""Q4"":""either D or K""}","1","","","","","","","","","","","","","","","","","",""
"","missed_instruction_checkup","","html-keyboard-response","9","117863","0.0-1.0-0.2-2.2-0.2","0","1","49985","","1240","","","32","","","","","","","","","","","","","","","","",""
"","instructions","","instructions","10","151990","0.0-1.0-0.3-0.3","0","0","49985","[{""page_index"":0,""viewing_time"":10670},{""page_index"":1,""viewing_time"":12612},{""page_index"":2,""viewing_time"":9770},{""page_index"":3,""viewing_time"":1074}]","34126","","","","","","","","","","","","","","","","","","","",""
"","comprehension_check","","survey-multi-choice","11","179176","0.0-1.0-0.3-1.3","0","0","49985","","27177","{""Q0"":""True"",""Q1"":""D"",""Q2"":""Once the second image appears and while the screen 'MAKE A CHOICE' is shown"",""Q3"":""Green mark"",""Q4"":""either D or K""}","1","","","","","","","","","","","","","","","","","",""
"","missed_instruction_checkup","","html-keyboard-response","12","180060","0.0-1.0-0.3-2.3-0.3","0","1","49985","","882","","","32","","","","","","","","","","","","","","","","",""
"","instructions","","instructions","13","194455","0.0-1.0-0.4-0.4","0","0","49985","[{""page_index"":0,""viewing_time"":6366},{""page_index"":1,""viewing_time"":6386},{""page_index"":2,""viewing_time"":1102},{""page_index"":3,""viewing_time"":540}]","14394","","","","","","","","","","","","","","","","","","","",""
"","comprehension_check","","survey-multi-choice","14","209893","0.0-1.0-0.4-1.4","0","0","49985","","15432","{""Q0"":""False"",""Q1"":""D"",""Q2"":""Once the second image appears and while the screen 'MAKE A CHOICE' is shown"",""Q3"":""Green mark"",""Q4"":""either D or K""}","1","","","","","","","","","","","","","","","","","",""
"","missed_instruction_checkup","","html-keyboard-response","15","210708","0.0-1.0-0.4-2.4-0.4","0","1","49985","","813","","","32","","","","","","","","","","","","","","","","",""
"","instructions","","instructions","16","229456","0.0-1.0-0.5-0.5","0","0","49985","[{""page_index"":0,""viewing_time"":4976},{""page_index"":1,""viewing_time"":11984},{""page_index"":2,""viewing_time"":703},{""page_index"":3,""viewing_time"":1082}]","18746","","","","","","","","","","","","","","","","","","","",""
"","comprehension_check","","survey-multi-choice","17","242119","0.0-1.0-0.5-1.5","0","0","49985","","12655","{""Q0"":""True"",""Q1"":""K"",""Q2"":""Once the second image appears and while the screen 'MAKE A CHOICE' is shown"",""Q3"":""Green mark"",""Q4"":""either D or K""}","0","","","","","","","","","","","","","","","","","",""
"","start_exp","","html-keyboard-response","18","244347","0.0-1.0-1.0","0","0","49985","","2226","","","32","","","","","","","","","","","","","","","","",""
"","S1","","html-keyboard-response","19","244600","0.0-1.0-2.0","0","0","49985","","null","","","null","0","","","","","","","","","","","","","","","",""
"","ISI","","html-keyboard-response","20","246604","0.0-1.0-3.0","0","0","49985","","null","","","null","0","NaN","","","","","","","","","","","","","","",""
"","S2","","html-keyboard-response","21","246858","0.0-1.0-4.0","0","0","49985","","null","","","null","0","","NaN","","","","","","","","","","","","","",""
"","response","","html-keyboard-response","22","247690","0.0-1.0-5.0-0.0","0","0","49985","","830","","","75","0","","","1","0","training","adjacent","FG","6","7","N.jpg","P.jpg","1","1","1","",""
"","feedback","","html-keyboard-response","23","248695","0.0-1.0-6.0-0.0","0","0","49985","","null","","","null","0","","","","","","","","","","","","","","","",""
"","ITI","","html-keyboard-response","24","249702","0.0-1.0-9.0","0","0","49985","","null","","","null","0","","","","","","","","","","","","","","","NaN",""
"","S1","","html-keyboard-response","25","249958","0.0-1.0-11.0","0","0","49985","","null","","","null","1","","","","","","","","","","","","","","","",""
"","ISI","","html-keyboard-response","26","251960","0.0-1.0-12.0","0","0","49985","","null","","","null","1","NaN","","","","","","","","","","","","","","",""
"","S2","","html-keyboard-response","27","252215","0.0-1.0-13.0","0","0","49985","","null","","","null","1","","NaN","","","","","","","","","","","","","",""
"","response","","html-keyboard-response","28","252417","0.0-1.0-14.0-0.0","0","0","49985","","200","","","75","1","","","1","1","training","adjacent","FE","6","5","N.jpg","M.jpg","1","0","0","",""
"","feedback","","html-keyboard-response","29","253423","0.0-1.0-15.0-0.0","0","0","49985","","null","","","null","1","","","","","","","","","","","","","","","",""
"","time_out","","html-keyboard-response","30","255425","0.0-1.0-17.0-0.0","0","0","49985","","null","","","null","1","","","","","","","","","","","","","","","",""
"","ITI","","html-keyboard-response","31","256430","0.0-1.0-18.0","0","0","49985","","null","","","null","1","","","","","","","","","","","","","","","NaN",""
"","S1","","html-keyboard-response","32","256685","0.0-1.0-20.0","0","0","49985","","null","","","null","2","","","","","","","","","","","","","","","",""
"","ISI","","html-keyboard-response","33","258690","0.0-1.0-21.0","0","0","49985","","null","","","null","2","NaN","","","","","","","","","","","","","","",""
"","S2","","html-keyboard-response","34","258944","0.0-1.0-22.0","0","0","49985","","null","","","null","2","","NaN","","","","","","","","","","","","","",""
"","response","","html-keyboard-response","35","259611","0.0-1.0-23.0-0.0","0","0","49985","","666","","","75","2","","","1","2","training","adjacent","GF","7","6","P.jpg","N.jpg","1","0","0","",""
"","feedback","","html-keyboard-response","36","260615","0.0-1.0-24.0-0.0","0","0","49985","","null","","","null","2","","","","","","","","","","","","","","","",""
"","time_out","","html-keyboard-response","37","262618","0.0-1.0-26.0-0.0","0","0","49985","","null","","","null","2","","","","","","","","","","","","","","","",""
"","ITI","","html-keyboard-response","38","263622","0.0-1.0-27.0","0","0","49985","","null","","","null","2","","","","","","","","","","","","","","","NaN",""
"","S1","","html-keyboard-response","39","263877","0.0-1.0-29.0","0","0","49985","","null","","","null","3","","","","","","","","","","","","","","","",""
"","ISI","","html-keyboard-response","40","265884","0.0-1.0-30.0","0","0","49985","","null","","","null","3","NaN","","","","","","","","","","","","","","",""
"","S2","","html-keyboard-response","41","266139","0.0-1.0-31.0","0","0","49985","","null","","","null","3","","NaN","","","","","","","","","","","","","",""
"","response","","html-keyboard-response","42","266891","0.0-1.0-32.0-0.0","0","0","49985","","749","","","75","3","","","1","3","training","adjacent","CD","3","4","O.jpg","Q.jpg","1","1","1","",""
"","feedback","","html-keyboard-response","43","267894","0.0-1.0-33.0-0.0","0","0","49985","","null","","","null","3","","","","","","","","","","","","","","","",""
"","ITI","","html-keyboard-response","44","268899","0.0-1.0-36.0","0","0","49985","","null","","","null","3","","","","","","","","","","","","","","","NaN",""
"","S1","","html-keyboard-response","45","269154","0.0-1.0-38.0","0","0","49985","","null","","","null","4","","","","","","","","","","","","","","","",""
"","ISI","","html-keyboard-response","46","271156","0.0-1.0-39.0","0","0","49985","","null","","","null","4","NaN","","","","","","","","","","","","","","",""
"","S2","","html-keyboard-response","47","271412","0.0-1.0-40.0","0","0","49985","","null","","","null","4","","NaN","","","","","","","","","","","","","",""
"","response","","html-keyboard-response","48","272178","0.0-1.0-41.0-0.0","0","0","49985","","763","","","68","4","","","1","4","training","adjacent","GF","7","6","P.jpg","N.jpg","0","0","1","",""
"","feedback","","html-keyboard-response","49","273183","0.0-1.0-42.0-0.0","0","0","49985","","null","","","null","4","","","","","","","","","","","","","","","",""
"","ITI","","html-keyboard-response","50","274187","0.0-1.0-45.0","0","0","49985","","null","","","null","4","","","","","","","","","","","","","","","NaN",""
"","S1","","html-keyboard-response","51","274442","0.0-1.0-47.0","0","0","49985","","null","","","null","5","","","","","","","","","","","","","","","",""
"","ISI","","html-keyboard-response","52","276444","0.0-1.0-48.0","0","0","49985","","null","","","null","5","NaN","","","","","","","","","","","","","","",""
"","S2","","html-keyboard-response","53","276700","0.0-1.0-49.0","0","0","49985","","null","","","null","5","","NaN","","","","","","","","","","","","","",""
"","response","","html-keyboard-response","54","277618","0.0-1.0-50.0-0.0","0","0","49985","","917","","","75","5","","","1","5","training","adjacent","CB","3","2","O.jpg","R.jpg","1","0","0","",""
"","feedback","","html-keyboard-response","55","278622","0.0-1.0-51.0-0.0","0","0","49985","","null","","","null","5","","","","","","","","","","","","","","","",""
"","time_out","","html-keyboard-response","56","280625","0.0-1.0-53.0-0.0","0","0","49985","","null","","","null","5","","","","","","","","","","","","","","","",""
"","ITI","","html-keyboard-response","57","281629","0.0-1.0-54.0","0","0","49985","","null","","","null","5","","","","","","","","","","","","","","","NaN",""
"","S1","","html-keyboard-response","58","281884","0.0-1.0-56.0","0","0","49985","","null","","","null","6","","","","","","","","","","","","","","","",""
"","ISI","","html-keyboard-response","59","283887","0.0-1.0-57.0","0","0","49985","","null","","","null","6","NaN","","","","","","","","","","","","","","",""
"","S2","","html-keyboard-response","60","284143","0.0-1.0-58.0","0","0","49985","","null","","","null","6","","NaN","","","","","","","","","","","","","",""
"","response","","html-keyboard-response","61","284201","0.0-1.0-59.0-0.0","0","0","49985","","58","","","68","6","","","1","6","training","adjacent","BA","2","1","R.jpg","L.jpg","0","0","1","",""
"","feedback","","html-keyboard-response","62","285204","0.0-1.0-60.0-0.0","0","0","49985","","null","","","null","6","","","","","","","","","","","","","","","",""
"","ITI","","html-keyboard-response","63","286210","0.0-1.0-63.0","0","0","49985","","null","","","null","6","","","","","","","","","","","","","","","NaN",""
"","S1","","html-keyboard-response","64","286463","0.0-1.0-65.0","0","0","49985","","null","","","null","7","","","","","","","","","","","","","","","",""
"","ISI","","html-keyboard-response","65","288466","0.0-1.0-66.0","0","0","49985","","null","","","null","7","NaN","","","","","","","","","","","","","","",""
"","S2","","html-keyboard-response","66","288722","0.0-1.0-67.0","0","0","49985","","null","","","null","7","","NaN","","","","","","","","","","","","","",""
"","response","","html-keyboard-response","67","289530","0.0-1.0-68.0-0.0","0","0","49985","","806","","","68","7","","","1","7","training","adjacent","CB","3","2","O.jpg","R.jpg","0","0","1","",""
"","feedback","","html-keyboard-response","68","290533","0.0-1.0-69.0-0.0","0","0","49985","","null","","","null","7","","","","","","","","","","","","","","","",""
"","ITI","","html-keyboard-response","69","291538","0.0-1.0-72.0","0","0","49985","","null","","","null","7","","","","","","","","","","","","","","","NaN",""
"","S1","","html-keyboard-response","70","291793","0.0-1.0-74.0","0","0","49985","","null","","","null","8","","","","","","","","","","","","","","","",""
"","ISI","","html-keyboard-response","71","293796","0.0-1.0-75.0","0","0","49985","","null","","","null","8","NaN","","","","","","","","","","","","","","",""
"","S2","","html-keyboard-response","72","294050","0.0-1.0-76.0","0","0","49985","","null","","","null","8","","NaN","","","","","","","","","","","","","",""
"","response","","html-keyboard-response","73","294448","0.0-1.0-77.0-0.0","0","0","49985","","397","","","75","8","","","1","8","training","adjacent","EF","5","6","M.jpg","N.jpg","1","1","1","",""
"","feedback","","html-keyboard-response","74","295452","0.0-1.0-78.0-0.0","0","0","49985","","null","","","null","8","","","","","","","","","","","","","","","",""
"","ITI","","html-keyboard-response","75","296454","0.0-1.0-81.0","0","0","49985","","null","","","null","8","","","","","","","","","","","","","","","NaN",""
"","S1","","html-keyboard-response","76","296709","0.0-1.0-83.0","0","0","49985","","null","","","null","9","","","","","","","","","","","","","","","",""
"","ISI","","html-keyboard-response","77","298712","0.0-1.0-84.0","0","0","49985","","null","","","null","9","NaN","","","","","","","","","","","","","","",""
"","S2","","html-keyboard-response","78","298969","0.0-1.0-85.0","0","0","49985","","null","","","null","9","","NaN","","","","","","","","","","","","","",""
"","response","","html-keyboard-response","79","299050","0.0-1.0-86.0-0.0","0","0","49985","","79","","","68","9","","","1","9","training","adjacent","FG","6","7","N.jpg","P.jpg","0","1","0","",""
"","feedback","","html-keyboard-response","80","300053","0.0-1.0-87.0-0.0","0","0","49985","","null","","","null","9","","","","","","","","","","","","","","","",""
"","time_out","","html-keyboard-response","81","302056","0.0-1.0-89.0-0.0","0","0","49985","","null","","","null","9","","","","","","","","","","","","","","","",""
"","ITI","","html-keyboard-response","82","303060","0.0-1.0-90.0","0","0","49985","","null","","","null","9","","","","","","","","","","","","","","","NaN",""
"","S1","","html-keyboard-response","83","303315","0.0-1.0-92.0","0","0","49985","","null","","","null","10","","","","","","","","","","","","","","","",""
"","ISI","","html-keyboard-response","84","305318","0.0-1.0-93.0","0","0","49985","","null","","","null","10","NaN","","","","","","","","","","","","","","",""
"","S2","","html-keyboard-response","85","305575","0.0-1.0-94.0","0","0","49985","","null","","","null","10","","NaN","","","","","","","","","","","","","",""
"","response","","html-keyboard-response","86","306065","0.0-1.0-95.0-0.0","0","0","49985","","488","","","75","10","","","1","10","training","adjacent","DE","4","5","Q.jpg","M.jpg","1","1","1","",""
"","feedback","","html-keyboard-response","87","307071","0.0-1.0-96.0-0.0","0","0","49985","","null","","","null","10","","","","","","","","","","","","","","","",""
"","ITI","","html-keyboard-response","88","308075","0.0-1.0-99.0","0","0","49985","","null","","","null","10","","","","","","","","","","","","","","","NaN",""
"","S1","","html-keyboard-response","89","308331","0.0-1.0-101.0","0","0","49985","","null","","","null","11","","","","","","","","","","","","","","","",""
"","ISI","","html-keyboard-response","90","310333","0.0-1.0-102.0","0","0","49985","","null","","","null","11","NaN","","","","","","","","","","","","","","",""
"","S2","","html-keyboard-response","91","310588","0.0-1.0-103.0","0","0","49985","","null","","","null","11","","NaN","","","","","","","","","","","","","",""
"","response","","html-keyboard-response","92","311185","0.0-1.0-104.0-0.0","0","0","49985","","595","","","75","11","","","1","11","training","adjacent","CB","3","2","O.jpg","R.jpg","1","0","0","",""
"","feedback","","html-keyboard-response","93","312191","0.0-1.0-105.0-0.0","0","0","49985","","null","","","null","11","","","","","","","","","","","","","","","",""
"","time_out","","html-keyboard-response","94","314194","0.0-1.0-107.0-0.0","0","0","49985","","null","","","null","11","","","","","","","","","","","","","","","",""
"","ITI","","html-keyboard-response","95","315198","0.0-1.0-108.0","0","0","49985","","null","","","null","11","","","","","","","","","","","","","","","NaN",""
"","S1","","html-keyboard-response","96","315453","0.0-1.0-110.0","0","0","49985","","null","","","null","12","","","","","","","","","","","","","","","",""
"","ISI","","html-keyboard-response","97","317456","0.0-1.0-111.0","0","0","49985","","null","","","null","12","NaN","","","","","","","","","","","","","","",""
"","S2","","html-keyboard-response","98","317711","0.0-1.0-112.0","0","0","49985","","null","","","null","12","","NaN","","","","","","","","","","","","","",""
"","response","","html-keyboard-response","99","318065","0.0-1.0-113.0-0.0","0","0","49985","","352","","","75","12","","","1","12","training","adjacent","GF","7","6","P.jpg","N.jpg","1","0","0","",""
"","feedback","","html-keyboard-response","100","319070","0.0-1.0-114.0-0.0","0","0","49985","","null","","","null","12","","","","","","","","","","","","","","","",""
"","time_out","","html-keyboard-response","101","321074","0.0-1.0-116.0-0.0","0","0","49985","","null","","","null","12","","","","","","","","","","","","","","","",""
"","ITI","","html-keyboard-response","102","322076","0.0-1.0-117.0","0","0","49985","","null","","","null","12","","","","","","","","","","","","","","","NaN",""
"","S1","","html-keyboard-response","103","322332","0.0-1.0-119.0","0","0","49985","","null","","","null","13","","","","","","","","","","","","","","","",""
"","ISI","","html-keyboard-response","104","324335","0.0-1.0-120.0","0","0","49985","","null","","","null","13","NaN","","","","","","","","","","","","","","",""
"","S2","","html-keyboard-response","105","324590","0.0-1.0-121.0","0","0","49985","","null","","","null","13","","NaN","","","","","","","","","","","","","",""
"","response","","html-keyboard-response","106","324600","0.0-1.0-122.0-0.0","0","0","49985","","9","","","68","13","","","1","13","training","adjacent","CD","3","4","O.jpg","Q.jpg","0","1","0","",""
"","feedback","","html-keyboard-response","107","325606","0.0-1.0-123.0-0.0","0","0","49985","","null","","","null","13","","","","","","","","","","","","","","","",""
"","time_out","","html-keyboard-response","108","327612","0.0-1.0-125.0-0.0","0","0","49985","","null","","","null","13","","","","","","","","","","","","","","","",""
"","ITI","","html-keyboard-response","109","328619","0.0-1.0-126.0","0","0","49985","","null","","","null","13","","","","","","","","","","","","","","","NaN",""
"","S1","","html-keyboard-response","110","328875","0.0-1.0-128.0","0","0","49985","","null","","","null","14","","","","","","","","","","","","","","","",""
"","ISI","","html-keyboard-response","111","330881","0.0-1.0-129.0","0","0","49985","","null","","","null","14","NaN","","","","","","","","","","","","","","",""
"","S2","","html-keyboard-response","112","331138","0.0-1.0-130.0","0","0","49985","","null","","","null","14","","NaN","","","","","","","","","","","","","",""
"","response","","html-keyboard-response","113","331632","0.0-1.0-131.0-0.0","0","0","49985","","493","","","75","14","","","1","14","training","adjacent","BA","2","1","R.jpg","L.jpg","1","0","0","",""
"","feedback","","html-keyboard-response","114","332636","0.0-1.0-132.0-0.0","0","0","49985","","null","","","null","14","","","","","","","","","","","","","","","",""
"","time_out","","html-keyboard-response","115","334641","0.0-1.0-134.0-0.0","0","0","49985","","null","","","null","14","","","","","","","","","","","","","","","",""
"","ITI","","html-keyboard-response","116","335648","0.0-1.0-135.0","0","0","49985","","null","","","null","14","","","","","","","","","","","","","","","NaN",""
"","S1","","html-keyboard-response","117","335904","0.0-1.0-137.0","0","0","49985","","null","","","null","15","","","","","","","","","","","","","","","",""
"","ISI","","html-keyboard-response","118","337906","0.0-1.0-138.0","0","0","49985","","null","","","null","15","NaN","","","","","","","","","","","","","","",""
"","S2","","html-keyboard-response","119","338162","0.0-1.0-139.0","0","0","49985","","null","","","null","15","","NaN","","","","","","","","","","","","","",""
"","response","","html-keyboard-response","120","338712","0.0-1.0-140.0-0.0","0","0","49985","","549","","","68","15","","","1","15","training","adjacent","EF","5","6","M.jpg","N.jpg","0","1","0","",""
"","feedback","","html-keyboard-response","121","339717","0.0-1.0-141.0-0.0","0","0","49985","","null","","","null","15","","","","","","","","","","","","","","","",""
"","time_out","","html-keyboard-response","122","341720","0.0-1.0-143.0-0.0","0","0","49985","","null","","","null","15","","","","","","","","","","","","","","","",""
"","ITI","","html-keyboard-response","123","342724","0.0-1.0-144.0","0","0","49985","","null","","","null","15","","","","","","","","","","","","","","","NaN",""
"","S1","","html-keyboard-response","124","342980","0.0-1.0-146.0","0","0","49985","","null","","","null","16","","","","","","","","","","","","","","","",""
"","ISI","","html-keyboard-response","125","344982","0.0-1.0-147.0","0","0","49985","","null","","","null","16","NaN","","","","","","","","","","","","","","",""
"","S2","","html-keyboard-response","126","345238","0.0-1.0-148.0","0","0","49985","","null","","","null","16","","NaN","","","","","","","","","","","","","",""
"","response","","html-keyboard-response","127","345247","0.0-1.0-149.0-0.0","0","0","49985","","7","","","68","16","","","1","16","training","adjacent","BC","2","3","R.jpg","O.jpg","0","1","0","",""
"","feedback","","html-keyboard-response","128","346253","0.0-1.0-150.0-0.0","0","0","49985","","null","","","null","16","","","","","","","","","","","","","","","",""
"","time_out","","html-keyboard-response","129","348257","0.0-1.0-152.0-0.0","0","0","49985","","null","","","null","16","","","","","","","","","","","","","","","",""
"","ITI","","html-keyboard-response","130","349261","0.0-1.0-153.0","0","0","49985","","null","","","null","16","","","","","","","","","","","","","","","NaN",""
"","S1","","html-keyboard-response","131","349516","0.0-1.0-155.0","0","0","49985","","null","","","null","17","","","","","","","","","","","","","","","",""
"","ISI","","html-keyboard-response","132","351519","0.0-1.0-156.0","0","0","49985","","null","","","null","17","NaN","","","","","","","","","","","","","","",""
"","S2","","html-keyboard-response","133","351774","0.0-1.0-157.0","0","0","49985","","null","","","null","17","","NaN","","","","","","","","","","","","","",""
"","response","","html-keyboard-response","134","351783","0.0-1.0-158.0-0.0","0","0","49985","","7","","","75","17","","","1","17","training","adjacent","CB","3","2","O.jpg","R.jpg","1","0","0","",""
"","feedback","","html-keyboard-response","135","352788","0.0-1.0-159.0-0.0","0","0","49985","","null","","","null","17","","","","","","","","","","","","","","","",""
"","time_out","","html-keyboard-response","136","354792","0.0-1.0-161.0-0.0","0","0","49985","","null","","","null","17","","","","","","","","","","","","","","","",""
"","ITI","","html-keyboard-response","137","355797","0.0-1.0-162.0","0","0","49985","","null","","","null","17","","","","","","","","","","","","","","","NaN",""
"","S1","","html-keyboard-response","138","356052","0.0-1.0-164.0","0","0","49985","","null","","","null","18","","","","","","","","","","","","","","","",""
"","ISI","","html-keyboard-response","139","358055","0.0-1.0-165.0","0","0","49985","","null","","","null","18","NaN","","","","","","","","","","","","","","",""
"","S2","","html-keyboard-response","140","358310","0.0-1.0-166.0","0","0","49985","","null","","","null","18","","NaN","","","","","","","","","","","","","",""
"","response","","html-keyboard-response","141","358399","0.0-1.0-167.0-0.0","0","0","49985","","87","","","68","18","","","1","18","training","adjacent","FG","6","7","N.jpg","P.jpg","0","1","0","",""
"","feedback","","html-keyboard-response","142","359401","0.0-1.0-168.0-0.0","0","0","49985","","null","","","null","18","","","","","","","","","","","","","","","",""
"","time_out","","html-keyboard-response","143","361404","0.0-1.0-170.0-0.0","0","0","49985","","null","","","null","18","","","","","","","","","","","","","","","",""
"","ITI","","html-keyboard-response","144","362410","0.0-1.0-171.0","0","0","49985","","null","","","null","18","","","","","","","","","","","","","","","NaN",""
"","S1","","html-keyboard-response","145","362664","0.0-1.0-173.0","0","0","49985","","null","","","null","19","","","","","","","","","","","","","","","",""
"","ISI","","html-keyboard-response","146","364667","0.0-1.0-174.0","0","0","49985","","null","","","null","19","NaN","","","","","","","","","","","","","","",""
"","S2","","html-keyboard-response","147","364922","0.0-1.0-175.0","0","0","49985","","null","","","null","19","","NaN","","","","","","","","","","","","","",""
"","response","","html-keyboard-response","148","365408","0.0-1.0-176.0-0.0","0","0","49985","","484","","","75","19","","","1","19","training","adjacent","BC","2","3","R.jpg","O.jpg","1","1","1","",""
"","feedback","","html-keyboard-response","149","366414","0.0-1.0-177.0-0.0","0","0","49985","","null","","","null","19","","","","","","","","","","","","","","","",""
"","ITI","","html-keyboard-response","150","367418","0.0-1.0-180.0","0","0","49985","","null","","","null","19","","","","","","","","","","","","","","","NaN",""
"","S1","","html-keyboard-response","151","367674","0.0-1.0-182.0","0","0","49985","","null","","","null","20","","","","","","","","","","","","","","","",""
"","ISI","","html-keyboard-response","152","369676","0.0-1.0-183.0","0","0","49985","","null","","","null","20","NaN","","","","","","","","","","","","","","",""
"","S2","","html-keyboard-response","153","369932","0.0-1.0-184.0","0","0","49985","","null","","","null","20","","NaN","","","","","","","","","","","","","",""
"","response","","html-keyboard-response","154","371376","0.0-1.0-185.0-0.0","0","0","49985","","1442","","","75","20","","","1","20","training","adjacent","DE","4","5","Q.jpg","M.jpg","1","1","1","",""
"","feedback","","html-keyboard-response","155","372381","0.0-1.0-186.0-0.0","0","0","49985","","null","","","null","20","","","","","","","","","","","","","","","",""
"","ITI","","html-keyboard-response","156","373386","0.0-1.0-189.0","0","0","49985","","null","","","null","20","","","","","","","","","","","","","","","NaN",""
"","S1","","html-keyboard-response","157","373641","0.0-1.0-191.0","0","0","49985","","null","","","null","21","","","","","","","","","","","","","","","",""
"","ISI","","html-keyboard-response","158","375644","0.0-1.0-192.0","0","0","49985","","null","","","null","21","NaN","","","","","","","","","","","","","","",""
"","S2","","html-keyboard-response","159","375899","0.0-1.0-193.0","0","0","49985","","null","","","null","21","","NaN","","","","","","","","","","","","","",""
"","response","","html-keyboard-response","160","376455","0.0-1.0-194.0-0.0","0","0","49985","","555","","","75","21","","","1","21","training","adjacent","FE","6","5","N.jpg","M.jpg","1","0","0","",""
"","feedback","","html-keyboard-response","161","377461","0.0-1.0-195.0-0.0","0","0","49985","","null","","","null","21","","","","","","","","","","","","","","","",""
"","time_out","","html-keyboard-response","162","379466","0.0-1.0-197.0-0.0","0","0","49985","","null","","","null","21","","","","","","","","","","","","","","","",""
"","ITI","","html-keyboard-response","163","380472","0.0-1.0-198.0","0","0","49985","","null","","","null","21","","","","","","","","","","","","","","","NaN",""
"","S1","","html-keyboard-response","164","380729","0.0-1.0-200.0","0","0","49985","","null","","","null","22","","","","","","","","","","","","","","","",""
"","ISI","","html-keyboard-response","165","382731","0.0-1.0-201.0","0","0","49985","","null","","","null","22","NaN","","","","","","","","","","","","","","",""
"","S2","","html-keyboard-response","166","382987","0.0-1.0-202.0","0","0","49985","","null","","","null","22","","NaN","","","","","","","","","","","","","",""
"","response","","html-keyboard-response","167","383015","0.0-1.0-203.0-0.0","0","0","49985","","26","","","68","22","","","1","22","training","adjacent","BC","2","3","R.jpg","O.jpg","0","1","0","",""
"","feedback","","html-keyboard-response","168","384020","0.0-1.0-204.0-0.0","0","0","49985","","null","","","null","22","","","","","","","","","","","","","","","",""
"","time_out","","html-keyboard-response","169","386023","0.0-1.0-206.0-0.0","0","0","49985","","null","","","null","22","","","","","","","","","","","","","","","",""
"","ITI","","html-keyboard-response","170","387027","0.0-1.0-207.0","0","0","49985","","null","","","null","22","","","","","","","","","","","","","","","NaN",""
"","S1","","html-keyboard-response","171","387282","0.0-1.0-209.0","0","0","49985","","null","","","null","23","","","","","","","","","","","","","","","",""
"","ISI","","html-keyboard-response","172","389285","0.0-1.0-210.0","0","0","49985","","null","","","null","23","NaN","","","","","","","","","","","","","","",""
"","S2","","html-keyboard-response","173","389540","0.0-1.0-211.0","0","0","49985","","null","","","null","23","","NaN","","","","","","","","","","","","","",""
"","response","","html-keyboard-response","174","390519","0.0-1.0-212.0-0.0","0","0","49985","","977","","","68","23","","","1","23","training","adjacent","FG","6","7","N.jpg","P.jpg","0","1","0","",""
"","feedback","","html-keyboard-response","175","391525","0.0-1.0-213.0-0.0","0","0","49985","","null","","","null","23","","","","","","","","","","","","","","","",""
"","time_out","","html-keyboard-response","176","393532","0.0-1.0-215.0-0.0","0","0","49985","","null","","","null","23","","","","","","","","","","","","","","","",""
"","ITI","","html-keyboard-response","177","394539","0.0-1.0-216.0","0","0","49985","","121","","","68","23","","","","","","","","","","","","","","","d",""
"","S1","","html-keyboard-response","178","394794","0.0-1.0-218.0","0","0","49985","","null","","","null","24","","","","","","","","","","","","","","","",""
"","ISI","","html-keyboard-response","179","396797","0.0-1.0-219.0","0","0","49985","","null","","","null","24","NaN","","","","","","","","","","","","","","",""
"","S2","","html-keyboard-response","180","397052","0.0-1.0-220.0","0","0","49985","","null","","","null","24","","NaN","","","","","","","","","","","","","",""
"","response","","html-keyboard-response","181","397335","0.0-1.0-221.0-0.0","0","0","49985","","281","","","68","24","","","1","24","training","adjacent","AB","1","2","L.jpg","R.jpg","0","1","0","",""
"","feedback","","html-keyboard-response","182","398341","0.0-1.0-222.0-0.0","0","0","49985","","null","","","null","24","","","","","","","","","","","","","","","",""
"","time_out","","html-keyboard-response","183","400343","0.0-1.0-224.0-0.0","0","0","49985","","null","","","null","24","","","","","","","","","","","","","","","",""
"","ITI","","html-keyboard-response","184","401347","0.0-1.0-225.0","0","0","49985","","null","","","null","24","","","","","","","","","","","","","","","NaN",""
"","S1","","html-keyboard-response","185","401602","0.0-1.0-227.0","0","0","49985","","null","","","null","25","","","","","","","","","","","","","","","",""
"","ISI","","html-keyboard-response","186","403605","0.0-1.0-228.0","0","0","49985","","null","","","null","25","NaN","","","","","","","","","","","","","","",""
"","S2","","html-keyboard-response","187","403861","0.0-1.0-229.0","0","0","49985","","null","","","null","25","","NaN","","","","","","","","","","","","","",""
"","response","","html-keyboard-response","188","404239","0.0-1.0-230.0-0.0","0","0","49985","","376","","","75","25","","","1","25","training","adjacent","DE","4","5","Q.jpg","M.jpg","1","1","1","",""
"","feedback","","html-keyboard-response","189","405243","0.0-1.0-231.0-0.0","0","0","49985","","null","","","null","25","","","","","","","","","","","","","","","",""
"","ITI","","html-keyboard-response","190","406247","0.0-1.0-234.0","0","0","49985","","null","","","null","25","","","","","","","","","","","","","","","NaN",""
"","S1","","html-keyboard-response","191","406502","0.0-1.0-236.0","0","0","49985","","null","","","null","26","","","","","","","","","","","","","","","",""
"","ISI","","html-keyboard-response","192","408504","0.0-1.0-237.0","0","0","49985","","null","","","null","26","NaN","","","","","","","","","","","","","","",""
"","S2","","html-keyboard-response","193","408760","0.0-1.0-238.0","0","0","49985","","null","","","null","26","","NaN","","","","","","","","","","","","","",""
"","response","","html-keyboard-response","194","410214","0.0-1.0-239.0-0.0","0","0","49985","","1452","","","68","26","","","1","26","training","adjacent","EF","5","6","M.jpg","N.jpg","0","1","0","",""
"","feedback","","html-keyboard-response","195","411217","0.0-1.0-240.0-0.0","0","0","49985","","null","","","null","26","","","","","","","","","","","","","","","",""
"","time_out","","html-keyboard-response","196","413224","0.0-1.0-242.0-0.0","0","0","49985","","null","","","null","26","","","","","","","","","","","","","","","",""
"","ITI","","html-keyboard-response","197","414229","0.0-1.0-243.0","0","0","49985","","null","","","null","26","","","","","","","","","","","","","","","NaN",""
"","S1","","html-keyboard-response","198","414483","0.0-1.0-245.0","0","0","49985","","null","","","null","27","","","","","","","","","","","","","","","",""
"","ISI","","html-keyboard-response","199","416486","0.0-1.0-246.0","0","0","49985","","null","","","null","27","NaN","","","","","","","","","","","","","","",""
"","S2","","html-keyboard-response","200","416742","0.0-1.0-247.0","0","0","49985","","null","","","null","27","","NaN","","","","","","","","","","","","","",""
"","response","","html-keyboard-response","201","416902","0.0-1.0-248.0-0.0","0","0","49985","","158","","","75","27","","","1","27","training","adjacent","ED","5","4","M.jpg","Q.jpg","1","0","0","",""
"","feedback","","html-keyboard-response","202","417908","0.0-1.0-249.0-0.0","0","0","49985","","null","","","null","27","","","","","","","","","","","","","","","",""
"","time_out","","html-keyboard-response","203","419911","0.0-1.0-251.0-0.0","0","0","49985","","null","","","null","27","","","","","","","","","","","","","","","",""
"","ITI","","html-keyboard-response","204","420916","0.0-1.0-252.0","0","0","49985","","null","","","null","27","","","","","","","","","","","","","","","NaN",""
"","S1","","html-keyboard-response","205","421171","0.0-1.0-254.0","0","0","49985","","null","","","null","28","","","","","","","","","","","","","","","",""
"","ISI","","html-keyboard-response","206","423174","0.0-1.0-255.0","0","0","49985","","null","","","null","28","NaN","","","","","","","","","","","","","","",""
"","S2","","html-keyboard-response","207","423429","0.0-1.0-256.0","0","0","49985","","null","","","null","28","","NaN","","","","","","","","","","","","","",""
"","response","","html-keyboard-response","208","423566","0.0-1.0-257.0-0.0","0","0","49985","","135","","","68","28","","","1","28","training","adjacent","DE","4","5","Q.jpg","M.jpg","0","1","0","",""
"","feedback","","html-keyboard-response","209","424573","0.0-1.0-258.0-0.0","0","0","49985","","null","","","null","28","","","","","","","","","","","","","","","",""
"","time_out","","html-keyboard-response","210","426575","0.0-1.0-260.0-0.0","0","0","49985","","null","","","null","28","","","","","","","","","","","","","","","",""
"","ITI","","html-keyboard-response","211","427579","0.0-1.0-261.0","0","0","49985","","null","","","null","28","","","","","","","","","","","","","","","NaN",""
"","S1","","html-keyboard-response","212","427834","0.0-1.0-263.0","0","0","49985","","null","","","null","29","","","","","","","","","","","","","","","",""
"","ISI","","html-keyboard-response","213","429837","0.0-1.0-264.0","0","0","49985","","null","","","null","29","NaN","","","","","","","","","","","","","","",""
"","S2","","html-keyboard-response","214","430093","0.0-1.0-265.0","0","0","49985","","null","","","null","29","","NaN","","","","","","","","","","","","","",""
"","response","","html-keyboard-response","215","430526","0.0-1.0-266.0-0.0","0","0","49985","","432","","","75","29","","","1","29","training","adjacent","ED","5","4","M.jpg","Q.jpg","1","0","0","",""
"","feedback","","html-keyboard-response","216","431532","0.0-1.0-267.0-0.0","0","0","49985","","null","","","null","29","","","","","","","","","","","","","","","",""
"","time_out","","html-keyboard-response","217","433535","0.0-1.0-269.0-0.0","0","0","49985","","null","","","null","29","","","","","","","","","","","","","","","",""
"","ITI","","html-keyboard-response","218","434539","0.0-1.0-270.0","0","0","49985","","null","","","null","29","","","","","","","","","","","","","","","NaN",""
"","S1","","html-keyboard-response","219","434795","0.0-1.0-272.0","0","0","49985","","null","","","null","30","","","","","","","","","","","","","","","",""
"","ISI","","html-keyboard-response","220","436797","0.0-1.0-273.0","0","0","49985","","null","","","null","30","NaN","","","","","","","","","","","","","","",""
"","S2","","html-keyboard-response","221","437053","0.0-1.0-274.0","0","0","49985","","null","","","null","30","","NaN","","","","","","","","","","","","","",""
"","response","","html-keyboard-response","222","437798","0.0-1.0-275.0-0.0","0","0","49985","","742","","","68","30","","","1","30","training","adjacent","ED","5","4","M.jpg","Q.jpg","0","0","1","",""
"","feedback","","html-keyboard-response","223","438800","0.0-1.0-276.0-0.0","0","0","49985","","null","","","null","30","","","","","","","","","","","","","","","",""
"","ITI","","html-keyboard-response","224","439804","0.0-1.0-279.0","0","0","49985","","null","","","null","30","","","","","","","","","","","","","","","NaN",""
"","S1","","html-keyboard-response","225","440060","0.0-1.0-281.0","0","0","49985","","null","","","null","31","","","","","","","","","","","","","","","",""
"","ISI","","html-keyboard-response","226","442062","0.0-1.0-282.0","0","0","49985","","null","","","null","31","NaN","","","","","","","","","","","","","","",""
"","S2","","html-keyboard-response","227","442318","0.0-1.0-283.0","0","0","49985","","null","","","null","31","","NaN","","","","","","","","","","","","","",""
"","response","","html-keyboard-response","228","443630","0.0-1.0-284.0-0.0","0","0","49985","","1310","","","68","31","","","1","31","training","adjacent","CD","3","4","O.jpg","Q.jpg","0","1","0","",""
"","feedback","","html-keyboard-response","229","444634","0.0-1.0-285.0-0.0","0","0","49985","","null","","","null","31","","","","","","","","","","","","","","","",""
"","time_out","","html-keyboard-response","230","446637","0.0-1.0-287.0-0.0","0","0","49985","","null","","","null","31","","","","","","","","","","","","","","","",""
"","ITI","","html-keyboard-response","231","447641","0.0-1.0-288.0","0","0","49985","","null","","","null","31","","","","","","","","","","","","","","","NaN",""
"","S1","","html-keyboard-response","232","447896","0.0-1.0-290.0","0","0","49985","","null","","","null","32","","","","","","","","","","","","","","","",""
"","ISI","","html-keyboard-response","233","449899","0.0-1.0-291.0","0","0","49985","","null","","","null","32","NaN","","","","","","","","","","","","","","",""
"","S2","","html-keyboard-response","234","450155","0.0-1.0-292.0","0","0","49985","","null","","","null","32","","NaN","","","","","","","","","","","","","",""
"","response","","html-keyboard-response","235","450413","0.0-1.0-293.0-0.0","0","0","49985","","257","","","75","32","","","1","32","training","adjacent","AB","1","2","L.jpg","R.jpg","1","1","1","",""
"","feedback","","html-keyboard-response","236","451419","0.0-1.0-294.0-0.0","0","0","49985","","null","","","null","32","","","","","","","","","","","","","","","",""
"","ITI","","html-keyboard-response","237","452424","0.0-1.0-297.0","0","0","49985","","null","","","null","32","","","","","","","","","","","","","","","NaN",""
"","S1","","html-keyboard-response","238","452679","0.0-1.0-299.0","0","0","49985","","null","","","null","33","","","","","","","","","","","","","","","",""
"","ISI","","html-keyboard-response","239","454682","0.0-1.0-300.0","0","0","49985","","null","","","null","33","NaN","","","","","","","","","","","","","","",""
"","S2","","html-keyboard-response","240","454938","0.0-1.0-301.0","0","0","49985","","null","","","null","33","","NaN","","","","","","","","","","","","","",""
"","response","","html-keyboard-response","241","455221","0.0-1.0-302.0-0.0","0","0","49985","","282","","","68","33","","","1","33","training","adjacent","DC","4","3","Q.jpg","O.jpg","0","0","1","",""
"","feedback","","html-keyboard-response","242","456226","0.0-1.0-303.0-0.0","0","0","49985","","null","","","null","33","","","","","","","","","","","","","","","",""
"","ITI","","html-keyboard-response","243","457230","0.0-1.0-306.0","0","0","49985","","null","","","null","33","","","","","","","","","","","","","","","NaN",""
"","S1","","html-keyboard-response","244","457486","0.0-1.0-308.0","0","0","49985","","null","","","null","34","","","","","","","","","","","","","","","",""
"","ISI","","html-keyboard-response","245","459488","0.0-1.0-309.0","0","0","49985","","null","","","null","34","NaN","","","","","","","","","","","","","","",""
"","S2","","html-keyboard-response","246","459744","0.0-1.0-310.0","0","0","49985","","null","","","null","34","","NaN","","","","","","","","","","","","","",""
"","response","","html-keyboard-response","247","461397","0.0-1.0-311.0-0.0","0","0","49985","","1651","","","75","34","","","1","34","training","adjacent","FE","6","5","N.jpg","M.jpg","1","0","0","",""
"","feedback","","html-keyboard-response","248","462403","0.0-1.0-312.0-0.0","0","0","49985","","null","","","null","34","","","","","","","","","","","","","","","",""
"","time_out","","html-keyboard-response","249","464405","0.0-1.0-314.0-0.0","0","0","49985","","null","","","null","34","","","","","","","","","","","","","","","",""
"","ITI","","html-keyboard-response","250","465409","0.0-1.0-315.0","0","0","49985","","null","","","null","34","","","","","","","","","","","","","","","NaN",""
"","S1","","html-keyboard-response","251","465664","0.0-1.0-317.0","0","0","49985","","null","","","null","35","","","","","","","","","","","","","","","",""
"","ISI","","html-keyboard-response","252","467671","0.0-1.0-318.0","0","0","49985","","null","","","null","35","NaN","","","","","","","","","","","","","","",""
"","S2","","html-keyboard-response","253","467926","0.0-1.0-319.0","0","0","49985","","null","","","null","35","","NaN","","","","","","","","","","","","","",""
"","response","","html-keyboard-response","254","468285","0.0-1.0-320.0-0.0","0","0","49985","","357","","","75","35","","","1","35","training","adjacent","BA","2","1","R.jpg","L.jpg","1","0","0","",""
"","feedback","","html-keyboard-response","255","469288","0.0-1.0-321.0-0.0","0","0","49985","","null","","","null","35","","","","","","","","","","","","","","","",""
"","time_out","","html-keyboard-response","256","471295","0.0-1.0-323.0-0.0","0","0","49985","","null","","","null","35","","","","","","","","","","","","","","","",""
"","ITI","","html-keyboard-response","257","472299","0.0-1.0-324.0","0","0","49985","","null","","","null","35","","","","","","","","","","","","","","","NaN",""
"","S1","","html-keyboard-response","258","472555","0.0-1.0-326.0","0","0","49985","","null","","","null","36","","","","","","","","","","","","","","","",""
"","ISI","","html-keyboard-response","259","474558","0.0-1.0-327.0","0","0","49985","","null","","","null","36","NaN","","","","","","","","","","","","","","",""
"","S2","","html-keyboard-response","260","474813","0.0-1.0-328.0","0","0","49985","","null","","","null","36","","NaN","","","","","","","","","","","","","",""
"","response","","html-keyboard-response","261","475717","0.0-1.0-329.0-0.0","0","0","49985","","901","","","68","36","","","1","36","training","adjacent","BC","2","3","R.jpg","O.jpg","0","1","0","",""
"","feedback","","html-keyboard-response","262","476723","0.0-1.0-330.0-0.0","0","0","49985","","null","","","null","36","","","","","","","","","","","","","","","",""
"","time_out","","html-keyboard-response","263","478725","0.0-1.0-332.0-0.0","0","0","49985","","null","","","null","36","","","","","","","","","","","","","","","",""
"","ITI","","html-keyboard-response","264","479730","0.0-1.0-333.0","0","0","49985","","null","","","null","36","","","","","","","","","","","","","","","NaN",""
"","S1","","html-keyboard-response","265","479985","0.0-1.0-335.0","0","0","49985","","null","","","null","37","","","","","","","","","","","","","","","",""
"","ISI","","html-keyboard-response","266","481988","0.0-1.0-336.0","0","0","49985","","null","","","null","37","NaN","","","","","","","","","","","","","","",""
"","S2","","html-keyboard-response","267","482243","0.0-1.0-337.0","0","0","49985","","null","","","null","37","","NaN","","","","","","","","","","","","","",""
"","response","","html-keyboard-response","268","482300","0.0-1.0-338.0-0.0","0","0","49985","","55","","","75","37","","","1","37","training","adjacent","AB","1","2","L.jpg","R.jpg","1","1","1","",""
"","feedback","","html-keyboard-response","269","483306","0.0-1.0-339.0-0.0","0","0","49985","","null","","","null","37","","","","","","","","","","","","","","","",""
"","ITI","","html-keyboard-response","270","484309","0.0-1.0-342.0","0","0","49985","","null","","","null","37","","","","","","","","","","","","","","","NaN",""
"","S1","","html-keyboard-response","271","484565","0.0-1.0-344.0","0","0","49985","","null","","","null","38","","","","","","","","","","","","","","","",""
"","ISI","","html-keyboard-response","272","486568","0.0-1.0-345.0","0","0","49985","","null","","","null","38","NaN","","","","","","","","","","","","","","",""
"","S2","","html-keyboard-response","273","486823","0.0-1.0-346.0","0","0","49985","","null","","","null","38","","NaN","","","","","","","","","","","","","",""
"","response","","html-keyboard-response","274","486956","0.0-1.0-347.0-0.0","0","0","49985","","131","","","68","38","","","1","38","training","adjacent","BA","2","1","R.jpg","L.jpg","0","0","1","",""
"","feedback","","html-keyboard-response","275","487961","0.0-1.0-348.0-0.0","0","0","49985","","null","","","null","38","","","","","","","","","","","","","","","",""
"","ITI","","html-keyboard-response","276","488965","0.0-1.0-351.0","0","0","49985","","null","","","null","38","","","","","","","","","","","","","","","NaN",""
"","S1","","html-keyboard-response","277","489221","0.0-1.0-353.0","0","0","49985","","null","","","null","39","","","","","","","","","","","","","","","",""
"","ISI","","html-keyboard-response","278","491223","0.0-1.0-354.0","0","0","49985","","null","","","null","39","NaN","","","","","","","","","","","","","","",""
"","S2","","html-keyboard-response","279","491479","0.0-1.0-355.0","0","0","49985","","null","","","null","39","","NaN","","","","","","","","","","","","","",""
"","response","","html-keyboard-response","280","491676","0.0-1.0-356.0-0.0","0","0","49985","","195","","","68","39","","","1","39","training","adjacent","DC","4","3","Q.jpg","O.jpg","0","0","1","",""
"","feedback","","html-keyboard-response","281","492679","0.0-1.0-357.0-0.0","0","0","49985","","null","","","null","39","","","","","","","","","","","","","","","",""
"","ITI","","html-keyboard-response","282","493685","0.0-1.0-360.0","0","0","49985","","null","","","null","39","","","","","","","","","","","","","","","NaN",""
"","S1","","html-keyboard-response","283","493940","0.0-1.0-362.0","0","0","49985","","null","","","null","40","","","","","","","","","","","","","","","",""
"","ISI","","html-keyboard-response","284","495943","0.0-1.0-363.0","0","0","49985","","null","","","null","40","NaN","","","","","","","","","","","","","","",""
"","S2","","html-keyboard-response","285","496198","0.0-1.0-364.0","0","0","49985","","null","","","null","40","","NaN","","","","","","","","","","","","","",""
"","response","","html-keyboard-response","286","496236","0.0-1.0-365.0-0.0","0","0","49985","","36","","","75","40","","","1","40","training","adjacent","AB","1","2","L.jpg","R.jpg","1","1","1","",""
"","feedback","","html-keyboard-response","287","497242","0.0-1.0-366.0-0.0","0","0","49985","","null","","","null","40","","","","","","","","","","","","","","","",""
"","ITI","","html-keyboard-response","288","498247","0.0-1.0-369.0","0","0","49985","","null","","","null","40","","","","","","","","","","","","","","","NaN",""
"","S1","","html-keyboard-response","289","498503","0.0-1.0-371.0","0","0","49985","","null","","","null","41","","","","","","","","","","","","","","","",""
"","ISI","","html-keyboard-response","290","500506","0.0-1.0-372.0","0","0","49985","","null","","","null","41","NaN","","","","","","","","","","","","","","",""
"","S2","","html-keyboard-response","291","500761","0.0-1.0-373.0","0","0","49985","","null","","","null","41","","NaN","","","","","","","","","","","","","",""
"","response","","html-keyboard-response","292","500812","0.0-1.0-374.0-0.0","0","0","49985","","48","","","68","41","","","1","41","training","adjacent","DC","4","3","Q.jpg","O.jpg","0","0","1","",""
"","feedback","","html-keyboard-response","293","501817","0.0-1.0-375.0-0.0","0","0","49985","","null","","","null","41","","","","","","","","","","","","","","","",""
"","ITI","","html-keyboard-response","294","502822","0.0-1.0-378.0","0","0","49985","","null","","","null","41","","","","","","","","","","","","","","","NaN",""
"","S1","","html-keyboard-response","295","503076","0.0-1.0-380.0","0","0","49985","","null","","","null","42","","","","","","","","","","","","","","","",""
"","ISI","","html-keyboard-response","296","505079","0.0-1.0-381.0","0","0","49985","","null","","","null","42","NaN","","","","","","","","","","","","","","",""
"","S2","","html-keyboard-response","297","505335","0.0-1.0-382.0","0","0","49985","","null","","","null","42","","NaN","","","","","","","","","","","","","",""
"","response","","html-keyboard-response","298","505692","0.0-1.0-383.0-0.0","0","0","49985","","355","","","75","42","","","1","42","training","adjacent","GF","7","6","P.jpg","N.jpg","1","0","0","",""
"","feedback","","html-keyboard-response","299","506694","0.0-1.0-384.0-0.0","0","0","49985","","null","","","null","42","","","","","","","","","","","","","","","",""
"","time_out","","html-keyboard-response","300","508696","0.0-1.0-386.0-0.0","0","0","49985","","null","","","null","42","","","","","","","","","","","","","","","",""
"","ITI","","html-keyboard-response","301","509700","0.0-1.0-387.0","0","0","49985","","null","","","null","42","","","","","","","","","","","","","","","NaN",""
"","S1","","html-keyboard-response","302","509955","0.0-1.0-389.0","0","0","49985","","null","","","null","43","","","","","","","","","","","","","","","",""
"","ISI","","html-keyboard-response","303","511958","0.0-1.0-390.0","0","0","49985","","null","","","null","43","NaN","","","","","","","","","","","","","","",""
"","S2","","html-keyboard-response","304","512213","0.0-1.0-391.0","0","0","49985","","null","","","null","43","","NaN","","","","","","","","","","","","","",""
"","response","","html-keyboard-response","305","513457","0.0-1.0-392.0-0.0","0","0","49985","","1242","","","68","43","","","1","43","training","adjacent","ED","5","4","M.jpg","Q.jpg","0","0","1","",""
"","feedback","","html-keyboard-response","306","514460","0.0-1.0-393.0-0.0","0","0","49985","","null","","","null","43","","","","","","","","","","","","","","","",""
"","ITI","","html-keyboard-response","307","515464","0.0-1.0-396.0","0","0","49985","","null","","","null","43","","","","","","","","","","","","","","","NaN",""
"","S1","","html-keyboard-response","308","515720","0.0-1.0-398.0","0","0","49985","","null","","","null","44","","","","","","","","","","","","","","","",""
"","ISI","","html-keyboard-response","309","517722","0.0-1.0-399.0","0","0","49985","","null","","","null","44","NaN","","","","","","","","","","","","","","",""
"","S2","","html-keyboard-response","310","517978","0.0-1.0-400.0","0","0","49985","","null","","","null","44","","NaN","","","","","","","","","","","","","",""
"","response","","html-keyboard-response","311","518803","0.0-1.0-401.0-0.0","0","0","49985","","824","","","68","44","","","1","44","training","adjacent","FE","6","5","N.jpg","M.jpg","0","0","1","",""
"","feedback","","html-keyboard-response","312","519806","0.0-1.0-402.0-0.0","0","0","49985","","null","","","null","44","","","","","","","","","","","","","","","",""
"","ITI","","html-keyboard-response","313","520810","0.0-1.0-405.0","0","0","49985","","null","","","null","44","","","","","","","","","","","","","","","NaN",""
"","S1","","html-keyboard-response","314","521065","0.0-1.0-407.0","0","0","49985","","null","","","null","45","","","","","","","","","","","","","","","",""
"","ISI","","html-keyboard-response","315","523069","0.0-1.0-408.0","0","0","49985","","null","","","null","45","NaN","","","","","","","","","","","","","","",""
"","S2","","html-keyboard-response","316","523324","0.0-1.0-409.0","0","0","49985","","null","","","null","45","","NaN","","","","","","","","","","","","","",""
"","response","","html-keyboard-response","317","523379","0.0-1.0-410.0-0.0","0","0","49985","","54","","","75","45","","","1","45","training","adjacent","DC","4","3","Q.jpg","O.jpg","1","0","0","",""
"","feedback","","html-keyboard-response","318","524386","0.0-1.0-411.0-0.0","0","0","49985","","null","","","null","45","","","","","","","","","","","","","","","",""
"","time_out","","html-keyboard-response","319","526389","0.0-1.0-413.0-0.0","0","0","49985","","null","","","null","45","","","","","","","","","","","","","","","",""
"","ITI","","html-keyboard-response","320","527393","0.0-1.0-414.0","0","0","49985","","null","","","null","45","","","","","","","","","","","","","","","NaN",""
"","S1","","html-keyboard-response","321","527648","0.0-1.0-416.0","0","0","49985","","null","","","null","46","","","","","","","","","","","","","","","",""
"","ISI","","html-keyboard-response","322","529651","0.0-1.0-417.0","0","0","49985","","null","","","null","46","NaN","","","","","","","","","","","","","","",""
"","S2","","html-keyboard-response","323","529907","0.0-1.0-418.0","0","0","49985","","null","","","null","46","","NaN","","","","","","","","","","","","","",""
"","response","","html-keyboard-response","324","530427","0.0-1.0-419.0-0.0","0","0","49985","","519","","","75","46","","","1","46","training","adjacent","EF","5","6","M.jpg","N.jpg","1","1","1","",""
"","feedback","","html-keyboard-response","325","531433","0.0-1.0-420.0-0.0","0","0","49985","","null","","","null","46","","","","","","","","","","","","","","","",""
"","ITI","","html-keyboard-response","326","532438","0.0-1.0-423.0","0","0","49985","","null","","","null","46","","","","","","","","","","","","","","","NaN",""
"","S1","","html-keyboard-response","327","532693","0.0-1.0-425.0","0","0","49985","","null","","","null","47","","","","","","","","","","","","","","","",""
"","ISI","","html-keyboard-response","328","534695","0.0-1.0-426.0","0","0","49985","","null","","","null","47","NaN","","","","","","","","","","","","","","",""
"","S2","","html-keyboard-response","329","534951","0.0-1.0-427.0","0","0","49985","","null","","","null","47","","NaN","","","","","","","","","","","","","",""
"","response","","html-keyboard-response","330","535227","0.0-1.0-428.0-0.0","0","0","49985","","275","","","75","47","","","1","47","training","adjacent","CD","3","4","O.jpg","Q.jpg","1","1","1","",""
"","feedback","","html-keyboard-response","331","536233","0.0-1.0-429.0-0.0","0","0","49985","","null","","","null","47","","","","","","","","","","","","","","","",""
"","ITI","","html-keyboard-response","332","537238","0.0-1.0-432.0","0","0","49985","","null","","","null","47","","","","","","","","","","","","","","","NaN",""
"","block_over","","html-keyboard-response","333","569810","0.0-1.0-433.0-0.0","0","0","49985","","32569","","","32","47","","","","","","","","","","","","","","","",""
"","S1","","html-keyboard-response","334","570065","0.0-1.0-434.0","0","0","49985","","null","","","null","48","","","","","","","","","","","","","","","",""
"","ISI","","html-keyboard-response","335","572066","0.0-1.0-435.0","0","0","49985","","null","","","null","48","NaN","","","","","","","","","","","","","","",""
"","S2","","html-keyboard-response","336","572322","0.0-1.0-436.0","0","0","49985","","null","","","null","48","","NaN","","","","","","","","","","","","","",""
"","response","","html-keyboard-response","337","572801","0.0-1.0-437.0-0.0","0","0","49985","","478","","","68","48","","","2","48","training","adjacent","EF","5","6","M.jpg","N.jpg","0","1","0","",""
"","feedback","","html-keyboard-response","338","573808","0.0-1.0-438.0-0.0","0","0","49985","","null","","","null","48","","","","","","","","","","","","","","","",""
"","time_out","","html-keyboard-response","339","575811","0.0-1.0-440.0-0.0","0","0","49985","","null","","","null","48","","","","","","","","","","","","","","","",""
"","ITI","","html-keyboard-response","340","576816","0.0-1.0-441.0","0","0","49985","","null","","","null","48","","","","","","","","","","","","","","","NaN",""
"","S1","","html-keyboard-response","341","577071","0.0-1.0-443.0","0","0","49985","","null","","","null","49","","","","","","","","","","","","","","","",""
"","ISI","","html-keyboard-response","342","579073","0.0-1.0-444.0","0","0","49985","","null","","","null","49","NaN","","","","","","","","","","","","","","",""
"","S2","","html-keyboard-response","343","579329","0.0-1.0-445.0","0","0","49985","","null","","","null","49","","NaN","","","","","","","","","","","","","",""
"","response","","html-keyboard-response","344","579618","0.0-1.0-446.0-0.0","0","0","49985","","287","","","75","49","","","2","49","training","adjacent","GF","7","6","P.jpg","N.jpg","1","0","0","",""
"","feedback","","html-keyboard-response","345","580623","0.0-1.0-447.0-0.0","0","0","49985","","null","","","null","49","","","","","","","","","","","","","","","",""
"","time_out","","html-keyboard-response","346","582626","0.0-1.0-449.0-0.0","0","0","49985","","null","","","null","49","","","","","","","","","","","","","","","",""
"","ITI","","html-keyboard-response","347","583630","0.0-1.0-450.0","0","0","49985","","null","","","null","49","","","","","","","","","","","","","","","NaN",""
"","S1","","html-keyboard-response","348","583886","0.0-1.0-452.0","0","0","49985","","null","","","null","50","","","","","","","","","","","","","","","",""
"","ISI","","html-keyboard-response","349","585888","0.0-1.0-453.0","0","0","49985","","null","","","null","50","NaN","","","","","","","","","","","","","","",""
"","S2","","html-keyboard-response","350","586144","0.0-1.0-454.0","0","0","49985","","null","","","null","50","","NaN","","","","","","","","","","","","","",""
"","response","","html-keyboard-response","351","586353","0.0-1.0-455.0-0.0","0","0","49985","","207","","","75","50","","","2","50","training","adjacent","AB","1","2","L.jpg","R.jpg","1","1","1","",""
"","feedback","","html-keyboard-response","352","587357","0.0-1.0-456.0-0.0","0","0","49985","","null","","","null","50","","","","","","","","","","","","","","","",""
"","ITI","","html-keyboard-response","353","588361","0.0-1.0-459.0","0","0","49985","","null","","","null","50","","","","","","","","","","","","","","","NaN",""
"","S1","","html-keyboard-response","354","588616","0.0-1.0-461.0","0","0","49985","","null","","","null","51","","","","","","","","","","","","","","","",""
"","ISI","","html-keyboard-response","355","590619","0.0-1.0-462.0","0","0","49985","","null","","","null","51","NaN","","","","","","","","","","","","","","",""
"","S2","","html-keyboard-response","356","590874","0.0-1.0-463.0","0","0","49985","","null","","","null","51","","NaN","","","","","","","","","","","","","",""
"","response","","html-keyboard-response","357","591193","0.0-1.0-464.0-0.0","0","0","49985","","317","","","68","51","","","2","51","training","adjacent","ED","5","4","M.jpg","Q.jpg","0","0","1","",""
"","feedback","","html-keyboard-response","358","592198","0.0-1.0-465.0-0.0","0","0","49985","","null","","","null","51","","","","","","","","","","","","","","","",""
"","ITI","","html-keyboard-response","359","593202","0.0-1.0-468.0","0","0","49985","","null","","","null","51","","","","","","","","","","","","","","","NaN",""
"","S1","","html-keyboard-response","360","593457","0.0-1.0-470.0","0","0","49985","","null","","","null","52","","","","","","","","","","","","","","","",""
"","ISI","","html-keyboard-response","361","595460","0.0-1.0-471.0","0","0","49985","","null","","","null","52","NaN","","","","","","","","","","","","","","",""
"","S2","","html-keyboard-response","362","595715","0.0-1.0-472.0","0","0","49985","","null","","","null","52","","NaN","","","","","","","","","","","","","",""
"","response","","html-keyboard-response","363","595831","0.0-1.0-473.0-0.0","0","0","49985","","114","","","75","52","","","2","52","training","adjacent","GF","7","6","P.jpg","N.jpg","1","0","0","",""
"","feedback","","html-keyboard-response","364","596836","0.0-1.0-474.0-0.0","0","0","49985","","null","","","null","52","","","","","","","","","","","","","","","",""
"","time_out","","html-keyboard-response","365","598839","0.0-1.0-476.0-0.0","0","0","49985","","null","","","null","52","","","","","","","","","","","","","","","",""
"","ITI","","html-keyboard-response","366","599843","0.0-1.0-477.0","0","0","49985","","null","","","null","52","","","","","","","","","","","","","","","NaN",""
"","S1","","html-keyboard-response","367","600099","0.0-1.0-479.0","0","0","49985","","null","","","null","53","","","","","","","","","","","","","","","",""
"","ISI","","html-keyboard-response","368","602101","0.0-1.0-480.0","0","0","49985","","null","","","null","53","NaN","","","","","","","","","","","","","","",""
"","S2","","html-keyboard-response","369","602357","0.0-1.0-481.0","0","0","49985","","null","","","null","53","","NaN","","","","","","","","","","","","","",""
"","response","","html-keyboard-response","370","602520","0.0-1.0-482.0-0.0","0","0","49985","","162","","","75","53","","","2","53","training","adjacent","DC","4","3","Q.jpg","O.jpg","1","0","0","",""
"","feedback","","html-keyboard-response","371","603523","0.0-1.0-483.0-0.0","0","0","49985","","null","","","null","53","","","","","","","","","","","","","","","",""
"","time_out","","html-keyboard-response","372","605525","0.0-1.0-485.0-0.0","0","0","49985","","null","","","null","53","","","","","","","","","","","","","","","",""
"","ITI","","html-keyboard-response","373","606530","0.0-1.0-486.0","0","0","49985","","null","","","null","53","","","","","","","","","","","","","","","NaN",""
"","S1","","html-keyboard-response","374","606786","0.0-1.0-488.0","0","0","49985","","null","","","null","54","","","","","","","","","","","","","","","",""
"","ISI","","html-keyboard-response","375","608788","0.0-1.0-489.0","0","0","49985","","null","","","null","54","NaN","","","","","","","","","","","","","","",""
"","S2","","html-keyboard-response","376","609043","0.0-1.0-490.0","0","0","49985","","null","","","null","54","","NaN","","","","","","","","","","","","","",""
"","response","","html-keyboard-response","377","609193","0.0-1.0-491.0-0.0","0","0","49985","","147","","","75","54","","","2","54","training","adjacent","FE","6","5","N.jpg","M.jpg","1","0","0","",""
"","feedback","","html-keyboard-response","378","610199","0.0-1.0-492.0-0.0","0","0","49985","","null","","","null","54","","","","","","","","","","","","","","","",""
"","time_out","","html-keyboard-response","379","612202","0.0-1.0-494.0-0.0","0","0","49985","","null","","","null","54","","","","","","","","","","","","","","","",""
"","ITI","","html-keyboard-response","380","613206","0.0-1.0-495.0","0","0","49985","","null","","","null","54","","","","","","","","","","","","","","","NaN",""
"","S1","","html-keyboard-response","381","613461","0.0-1.0-497.0","0","0","49985","","null","","","null","55","","","","","","","","","","","","","","","",""
"","ISI","","html-keyboard-response","382","615464","0.0-1.0-498.0","0","0","49985","","null","","","null","55","NaN","","","","","","","","","","","","","","",""
"","S2","","html-keyboard-response","383","615719","0.0-1.0-499.0","0","0","49985","","null","","","null","55","","NaN","","","","","","","","","","","","","",""
"","response","","html-keyboard-response","384","615832","0.0-1.0-500.0-0.0","0","0","49985","","111","","","75","55","","","2","55","training","adjacent","GF","7","6","P.jpg","N.jpg","1","0","0","",""
"","feedback","","html-keyboard-response","385","616840","0.0-1.0-501.0-0.0","0","0","49985","","null","","","null","55","","","","","","","","","","","","","","","",""
"","time_out","","html-keyboard-response","386","618843","0.0-1.0-503.0-0.0","0","0","49985","","null","","","null","55","","","","","","","","","","","","","","","",""
"","ITI","","html-keyboard-response","387","619847","0.0-1.0-504.0","0","0","49985","","null","","","null","55","","","","","","","","","","","","","","","NaN",""
"","S1","","html-keyboard-response","388","620102","0.0-1.0-506.0","0","0","49985","","null","","","null","56","","","","","","","","","","","","","","","",""
"","ISI","","html-keyboard-response","389","622107","0.0-1.0-507.0","0","0","49985","","null","","","null","56","NaN","","","","","","","","","","","","","","",""
"","S2","","html-keyboard-response","390","622360","0.0-1.0-508.0","0","0","49985","","null","","","null","56","","NaN","","","","","","","","","","","","","",""
"","response","","html-keyboard-response","391","622768","0.0-1.0-509.0-0.0","0","0","49985","","406","","","68","56","","","2","56","training","adjacent","BC","2","3","R.jpg","O.jpg","0","1","0","",""
"","feedback","","html-keyboard-response","392","623774","0.0-1.0-510.0-0.0","0","0","49985","","null","","","null","56","","","","","","","","","","","","","","","",""
"","time_out","","html-keyboard-response","393","625779","0.0-1.0-512.0-0.0","0","0","49985","","null","","","null","56","","","","","","","","","","","","","","","",""
"","ITI","","html-keyboard-response","394","626784","0.0-1.0-513.0","0","0","49985","","null","","","null","56","","","","","","","","","","","","","","","NaN",""
"","S1","","html-keyboard-response","395","627039","0.0-1.0-515.0","0","0","49985","","null","","","null","57","","","","","","","","","","","","","","","",""
"","ISI","","html-keyboard-response","396","629042","0.0-1.0-516.0","0","0","49985","","null","","","null","57","NaN","","","","","","","","","","","","","","",""
"","S2","","html-keyboard-response","397","629297","0.0-1.0-517.0","0","0","49985","","null","","","null","57","","NaN","","","","","","","","","","","","","",""
"","response","","html-keyboard-response","398","629704","0.0-1.0-518.0-0.0","0","0","49985","","406","","","75","57","","","2","57","training","adjacent","AB","1","2","L.jpg","R.jpg","1","1","1","",""
"","feedback","","html-keyboard-response","399","630707","0.0-1.0-519.0-0.0","0","0","49985","","null","","","null","57","","","","","","","","","","","","","","","",""
"","ITI","","html-keyboard-response","400","631711","0.0-1.0-522.0","0","0","49985","","null","","","null","57","","","","","","","","","","","","","","","NaN",""
"","S1","","html-keyboard-response","401","631967","0.0-1.0-524.0","0","0","49985","","null","","","null","58","","","","","","","","","","","","","","","",""
"","ISI","","html-keyboard-response","402","633970","0.0-1.0-525.0","0","0","49985","","null","","","null","58","NaN","","","","","","","","","","","","","","",""
"","S2","","html-keyboard-response","403","634225","0.0-1.0-526.0","0","0","49985","","null","","","null","58","","NaN","","","","","","","","","","","","","",""
"","response","","html-keyboard-response","404","634512","0.0-1.0-527.0-0.0","0","0","49985","","285","","","75","58","","","2","58","training","adjacent","DE","4","5","Q.jpg","M.jpg","1","1","1","",""
"","feedback","","html-keyboard-response","405","635520","0.0-1.0-528.0-0.0","0","0","49985","","null","","","null","58","","","","","","","","","","","","","","","",""
"","ITI","","html-keyboard-response","406","636524","0.0-1.0-531.0","0","0","49985","","null","","","null","58","","","","","","","","","","","","","","","NaN",""
"","S1","","html-keyboard-response","407","636779","0.0-1.0-533.0","0","0","49985","","null","","","null","59","","","","","","","","","","","","","","","",""
"","ISI","","html-keyboard-response","408","638782","0.0-1.0-534.0","0","0","49985","","null","","","null","59","NaN","","","","","","","","","","","","","","",""
"","S2","","html-keyboard-response","409","639037","0.0-1.0-535.0","0","0","49985","","null","","","null","59","","NaN","","","","","","","","","","","","","",""
"","response","","html-keyboard-response","410","639512","0.0-1.0-536.0-0.0","0","0","49985","","472","","","75","59","","","2","59","training","adjacent","FG","6","7","N.jpg","P.jpg","1","1","1","",""
"","feedback","","html-keyboard-response","411","640517","0.0-1.0-537.0-0.0","0","0","49985","","null","","","null","59","","","","","","","","","","","","","","","",""
"","ITI","","html-keyboard-response","412","641522","0.0-1.0-540.0","0","0","49985","","null","","","null","59","","","","","","","","","","","","","","","NaN",""
"","S1","","html-keyboard-response","413","641777","0.0-1.0-542.0","0","0","49985","","null","","","null","60","","","","","","","","","","","","","","","",""
"","ISI","","html-keyboard-response","414","643779","0.0-1.0-543.0","0","0","49985","","null","","","null","60","NaN","","","","","","","","","","","","","","",""
"","S2","","html-keyboard-response","415","644035","0.0-1.0-544.0","0","0","49985","","null","","","null","60","","NaN","","","","","","","","","","","","","",""
"","response","","html-keyboard-response","416","644792","0.0-1.0-545.0-0.0","0","0","49985","","756","","","75","60","","","2","60","training","adjacent","FG","6","7","N.jpg","P.jpg","1","1","1","",""
"","feedback","","html-keyboard-response","417","645794","0.0-1.0-546.0-0.0","0","0","49985","","null","","","null","60","","","","","","","","","","","","","","","",""
"","ITI","","html-keyboard-response","418","646797","0.0-1.0-549.0","0","0","49985","","null","","","null","60","","","","","","","","","","","","","","","NaN",""
"","S1","","html-keyboard-response","419","647054","0.0-1.0-551.0","0","0","49985","","null","","","null","61","","","","","","","","","","","","","","","",""
"","ISI","","html-keyboard-response","420","649056","0.0-1.0-552.0","0","0","49985","","null","","","null","61","NaN","","","","","","","","","","","","","","",""
"","S2","","html-keyboard-response","421","649312","0.0-1.0-553.0","0","0","49985","","null","","","null","61","","NaN","","","","","","","","","","","","","",""
"","response","","html-keyboard-response","422","649447","0.0-1.0-554.0-0.0","0","0","49985","","133","","","68","61","","","2","61","training","adjacent","BC","2","3","R.jpg","O.jpg","0","1","0","",""
"","feedback","","html-keyboard-response","423","650450","0.0-1.0-555.0-0.0","0","0","49985","","null","","","null","61","","","","","","","","","","","","","","","",""
"","time_out","","html-keyboard-response","424","652452","0.0-1.0-557.0-0.0","0","0","49985","","null","","","null","61","","","","","","","","","","","","","","","",""
"","ITI","","html-keyboard-response","425","653456","0.0-1.0-558.0","0","0","49985","","null","","","null","61","","","","","","","","","","","","","","","NaN",""
"","S1","","html-keyboard-response","426","653711","0.0-1.0-560.0","0","0","49985","","null","","","null","62","","","","","","","","","","","","","","","",""
"","ISI","","html-keyboard-response","427","655714","0.0-1.0-561.0","0","0","49985","","null","","","null","62","NaN","","","","","","","","","","","","","","",""
"","S2","","html-keyboard-response","428","655970","0.0-1.0-562.0","0","0","49985","","null","","","null","62","","NaN","","","","","","","","","","","","","",""
"","response","","html-keyboard-response","429","655999","0.0-1.0-563.0-0.0","0","0","49985","","28","","","75","62","","","2","62","training","adjacent","CD","3","4","O.jpg","Q.jpg","1","1","1","",""
"","feedback","","html-keyboard-response","430","657003","0.0-1.0-564.0-0.0","0","0","49985","","null","","","null","62","","","","","","","","","","","","","","","",""
"","ITI","","html-keyboard-response","431","658008","0.0-1.0-567.0","0","0","49985","","null","","","null","62","","","","","","","","","","","","","","","NaN",""
"","S1","","html-keyboard-response","432","658263","0.0-1.0-569.0","0","0","49985","","null","","","null","63","","","","","","","","","","","","","","","",""
"","ISI","","html-keyboard-response","433","660270","0.0-1.0-570.0","0","0","49985","","null","","","null","63","NaN","","","","","","","","","","","","","","",""
"","S2","","html-keyboard-response","434","660526","0.0-1.0-571.0","0","0","49985","","null","","","null","63","","NaN","","","","","","","","","","","","","",""
"","response","","html-keyboard-response","435","660606","0.0-1.0-572.0-0.0","0","0","49985","","78","","","75","63","","","2","63","training","adjacent","CB","3","2","O.jpg","R.jpg","1","0","0","",""
"","feedback","","html-keyboard-response","436","661612","0.0-1.0-573.0-0.0","0","0","49985","","null","","","null","63","","","","","","","","","","","","","","","",""
"","time_out","","html-keyboard-response","437","663615","0.0-1.0-575.0-0.0","0","0","49985","","null","","","null","63","","","","","","","","","","","","","","","",""
"","ITI","","html-keyboard-response","438","664619","0.0-1.0-576.0","0","0","49985","","null","","","null","63","","","","","","","","","","","","","","","NaN",""
"","S1","","html-keyboard-response","439","664874","0.0-1.0-578.0","0","0","49985","","null","","","null","64","","","","","","","","","","","","","","","",""
"","ISI","","html-keyboard-response","440","666877","0.0-1.0-579.0","0","0","49985","","null","","","null","64","NaN","","","","","","","","","","","","","","",""
"","S2","","html-keyboard-response","441","667132","0.0-1.0-580.0","0","0","49985","","null","","","null","64","","NaN","","","","","","","","","","","","","",""
"","response","","html-keyboard-response","442","667351","0.0-1.0-581.0-0.0","0","0","49985","","217","","","75","64","","","2","64","training","adjacent","BC","2","3","R.jpg","O.jpg","1","1","1","",""
"","feedback","","html-keyboard-response","443","668358","0.0-1.0-582.0-0.0","0","0","49985","","null","","","null","64","","","","","","","","","","","","","","","",""
"","ITI","","html-keyboard-response","444","669362","0.0-1.0-585.0","0","0","49985","","null","","","null","64","","","","","","","","","","","","","","","NaN",""
"","S1","","html-keyboard-response","445","669617","0.0-1.0-587.0","0","0","49985","","null","","","null","65","","","","","","","","","","","","","","","",""
"","ISI","","html-keyboard-response","446","671620","0.0-1.0-588.0","0","0","49985","","null","","","null","65","NaN","","","","","","","","","","","","","","",""
"","S2","","html-keyboard-response","447","671875","0.0-1.0-589.0","0","0","49985","","null","","","null","65","","NaN","","","","","","","","","","","","","",""
"","response","","html-keyboard-response","448","672471","0.0-1.0-590.0-0.0","0","0","49985","","595","","","68","65","","","2","65","training","adjacent","BA","2","1","R.jpg","L.jpg","0","0","1","",""
"","feedback","","html-keyboard-response","449","673477","0.0-1.0-591.0-0.0","0","0","49985","","null","","","null","65","","","","","","","","","","","","","","","",""
"","ITI","","html-keyboard-response","450","674482","0.0-1.0-594.0","0","0","49985","","null","","","null","65","","","","","","","","","","","","","","","NaN",""
"","S1","","html-keyboard-response","451","674737","0.0-1.0-596.0","0","0","49985","","null","","","null","66","","","","","","","","","","","","","","","",""
"","ISI","","html-keyboard-response","452","676740","0.0-1.0-597.0","0","0","49985","","null","","","null","66","NaN","","","","","","","","","","","","","","",""
"","S2","","html-keyboard-response","453","676995","0.0-1.0-598.0","0","0","49985","","null","","","null","66","","NaN","","","","","","","","","","","","","",""
"","response","","html-keyboard-response","454","677983","0.0-1.0-599.0-0.0","0","0","49985","","986","","","68","66","","","2","66","training","adjacent","ED","5","4","M.jpg","Q.jpg","0","0","1","",""
"","feedback","","html-keyboard-response","455","678986","0.0-1.0-600.0-0.0","0","0","49985","","null","","","null","66","","","","","","","","","","","","","","","",""
"","ITI","","html-keyboard-response","456","679990","0.0-1.0-603.0","0","0","49985","","null","","","null","66","","","","","","","","","","","","","","","NaN",""
"","S1","","html-keyboard-response","457","680245","0.0-1.0-605.0","0","0","49985","","null","","","null","67","","","","","","","","","","","","","","","",""
"","ISI","","html-keyboard-response","458","682249","0.0-1.0-606.0","0","0","49985","","null","","","null","67","NaN","","","","","","","","","","","","","","",""
"","S2","","html-keyboard-response","459","682503","0.0-1.0-607.0","0","0","49985","","null","","","null","67","","NaN","","","","","","","","","","","","","",""
"","response","","html-keyboard-response","460","682582","0.0-1.0-608.0-0.0","0","0","49985","","77","","","75","67","","","2","67","training","adjacent","BA","2","1","R.jpg","L.jpg","1","0","0","",""
"","feedback","","html-keyboard-response","461","683589","0.0-1.0-609.0-0.0","0","0","49985","","null","","","null","67","","","","","","","","","","","","","","","",""
"","time_out","","html-keyboard-response","462","685591","0.0-1.0-611.0-0.0","0","0","49985","","null","","","null","67","","","","","","","","","","","","","","","",""
"","ITI","","html-keyboard-response","463","686596","0.0-1.0-612.0","0","0","49985","","null","","","null","67","","","","","","","","","","","","","","","NaN",""
"","S1","","html-keyboard-response","464","686852","0.0-1.0-614.0","0","0","49985","","null","","","null","68","","","","","","","","","","","","","","","",""
"","ISI","","html-keyboard-response","465","688854","0.0-1.0-615.0","0","0","49985","","null","","","null","68","NaN","","","","","","","","","","","","","","",""
"","S2","","html-keyboard-response","466","689110","0.0-1.0-616.0","0","0","49985","","null","","","null","68","","NaN","","","","","","","","","","","","","",""
"","response","","html-keyboard-response","467","689325","0.0-1.0-617.0-0.0","0","0","49985","","214","","","68","68","","","2","68","training","adjacent","FG","6","7","N.jpg","P.jpg","0","1","0","",""
"","feedback","","html-keyboard-response","468","690328","0.0-1.0-618.0-0.0","0","0","49985","","null","","","null","68","","","","","","","","","","","","","","","",""
"","time_out","","html-keyboard-response","469","692331","0.0-1.0-620.0-0.0","0","0","49985","","null","","","null","68","","","","","","","","","","","","","","","",""
"","ITI","","html-keyboard-response","470","693335","0.0-1.0-621.0","0","0","49985","","null","","","null","68","","","","","","","","","","","","","","","NaN",""
"","S1","","html-keyboard-response","471","693591","0.0-1.0-623.0","0","0","49985","","null","","","null","69","","","","","","","","","","","","","","","",""
"","ISI","","html-keyboard-response","472","695594","0.0-1.0-624.0","0","0","49985","","null","","","null","69","NaN","","","","","","","","","","","","","","",""
"","S2","","html-keyboard-response","473","695849","0.0-1.0-625.0","0","0","49985","","null","","","null","69","","NaN","","","","","","","","","","","","","",""
"","response","","html-keyboard-response","474","696038","0.0-1.0-626.0-0.0","0","0","49985","","187","","","75","69","","","2","69","training","adjacent","CD","3","4","O.jpg","Q.jpg","1","1","1","",""
"","feedback","","html-keyboard-response","475","697045","0.0-1.0-627.0-0.0","0","0","49985","","null","","","null","69","","","","","","","","","","","","","","","",""
"","ITI","","html-keyboard-response","476","698049","0.0-1.0-630.0","0","0","49985","","null","","","null","69","","","","","","","","","","","","","","","NaN",""
"","S1","","html-keyboard-response","477","698304","0.0-1.0-632.0","0","0","49985","","null","","","null","70","","","","","","","","","","","","","","","",""
"","ISI","","html-keyboard-response","478","700307","0.0-1.0-633.0","0","0","49985","","null","","","null","70","NaN","","","","","","","","","","","","","","",""
"","S2","","html-keyboard-response","479","700562","0.0-1.0-634.0","0","0","49985","","null","","","null","70","","NaN","","","","","","","","","","","","","",""
"","response","","html-keyboard-response","480","701798","0.0-1.0-635.0-0.0","0","0","49985","","1234","","","68","70","","","2","70","training","adjacent","DC","4","3","Q.jpg","O.jpg","0","0","1","",""
"","feedback","","html-keyboard-response","481","702804","0.0-1.0-636.0-0.0","0","0","49985","","null","","","null","70","","","","","","","","","","","","","","","",""
"","ITI","","html-keyboard-response","482","703809","0.0-1.0-639.0","0","0","49985","","null","","","null","70","","","","","","","","","","","","","","","NaN",""
"","S1","","html-keyboard-response","483","704063","0.0-1.0-641.0","0","0","49985","","null","","","null","71","","","","","","","","","","","","","","","",""
"","ISI","","html-keyboard-response","484","706066","0.0-1.0-642.0","0","0","49985","","null","","","null","71","NaN","","","","","","","","","","","","","","",""
"","S2","","html-keyboard-response","485","706321","0.0-1.0-643.0","0","0","49985","","null","","","null","71","","NaN","","","","","","","","","","","","","",""
"","response","","html-keyboard-response","486","706525","0.0-1.0-644.0-0.0","0","0","49985","","202","","","75","71","","","2","71","training","adjacent","CD","3","4","O.jpg","Q.jpg","1","1","1","",""
"","feedback","","html-keyboard-response","487","707528","0.0-1.0-645.0-0.0","0","0","49985","","null","","","null","71","","","","","","","","","","","","","","","",""
"","ITI","","html-keyboard-response","488","708533","0.0-1.0-648.0","0","0","49985","","null","","","null","71","","","","","","","","","","","","","","","NaN",""
"","S1","","html-keyboard-response","489","708788","0.0-1.0-650.0","0","0","49985","","null","","","null","72","","","","","","","","","","","","","","","",""
"","ISI","","html-keyboard-response","490","710791","0.0-1.0-651.0","0","0","49985","","null","","","null","72","NaN","","","","","","","","","","","","","","",""
"","S2","","html-keyboard-response","491","711046","0.0-1.0-652.0","0","0","49985","","null","","","null","72","","NaN","","","","","","","","","","","","","",""
"","response","","html-keyboard-response","492","711142","0.0-1.0-653.0-0.0","0","0","49985","","94","","","75","72","","","2","72","training","adjacent","CB","3","2","O.jpg","R.jpg","1","0","0","",""
"","feedback","","html-keyboard-response","493","712149","0.0-1.0-654.0-0.0","0","0","49985","","null","","","null","72","","","","","","","","","","","","","","","",""
"","time_out","","html-keyboard-response","494","714152","0.0-1.0-656.0-0.0","0","0","49985","","null","","","null","72","","","","","","","","","","","","","","","",""
"","ITI","","html-keyboard-response","495","715156","0.0-1.0-657.0","0","0","49985","","null","","","null","72","","","","","","","","","","","","","","","NaN",""
"","S1","","html-keyboard-response","496","715411","0.0-1.0-659.0","0","0","49985","","null","","","null","73","","","","","","","","","","","","","","","",""
"","ISI","","html-keyboard-response","497","717413","0.0-1.0-660.0","0","0","49985","","null","","","null","73","NaN","","","","","","","","","","","","","","",""
"","S2","","html-keyboard-response","498","717661","0.0-1.0-661.0","0","0","49985","","246","","","68","73","","d","2","73","training","adjacent","FG","6","7","N.jpg","P.jpg","0","1","0","",""
"","feedback","","html-keyboard-response","499","718668","0.0-1.0-663.0-0.0","0","0","49985","","null","","","null","73","","","","","","","","","","","","","","","",""
"","time_out","","html-keyboard-response","500","720671","0.0-1.0-665.0-0.0","0","0","49985","","null","","","null","73","","","","","","","","","","","","","","","",""
"","ITI","","html-keyboard-response","501","721674","0.0-1.0-666.0","0","0","49985","","null","","","null","73","","","","","","","","","","","","","","","NaN",""
"","S1","","html-keyboard-response","502","721930","0.0-1.0-668.0","0","0","49985","","null","","","null","74","","","","","","","","","","","","","","","",""
"","ISI","","html-keyboard-response","503","723933","0.0-1.0-669.0","0","0","49985","","null","","","null","74","NaN","","","","","","","","","","","","","","",""
"","S2","","html-keyboard-response","504","724188","0.0-1.0-670.0","0","0","49985","","null","","","null","74","","NaN","","","","","","","","","","","","","",""
"","response","","html-keyboard-response","505","724292","0.0-1.0-671.0-0.0","0","0","49985","","101","","","75","74","","","2","74","training","adjacent","CB","3","2","O.jpg","R.jpg","1","0","0","",""
"","feedback","","html-keyboard-response","506","725297","0.0-1.0-672.0-0.0","0","0","49985","","null","","","null","74","","","","","","","","","","","","","","","",""
"","time_out","","html-keyboard-response","507","727300","0.0-1.0-674.0-0.0","0","0","49985","","null","","","null","74","","","","","","","","","","","","","","","",""
"","ITI","","html-keyboard-response","508","728304","0.0-1.0-675.0","0","0","49985","","null","","","null","74","","","","","","","","","","","","","","","NaN",""
"","S1","","html-keyboard-response","509","728559","0.0-1.0-677.0","0","0","49985","","null","","","null","75","","","","","","","","","","","","","","","",""
"","ISI","","html-keyboard-response","510","730562","0.0-1.0-678.0","0","0","49985","","null","","","null","75","NaN","","","","","","","","","","","","","","",""
"","S2","","html-keyboard-response","511","730817","0.0-1.0-679.0","0","0","49985","","null","","","null","75","","NaN","","","","","","","","","","","","","",""
"","response","","html-keyboard-response","512","731149","0.0-1.0-680.0-0.0","0","0","49985","","330","","","75","75","","","2","75","training","adjacent","FE","6","5","N.jpg","M.jpg","1","0","0","",""
"","feedback","","html-keyboard-response","513","732152","0.0-1.0-681.0-0.0","0","0","49985","","null","","","null","75","","","","","","","","","","","","","","","",""
"","time_out","","html-keyboard-response","514","734155","0.0-1.0-683.0-0.0","0","0","49985","","null","","","null","75","","","","","","","","","","","","","","","",""
"","ITI","","html-keyboard-response","515","735159","0.0-1.0-684.0","0","0","49985","","null","","","null","75","","","","","","","","","","","","","","","NaN",""
"","S1","","html-keyboard-response","516","735415","0.0-1.0-686.0","0","0","49985","","null","","","null","76","","","","","","","","","","","","","","","",""
"","ISI","","html-keyboard-response","517","737417","0.0-1.0-687.0","0","0","49985","","null","","","null","76","NaN","","","","","","","","","","","","","","",""
"","S2","","html-keyboard-response","518","737672","0.0-1.0-688.0","0","0","49985","","null","","","null","76","","NaN","","","","","","","","","","","","","",""
"","response","","html-keyboard-response","519","738053","0.0-1.0-689.0-0.0","0","0","49985","","379","","","68","76","","","2","76","training","adjacent","DE","4","5","Q.jpg","M.jpg","0","1","0","",""
"","feedback","","html-keyboard-response","520","739060","0.0-1.0-690.0-0.0","0","0","49985","","null","","","null","76","","","","","","","","","","","","","","","",""
"","time_out","","html-keyboard-response","521","741063","0.0-1.0-692.0-0.0","0","0","49985","","null","","","null","76","","","","","","","","","","","","","","","",""
"","ITI","","html-keyboard-response","522","742067","0.0-1.0-693.0","0","0","49985","","null","","","null","76","","","","","","","","","","","","","","","NaN",""
"","S1","","html-keyboard-response","523","742322","0.0-1.0-695.0","0","0","49985","","null","","","null","77","","","","","","","","","","","","","","","",""
"","ISI","","html-keyboard-response","524","744324","0.0-1.0-696.0","0","0","49985","","null","","","null","77","NaN","","","","","","","","","","","","","","",""
"","S2","","html-keyboard-response","525","744580","0.0-1.0-697.0","0","0","49985","","null","","","null","77","","NaN","","","","","","","","","","","","","",""
"","response","","html-keyboard-response","526","745109","0.0-1.0-698.0-0.0","0","0","49985","","527","","","68","77","","","2","77","training","adjacent","EF","5","6","M.jpg","N.jpg","0","1","0","",""
"","feedback","","html-keyboard-response","527","746113","0.0-1.0-699.0-0.0","0","0","49985","","null","","","null","77","","","","","","","","","","","","","","","",""
"","time_out","","html-keyboard-response","528","748116","0.0-1.0-701.0-0.0","0","0","49985","","null","","","null","77","","","","","","","","","","","","","","","",""
"","ITI","","html-keyboard-response","529","749120","0.0-1.0-702.0","0","0","49985","","null","","","null","77","","","","","","","","","","","","","","","NaN",""
"","S1","","html-keyboard-response","530","749375","0.0-1.0-704.0","0","0","49985","","null","","","null","78","","","","","","","","","","","","","","","",""
"","ISI","","html-keyboard-response","531","751378","0.0-1.0-705.0","0","0","49985","","null","","","null","78","NaN","","","","","","","","","","","","","","",""
"","S2","","html-keyboard-response","532","751633","0.0-1.0-706.0","0","0","49985","","null","","","null","78","","NaN","","","","","","","","","","","","","",""
"","response","","html-keyboard-response","533","752068","0.0-1.0-707.0-0.0","0","0","49985","","433","","","75","78","","","2","78","training","adjacent","DC","4","3","Q.jpg","O.jpg","1","0","0","",""
"","feedback","","html-keyboard-response","534","753075","0.0-1.0-708.0-0.0","0","0","49985","","null","","","null","78","","","","","","","","","","","","","","","",""
"","time_out","","html-keyboard-response","535","755082","0.0-1.0-710.0-0.0","0","0","49985","","null","","","null","78","","","","","","","","","","","","","","","",""
"","ITI","","html-keyboard-response","536","756089","0.0-1.0-711.0","0","0","49985","","null","","","null","78","","","","","","","","","","","","","","","NaN",""
"","S1","","html-keyboard-response","537","756345","0.0-1.0-713.0","0","0","49985","","null","","","null","79","","","","","","","","","","","","","","","",""
"","ISI","","html-keyboard-response","538","758352","0.0-1.0-714.0","0","0","49985","","null","","","null","79","NaN","","","","","","","","","","","","","","",""
"","S2","","html-keyboard-response","539","758605","0.0-1.0-715.0","0","0","49985","","null","","","null","79","","NaN","","","","","","","","","","","","","",""
"","response","","html-keyboard-response","540","759292","0.0-1.0-716.0-0.0","0","0","49985","","685","","","75","79","","","2","79","training","adjacent","ED","5","4","M.jpg","Q.jpg","1","0","0","",""
"","feedback","","html-keyboard-response","541","760298","0.0-1.0-717.0-0.0","0","0","49985","","null","","","null","79","","","","","","","","","","","","","","","",""
"","time_out","","html-keyboard-response","542","762303","0.0-1.0-719.0-0.0","0","0","49985","","null","","","null","79","","","","","","","","","","","","","","","",""
"","ITI","","html-keyboard-response","543","763309","0.0-1.0-720.0","0","0","49985","","null","","","null","79","","","","","","","","","","","","","","","NaN",""
"","S1","","html-keyboard-response","544","763562","0.0-1.0-722.0","0","0","49985","","null","","","null","80","","","","","","","","","","","","","","","",""
"","ISI","","html-keyboard-response","545","765565","0.0-1.0-723.0","0","0","49985","","null","","","null","80","NaN","","","","","","","","","","","","","","",""
"","S2","","html-keyboard-response","546","765820","0.0-1.0-724.0","0","0","49985","","null","","","null","80","","NaN","","","","","","","","","","","","","",""
"","response","","html-keyboard-response","547","765868","0.0-1.0-725.0-0.0","0","0","49985","","46","","","68","80","","","2","80","training","adjacent","DE","4","5","Q.jpg","M.jpg","0","1","0","",""
"","feedback","","html-keyboard-response","548","766871","0.0-1.0-726.0-0.0","0","0","49985","","null","","","null","80","","","","","","","","","","","","","","","",""
"","time_out","","html-keyboard-response","549","768874","0.0-1.0-728.0-0.0","0","0","49985","","null","","","null","80","","","","","","","","","","","","","","","",""
"","ITI","","html-keyboard-response","550","769878","0.0-1.0-729.0","0","0","49985","","null","","","null","80","","","","","","","","","","","","","","","NaN",""
"","S1","","html-keyboard-response","551","770133","0.0-1.0-731.0","0","0","49985","","null","","","null","81","","","","","","","","","","","","","","","",""
"","ISI","","html-keyboard-response","552","772136","0.0-1.0-732.0","0","0","49985","","null","","","null","81","NaN","","","","","","","","","","","","","","",""
"","S2","","html-keyboard-response","553","772392","0.0-1.0-733.0","0","0","49985","","null","","","null","81","","NaN","","","","","","","","","","","","","",""
"","response","","html-keyboard-response","554","773004","0.0-1.0-734.0-0.0","0","0","49985","","611","","","75","81","","","2","81","training","adjacent","ED","5","4","M.jpg","Q.jpg","1","0","0","",""
"","feedback","","html-keyboard-response","555","774011","0.0-1.0-735.0-0.0","0","0","49985","","null","","","null","81","","","","","","","","","","","","","","","",""
"","time_out","","html-keyboard-response","556","776013","0.0-1.0-737.0-0.0","0","0","49985","","null","","","null","81","","","","","","","","","","","","","","","",""
"","ITI","","html-keyboard-response","557","777018","0.0-1.0-738.0","0","0","49985","","null","","","null","81","","","","","","","","","","","","","","","NaN",""
"","S1","","html-keyboard-response","558","777273","0.0-1.0-740.0","0","0","49985","","null","","","null","82","","","","","","","","","","","","","","","",""
"","ISI","","html-keyboard-response","559","779276","0.0-1.0-741.0","0","0","49985","","null","","","null","82","NaN","","","","","","","","","","","","","","",""
"","S2","","html-keyboard-response","560","779532","0.0-1.0-742.0","0","0","49985","","null","","","null","82","","NaN","","","","","","","","","","","","","",""
"","response","","html-keyboard-response","561","780196","0.0-1.0-743.0-0.0","0","0","49985","","663","","","68","82","","","2","82","training","adjacent","DE","4","5","Q.jpg","M.jpg","0","1","0","",""
"","feedback","","html-keyboard-response","562","781198","0.0-1.0-744.0-0.0","0","0","49985","","null","","","null","82","","","","","","","","","","","","","","","",""
"","time_out","","html-keyboard-response","563","783206","0.0-1.0-746.0-0.0","0","0","49985","","null","","","null","82","","","","","","","","","","","","","","","",""
"","ITI","","html-keyboard-response","564","784210","0.0-1.0-747.0","0","0","49985","","null","","","null","82","","","","","","","","","","","","","","","NaN",""
"","S1","","html-keyboard-response","565","784465","0.0-1.0-749.0","0","0","49985","","null","","","null","83","","","","","","","","","","","","","","","",""
"","ISI","","html-keyboard-response","566","786468","0.0-1.0-750.0","0","0","49985","","null","","","null","83","NaN","","","","","","","","","","","","","","",""
"","S2","","html-keyboard-response","567","786725","0.0-1.0-751.0","0","0","49985","","null","","","null","83","","NaN","","","","","","","","","","","","","",""
"","response","","html-keyboard-response","568","787363","0.0-1.0-752.0-0.0","0","0","49985","","636","","","68","83","","","2","83","training","adjacent","EF","5","6","M.jpg","N.jpg","0","1","0","",""
"","feedback","","html-keyboard-response","569","788366","0.0-1.0-753.0-0.0","0","0","49985","","null","","","null","83","","","","","","","","","","","","","","","",""
"","time_out","","html-keyboard-response","570","790369","0.0-1.0-755.0-0.0","0","0","49985","","null","","","null","83","","","","","","","","","","","","","","","",""
"","ITI","","html-keyboard-response","571","791373","0.0-1.0-756.0","0","0","49985","","null","","","null","83","","","","","","","","","","","","","","","NaN",""
"","S1","","html-keyboard-response","572","791629","0.0-1.0-758.0","0","0","49985","","null","","","null","84","","","","","","","","","","","","","","","",""
"","ISI","","html-keyboard-response","573","793631","0.0-1.0-759.0","0","0","49985","","null","","","null","84","NaN","","","","","","","","","","","","","","",""
