"success","ttype","start_time","trial_type","trial_index","time_elapsed","internal_node_id","warning","missed_checkup","PID","view_history","rt","responses","repeat_instructions","key_press","index","keypress_isi","keypress_S2","block","trial_num","phase","group_type","pair_type","S1_stim","S2_stim","S1_img","S2_img","S1_chosen","S1_higher","accuracy","keypress_iti","total_bonus_tally"
"true","full_screen","d08052022hr1221","fullscreen","0","4228","0.0-0.0","0","0","28333","","","","","","","","","","","","","","","","","","","","","",""
"","instructions","","instructions","1","27717","0.0-1.0-0.0-0.0","0","0","28333","[{""page_index"":0,""viewing_time"":3232},{""page_index"":1,""viewing_time"":13829},{""page_index"":2,""viewing_time"":5463},{""page_index"":3,""viewing_time"":963}]","23487","","","","","","","","","","","","","","","","","","","",""
"","comprehension_check","","survey-multi-choice","2","61345","0.0-1.0-0.0-1.0","0","0","28333","","33624","{""Q0"":""True"",""Q1"":""D"",""Q2"":""Only when the screen 'MAKE A CHOICE' is shown"",""Q3"":""Green mark"",""Q4"":""either D or K""}","1","","","","","","","","","","","","","","","","","",""
"","missed_instruction_checkup","","html-keyboard-response","3","63660","0.0-1.0-0.0-2.0-0.0","0","1","28333","","2312","","","32","","","","","","","","","","","","","","","","",""
"","instructions","","instructions","4","71434","0.0-1.0-0.1-0.1","0","0","28333","[{""page_index"":0,""viewing_time"":1610},{""page_index"":1,""viewing_time"":4130},{""page_index"":2,""viewing_time"":1019},{""page_index"":3,""viewing_time"":1013}]","7772","","","","","","","","","","","","","","","","","","","",""
"","comprehension_check","","survey-multi-choice","5","81145","0.0-1.0-0.1-1.1","0","0","28333","","9706","{""Q0"":""True"",""Q1"":""D"",""Q2"":""Once the second image appears and while the screen 'MAKE A CHOICE' is shown"",""Q3"":""Green mark"",""Q4"":""either D or K""}","1","","","","","","","","","","","","","","","","","",""
"","missed_instruction_checkup","","html-keyboard-response","6","83056","0.0-1.0-0.1-2.1-0.1","0","1","28333","","1909","","","32","","","","","","","","","","","","","","","","",""
"","instructions","","instructions","7","98827","0.0-1.0-0.2-0.2","0","0","28333","[{""page_index"":0,""viewing_time"":1646},{""page_index"":1,""viewing_time"":11184},{""page_index"":2,""viewing_time"":1712},{""page_index"":3,""viewing_time"":1227}]","15769","","","","","","","","","","","","","","","","","","","",""
"","comprehension_check","","survey-multi-choice","8","108348","0.0-1.0-0.2-1.2","0","0","28333","","9515","{""Q0"":""True"",""Q1"":""K"",""Q2"":""Once the second image appears and while the screen 'MAKE A CHOICE' is shown"",""Q3"":""Green mark"",""Q4"":""either D or K""}","0","","","","","","","","","","","","","","","","","",""
"","start_exp","","html-keyboard-response","9","110398","0.0-1.0-1.0","0","0","28333","","2048","","","32","","","","","","","","","","","","","","","","",""
"","S1","","html-keyboard-response","10","110652","0.0-1.0-2.0","0","0","28333","","null","","","null","0","","","","","","","","","","","","","","","",""
"","ISI","","html-keyboard-response","11","112654","0.0-1.0-3.0","0","0","28333","","null","","","null","0","NaN","","","","","","","","","","","","","","",""
"","S2","","html-keyboard-response","12","112906","0.0-1.0-4.0","0","0","28333","","null","","","null","0","","NaN","","","","","","","","","","","","","",""
"","response","","html-keyboard-response","13","113568","0.0-1.0-5.0-0.0","0","0","28333","","660","","","75","0","","","1","0","training","adjacent","DE","4","5","R.jpg","Q.jpg","1","1","1","",""
"","feedback","","html-keyboard-response","14","114570","0.0-1.0-6.0-0.0","0","0","28333","","null","","","null","0","","","","","","","","","","","","","","","",""
"","ITI","","html-keyboard-response","15","115572","0.0-1.0-9.0","0","0","28333","","null","","","null","0","","","","","","","","","","","","","","","NaN",""
"","S1","","html-keyboard-response","16","115826","0.0-1.0-11.0","0","0","28333","","null","","","null","1","","","","","","","","","","","","","","","",""
"","ISI","","html-keyboard-response","17","117829","0.0-1.0-12.0","0","0","28333","","null","","","null","1","NaN","","","","","","","","","","","","","","",""
"","S2","","html-keyboard-response","18","118081","0.0-1.0-13.0","0","0","28333","","null","","","null","1","","NaN","","","","","","","","","","","","","",""
"","response","","html-keyboard-response","19","118437","0.0-1.0-14.0-0.0","0","0","28333","","354","","","68","1","","","1","1","training","adjacent","BC","2","3","O.jpg","P.jpg","0","1","0","",""
"","feedback","","html-keyboard-response","20","119441","0.0-1.0-15.0-0.0","0","0","28333","","null","","","null","1","","","","","","","","","","","","","","","",""
"","time_out","","html-keyboard-response","21","121444","0.0-1.0-17.0-0.0","0","0","28333","","null","","","null","1","","","","","","","","","","","","","","","",""
"","ITI","","html-keyboard-response","22","122446","0.0-1.0-18.0","0","0","28333","","null","","","null","1","","","","","","","","","","","","","","","NaN",""
"","S1","","html-keyboard-response","23","122699","0.0-1.0-20.0","0","0","28333","","null","","","null","2","","","","","","","","","","","","","","","",""
"","ISI","","html-keyboard-response","24","124701","0.0-1.0-21.0","0","0","28333","","null","","","null","2","NaN","","","","","","","","","","","","","","",""
"","S2","","html-keyboard-response","25","124953","0.0-1.0-22.0","0","0","28333","","null","","","null","2","","NaN","","","","","","","","","","","","","",""
"","response","","html-keyboard-response","26","125333","0.0-1.0-23.0-0.0","0","0","28333","","379","","","75","2","","","1","2","training","adjacent","GF","7","6","L.jpg","M.jpg","1","0","0","",""
"","feedback","","html-keyboard-response","27","126336","0.0-1.0-24.0-0.0","0","0","28333","","null","","","null","2","","","","","","","","","","","","","","","",""
"","time_out","","html-keyboard-response","28","128338","0.0-1.0-26.0-0.0","0","0","28333","","null","","","null","2","","","","","","","","","","","","","","","",""
"","ITI","","html-keyboard-response","29","129340","0.0-1.0-27.0","0","0","28333","","null","","","null","2","","","","","","","","","","","","","","","NaN",""
"","S1","","html-keyboard-response","30","129592","0.0-1.0-29.0","0","0","28333","","null","","","null","3","","","","","","","","","","","","","","","",""
"","ISI","","html-keyboard-response","31","131595","0.0-1.0-30.0","0","0","28333","","null","","","null","3","NaN","","","","","","","","","","","","","","",""
"","S2","","html-keyboard-response","32","131847","0.0-1.0-31.0","0","0","28333","","null","","","null","3","","NaN","","","","","","","","","","","","","",""
"","response","","html-keyboard-response","33","132285","0.0-1.0-32.0-0.0","0","0","28333","","437","","","75","3","","","1","3","training","adjacent","CD","3","4","P.jpg","R.jpg","1","1","1","",""
"","feedback","","html-keyboard-response","34","133288","0.0-1.0-33.0-0.0","0","0","28333","","null","","","null","3","","","","","","","","","","","","","","","",""
"","ITI","","html-keyboard-response","35","134291","0.0-1.0-36.0","0","0","28333","","null","","","null","3","","","","","","","","","","","","","","","NaN",""
"","S1","","html-keyboard-response","36","134543","0.0-1.0-38.0","0","0","28333","","null","","","null","4","","","","","","","","","","","","","","","",""
"","ISI","","html-keyboard-response","37","136545","0.0-1.0-39.0","0","0","28333","","null","","","null","4","NaN","","","","","","","","","","","","","","",""
"","S2","","html-keyboard-response","38","136799","0.0-1.0-40.0","0","0","28333","","null","","","null","4","","NaN","","","","","","","","","","","","","",""
"","response","","html-keyboard-response","39","137152","0.0-1.0-41.0-0.0","0","0","28333","","353","","","68","4","","","1","4","training","adjacent","FG","6","7","M.jpg","L.jpg","0","1","0","",""
"","feedback","","html-keyboard-response","40","138154","0.0-1.0-42.0-0.0","0","0","28333","","null","","","null","4","","","","","","","","","","","","","","","",""
"","time_out","","html-keyboard-response","41","140157","0.0-1.0-44.0-0.0","0","0","28333","","null","","","null","4","","","","","","","","","","","","","","","",""
"","ITI","","html-keyboard-response","42","141159","0.0-1.0-45.0","0","0","28333","","null","","","null","4","","","","","","","","","","","","","","","NaN",""
"","S1","","html-keyboard-response","43","141413","0.0-1.0-47.0","0","0","28333","","null","","","null","5","","","","","","","","","","","","","","","",""
"","ISI","","html-keyboard-response","44","143415","0.0-1.0-48.0","0","0","28333","","null","","","null","5","NaN","","","","","","","","","","","","","","",""
"","S2","","html-keyboard-response","45","143669","0.0-1.0-49.0","0","0","28333","","null","","","null","5","","NaN","","","","","","","","","","","","","",""
"","response","","html-keyboard-response","46","143969","0.0-1.0-50.0-0.0","0","0","28333","","299","","","75","5","","","1","5","training","adjacent","DE","4","5","R.jpg","Q.jpg","1","1","1","",""
"","feedback","","html-keyboard-response","47","144972","0.0-1.0-51.0-0.0","0","0","28333","","null","","","null","5","","","","","","","","","","","","","","","",""
"","ITI","","html-keyboard-response","48","145974","0.0-1.0-54.0","0","0","28333","","null","","","null","5","","","","","","","","","","","","","","","NaN",""
"","S1","","html-keyboard-response","49","146227","0.0-1.0-56.0","0","0","28333","","null","","","null","6","","","","","","","","","","","","","","","",""
"","ISI","","html-keyboard-response","50","148229","0.0-1.0-57.0","0","0","28333","","null","","","null","6","NaN","","","","","","","","","","","","","","",""
"","S2","","html-keyboard-response","51","148482","0.0-1.0-58.0","0","0","28333","","null","","","null","6","","NaN","","","","","","","","","","","","","",""
"","response","","html-keyboard-response","52","148991","0.0-1.0-59.0-0.0","0","0","28333","","507","","","75","6","","","1","6","training","adjacent","FG","6","7","M.jpg","L.jpg","1","1","1","",""
"","feedback","","html-keyboard-response","53","149994","0.0-1.0-60.0-0.0","0","0","28333","","null","","","null","6","","","","","","","","","","","","","","","",""
"","ITI","","html-keyboard-response","54","150997","0.0-1.0-63.0","0","0","28333","","null","","","null","6","","","","","","","","","","","","","","","NaN",""
"","S1","","html-keyboard-response","55","151249","0.0-1.0-65.0","0","0","28333","","null","","","null","7","","","","","","","","","","","","","","","",""
"","ISI","","html-keyboard-response","56","153251","0.0-1.0-66.0","0","0","28333","","null","","","null","7","NaN","","","","","","","","","","","","","","",""
"","S2","","html-keyboard-response","57","153504","0.0-1.0-67.0","0","0","28333","","null","","","null","7","","NaN","","","","","","","","","","","","","",""
"","response","","html-keyboard-response","58","153826","0.0-1.0-68.0-0.0","0","0","28333","","320","","","75","7","","","1","7","training","adjacent","DE","4","5","R.jpg","Q.jpg","1","1","1","",""
"","feedback","","html-keyboard-response","59","154828","0.0-1.0-69.0-0.0","0","0","28333","","null","","","null","7","","","","","","","","","","","","","","","",""
"","ITI","","html-keyboard-response","60","155835","0.0-1.0-72.0","0","0","28333","","null","","","null","7","","","","","","","","","","","","","","","NaN",""
"","S1","","html-keyboard-response","61","156087","0.0-1.0-74.0","0","0","28333","","null","","","null","8","","","","","","","","","","","","","","","",""
"","ISI","","html-keyboard-response","62","158090","0.0-1.0-75.0","0","0","28333","","null","","","null","8","NaN","","","","","","","","","","","","","","",""
"","S2","","html-keyboard-response","63","158342","0.0-1.0-76.0","0","0","28333","","null","","","null","8","","NaN","","","","","","","","","","","","","",""
"","response","","html-keyboard-response","64","159030","0.0-1.0-77.0-0.0","0","0","28333","","686","","","75","8","","","1","8","training","adjacent","FE","6","5","M.jpg","Q.jpg","1","0","0","",""
"","feedback","","html-keyboard-response","65","160033","0.0-1.0-78.0-0.0","0","0","28333","","null","","","null","8","","","","","","","","","","","","","","","",""
"","time_out","","html-keyboard-response","66","162034","0.0-1.0-80.0-0.0","0","0","28333","","null","","","null","8","","","","","","","","","","","","","","","",""
"","ITI","","html-keyboard-response","67","163036","0.0-1.0-81.0","0","0","28333","","null","","","null","8","","","","","","","","","","","","","","","NaN",""
"","S1","","html-keyboard-response","68","163290","0.0-1.0-83.0","0","0","28333","","null","","","null","9","","","","","","","","","","","","","","","",""
"","ISI","","html-keyboard-response","69","165291","0.0-1.0-84.0","0","0","28333","","null","","","null","9","NaN","","","","","","","","","","","","","","",""
"","S2","","html-keyboard-response","70","165544","0.0-1.0-85.0","0","0","28333","","null","","","null","9","","NaN","","","","","","","","","","","","","",""
"","response","","html-keyboard-response","71","165734","0.0-1.0-86.0-0.0","0","0","28333","","188","","","68","9","","","1","9","training","adjacent","EF","5","6","Q.jpg","M.jpg","0","1","0","",""
"","feedback","","html-keyboard-response","72","166736","0.0-1.0-87.0-0.0","0","0","28333","","null","","","null","9","","","","","","","","","","","","","","","",""
"","time_out","","html-keyboard-response","73","168738","0.0-1.0-89.0-0.0","0","0","28333","","null","","","null","9","","","","","","","","","","","","","","","",""
"","ITI","","html-keyboard-response","74","169741","0.0-1.0-90.0","0","0","28333","","null","","","null","9","","","","","","","","","","","","","","","NaN",""
"","S1","","html-keyboard-response","75","169994","0.0-1.0-92.0","0","0","28333","","null","","","null","10","","","","","","","","","","","","","","","",""
"","ISI","","html-keyboard-response","76","171996","0.0-1.0-93.0","0","0","28333","","null","","","null","10","NaN","","","","","","","","","","","","","","",""
"","S2","","html-keyboard-response","77","172250","0.0-1.0-94.0","0","0","28333","","null","","","null","10","","NaN","","","","","","","","","","","","","",""
"","response","","html-keyboard-response","78","173083","0.0-1.0-95.0-0.0","0","0","28333","","830","","","68","10","","","1","10","training","adjacent","ED","5","4","Q.jpg","R.jpg","0","0","1","",""
"","feedback","","html-keyboard-response","79","174085","0.0-1.0-96.0-0.0","0","0","28333","","null","","","null","10","","","","","","","","","","","","","","","",""
"","ITI","","html-keyboard-response","80","175087","0.0-1.0-99.0","0","0","28333","","null","","","null","10","","","","","","","","","","","","","","","NaN",""
"","S1","","html-keyboard-response","81","175340","0.0-1.0-101.0","0","0","28333","","null","","","null","11","","","","","","","","","","","","","","","",""
"","ISI","","html-keyboard-response","82","177342","0.0-1.0-102.0","0","0","28333","","null","","","null","11","NaN","","","","","","","","","","","","","","",""
"","S2","","html-keyboard-response","83","177595","0.0-1.0-103.0","0","0","28333","","null","","","null","11","","NaN","","","","","","","","","","","","","",""
"","response","","html-keyboard-response","84","178269","0.0-1.0-104.0-0.0","0","0","28333","","672","","","68","11","","","1","11","training","adjacent","BA","2","1","O.jpg","N.jpg","0","0","1","",""
"","feedback","","html-keyboard-response","85","179272","0.0-1.0-105.0-0.0","0","0","28333","","null","","","null","11","","","","","","","","","","","","","","","",""
"","ITI","","html-keyboard-response","86","180273","0.0-1.0-108.0","0","0","28333","","null","","","null","11","","","","","","","","","","","","","","","NaN",""
"","S1","","html-keyboard-response","87","180527","0.0-1.0-110.0","0","0","28333","","null","","","null","12","","","","","","","","","","","","","","","",""
"","ISI","","html-keyboard-response","88","182529","0.0-1.0-111.0","0","0","28333","","null","","","null","12","NaN","","","","","","","","","","","","","","",""
"","S2","","html-keyboard-response","89","182782","0.0-1.0-112.0","0","0","28333","","null","","","null","12","","NaN","","","","","","","","","","","","","",""
"","response","","html-keyboard-response","90","183049","0.0-1.0-113.0-0.0","0","0","28333","","267","","","68","12","","","1","12","training","adjacent","GF","7","6","L.jpg","M.jpg","0","0","1","",""
"","feedback","","html-keyboard-response","91","184053","0.0-1.0-114.0-0.0","0","0","28333","","null","","","null","12","","","","","","","","","","","","","","","",""
"","ITI","","html-keyboard-response","92","185055","0.0-1.0-117.0","0","0","28333","","null","","","null","12","","","","","","","","","","","","","","","NaN",""
"","S1","","html-keyboard-response","93","185307","0.0-1.0-119.0","0","0","28333","","null","","","null","13","","","","","","","","","","","","","","","",""
"","ISI","","html-keyboard-response","94","187309","0.0-1.0-120.0","0","0","28333","","null","","","null","13","NaN","","","","","","","","","","","","","","",""
"","S2","","html-keyboard-response","95","187561","0.0-1.0-121.0","0","0","28333","","null","","","null","13","","NaN","","","","","","","","","","","","","",""
"","response","","html-keyboard-response","96","188051","0.0-1.0-122.0-0.0","0","0","28333","","488","","","75","13","","","1","13","training","adjacent","CB","3","2","P.jpg","O.jpg","1","0","0","",""
"","feedback","","html-keyboard-response","97","189053","0.0-1.0-123.0-0.0","0","0","28333","","null","","","null","13","","","","","","","","","","","","","","","",""
"","time_out","","html-keyboard-response","98","191054","0.0-1.0-125.0-0.0","0","0","28333","","null","","","null","13","","","","","","","","","","","","","","","",""
"","ITI","","html-keyboard-response","99","192057","0.0-1.0-126.0","0","0","28333","","null","","","null","13","","","","","","","","","","","","","","","NaN",""
"","S1","","html-keyboard-response","100","192310","0.0-1.0-128.0","0","0","28333","","null","","","null","14","","","","","","","","","","","","","","","",""
"","ISI","","html-keyboard-response","101","194312","0.0-1.0-129.0","0","0","28333","","null","","","null","14","NaN","","","","","","","","","","","","","","",""
"","S2","","html-keyboard-response","102","194565","0.0-1.0-130.0","0","0","28333","","null","","","null","14","","NaN","","","","","","","","","","","","","",""
"","response","","html-keyboard-response","103","194903","0.0-1.0-131.0-0.0","0","0","28333","","337","","","68","14","","","1","14","training","adjacent","CD","3","4","P.jpg","R.jpg","0","1","0","",""
"","feedback","","html-keyboard-response","104","195906","0.0-1.0-132.0-0.0","0","0","28333","","null","","","null","14","","","","","","","","","","","","","","","",""
"","time_out","","html-keyboard-response","105","197908","0.0-1.0-134.0-0.0","0","0","28333","","null","","","null","14","","","","","","","","","","","","","","","",""
"","ITI","","html-keyboard-response","106","198911","0.0-1.0-135.0","0","0","28333","","null","","","null","14","","","","","","","","","","","","","","","NaN",""
"","S1","","html-keyboard-response","107","199164","0.0-1.0-137.0","0","0","28333","","null","","","null","15","","","","","","","","","","","","","","","",""
"","ISI","","html-keyboard-response","108","201166","0.0-1.0-138.0","0","0","28333","","null","","","null","15","NaN","","","","","","","","","","","","","","",""
"","S2","","html-keyboard-response","109","201419","0.0-1.0-139.0","0","0","28333","","null","","","null","15","","NaN","","","","","","","","","","","","","",""
"","response","","html-keyboard-response","110","201700","0.0-1.0-140.0-0.0","0","0","28333","","280","","","68","15","","","1","15","training","adjacent","DC","4","3","R.jpg","P.jpg","0","0","1","",""
"","feedback","","html-keyboard-response","111","202702","0.0-1.0-141.0-0.0","0","0","28333","","null","","","null","15","","","","","","","","","","","","","","","",""
"","ITI","","html-keyboard-response","112","203704","0.0-1.0-144.0","0","0","28333","","null","","","null","15","","","","","","","","","","","","","","","NaN",""
"","S1","","html-keyboard-response","113","203957","0.0-1.0-146.0","0","0","28333","","null","","","null","16","","","","","","","","","","","","","","","",""
"","ISI","","html-keyboard-response","114","205959","0.0-1.0-147.0","0","0","28333","","null","","","null","16","NaN","","","","","","","","","","","","","","",""
"","S2","","html-keyboard-response","115","206212","0.0-1.0-148.0","0","0","28333","","null","","","null","16","","NaN","","","","","","","","","","","","","",""
"","response","","html-keyboard-response","116","206534","0.0-1.0-149.0-0.0","0","0","28333","","320","","","75","16","","","1","16","training","adjacent","ED","5","4","Q.jpg","R.jpg","1","0","0","",""
"","feedback","","html-keyboard-response","117","207537","0.0-1.0-150.0-0.0","0","0","28333","","null","","","null","16","","","","","","","","","","","","","","","",""
"","time_out","","html-keyboard-response","118","209540","0.0-1.0-152.0-0.0","0","0","28333","","null","","","null","16","","","","","","","","","","","","","","","",""
"","ITI","","html-keyboard-response","119","210542","0.0-1.0-153.0","0","0","28333","","null","","","null","16","","","","","","","","","","","","","","","NaN",""
"","S1","","html-keyboard-response","120","210796","0.0-1.0-155.0","0","0","28333","","null","","","null","17","","","","","","","","","","","","","","","",""
"","ISI","","html-keyboard-response","121","212799","0.0-1.0-156.0","0","0","28333","","null","","","null","17","NaN","","","","","","","","","","","","","","",""
"","S2","","html-keyboard-response","122","213051","0.0-1.0-157.0","0","0","28333","","null","","","null","17","","NaN","","","","","","","","","","","","","",""
"","response","","html-keyboard-response","123","213725","0.0-1.0-158.0-0.0","0","0","28333","","672","","","75","17","","","1","17","training","adjacent","FG","6","7","M.jpg","L.jpg","1","1","1","",""
"","feedback","","html-keyboard-response","124","214728","0.0-1.0-159.0-0.0","0","0","28333","","null","","","null","17","","","","","","","","","","","","","","","",""
"","ITI","","html-keyboard-response","125","215730","0.0-1.0-162.0","0","0","28333","","null","","","null","17","","","","","","","","","","","","","","","NaN",""
"","S1","","html-keyboard-response","126","215983","0.0-1.0-164.0","0","0","28333","","null","","","null","18","","","","","","","","","","","","","","","",""
"","ISI","","html-keyboard-response","127","217985","0.0-1.0-165.0","0","0","28333","","null","","","null","18","NaN","","","","","","","","","","","","","","",""
"","S2","","html-keyboard-response","128","218238","0.0-1.0-166.0","0","0","28333","","null","","","null","18","","NaN","","","","","","","","","","","","","",""
"","response","","html-keyboard-response","129","218430","0.0-1.0-167.0-0.0","0","0","28333","","190","","","68","18","","","1","18","training","adjacent","DE","4","5","R.jpg","Q.jpg","0","1","0","",""
"","feedback","","html-keyboard-response","130","219433","0.0-1.0-168.0-0.0","0","0","28333","","null","","","null","18","","","","","","","","","","","","","","","",""
"","time_out","","html-keyboard-response","131","221435","0.0-1.0-170.0-0.0","0","0","28333","","null","","","null","18","","","","","","","","","","","","","","","",""
"","ITI","","html-keyboard-response","132","222438","0.0-1.0-171.0","0","0","28333","","null","","","null","18","","","","","","","","","","","","","","","NaN",""
"","S1","","html-keyboard-response","133","222691","0.0-1.0-173.0","0","0","28333","","null","","","null","19","","","","","","","","","","","","","","","",""
"","ISI","","html-keyboard-response","134","224694","0.0-1.0-174.0","0","0","28333","","null","","","null","19","NaN","","","","","","","","","","","","","","",""
"","S2","","html-keyboard-response","135","224946","0.0-1.0-175.0","0","0","28333","","null","","","null","19","","NaN","","","","","","","","","","","","","",""
"","response","","html-keyboard-response","136","225534","0.0-1.0-176.0-0.0","0","0","28333","","586","","","75","19","","","1","19","training","adjacent","BC","2","3","O.jpg","P.jpg","1","1","1","",""
"","feedback","","html-keyboard-response","137","226537","0.0-1.0-177.0-0.0","0","0","28333","","null","","","null","19","","","","","","","","","","","","","","","",""
"","ITI","","html-keyboard-response","138","227541","0.0-1.0-180.0","0","0","28333","","null","","","null","19","","","","","","","","","","","","","","","NaN",""
"","S1","","html-keyboard-response","139","227793","0.0-1.0-182.0","0","0","28333","","null","","","null","20","","","","","","","","","","","","","","","",""
"","ISI","","html-keyboard-response","140","229795","0.0-1.0-183.0","0","0","28333","","null","","","null","20","NaN","","","","","","","","","","","","","","",""
"","S2","","html-keyboard-response","141","230048","0.0-1.0-184.0","0","0","28333","","null","","","null","20","","NaN","","","","","","","","","","","","","",""
"","response","","html-keyboard-response","142","230510","0.0-1.0-185.0-0.0","0","0","28333","","460","","","68","20","","","1","20","training","adjacent","BA","2","1","O.jpg","N.jpg","0","0","1","",""
"","feedback","","html-keyboard-response","143","231512","0.0-1.0-186.0-0.0","0","0","28333","","null","","","null","20","","","","","","","","","","","","","","","",""
"","ITI","","html-keyboard-response","144","232515","0.0-1.0-189.0","0","0","28333","","null","","","null","20","","","","","","","","","","","","","","","NaN",""
"","S1","","html-keyboard-response","145","232768","0.0-1.0-191.0","0","0","28333","","null","","","null","21","","","","","","","","","","","","","","","",""
"","ISI","","html-keyboard-response","146","234771","0.0-1.0-192.0","0","0","28333","","null","","","null","21","NaN","","","","","","","","","","","","","","",""
"","S2","","html-keyboard-response","147","235025","0.0-1.0-193.0","0","0","28333","","null","","","null","21","","NaN","","","","","","","","","","","","","",""
"","response","","html-keyboard-response","148","235267","0.0-1.0-194.0-0.0","0","0","28333","","241","","","75","21","","","1","21","training","adjacent","ED","5","4","Q.jpg","R.jpg","1","0","0","",""
"","feedback","","html-keyboard-response","149","236270","0.0-1.0-195.0-0.0","0","0","28333","","null","","","null","21","","","","","","","","","","","","","","","",""
"","time_out","","html-keyboard-response","150","238272","0.0-1.0-197.0-0.0","0","0","28333","","null","","","null","21","","","","","","","","","","","","","","","",""
"","ITI","","html-keyboard-response","151","239274","0.0-1.0-198.0","0","0","28333","","null","","","null","21","","","","","","","","","","","","","","","NaN",""
"","S1","","html-keyboard-response","152","239527","0.0-1.0-200.0","0","0","28333","","null","","","null","22","","","","","","","","","","","","","","","",""
"","ISI","","html-keyboard-response","153","241529","0.0-1.0-201.0","0","0","28333","","null","","","null","22","NaN","","","","","","","","","","","","","","",""
"","S2","","html-keyboard-response","154","241782","0.0-1.0-202.0","0","0","28333","","null","","","null","22","","NaN","","","","","","","","","","","","","",""
"","response","","html-keyboard-response","155","242322","0.0-1.0-203.0-0.0","0","0","28333","","539","","","68","22","","","1","22","training","adjacent","BC","2","3","O.jpg","P.jpg","0","1","0","",""
"","feedback","","html-keyboard-response","156","243324","0.0-1.0-204.0-0.0","0","0","28333","","null","","","null","22","","","","","","","","","","","","","","","",""
"","time_out","","html-keyboard-response","157","245327","0.0-1.0-206.0-0.0","0","0","28333","","null","","","null","22","","","","","","","","","","","","","","","",""
"","ITI","","html-keyboard-response","158","246329","0.0-1.0-207.0","0","0","28333","","null","","","null","22","","","","","","","","","","","","","","","NaN",""
"","S1","","html-keyboard-response","159","246582","0.0-1.0-209.0","0","0","28333","","null","","","null","23","","","","","","","","","","","","","","","",""
"","ISI","","html-keyboard-response","160","248585","0.0-1.0-210.0","0","0","28333","","null","","","null","23","NaN","","","","","","","","","","","","","","",""
"","S2","","html-keyboard-response","161","248837","0.0-1.0-211.0","0","0","28333","","null","","","null","23","","NaN","","","","","","","","","","","","","",""
"","response","","html-keyboard-response","162","249187","0.0-1.0-212.0-0.0","0","0","28333","","349","","","75","23","","","1","23","training","adjacent","DC","4","3","R.jpg","P.jpg","1","0","0","",""
"","feedback","","html-keyboard-response","163","250190","0.0-1.0-213.0-0.0","0","0","28333","","null","","","null","23","","","","","","","","","","","","","","","",""
"","time_out","","html-keyboard-response","164","252192","0.0-1.0-215.0-0.0","0","0","28333","","null","","","null","23","","","","","","","","","","","","","","","",""
"","ITI","","html-keyboard-response","165","253196","0.0-1.0-216.0","0","0","28333","","null","","","null","23","","","","","","","","","","","","","","","NaN",""
"","S1","","html-keyboard-response","166","253448","0.0-1.0-218.0","0","0","28333","","null","","","null","24","","","","","","","","","","","","","","","",""
"","ISI","","html-keyboard-response","167","255451","0.0-1.0-219.0","0","0","28333","","null","","","null","24","NaN","","","","","","","","","","","","","","",""
"","S2","","html-keyboard-response","168","255703","0.0-1.0-220.0","0","0","28333","","null","","","null","24","","NaN","","","","","","","","","","","","","",""
"","response","","html-keyboard-response","169","256123","0.0-1.0-221.0-0.0","0","0","28333","","419","","","68","24","","","1","24","training","adjacent","CD","3","4","P.jpg","R.jpg","0","1","0","",""
"","feedback","","html-keyboard-response","170","257125","0.0-1.0-222.0-0.0","0","0","28333","","null","","","null","24","","","","","","","","","","","","","","","",""
"","time_out","","html-keyboard-response","171","259128","0.0-1.0-224.0-0.0","0","0","28333","","null","","","null","24","","","","","","","","","","","","","","","",""
"","ITI","","html-keyboard-response","172","260131","0.0-1.0-225.0","0","0","28333","","null","","","null","24","","","","","","","","","","","","","","","NaN",""
"","S1","","html-keyboard-response","173","260385","0.0-1.0-227.0","0","0","28333","","null","","","null","25","","","","","","","","","","","","","","","",""
"","ISI","","html-keyboard-response","174","262387","0.0-1.0-228.0","0","0","28333","","null","","","null","25","NaN","","","","","","","","","","","","","","",""
"","S2","","html-keyboard-response","175","262641","0.0-1.0-229.0","0","0","28333","","null","","","null","25","","NaN","","","","","","","","","","","","","",""
"","response","","html-keyboard-response","176","263100","0.0-1.0-230.0-0.0","0","0","28333","","458","","","75","25","","","1","25","training","adjacent","CB","3","2","P.jpg","O.jpg","1","0","0","",""
"","feedback","","html-keyboard-response","177","264103","0.0-1.0-231.0-0.0","0","0","28333","","null","","","null","25","","","","","","","","","","","","","","","",""
"","time_out","","html-keyboard-response","178","266105","0.0-1.0-233.0-0.0","0","0","28333","","null","","","null","25","","","","","","","","","","","","","","","",""
"","ITI","","html-keyboard-response","179","267108","0.0-1.0-234.0","0","0","28333","","null","","","null","25","","","","","","","","","","","","","","","NaN",""
"","S1","","html-keyboard-response","180","267360","0.0-1.0-236.0","0","0","28333","","null","","","null","26","","","","","","","","","","","","","","","",""
"","ISI","","html-keyboard-response","181","269363","0.0-1.0-237.0","0","0","28333","","null","","","null","26","NaN","","","","","","","","","","","","","","",""
"","S2","","html-keyboard-response","182","269616","0.0-1.0-238.0","0","0","28333","","null","","","null","26","","NaN","","","","","","","","","","","","","",""
"","response","","html-keyboard-response","183","270137","0.0-1.0-239.0-0.0","0","0","28333","","519","","","68","26","","","1","26","training","adjacent","EF","5","6","Q.jpg","M.jpg","0","1","0","",""
"","feedback","","html-keyboard-response","184","271141","0.0-1.0-240.0-0.0","0","0","28333","","null","","","null","26","","","","","","","","","","","","","","","",""
"","time_out","","html-keyboard-response","185","273143","0.0-1.0-242.0-0.0","0","0","28333","","null","","","null","26","","","","","","","","","","","","","","","",""
"","ITI","","html-keyboard-response","186","274145","0.0-1.0-243.0","0","0","28333","","null","","","null","26","","","","","","","","","","","","","","","NaN",""
"","S1","","html-keyboard-response","187","274397","0.0-1.0-245.0","0","0","28333","","null","","","null","27","","","","","","","","","","","","","","","",""
"","ISI","","html-keyboard-response","188","276400","0.0-1.0-246.0","0","0","28333","","null","","","null","27","NaN","","","","","","","","","","","","","","",""
"","S2","","html-keyboard-response","189","276652","0.0-1.0-247.0","0","0","28333","","null","","","null","27","","NaN","","","","","","","","","","","","","",""
"","response","","html-keyboard-response","190","276997","0.0-1.0-248.0-0.0","0","0","28333","","342","","","75","27","","","1","27","training","adjacent","BA","2","1","O.jpg","N.jpg","1","0","0","",""
"","feedback","","html-keyboard-response","191","278000","0.0-1.0-249.0-0.0","0","0","28333","","null","","","null","27","","","","","","","","","","","","","","","",""
"","time_out","","html-keyboard-response","192","280002","0.0-1.0-251.0-0.0","0","0","28333","","null","","","null","27","","","","","","","","","","","","","","","",""
"","ITI","","html-keyboard-response","193","281005","0.0-1.0-252.0","0","0","28333","","null","","","null","27","","","","","","","","","","","","","","","NaN",""
"","S1","","html-keyboard-response","194","281258","0.0-1.0-254.0","0","0","28333","","null","","","null","28","","","","","","","","","","","","","","","",""
"","ISI","","html-keyboard-response","195","283261","0.0-1.0-255.0","0","0","28333","","null","","","null","28","NaN","","","","","","","","","","","","","","",""
"","S2","","html-keyboard-response","196","283514","0.0-1.0-256.0","0","0","28333","","null","","","null","28","","NaN","","","","","","","","","","","","","",""
"","response","","html-keyboard-response","197","283857","0.0-1.0-257.0-0.0","0","0","28333","","340","","","68","28","","","1","28","training","adjacent","GF","7","6","L.jpg","M.jpg","0","0","1","",""
"","feedback","","html-keyboard-response","198","284861","0.0-1.0-258.0-0.0","0","0","28333","","null","","","null","28","","","","","","","","","","","","","","","",""
"","ITI","","html-keyboard-response","199","285864","0.0-1.0-261.0","0","0","28333","","null","","","null","28","","","","","","","","","","","","","","","NaN",""
"","S1","","html-keyboard-response","200","286117","0.0-1.0-263.0","0","0","28333","","null","","","null","29","","","","","","","","","","","","","","","",""
"","ISI","","html-keyboard-response","201","288119","0.0-1.0-264.0","0","0","28333","","null","","","null","29","NaN","","","","","","","","","","","","","","",""
"","S2","","html-keyboard-response","202","288372","0.0-1.0-265.0","0","0","28333","","null","","","null","29","","NaN","","","","","","","","","","","","","",""
"","response","","html-keyboard-response","203","288923","0.0-1.0-266.0-0.0","0","0","28333","","550","","","68","29","","","1","29","training","adjacent","FE","6","5","M.jpg","Q.jpg","0","0","1","",""
"","feedback","","html-keyboard-response","204","289926","0.0-1.0-267.0-0.0","0","0","28333","","null","","","null","29","","","","","","","","","","","","","","","",""
"","ITI","","html-keyboard-response","205","290929","0.0-1.0-270.0","0","0","28333","","null","","","null","29","","","","","","","","","","","","","","","NaN",""
"","S1","","html-keyboard-response","206","291182","0.0-1.0-272.0","0","0","28333","","null","","","null","30","","","","","","","","","","","","","","","",""
"","ISI","","html-keyboard-response","207","293184","0.0-1.0-273.0","0","0","28333","","null","","","null","30","NaN","","","","","","","","","","","","","","",""
"","S2","","html-keyboard-response","208","293437","0.0-1.0-274.0","0","0","28333","","null","","","null","30","","NaN","","","","","","","","","","","","","",""
"","response","","html-keyboard-response","209","293735","0.0-1.0-275.0-0.0","0","0","28333","","297","","","68","30","","","1","30","training","adjacent","DC","4","3","R.jpg","P.jpg","0","0","1","",""
"","feedback","","html-keyboard-response","210","294738","0.0-1.0-276.0-0.0","0","0","28333","","null","","","null","30","","","","","","","","","","","","","","","",""
"","ITI","","html-keyboard-response","211","295741","0.0-1.0-279.0","0","0","28333","","null","","","null","30","","","","","","","","","","","","","","","NaN",""
"","S1","","html-keyboard-response","212","295993","0.0-1.0-281.0","0","0","28333","","null","","","null","31","","","","","","","","","","","","","","","",""
"","ISI","","html-keyboard-response","213","297996","0.0-1.0-282.0","0","0","28333","","null","","","null","31","NaN","","","","","","","","","","","","","","",""
"","S2","","html-keyboard-response","214","298253","0.0-1.0-283.0","0","0","28333","","null","","","null","31","","NaN","","","","","","","","","","","","","",""
"","response","","html-keyboard-response","215","299096","0.0-1.0-284.0-0.0","0","0","28333","","842","","","68","31","","","1","31","training","adjacent","BA","2","1","O.jpg","N.jpg","0","0","1","",""
"","feedback","","html-keyboard-response","216","300100","0.0-1.0-285.0-0.0","0","0","28333","","null","","","null","31","","","","","","","","","","","","","","","",""
"","ITI","","html-keyboard-response","217","301102","0.0-1.0-288.0","0","0","28333","","null","","","null","31","","","","","","","","","","","","","","","NaN",""
"","S1","","html-keyboard-response","218","301354","0.0-1.0-290.0","0","0","28333","","null","","","null","32","","","","","","","","","","","","","","","",""
"","ISI","","html-keyboard-response","219","303356","0.0-1.0-291.0","0","0","28333","","null","","","null","32","NaN","","","","","","","","","","","","","","",""
"","S2","","html-keyboard-response","220","303610","0.0-1.0-292.0","0","0","28333","","null","","","null","32","","NaN","","","","","","","","","","","","","",""
"","response","","html-keyboard-response","221","303774","0.0-1.0-293.0-0.0","0","0","28333","","162","","","75","32","","","1","32","training","adjacent","AB","1","2","N.jpg","O.jpg","1","1","1","",""
"","feedback","","html-keyboard-response","222","304777","0.0-1.0-294.0-0.0","0","0","28333","","null","","","null","32","","","","","","","","","","","","","","","",""
"","ITI","","html-keyboard-response","223","305780","0.0-1.0-297.0","0","0","28333","","null","","","null","32","","","","","","","","","","","","","","","NaN",""
"","S1","","html-keyboard-response","224","306033","0.0-1.0-299.0","0","0","28333","","null","","","null","33","","","","","","","","","","","","","","","",""
"","ISI","","html-keyboard-response","225","308036","0.0-1.0-300.0","0","0","28333","","null","","","null","33","NaN","","","","","","","","","","","","","","",""
"","S2","","html-keyboard-response","226","308289","0.0-1.0-301.0","0","0","28333","","null","","","null","33","","NaN","","","","","","","","","","","","","",""
"","response","","html-keyboard-response","227","308995","0.0-1.0-302.0-0.0","0","0","28333","","705","","","68","33","","","1","33","training","adjacent","EF","5","6","Q.jpg","M.jpg","0","1","0","",""
"","feedback","","html-keyboard-response","228","309997","0.0-1.0-303.0-0.0","0","0","28333","","null","","","null","33","","","","","","","","","","","","","","","",""
"","time_out","","html-keyboard-response","229","312000","0.0-1.0-305.0-0.0","0","0","28333","","null","","","null","33","","","","","","","","","","","","","","","",""
"","ITI","","html-keyboard-response","230","313002","0.0-1.0-306.0","0","0","28333","","null","","","null","33","","","","","","","","","","","","","","","NaN",""
"","S1","","html-keyboard-response","231","313253","0.0-1.0-308.0","0","0","28333","","null","","","null","34","","","","","","","","","","","","","","","",""
"","ISI","","html-keyboard-response","232","315256","0.0-1.0-309.0","0","0","28333","","null","","","null","34","NaN","","","","","","","","","","","","","","",""
"","S2","","html-keyboard-response","233","315509","0.0-1.0-310.0","0","0","28333","","null","","","null","34","","NaN","","","","","","","","","","","","","",""
"","response","","html-keyboard-response","234","315761","0.0-1.0-311.0-0.0","0","0","28333","","250","","","75","34","","","1","34","training","adjacent","CB","3","2","P.jpg","O.jpg","1","0","0","",""
"","feedback","","html-keyboard-response","235","316763","0.0-1.0-312.0-0.0","0","0","28333","","null","","","null","34","","","","","","","","","","","","","","","",""
"","time_out","","html-keyboard-response","236","318767","0.0-1.0-314.0-0.0","0","0","28333","","null","","","null","34","","","","","","","","","","","","","","","",""
"","ITI","","html-keyboard-response","237","319769","0.0-1.0-315.0","0","0","28333","","null","","","null","34","","","","","","","","","","","","","","","NaN",""
"","S1","","html-keyboard-response","238","320022","0.0-1.0-317.0","0","0","28333","","null","","","null","35","","","","","","","","","","","","","","","",""
"","ISI","","html-keyboard-response","239","322024","0.0-1.0-318.0","0","0","28333","","null","","","null","35","NaN","","","","","","","","","","","","","","",""
"","S2","","html-keyboard-response","240","322278","0.0-1.0-319.0","0","0","28333","","null","","","null","35","","NaN","","","","","","","","","","","","","",""
"","response","","html-keyboard-response","241","322502","0.0-1.0-320.0-0.0","0","0","28333","","223","","","75","35","","","1","35","training","adjacent","AB","1","2","N.jpg","O.jpg","1","1","1","",""
"","feedback","","html-keyboard-response","242","323505","0.0-1.0-321.0-0.0","0","0","28333","","null","","","null","35","","","","","","","","","","","","","","","",""
"","ITI","","html-keyboard-response","243","324508","0.0-1.0-324.0","0","0","28333","","null","","","null","35","","","","","","","","","","","","","","","NaN",""
"","S1","","html-keyboard-response","244","324760","0.0-1.0-326.0","0","0","28333","","null","","","null","36","","","","","","","","","","","","","","","",""
"","ISI","","html-keyboard-response","245","326763","0.0-1.0-327.0","0","0","28333","","null","","","null","36","NaN","","","","","","","","","","","","","","",""
"","S2","","html-keyboard-response","246","327016","0.0-1.0-328.0","0","0","28333","","null","","","null","36","","NaN","","","","","","","","","","","","","",""
"","response","","html-keyboard-response","247","327554","0.0-1.0-329.0-0.0","0","0","28333","","537","","","75","36","","","1","36","training","adjacent","BC","2","3","O.jpg","P.jpg","1","1","1","",""
"","feedback","","html-keyboard-response","248","328558","0.0-1.0-330.0-0.0","0","0","28333","","null","","","null","36","","","","","","","","","","","","","","","",""
"","ITI","","html-keyboard-response","249","329561","0.0-1.0-333.0","0","0","28333","","null","","","null","36","","","","","","","","","","","","","","","NaN",""
"","S1","","html-keyboard-response","250","329813","0.0-1.0-335.0","0","0","28333","","null","","","null","37","","","","","","","","","","","","","","","",""
"","ISI","","html-keyboard-response","251","331815","0.0-1.0-336.0","0","0","28333","","null","","","null","37","NaN","","","","","","","","","","","","","","",""
"","S2","","html-keyboard-response","252","332068","0.0-1.0-337.0","0","0","28333","","null","","","null","37","","NaN","","","","","","","","","","","","","",""
"","response","","html-keyboard-response","253","332314","0.0-1.0-338.0-0.0","0","0","28333","","244","","","75","37","","","1","37","training","adjacent","AB","1","2","N.jpg","O.jpg","1","1","1","",""
"","feedback","","html-keyboard-response","254","333316","0.0-1.0-339.0-0.0","0","0","28333","","null","","","null","37","","","","","","","","","","","","","","","",""
"","ITI","","html-keyboard-response","255","334318","0.0-1.0-342.0","0","0","28333","","null","","","null","37","","","","","","","","","","","","","","","NaN",""
"","S1","","html-keyboard-response","256","334571","0.0-1.0-344.0","0","0","28333","","null","","","null","38","","","","","","","","","","","","","","","",""
"","ISI","","html-keyboard-response","257","336574","0.0-1.0-345.0","0","0","28333","","null","","","null","38","NaN","","","","","","","","","","","","","","",""
"","S2","","html-keyboard-response","258","336826","0.0-1.0-346.0","0","0","28333","","null","","","null","38","","NaN","","","","","","","","","","","","","",""
"","response","","html-keyboard-response","259","337096","0.0-1.0-347.0-0.0","0","0","28333","","268","","","75","38","","","1","38","training","adjacent","AB","1","2","N.jpg","O.jpg","1","1","1","",""
"","feedback","","html-keyboard-response","260","338098","0.0-1.0-348.0-0.0","0","0","28333","","null","","","null","38","","","","","","","","","","","","","","","",""
"","ITI","","html-keyboard-response","261","339101","0.0-1.0-351.0","0","0","28333","","null","","","null","38","","","","","","","","","","","","","","","NaN",""
"","S1","","html-keyboard-response","262","339354","0.0-1.0-353.0","0","0","28333","","null","","","null","39","","","","","","","","","","","","","","","",""
"","ISI","","html-keyboard-response","263","341357","0.0-1.0-354.0","0","0","28333","","null","","","null","39","NaN","","","","","","","","","","","","","","",""
"","S2","","html-keyboard-response","264","341610","0.0-1.0-355.0","0","0","28333","","null","","","null","39","","NaN","","","","","","","","","","","","","",""
"","response","","html-keyboard-response","265","342248","0.0-1.0-356.0-0.0","0","0","28333","","636","","","68","39","","","1","39","training","adjacent","FE","6","5","M.jpg","Q.jpg","0","0","1","",""
"","feedback","","html-keyboard-response","266","343252","0.0-1.0-357.0-0.0","0","0","28333","","null","","","null","39","","","","","","","","","","","","","","","",""
"","ITI","","html-keyboard-response","267","344255","0.0-1.0-360.0","0","0","28333","","null","","","null","39","","","","","","","","","","","","","","","NaN",""
"","S1","","html-keyboard-response","268","344508","0.0-1.0-362.0","0","0","28333","","null","","","null","40","","","","","","","","","","","","","","","",""
"","ISI","","html-keyboard-response","269","346510","0.0-1.0-363.0","0","0","28333","","null","","","null","40","NaN","","","","","","","","","","","","","","",""
"","S2","","html-keyboard-response","270","346763","0.0-1.0-364.0","0","0","28333","","null","","","null","40","","NaN","","","","","","","","","","","","","",""
"","response","","html-keyboard-response","271","347624","0.0-1.0-365.0-0.0","0","0","28333","","861","","","68","40","","","1","40","training","adjacent","CB","3","2","P.jpg","O.jpg","0","0","1","",""
"","feedback","","html-keyboard-response","272","348626","0.0-1.0-366.0-0.0","0","0","28333","","null","","","null","40","","","","","","","","","","","","","","","",""
"","ITI","","html-keyboard-response","273","349629","0.0-1.0-369.0","0","0","28333","","null","","","null","40","","","","","","","","","","","","","","","NaN",""
"","S1","","html-keyboard-response","274","349883","0.0-1.0-371.0","0","0","28333","","null","","","null","41","","","","","","","","","","","","","","","",""
"","ISI","","html-keyboard-response","275","351886","0.0-1.0-372.0","0","0","28333","","null","","","null","41","NaN","","","","","","","","","","","","","","",""
"","S2","","html-keyboard-response","276","352139","0.0-1.0-373.0","0","0","28333","","null","","","null","41","","NaN","","","","","","","","","","","","","",""
"","response","","html-keyboard-response","277","352790","0.0-1.0-374.0-0.0","0","0","28333","","650","","","75","41","","","1","41","training","adjacent","FE","6","5","M.jpg","Q.jpg","1","0","0","",""
"","feedback","","html-keyboard-response","278","353792","0.0-1.0-375.0-0.0","0","0","28333","","null","","","null","41","","","","","","","","","","","","","","","",""
"","time_out","","html-keyboard-response","279","355794","0.0-1.0-377.0-0.0","0","0","28333","","null","","","null","41","","","","","","","","","","","","","","","",""
"","ITI","","html-keyboard-response","280","356797","0.0-1.0-378.0","0","0","28333","","null","","","null","41","","","","","","","","","","","","","","","NaN",""
"","S1","","html-keyboard-response","281","357050","0.0-1.0-380.0","0","0","28333","","null","","","null","42","","","","","","","","","","","","","","","",""
"","ISI","","html-keyboard-response","282","359052","0.0-1.0-381.0","0","0","28333","","null","","","null","42","NaN","","","","","","","","","","","","","","",""
"","S2","","html-keyboard-response","283","359303","0.0-1.0-382.0","0","0","28333","","null","","","null","42","","NaN","","","","","","","","","","","","","",""
"","response","","html-keyboard-response","284","359517","0.0-1.0-383.0-0.0","0","0","28333","","212","","","68","42","","","1","42","training","adjacent","DC","4","3","R.jpg","P.jpg","0","0","1","",""
"","feedback","","html-keyboard-response","285","360519","0.0-1.0-384.0-0.0","0","0","28333","","null","","","null","42","","","","","","","","","","","","","","","",""
"","ITI","","html-keyboard-response","286","361521","0.0-1.0-387.0","0","0","28333","","null","","","null","42","","","","","","","","","","","","","","","NaN",""
"","S1","","html-keyboard-response","287","361775","0.0-1.0-389.0","0","0","28333","","null","","","null","43","","","","","","","","","","","","","","","",""
"","ISI","","html-keyboard-response","288","363777","0.0-1.0-390.0","0","0","28333","","null","","","null","43","NaN","","","","","","","","","","","","","","",""
"","S2","","html-keyboard-response","289","364037","0.0-1.0-391.0","0","0","28333","","null","","","null","43","","NaN","","","","","","","","","","","","","",""
"","response","","html-keyboard-response","290","364457","0.0-1.0-392.0-0.0","0","0","28333","","418","","","75","43","","","1","43","training","adjacent","GF","7","6","L.jpg","M.jpg","1","0","0","",""
"","feedback","","html-keyboard-response","291","365460","0.0-1.0-393.0-0.0","0","0","28333","","null","","","null","43","","","","","","","","","","","","","","","",""
"","time_out","","html-keyboard-response","292","367465","0.0-1.0-395.0-0.0","0","0","28333","","null","","","null","43","","","","","","","","","","","","","","","",""
"","ITI","","html-keyboard-response","293","368468","0.0-1.0-396.0","0","0","28333","","null","","","null","43","","","","","","","","","","","","","","","NaN",""
"","S1","","html-keyboard-response","294","368721","0.0-1.0-398.0","0","0","28333","","null","","","null","44","","","","","","","","","","","","","","","",""
"","ISI","","html-keyboard-response","295","370724","0.0-1.0-399.0","0","0","28333","","null","","","null","44","NaN","","","","","","","","","","","","","","",""
"","S2","","html-keyboard-response","296","370975","0.0-1.0-400.0","0","0","28333","","null","","","null","44","","NaN","","","","","","","","","","","","","",""
"","response","","html-keyboard-response","297","371359","0.0-1.0-401.0-0.0","0","0","28333","","382","","","75","44","","","1","44","training","adjacent","CD","3","4","P.jpg","R.jpg","1","1","1","",""
"","feedback","","html-keyboard-response","298","372362","0.0-1.0-402.0-0.0","0","0","28333","","null","","","null","44","","","","","","","","","","","","","","","",""
"","ITI","","html-keyboard-response","299","373366","0.0-1.0-405.0","0","0","28333","","null","","","null","44","","","","","","","","","","","","","","","NaN",""
"","S1","","html-keyboard-response","300","373618","0.0-1.0-407.0","0","0","28333","","null","","","null","45","","","","","","","","","","","","","","","",""
"","ISI","","html-keyboard-response","301","375621","0.0-1.0-408.0","0","0","28333","","null","","","null","45","NaN","","","","","","","","","","","","","","",""
"","S2","","html-keyboard-response","302","375874","0.0-1.0-409.0","0","0","28333","","null","","","null","45","","NaN","","","","","","","","","","","","","",""
"","response","","html-keyboard-response","303","376262","0.0-1.0-410.0-0.0","0","0","28333","","387","","","75","45","","","1","45","training","adjacent","EF","5","6","Q.jpg","M.jpg","1","1","1","",""
"","feedback","","html-keyboard-response","304","377265","0.0-1.0-411.0-0.0","0","0","28333","","null","","","null","45","","","","","","","","","","","","","","","",""
"","ITI","","html-keyboard-response","305","378267","0.0-1.0-414.0","0","0","28333","","null","","","null","45","","","","","","","","","","","","","","","NaN",""
"","S1","","html-keyboard-response","306","378521","0.0-1.0-416.0","0","0","28333","","null","","","null","46","","","","","","","","","","","","","","","",""
"","ISI","","html-keyboard-response","307","380524","0.0-1.0-417.0","0","0","28333","","null","","","null","46","NaN","","","","","","","","","","","","","","",""
"","S2","","html-keyboard-response","308","380776","0.0-1.0-418.0","0","0","28333","","null","","","null","46","","NaN","","","","","","","","","","","","","",""
"","response","","html-keyboard-response","309","381042","0.0-1.0-419.0-0.0","0","0","28333","","264","","","68","46","","","1","46","training","adjacent","FG","6","7","M.jpg","L.jpg","0","1","0","",""
"","feedback","","html-keyboard-response","310","382045","0.0-1.0-420.0-0.0","0","0","28333","","null","","","null","46","","","","","","","","","","","","","","","",""
"","time_out","","html-keyboard-response","311","384047","0.0-1.0-422.0-0.0","0","0","28333","","null","","","null","46","","","","","","","","","","","","","","","",""
"","ITI","","html-keyboard-response","312","385049","0.0-1.0-423.0","0","0","28333","","null","","","null","46","","","","","","","","","","","","","","","NaN",""
"","S1","","html-keyboard-response","313","385301","0.0-1.0-425.0","0","0","28333","","null","","","null","47","","","","","","","","","","","","","","","",""
"","ISI","","html-keyboard-response","314","387303","0.0-1.0-426.0","0","0","28333","","null","","","null","47","NaN","","","","","","","","","","","","","","",""
"","S2","","html-keyboard-response","315","387555","0.0-1.0-427.0","0","0","28333","","null","","","null","47","","NaN","","","","","","","","","","","","","",""
"","response","","html-keyboard-response","316","387900","0.0-1.0-428.0-0.0","0","0","28333","","343","","","75","47","","","1","47","training","adjacent","ED","5","4","Q.jpg","R.jpg","1","0","0","",""
"","feedback","","html-keyboard-response","317","388902","0.0-1.0-429.0-0.0","0","0","28333","","null","","","null","47","","","","","","","","","","","","","","","",""
"","time_out","","html-keyboard-response","318","390905","0.0-1.0-431.0-0.0","0","0","28333","","null","","","null","47","","","","","","","","","","","","","","","",""
"","ITI","","html-keyboard-response","319","391908","0.0-1.0-432.0","0","0","28333","","null","","","null","47","","","","","","","","","","","","","","","NaN",""
"","block_over","","html-keyboard-response","320","402141","0.0-1.0-433.0-0.0","0","0","28333","","10232","","","32","47","","","","","","","","","","","","","","","",""
"","S1","","html-keyboard-response","321","402394","0.0-1.0-434.0","0","0","28333","","null","","","null","48","","","","","","","","","","","","","","","",""
"","ISI","","html-keyboard-response","322","404397","0.0-1.0-435.0","0","0","28333","","null","","","null","48","NaN","","","","","","","","","","","","","","",""
"","S2","","html-keyboard-response","323","404650","0.0-1.0-436.0","0","0","28333","","null","","","null","48","","NaN","","","","","","","","","","","","","",""
"","response","","html-keyboard-response","324","405032","0.0-1.0-437.0-0.0","0","0","28333","","381","","","68","48","","","2","48","training","adjacent","FG","6","7","M.jpg","L.jpg","0","1","0","",""
"","feedback","","html-keyboard-response","325","406035","0.0-1.0-438.0-0.0","0","0","28333","","null","","","null","48","","","","","","","","","","","","","","","",""
"","time_out","","html-keyboard-response","326","408037","0.0-1.0-440.0-0.0","0","0","28333","","null","","","null","48","","","","","","","","","","","","","","","",""
"","ITI","","html-keyboard-response","327","409039","0.0-1.0-441.0","0","0","28333","","null","","","null","48","","","","","","","","","","","","","","","NaN",""
"","S1","","html-keyboard-response","328","409291","0.0-1.0-443.0","0","0","28333","","null","","","null","49","","","","","","","","","","","","","","","",""
"","ISI","","html-keyboard-response","329","411294","0.0-1.0-444.0","0","0","28333","","null","","","null","49","NaN","","","","","","","","","","","","","","",""
"","S2","","html-keyboard-response","330","411546","0.0-1.0-445.0","0","0","28333","","null","","","null","49","","NaN","","","","","","","","","","","","","",""
"","response","","html-keyboard-response","331","411756","0.0-1.0-446.0-0.0","0","0","28333","","207","","","75","49","","","2","49","training","adjacent","CB","3","2","P.jpg","O.jpg","1","0","0","",""
"","feedback","","html-keyboard-response","332","412759","0.0-1.0-447.0-0.0","0","0","28333","","null","","","null","49","","","","","","","","","","","","","","","",""
"","time_out","","html-keyboard-response","333","414762","0.0-1.0-449.0-0.0","0","0","28333","","null","","","null","49","","","","","","","","","","","","","","","",""
"","ITI","","html-keyboard-response","334","415764","0.0-1.0-450.0","0","0","28333","","null","","","null","49","","","","","","","","","","","","","","","NaN",""
"","S1","","html-keyboard-response","335","416016","0.0-1.0-452.0","0","0","28333","","null","","","null","50","","","","","","","","","","","","","","","",""
"","ISI","","html-keyboard-response","336","418018","0.0-1.0-453.0","0","0","28333","","null","","","null","50","NaN","","","","","","","","","","","","","","",""
"","S2","","html-keyboard-response","337","418271","0.0-1.0-454.0","0","0","28333","","null","","","null","50","","NaN","","","","","","","","","","","","","",""
"","response","","html-keyboard-response","338","418469","0.0-1.0-455.0-0.0","0","0","28333","","196","","","68","50","","","2","50","training","adjacent","GF","7","6","L.jpg","M.jpg","0","0","1","",""
"","feedback","","html-keyboard-response","339","419472","0.0-1.0-456.0-0.0","0","0","28333","","null","","","null","50","","","","","","","","","","","","","","","",""
"","ITI","","html-keyboard-response","340","420474","0.0-1.0-459.0","0","0","28333","","null","","","null","50","","","","","","","","","","","","","","","NaN",""
"","S1","","html-keyboard-response","341","420727","0.0-1.0-461.0","0","0","28333","","null","","","null","51","","","","","","","","","","","","","","","",""
"","ISI","","html-keyboard-response","342","422730","0.0-1.0-462.0","0","0","28333","","null","","","null","51","NaN","","","","","","","","","","","","","","",""
"","S2","","html-keyboard-response","343","422984","0.0-1.0-463.0","0","0","28333","","null","","","null","51","","NaN","","","","","","","","","","","","","",""
"","response","","html-keyboard-response","344","423197","0.0-1.0-464.0-0.0","0","0","28333","","211","","","75","51","","","2","51","training","adjacent","CB","3","2","P.jpg","O.jpg","1","0","0","",""
"","feedback","","html-keyboard-response","345","424200","0.0-1.0-465.0-0.0","0","0","28333","","null","","","null","51","","","","","","","","","","","","","","","",""
"","time_out","","html-keyboard-response","346","426202","0.0-1.0-467.0-0.0","0","0","28333","","null","","","null","51","","","","","","","","","","","","","","","",""
"","ITI","","html-keyboard-response","347","427204","0.0-1.0-468.0","0","0","28333","","null","","","null","51","","","","","","","","","","","","","","","NaN",""
"","S1","","html-keyboard-response","348","427457","0.0-1.0-470.0","0","0","28333","","null","","","null","52","","","","","","","","","","","","","","","",""
"","ISI","","html-keyboard-response","349","429460","0.0-1.0-471.0","0","0","28333","","null","","","null","52","NaN","","","","","","","","","","","","","","",""
"","S2","","html-keyboard-response","350","429711","0.0-1.0-472.0","0","0","28333","","null","","","null","52","","NaN","","","","","","","","","","","","","",""
"","response","","html-keyboard-response","351","430118","0.0-1.0-473.0-0.0","0","0","28333","","405","","","68","52","","","2","52","training","adjacent","DE","4","5","R.jpg","Q.jpg","0","1","0","",""
"","feedback","","html-keyboard-response","352","431121","0.0-1.0-474.0-0.0","0","0","28333","","null","","","null","52","","","","","","","","","","","","","","","",""
"","time_out","","html-keyboard-response","353","433123","0.0-1.0-476.0-0.0","0","0","28333","","null","","","null","52","","","","","","","","","","","","","","","",""
"","ITI","","html-keyboard-response","354","434125","0.0-1.0-477.0","0","0","28333","","null","","","null","52","","","","","","","","","","","","","","","NaN",""
"","S1","","html-keyboard-response","355","434376","0.0-1.0-479.0","0","0","28333","","null","","","null","53","","","","","","","","","","","","","","","",""
"","ISI","","html-keyboard-response","356","436378","0.0-1.0-480.0","0","0","28333","","null","","","null","53","NaN","","","","","","","","","","","","","","",""
"","S2","","html-keyboard-response","357","436631","0.0-1.0-481.0","0","0","28333","","null","","","null","53","","NaN","","","","","","","","","","","","","",""
"","response","","html-keyboard-response","358","436769","0.0-1.0-482.0-0.0","0","0","28333","","136","","","75","53","","","2","53","training","adjacent","CD","3","4","P.jpg","R.jpg","1","1","1","",""
"","feedback","","html-keyboard-response","359","437772","0.0-1.0-483.0-0.0","0","0","28333","","null","","","null","53","","","","","","","","","","","","","","","",""
"","ITI","","html-keyboard-response","360","438775","0.0-1.0-486.0","0","0","28333","","null","","","null","53","","","","","","","","","","","","","","","NaN",""
"","S1","","html-keyboard-response","361","439028","0.0-1.0-488.0","0","0","28333","","null","","","null","54","","","","","","","","","","","","","","","",""
"","ISI","","html-keyboard-response","362","441031","0.0-1.0-489.0","0","0","28333","","null","","","null","54","NaN","","","","","","","","","","","","","","",""
"","S2","","html-keyboard-response","363","441277","0.0-1.0-490.0","0","0","28333","","244","","","75","54","","k","2","54","training","adjacent","GF","7","6","L.jpg","M.jpg","1","0","0","",""
"","feedback","","html-keyboard-response","364","442282","0.0-1.0-492.0-0.0","0","0","28333","","null","","","null","54","","","","","","","","","","","","","","","",""
"","time_out","","html-keyboard-response","365","444284","0.0-1.0-494.0-0.0","0","0","28333","","null","","","null","54","","","","","","","","","","","","","","","",""
"","ITI","","html-keyboard-response","366","445301","0.0-1.0-495.0","0","0","28333","","null","","","null","54","","","","","","","","","","","","","","","NaN",""
"","S1","","html-keyboard-response","367","445554","0.0-1.0-497.0","0","0","28333","","null","","","null","55","","","","","","","","","","","","","","","",""
"","ISI","","html-keyboard-response","368","447556","0.0-1.0-498.0","0","0","28333","","null","","","null","55","NaN","","","","","","","","","","","","","","",""
"","S2","","html-keyboard-response","369","447810","0.0-1.0-499.0","0","0","28333","","null","","","null","55","","NaN","","","","","","","","","","","","","",""
"","response","","html-keyboard-response","370","448097","0.0-1.0-500.0-0.0","0","0","28333","","285","","","68","55","","","2","55","training","adjacent","CD","3","4","P.jpg","R.jpg","0","1","0","",""
"","feedback","","html-keyboard-response","371","449101","0.0-1.0-501.0-0.0","0","0","28333","","null","","","null","55","","","","","","","","","","","","","","","",""
"","time_out","","html-keyboard-response","372","451103","0.0-1.0-503.0-0.0","0","0","28333","","null","","","null","55","","","","","","","","","","","","","","","",""
"","ITI","","html-keyboard-response","373","452105","0.0-1.0-504.0","0","0","28333","","null","","","null","55","","","","","","","","","","","","","","","NaN",""
"","S1","","html-keyboard-response","374","452356","0.0-1.0-506.0","0","0","28333","","null","","","null","56","","","","","","","","","","","","","","","",""
"","ISI","","html-keyboard-response","375","454359","0.0-1.0-507.0","0","0","28333","","null","","","null","56","NaN","","","","","","","","","","","","","","",""
"","S2","","html-keyboard-response","376","454612","0.0-1.0-508.0","0","0","28333","","null","","","null","56","","NaN","","","","","","","","","","","","","",""
"","response","","html-keyboard-response","377","454779","0.0-1.0-509.0-0.0","0","0","28333","","165","","","75","56","","","2","56","training","adjacent","ED","5","4","Q.jpg","R.jpg","1","0","0","",""
"","feedback","","html-keyboard-response","378","455782","0.0-1.0-510.0-0.0","0","0","28333","","null","","","null","56","","","","","","","","","","","","","","","",""
"","time_out","","html-keyboard-response","379","457784","0.0-1.0-512.0-0.0","0","0","28333","","null","","","null","56","","","","","","","","","","","","","","","",""
"","ITI","","html-keyboard-response","380","458787","0.0-1.0-513.0","0","0","28333","","null","","","null","56","","","","","","","","","","","","","","","NaN",""
"","S1","","html-keyboard-response","381","459038","0.0-1.0-515.0","0","0","28333","","null","","","null","57","","","","","","","","","","","","","","","",""
"","ISI","","html-keyboard-response","382","461040","0.0-1.0-516.0","0","0","28333","","null","","","null","57","NaN","","","","","","","","","","","","","","",""
"","S2","","html-keyboard-response","383","461293","0.0-1.0-517.0","0","0","28333","","null","","","null","57","","NaN","","","","","","","","","","","","","",""
"","response","","html-keyboard-response","384","461547","0.0-1.0-518.0-0.0","0","0","28333","","252","","","75","57","","","2","57","training","adjacent","AB","1","2","N.jpg","O.jpg","1","1","1","",""
"","feedback","","html-keyboard-response","385","462551","0.0-1.0-519.0-0.0","0","0","28333","","null","","","null","57","","","","","","","","","","","","","","","",""
"","ITI","","html-keyboard-response","386","463554","0.0-1.0-522.0","0","0","28333","","null","","","null","57","","","","","","","","","","","","","","","NaN",""
"","S1","","html-keyboard-response","387","463807","0.0-1.0-524.0","0","0","28333","","null","","","null","58","","","","","","","","","","","","","","","",""
"","ISI","","html-keyboard-response","388","465809","0.0-1.0-525.0","0","0","28333","","null","","","null","58","NaN","","","","","","","","","","","","","","",""
"","S2","","html-keyboard-response","389","466062","0.0-1.0-526.0","0","0","28333","","null","","","null","58","","NaN","","","","","","","","","","","","","",""
"","response","","html-keyboard-response","390","466596","0.0-1.0-527.0-0.0","0","0","28333","","533","","","68","58","","","2","58","training","adjacent","EF","5","6","Q.jpg","M.jpg","0","1","0","",""
"","feedback","","html-keyboard-response","391","467599","0.0-1.0-528.0-0.0","0","0","28333","","null","","","null","58","","","","","","","","","","","","","","","",""
"","time_out","","html-keyboard-response","392","469601","0.0-1.0-530.0-0.0","0","0","28333","","null","","","null","58","","","","","","","","","","","","","","","",""
"","ITI","","html-keyboard-response","393","470603","0.0-1.0-531.0","0","0","28333","","null","","","null","58","","","","","","","","","","","","","","","NaN",""
"","S1","","html-keyboard-response","394","470856","0.0-1.0-533.0","0","0","28333","","null","","","null","59","","","","","","","","","","","","","","","",""
"","ISI","","html-keyboard-response","395","472859","0.0-1.0-534.0","0","0","28333","","null","","","null","59","NaN","","","","","","","","","","","","","","",""
"","S2","","html-keyboard-response","396","473111","0.0-1.0-535.0","0","0","28333","","null","","","null","59","","NaN","","","","","","","","","","","","","",""
"","response","","html-keyboard-response","397","473438","0.0-1.0-536.0-0.0","0","0","28333","","325","","","75","59","","","2","59","training","adjacent","DE","4","5","R.jpg","Q.jpg","1","1","1","",""
"","feedback","","html-keyboard-response","398","474441","0.0-1.0-537.0-0.0","0","0","28333","","null","","","null","59","","","","","","","","","","","","","","","",""
"","ITI","","html-keyboard-response","399","475443","0.0-1.0-540.0","0","0","28333","","null","","","null","59","","","","","","","","","","","","","","","NaN",""
"","S1","","html-keyboard-response","400","475696","0.0-1.0-542.0","0","0","28333","","null","","","null","60","","","","","","","","","","","","","","","",""
"","ISI","","html-keyboard-response","401","477697","0.0-1.0-543.0","0","0","28333","","null","","","null","60","NaN","","","","","","","","","","","","","","",""
"","S2","","html-keyboard-response","402","477964","0.0-1.0-544.0","0","0","28333","","null","","","null","60","","NaN","","","","","","","","","","","","","",""
"","response","","html-keyboard-response","403","478185","0.0-1.0-545.0-0.0","0","0","28333","","220","","","75","60","","","2","60","training","adjacent","FG","6","7","M.jpg","L.jpg","1","1","1","",""
"","feedback","","html-keyboard-response","404","479187","0.0-1.0-546.0-0.0","0","0","28333","","null","","","null","60","","","","","","","","","","","","","","","",""
"","ITI","","html-keyboard-response","405","480190","0.0-1.0-549.0","0","0","28333","","null","","","null","60","","","","","","","","","","","","","","","NaN",""
"","S1","","html-keyboard-response","406","480443","0.0-1.0-551.0","0","0","28333","","null","","","null","61","","","","","","","","","","","","","","","",""
"","ISI","","html-keyboard-response","407","482445","0.0-1.0-552.0","0","0","28333","","null","","","null","61","NaN","","","","","","","","","","","","","","",""
"","S2","","html-keyboard-response","408","482697","0.0-1.0-553.0","0","0","28333","","null","","","null","61","","NaN","","","","","","","","","","","","","",""
"","response","","html-keyboard-response","409","482958","0.0-1.0-554.0-0.0","0","0","28333","","259","","","75","61","","","2","61","training","adjacent","FE","6","5","M.jpg","Q.jpg","1","0","0","",""
"","feedback","","html-keyboard-response","410","483962","0.0-1.0-555.0-0.0","0","0","28333","","null","","","null","61","","","","","","","","","","","","","","","",""
"","time_out","","html-keyboard-response","411","485964","0.0-1.0-557.0-0.0","0","0","28333","","null","","","null","61","","","","","","","","","","","","","","","",""
"","ITI","","html-keyboard-response","412","486966","0.0-1.0-558.0","0","0","28333","","null","","","null","61","","","","","","","","","","","","","","","NaN",""
"","S1","","html-keyboard-response","413","487220","0.0-1.0-560.0","0","0","28333","","null","","","null","62","","","","","","","","","","","","","","","",""
"","ISI","","html-keyboard-response","414","489221","0.0-1.0-561.0","0","0","28333","","null","","","null","62","NaN","","","","","","","","","","","","","","",""
"","S2","","html-keyboard-response","415","489474","0.0-1.0-562.0","0","0","28333","","null","","","null","62","","NaN","","","","","","","","","","","","","",""
"","response","","html-keyboard-response","416","490018","0.0-1.0-563.0-0.0","0","0","28333","","543","","","75","62","","","2","62","training","adjacent","EF","5","6","Q.jpg","M.jpg","1","1","1","",""
"","feedback","","html-keyboard-response","417","491023","0.0-1.0-564.0-0.0","0","0","28333","","null","","","null","62","","","","","","","","","","","","","","","",""
"","ITI","","html-keyboard-response","418","492026","0.0-1.0-567.0","0","0","28333","","null","","","null","62","","","","","","","","","","","","","","","NaN",""
"","S1","","html-keyboard-response","419","492278","0.0-1.0-569.0","0","0","28333","","null","","","null","63","","","","","","","","","","","","","","","",""
"","ISI","","html-keyboard-response","420","494281","0.0-1.0-570.0","0","0","28333","","null","","","null","63","NaN","","","","","","","","","","","","","","",""
"","S2","","html-keyboard-response","421","494534","0.0-1.0-571.0","0","0","28333","","null","","","null","63","","NaN","","","","","","","","","","","","","",""
"","response","","html-keyboard-response","422","495001","0.0-1.0-572.0-0.0","0","0","28333","","465","","","68","63","","","2","63","training","adjacent","CD","3","4","P.jpg","R.jpg","0","1","0","",""
"","feedback","","html-keyboard-response","423","496004","0.0-1.0-573.0-0.0","0","0","28333","","null","","","null","63","","","","","","","","","","","","","","","",""
"","time_out","","html-keyboard-response","424","498007","0.0-1.0-575.0-0.0","0","0","28333","","null","","","null","63","","","","","","","","","","","","","","","",""
"","ITI","","html-keyboard-response","425","499008","0.0-1.0-576.0","0","0","28333","","null","","","null","63","","","","","","","","","","","","","","","NaN",""
"","S1","","html-keyboard-response","426","499261","0.0-1.0-578.0","0","0","28333","","null","","","null","64","","","","","","","","","","","","","","","",""
"","ISI","","html-keyboard-response","427","501263","0.0-1.0-579.0","0","0","28333","","null","","","null","64","NaN","","","","","","","","","","","","","","",""
"","S2","","html-keyboard-response","428","501516","0.0-1.0-580.0","0","0","28333","","null","","","null","64","","NaN","","","","","","","","","","","","","",""
"","response","","html-keyboard-response","429","501824","0.0-1.0-581.0-0.0","0","0","28333","","307","","","75","64","","","2","64","training","adjacent","ED","5","4","Q.jpg","R.jpg","1","0","0","",""
"","feedback","","html-keyboard-response","430","502826","0.0-1.0-582.0-0.0","0","0","28333","","null","","","null","64","","","","","","","","","","","","","","","",""
"","time_out","","html-keyboard-response","431","504828","0.0-1.0-584.0-0.0","0","0","28333","","null","","","null","64","","","","","","","","","","","","","","","",""
"","ITI","","html-keyboard-response","432","505831","0.0-1.0-585.0","0","0","28333","","null","","","null","64","","","","","","","","","","","","","","","NaN",""
"","S1","","html-keyboard-response","433","506084","0.0-1.0-587.0","0","0","28333","","null","","","null","65","","","","","","","","","","","","","","","",""
"","ISI","","html-keyboard-response","434","508085","0.0-1.0-588.0","0","0","28333","","null","","","null","65","NaN","","","","","","","","","","","","","","",""
"","S2","","html-keyboard-response","435","508337","0.0-1.0-589.0","0","0","28333","","null","","","null","65","","NaN","","","","","","","","","","","","","",""
"","response","","html-keyboard-response","436","508756","0.0-1.0-590.0-0.0","0","0","28333","","418","","","68","65","","","2","65","training","adjacent","GF","7","6","L.jpg","M.jpg","0","0","1","",""
"","feedback","","html-keyboard-response","437","509758","0.0-1.0-591.0-0.0","0","0","28333","","null","","","null","65","","","","","","","","","","","","","","","",""
"","ITI","","html-keyboard-response","438","510760","0.0-1.0-594.0","0","0","28333","","null","","","null","65","","","","","","","","","","","","","","","NaN",""
"","S1","","html-keyboard-response","439","511012","0.0-1.0-596.0","0","0","28333","","null","","","null","66","","","","","","","","","","","","","","","",""
"","ISI","","html-keyboard-response","440","513015","0.0-1.0-597.0","0","0","28333","","null","","","null","66","NaN","","","","","","","","","","","","","","",""
"","S2","","html-keyboard-response","441","513267","0.0-1.0-598.0","0","0","28333","","null","","","null","66","","NaN","","","","","","","","","","","","","",""
"","response","","html-keyboard-response","442","513372","0.0-1.0-599.0-0.0","0","0","28333","","103","","","68","66","","","2","66","training","adjacent","FE","6","5","M.jpg","Q.jpg","0","0","1","",""
"","feedback","","html-keyboard-response","443","514375","0.0-1.0-600.0-0.0","0","0","28333","","null","","","null","66","","","","","","","","","","","","","","","",""
"","ITI","","html-keyboard-response","444","515378","0.0-1.0-603.0","0","0","28333","","null","","","null","66","","","","","","","","","","","","","","","NaN",""
"","S1","","html-keyboard-response","445","515630","0.0-1.0-605.0","0","0","28333","","null","","","null","67","","","","","","","","","","","","","","","",""
"","ISI","","html-keyboard-response","446","517632","0.0-1.0-606.0","0","0","28333","","null","","","null","67","NaN","","","","","","","","","","","","","","",""
"","S2","","html-keyboard-response","447","517884","0.0-1.0-607.0","0","0","28333","","null","","","null","67","","NaN","","","","","","","","","","","","","",""
"","response","","html-keyboard-response","448","518234","0.0-1.0-608.0-0.0","0","0","28333","","348","","","68","67","","","2","67","training","adjacent","GF","7","6","L.jpg","M.jpg","0","0","1","",""
"","feedback","","html-keyboard-response","449","519237","0.0-1.0-609.0-0.0","0","0","28333","","null","","","null","67","","","","","","","","","","","","","","","",""
"","ITI","","html-keyboard-response","450","520240","0.0-1.0-612.0","0","0","28333","","null","","","null","67","","","","","","","","","","","","","","","NaN",""
"","S1","","html-keyboard-response","451","520492","0.0-1.0-614.0","0","0","28333","","null","","","null","68","","","","","","","","","","","","","","","",""
"","ISI","","html-keyboard-response","452","522494","0.0-1.0-615.0","0","0","28333","","null","","","null","68","NaN","","","","","","","","","","","","","","",""
"","S2","","html-keyboard-response","453","522748","0.0-1.0-616.0","0","0","28333","","null","","","null","68","","NaN","","","","","","","","","","","","","",""
"","response","","html-keyboard-response","454","523120","0.0-1.0-617.0-0.0","0","0","28333","","370","","","68","68","","","2","68","training","adjacent","ED","5","4","Q.jpg","R.jpg","0","0","1","",""
"","feedback","","html-keyboard-response","455","524124","0.0-1.0-618.0-0.0","0","0","28333","","null","","","null","68","","","","","","","","","","","","","","","",""
"","ITI","","html-keyboard-response","456","525127","0.0-1.0-621.0","0","0","28333","","null","","","null","68","","","","","","","","","","","","","","","NaN",""
"","S1","","html-keyboard-response","457","525381","0.0-1.0-623.0","0","0","28333","","null","","","null","69","","","","","","","","","","","","","","","",""
"","ISI","","html-keyboard-response","458","527384","0.0-1.0-624.0","0","0","28333","","null","","","null","69","NaN","","","","","","","","","","","","","","",""
"","S2","","html-keyboard-response","459","527638","0.0-1.0-625.0","0","0","28333","","null","","","null","69","","NaN","","","","","","","","","","","","","",""
"","response","","html-keyboard-response","460","527644","0.0-1.0-626.0-0.0","0","0","28333","","6","","","75","69","","","2","69","training","adjacent","AB","1","2","N.jpg","O.jpg","1","1","1","",""
"","feedback","","html-keyboard-response","461","528647","0.0-1.0-627.0-0.0","0","0","28333","","null","","","null","69","","","","","","","","","","","","","","","",""
"","ITI","","html-keyboard-response","462","529650","0.0-1.0-630.0","0","0","28333","","null","","","null","69","","","","","","","","","","","","","","","NaN",""
"","S1","","html-keyboard-response","463","529902","0.0-1.0-632.0","0","0","28333","","null","","","null","70","","","","","","","","","","","","","","","",""
"","ISI","","html-keyboard-response","464","531905","0.0-1.0-633.0","0","0","28333","","null","","","null","70","NaN","","","","","","","","","","","","","","",""
"","S2","","html-keyboard-response","465","532157","0.0-1.0-634.0","0","0","28333","","null","","","null","70","","NaN","","","","","","","","","","","","","",""
"","response","","html-keyboard-response","466","532271","0.0-1.0-635.0-0.0","0","0","28333","","112","","","68","70","","","2","70","training","adjacent","BA","2","1","O.jpg","N.jpg","0","0","1","",""
"","feedback","","html-keyboard-response","467","533275","0.0-1.0-636.0-0.0","0","0","28333","","null","","","null","70","","","","","","","","","","","","","","","",""
"","ITI","","html-keyboard-response","468","534279","0.0-1.0-639.0","0","0","28333","","null","","","null","70","","","","","","","","","","","","","","","NaN",""
"","S1","","html-keyboard-response","469","534532","0.0-1.0-641.0","0","0","28333","","null","","","null","71","","","","","","","","","","","","","","","",""
"","ISI","","html-keyboard-response","470","536534","0.0-1.0-642.0","0","0","28333","","null","","","null","71","NaN","","","","","","","","","","","","","","",""
"","S2","","html-keyboard-response","471","536787","0.0-1.0-643.0","0","0","28333","","null","","","null","71","","NaN","","","","","","","","","","","","","",""
"","response","","html-keyboard-response","472","536814","0.0-1.0-644.0-0.0","0","0","28333","","26","","","68","71","","","2","71","training","adjacent","BC","2","3","O.jpg","P.jpg","0","1","0","",""
"","feedback","","html-keyboard-response","473","537816","0.0-1.0-645.0-0.0","0","0","28333","","null","","","null","71","","","","","","","","","","","","","","","",""
"","time_out","","html-keyboard-response","474","539818","0.0-1.0-647.0-0.0","0","0","28333","","null","","","null","71","","","","","","","","","","","","","","","",""
"","ITI","","html-keyboard-response","475","540821","0.0-1.0-648.0","0","0","28333","","null","","","null","71","","","","","","","","","","","","","","","NaN",""
"","S1","","html-keyboard-response","476","541074","0.0-1.0-650.0","0","0","28333","","null","","","null","72","","","","","","","","","","","","","","","",""
"","ISI","","html-keyboard-response","477","543076","0.0-1.0-651.0","0","0","28333","","null","","","null","72","NaN","","","","","","","","","","","","","","",""
"","S2","","html-keyboard-response","478","543329","0.0-1.0-652.0","0","0","28333","","null","","","null","72","","NaN","","","","","","","","","","","","","",""
"","response","","html-keyboard-response","479","543787","0.0-1.0-653.0-0.0","0","0","28333","","456","","","68","72","","","2","72","training","adjacent","DC","4","3","R.jpg","P.jpg","0","0","1","",""
"","feedback","","html-keyboard-response","480","544789","0.0-1.0-654.0-0.0","0","0","28333","","null","","","null","72","","","","","","","","","","","","","","","",""
"","ITI","","html-keyboard-response","481","545791","0.0-1.0-657.0","0","0","28333","","null","","","null","72","","","","","","","","","","","","","","","NaN",""
"","S1","","html-keyboard-response","482","546044","0.0-1.0-659.0","0","0","28333","","null","","","null","73","","","","","","","","","","","","","","","",""
"","ISI","","html-keyboard-response","483","548046","0.0-1.0-660.0","0","0","28333","","null","","","null","73","NaN","","","","","","","","","","","","","","",""
"","S2","","html-keyboard-response","484","548299","0.0-1.0-661.0","0","0","28333","","null","","","null","73","","NaN","","","","","","","","","","","","","",""
"","response","","html-keyboard-response","485","548560","0.0-1.0-662.0-0.0","0","0","28333","","260","","","75","73","","","2","73","training","adjacent","DC","4","3","R.jpg","P.jpg","1","0","0","",""
"","feedback","","html-keyboard-response","486","549563","0.0-1.0-663.0-0.0","0","0","28333","","null","","","null","73","","","","","","","","","","","","","","","",""
"","time_out","","html-keyboard-response","487","551565","0.0-1.0-665.0-0.0","0","0","28333","","null","","","null","73","","","","","","","","","","","","","","","",""
"","ITI","","html-keyboard-response","488","552568","0.0-1.0-666.0","0","0","28333","","null","","","null","73","","","","","","","","","","","","","","","NaN",""
"","S1","","html-keyboard-response","489","552821","0.0-1.0-668.0","0","0","28333","","null","","","null","74","","","","","","","","","","","","","","","",""
"","ISI","","html-keyboard-response","490","554824","0.0-1.0-669.0","0","0","28333","","null","","","null","74","NaN","","","","","","","","","","","","","","",""
"","S2","","html-keyboard-response","491","555076","0.0-1.0-670.0","0","0","28333","","null","","","null","74","","NaN","","","","","","","","","","","","","",""
"","response","","html-keyboard-response","492","555269","0.0-1.0-671.0-0.0","0","0","28333","","191","","","68","74","","","2","74","training","adjacent","EF","5","6","Q.jpg","M.jpg","0","1","0","",""
"","feedback","","html-keyboard-response","493","556272","0.0-1.0-672.0-0.0","0","0","28333","","null","","","null","74","","","","","","","","","","","","","","","",""
"","time_out","","html-keyboard-response","494","558274","0.0-1.0-674.0-0.0","0","0","28333","","null","","","null","74","","","","","","","","","","","","","","","",""
"","ITI","","html-keyboard-response","495","559277","0.0-1.0-675.0","0","0","28333","","null","","","null","74","","","","","","","","","","","","","","","NaN",""
"","S1","","html-keyboard-response","496","559529","0.0-1.0-677.0","0","0","28333","","null","","","null","75","","","","","","","","","","","","","","","",""
"","ISI","","html-keyboard-response","497","561532","0.0-1.0-678.0","0","0","28333","","null","","","null","75","NaN","","","","","","","","","","","","","","",""
"","S2","","html-keyboard-response","498","561785","0.0-1.0-679.0","0","0","28333","","null","","","null","75","","NaN","","","","","","","","","","","","","",""
"","response","","html-keyboard-response","499","562660","0.0-1.0-680.0-0.0","0","0","28333","","874","","","68","75","","","2","75","training","adjacent","BA","2","1","O.jpg","N.jpg","0","0","1","",""
"","feedback","","html-keyboard-response","500","563662","0.0-1.0-681.0-0.0","0","0","28333","","null","","","null","75","","","","","","","","","","","","","","","",""
"","ITI","","html-keyboard-response","501","564666","0.0-1.0-684.0","0","0","28333","","null","","","null","75","","","","","","","","","","","","","","","NaN",""
"","S1","","html-keyboard-response","502","564917","0.0-1.0-686.0","0","0","28333","","null","","","null","76","","","","","","","","","","","","","","","",""
"","ISI","","html-keyboard-response","503","566920","0.0-1.0-687.0","0","0","28333","","null","","","null","76","NaN","","","","","","","","","","","","","","",""
"","S2","","html-keyboard-response","504","567172","0.0-1.0-688.0","0","0","28333","","null","","","null","76","","NaN","","","","","","","","","","","","","",""
"","response","","html-keyboard-response","505","567391","0.0-1.0-689.0-0.0","0","0","28333","","218","","","75","76","","","2","76","training","adjacent","BA","2","1","O.jpg","N.jpg","1","0","0","",""
"","feedback","","html-keyboard-response","506","568394","0.0-1.0-690.0-0.0","0","0","28333","","null","","","null","76","","","","","","","","","","","","","","","",""
"","time_out","","html-keyboard-response","507","570397","0.0-1.0-692.0-0.0","0","0","28333","","null","","","null","76","","","","","","","","","","","","","","","",""
"","ITI","","html-keyboard-response","508","571400","0.0-1.0-693.0","0","0","28333","","null","","","null","76","","","","","","","","","","","","","","","NaN",""
"","S1","","html-keyboard-response","509","571652","0.0-1.0-695.0","0","0","28333","","null","","","null","77","","","","","","","","","","","","","","","",""
"","ISI","","html-keyboard-response","510","573655","0.0-1.0-696.0","0","0","28333","","null","","","null","77","NaN","","","","","","","","","","","","","","",""
"","S2","","html-keyboard-response","511","573909","0.0-1.0-697.0","0","0","28333","","null","","","null","77","","NaN","","","","","","","","","","","","","",""
"","response","","html-keyboard-response","512","574334","0.0-1.0-698.0-0.0","0","0","28333","","424","","","68","77","","","2","77","training","adjacent","CB","3","2","P.jpg","O.jpg","0","0","1","",""
"","feedback","","html-keyboard-response","513","575337","0.0-1.0-699.0-0.0","0","0","28333","","null","","","null","77","","","","","","","","","","","","","","","",""
"","ITI","","html-keyboard-response","514","576340","0.0-1.0-702.0","0","0","28333","","null","","","null","77","","","","","","","","","","","","","","","NaN",""
"","S1","","html-keyboard-response","515","576593","0.0-1.0-704.0","0","0","28333","","null","","","null","78","","","","","","","","","","","","","","","",""
"","ISI","","html-keyboard-response","516","578596","0.0-1.0-705.0","0","0","28333","","null","","","null","78","NaN","","","","","","","","","","","","","","",""
"","S2","","html-keyboard-response","517","578849","0.0-1.0-706.0","0","0","28333","","null","","","null","78","","NaN","","","","","","","","","","","","","",""
"","response","","html-keyboard-response","518","579277","0.0-1.0-707.0-0.0","0","0","28333","","427","","","68","78","","","2","78","training","adjacent","CD","3","4","P.jpg","R.jpg","0","1","0","",""
"","feedback","","html-keyboard-response","519","580281","0.0-1.0-708.0-0.0","0","0","28333","","null","","","null","78","","","","","","","","","","","","","","","",""
"","time_out","","html-keyboard-response","520","582284","0.0-1.0-710.0-0.0","0","0","28333","","null","","","null","78","","","","","","","","","","","","","","","",""
"","ITI","","html-keyboard-response","521","583287","0.0-1.0-711.0","0","0","28333","","null","","","null","78","","","","","","","","","","","","","","","NaN",""
"","S1","","html-keyboard-response","522","583540","0.0-1.0-713.0","0","0","28333","","null","","","null","79","","","","","","","","","","","","","","","",""
"","ISI","","html-keyboard-response","523","585542","0.0-1.0-714.0","0","0","28333","","null","","","null","79","NaN","","","","","","","","","","","","","","",""
"","S2","","html-keyboard-response","524","585794","0.0-1.0-715.0","0","0","28333","","null","","","null","79","","NaN","","","","","","","","","","","","","",""
"","response","","html-keyboard-response","525","586411","0.0-1.0-716.0-0.0","0","0","28333","","615","","","75","79","","","2","79","training","adjacent","FE","6","5","M.jpg","Q.jpg","1","0","0","",""
"","feedback","","html-keyboard-response","526","587416","0.0-1.0-717.0-0.0","0","0","28333","","null","","","null","79","","","","","","","","","","","","","","","",""
"","time_out","","html-keyboard-response","527","589419","0.0-1.0-719.0-0.0","0","0","28333","","null","","","null","79","","","","","","","","","","","","","","","",""
"","ITI","","html-keyboard-response","528","590422","0.0-1.0-720.0","0","0","28333","","null","","","null","79","","","","","","","","","","","","","","","NaN",""
"","S1","","html-keyboard-response","529","590675","0.0-1.0-722.0","0","0","28333","","null","","","null","80","","","","","","","","","","","","","","","",""
"","ISI","","html-keyboard-response","530","592677","0.0-1.0-723.0","0","0","28333","","null","","","null","80","NaN","","","","","","","","","","","","","","",""
"","S2","","html-keyboard-response","531","592931","0.0-1.0-724.0","0","0","28333","","null","","","null","80","","NaN","","","","","","","","","","","","","",""
"","response","","html-keyboard-response","532","593072","0.0-1.0-725.0-0.0","0","0","28333","","140","","","75","80","","","2","80","training","adjacent","AB","1","2","N.jpg","O.jpg","1","1","1","",""
"","feedback","","html-keyboard-response","533","594074","0.0-1.0-726.0-0.0","0","0","28333","","null","","","null","80","","","","","","","","","","","","","","","",""
"","ITI","","html-keyboard-response","534","595077","0.0-1.0-729.0","0","0","28333","","null","","","null","80","","","","","","","","","","","","","","","NaN",""
"","S1","","html-keyboard-response","535","595331","0.0-1.0-731.0","0","0","28333","","null","","","null","81","","","","","","","","","","","","","","","",""
"","ISI","","html-keyboard-response","536","597334","0.0-1.0-732.0","0","0","28333","","null","","","null","81","NaN","","","","","","","","","","","","","","",""
"","S2","","html-keyboard-response","537","597586","0.0-1.0-733.0","0","0","28333","","null","","","null","81","","NaN","","","","","","","","","","","","","",""
"","response","","html-keyboard-response","538","598116","0.0-1.0-734.0-0.0","0","0","28333","","528","","","75","81","","","2","81","training","adjacent","EF","5","6","Q.jpg","M.jpg","1","1","1","",""
"","feedback","","html-keyboard-response","539","599119","0.0-1.0-735.0-0.0","0","0","28333","","null","","","null","81","","","","","","","","","","","","","","","",""
"","ITI","","html-keyboard-response","540","600121","0.0-1.0-738.0","0","0","28333","","null","","","null","81","","","","","","","","","","","","","","","NaN",""
"","S1","","html-keyboard-response","541","600378","0.0-1.0-740.0","0","0","28333","","null","","","null","82","","","","","","","","","","","","","","","",""
"","ISI","","html-keyboard-response","542","602380","0.0-1.0-741.0","0","0","28333","","null","","","null","82","NaN","","","","","","","","","","","","","","",""
"","S2","","html-keyboard-response","543","602633","0.0-1.0-742.0","0","0","28333","","null","","","null","82","","NaN","","","","","","","","","","","","","",""
"","response","","html-keyboard-response","544","602700","0.0-1.0-743.0-0.0","0","0","28333","","66","","","68","82","","","2","82","training","adjacent","DC","4","3","R.jpg","P.jpg","0","0","1","",""
"","feedback","","html-keyboard-response","545","603703","0.0-1.0-744.0-0.0","0","0","28333","","null","","","null","82","","","","","","","","","","","","","","","",""
"","ITI","","html-keyboard-response","546","604706","0.0-1.0-747.0","0","0","28333","","null","","","null","82","","","","","","","","","","","","","","","NaN",""
"","S1","","html-keyboard-response","547","604959","0.0-1.0-749.0","0","0","28333","","null","","","null","83","","","","","","","","","","","","","","","",""
"","ISI","","html-keyboard-response","548","606962","0.0-1.0-750.0","0","0","28333","","null","","","null","83","NaN","","","","","","","","","","","","","","",""
"","S2","","html-keyboard-response","549","607215","0.0-1.0-751.0","0","0","28333","","null","","","null","83","","NaN","","","","","","","","","","","","","",""
"","response","","html-keyboard-response","550","607344","0.0-1.0-752.0-0.0","0","0","28333","","127","","","68","83","","","2","83","training","adjacent","DE","4","5","R.jpg","Q.jpg","0","1","0","",""
"","feedback","","html-keyboard-response","551","608348","0.0-1.0-753.0-0.0","0","0","28333","","null","","","null","83","","","","","","","","","","","","","","","",""
"","time_out","","html-keyboard-response","552","610351","0.0-1.0-755.0-0.0","0","0","28333","","null","","","null","83","","","","","","","","","","","","","","","",""
"","ITI","","html-keyboard-response","553","611353","0.0-1.0-756.0","0","0","28333","","null","","","null","83","","","","","","","","","","","","","","","NaN",""
"","S1","","html-keyboard-response","554","611607","0.0-1.0-758.0","0","0","28333","","null","","","null","84","","","","","","","","","","","","","","","",""
"","ISI","","html-keyboard-response","555","613610","0.0-1.0-759.0","0","0","28333","","null","","","null","84","NaN","","","","","","","","","","","","","","",""
"","S2","","html-keyboard-response","556","613863","0.0-1.0-760.0","0","0","28333","","null","","","null","84","","NaN","","","","","","","","","","","","","",""
"","response","","html-keyboard-response","557","614355","0.0-1.0-761.0-0.0","0","0","28333","","489","","","68","84","","","2","84","training","adjacent","ED","5","4","Q.jpg","R.jpg","0","0","1","",""
"","feedback","","html-keyboard-response","558","615358","0.0-1.0-762.0-0.0","0","0","28333","","null","","","null","84","","","","","","","","","","","","","","","",""
"","ITI","","html-keyboard-response","559","616361","0.0-1.0-765.0","0","0","28333","","null","","","null","84","","","","","","","","","","","","","","","NaN",""
"","S1","","html-keyboard-response","560","616613","0.0-1.0-767.0","0","0","28333","","null","","","null","85","","","","","","","","","","","","","","","",""
"","ISI","","html-keyboard-response","561","618616","0.0-1.0-768.0","0","0","28333","","null","","","null","85","NaN","","","","","","","","","","","","","","",""
"","S2","","html-keyboard-response","562","618870","0.0-1.0-769.0","0","0","28333","","null","","","null","85","","NaN","","","","","","","","","","","","","",""
"","response","","html-keyboard-response","563","618938","0.0-1.0-770.0-0.0","0","0","28333","","67","","","75","85","","","2","85","training","adjacent","AB","1","2","N.jpg","O.jpg","1","1","1","",""
"","feedback","","html-keyboard-response","564","619942","0.0-1.0-771.0-0.0","0","0","28333","","null","","","null","85","","","","","","","","","","","","","","","",""
"","ITI","","html-keyboard-response","565","620945","0.0-1.0-774.0","0","0","28333","","null","","","null","85","","","","","","","","","","","","","","","NaN",""
"","S1","","html-keyboard-response","566","621199","0.0-1.0-776.0","0","0","28333","","null","","","null","86","","","","","","","","","","","","","","","",""
"","ISI","","html-keyboard-response","567","623201","0.0-1.0-777.0","0","0","28333","","null","","","null","86","NaN","","","","","","","","","","","","","","",""
"","S2","","html-keyboard-response","568","623453","0.0-1.0-778.0","0","0","28333","","null","","","null","86","","NaN","","","","","","","","","","","","","",""
"","response","","html-keyboard-response","569","623856","0.0-1.0-779.0-0.0","0","0","28333","","401","","","75","86","","","2","86","training","adjacent","BC","2","3","O.jpg","P.jpg","1","1","1","",""
"","feedback","","html-keyboard-response","570","624860","0.0-1.0-780.0-0.0","0","0","28333","","null","","","null","86","","","","","","","","","","","","","","","",""
"","ITI","","html-keyboard-response","571","625862","0.0-1.0-783.0","0","0","28333","","null","","","null","86","","","","","","","","","","","","","","","NaN",""
"","S1","","html-keyboard-response","572","626116","0.0-1.0-785.0","0","0","28333","","null","","","null","87","","","","","","","","","","","","","","","",""
"","ISI","","html-keyboard-response","573","628118","0.0-1.0-786.0","0","0","28333","","null","","","null","87","NaN","","","","","","","","","","","","","","",""
"","S2","","html-keyboard-response","574","628371","0.0-1.0-787.0","0","0","28333","","null","","","null","87","","NaN","","","","","","","","","","","","","",""
"","response","","html-keyboard-response","575","628920","0.0-1.0-788.0-0.0","0","0","28333","","547","","","68","87","","","2","87","training","adjacent","CB","3","2","P.jpg","O.jpg","0","0","1","",""
"","feedback","","html-keyboard-response","576","629924","0.0-1.0-789.0-0.0","0","0","28333","","null","","","null","87","","","","","","","","","","","","","","","",""
"","ITI","","html-keyboard-response","577","630927","0.0-1.0-792.0","0","0","28333","","null","","","null","87","","","","","","","","","","","","","","","NaN",""
"","S1","","html-keyboard-response","578","631179","0.0-1.0-794.0","0","0","28333","","null","","","null","88","","","","","","","","","","","","","","","",""
"","ISI","","html-keyboard-response","579","633182","0.0-1.0-795.0","0","0","28333","","null","","","null","88","NaN","","","","","","","","","","","","","","",""
