"success","ttype","start_time","trial_type","trial_index","time_elapsed","internal_node_id","warning","missed_checkup","PID","view_history","rt","responses","repeat_instructions","key_press","index","keypress_isi","keypress_S2","block","trial_num","phase","group_type","pair_type","S1_stim","S2_stim","S1_img","S2_img","S1_chosen","S1_higher","accuracy","keypress_iti","total_bonus_tally"
"true","full_screen","d03082023hr1700","fullscreen","0","12279","0.0-0.0","0","0","37243","","","","","","","","","","","","","","","","","","","","","",""
"","instructions","","instructions","1","468639","0.0-1.0-0.0-0.0","0","0","37243","[{""page_index"":0,""viewing_time"":245501},{""page_index"":1,""viewing_time"":123667},{""page_index"":2,""viewing_time"":9562},{""page_index"":3,""viewing_time"":77628}]","456359","","","","","","","","","","","","","","","","","","","",""
"","comprehension_check","","survey-multi-choice","2","486207","0.0-1.0-0.0-1.0","0","0","37243","","17553","{""Q0"":""True"",""Q1"":""K"",""Q2"":""Only when the screen 'MAKE A CHOICE' is shown"",""Q3"":""Green mark"",""Q4"":""either D or K""}","1","","","","","","","","","","","","","","","","","",""
"","missed_instruction_checkup","","html-keyboard-response","3","488149","0.0-1.0-0.0-2.0-0.0","0","1","37243","","1938","","","32","","","","","","","","","","","","","","","","",""
"","instructions","","instructions","4","498453","0.0-1.0-0.1-0.1","0","0","37243","[{""page_index"":0,""viewing_time"":2089},{""page_index"":1,""viewing_time"":6839},{""page_index"":2,""viewing_time"":804},{""page_index"":3,""viewing_time"":570}]","10302","","","","","","","","","","","","","","","","","","","",""
"","comprehension_check","","survey-multi-choice","5","510482","0.0-1.0-0.1-1.1","0","0","37243","","12024","{""Q0"":""True"",""Q1"":""K"",""Q2"":""Once the second image appears and while the screen 'MAKE A CHOICE' is shown"",""Q3"":""Green mark"",""Q4"":""either D or K""}","0","","","","","","","","","","","","","","","","","",""
"","start_exp","","html-keyboard-response","6","516509","0.0-1.0-1.0","0","0","37243","","6024","","","32","","","","","","","","","","","","","","","","",""
"","S1","","html-keyboard-response","7","516768","0.0-1.0-2.0","0","0","37243","","null","","","null","0","","","","","","","","","","","","","","","",""
"","ISI","","html-keyboard-response","8","516928","0.0-1.0-3.0","0","0","37243","","null","","","null","0","NaN","","","","","","","","","","","","","","",""
"","S2","","html-keyboard-response","9","517185","0.0-1.0-4.0","0","0","37243","","null","","","null","0","","NaN","","","","","","","","","","","","","",""
"","response","","html-keyboard-response","10","518414","0.0-1.0-5.0-0.0","0","0","37243","","1227","","","75","0","","","1","0","training","adjacent","CB","3","2","O.jpg","N.jpg","1","0","0","",""
"","feedback","","html-keyboard-response","11","519425","0.0-1.0-6.0-0.0","0","0","37243","","null","","","null","0","","","","","","","","","","","","","","","",""
"","time_out","","html-keyboard-response","12","521430","0.0-1.0-8.0-0.0","0","0","37243","","null","","","null","0","","","","","","","","","","","","","","","",""
"","ITI","","html-keyboard-response","13","522433","0.0-1.0-9.0","0","0","37243","","null","","","null","0","","","","","","","","","","","","","","","NaN",""
"","S1","","html-keyboard-response","14","522689","0.0-1.0-11.0","0","0","37243","","null","","","null","1","","","","","","","","","","","","","","","",""
"","ISI","","html-keyboard-response","15","522849","0.0-1.0-12.0","0","0","37243","","null","","","null","1","NaN","","","","","","","","","","","","","","",""
"","S2","","html-keyboard-response","16","523106","0.0-1.0-13.0","0","0","37243","","null","","","null","1","","NaN","","","","","","","","","","","","","",""
"","response","","html-keyboard-response","17","523246","0.0-1.0-14.0-0.0","0","0","37243","","137","","","68","1","","","1","1","training","adjacent","GF","7","6","R.jpg","L.jpg","0","0","1","",""
"","feedback","","html-keyboard-response","18","524257","0.0-1.0-15.0-0.0","0","0","37243","","null","","","null","1","","","","","","","","","","","","","","","",""
"","ITI","","html-keyboard-response","19","525264","0.0-1.0-18.0","0","0","37243","","null","","","null","1","","","","","","","","","","","","","","","NaN",""
"","S1","","html-keyboard-response","20","525520","0.0-1.0-20.0","0","0","37243","","null","","","null","2","","","","","","","","","","","","","","","",""
"","ISI","","html-keyboard-response","21","525680","0.0-1.0-21.0","0","0","37243","","null","","","null","2","NaN","","","","","","","","","","","","","","",""
"","S2","","html-keyboard-response","22","525726","0.0-1.0-22.0","0","0","37243","","44","","","68","2","","d","1","2","training","adjacent","DE","4","5","P.jpg","M.jpg","0","1","0","",""
"","feedback","","html-keyboard-response","23","526734","0.0-1.0-24.0-0.0","0","0","37243","","null","","","null","2","","","","","","","","","","","","","","","",""
"","time_out","","html-keyboard-response","24","528743","0.0-1.0-26.0-0.0","0","0","37243","","null","","","null","2","","","","","","","","","","","","","","","",""
"","ITI","","html-keyboard-response","25","529751","0.0-1.0-27.0","0","0","37243","","null","","","null","2","","","","","","","","","","","","","","","NaN",""
"","S1","","html-keyboard-response","26","530006","0.0-1.0-29.0","0","0","37243","","null","","","null","3","","","","","","","","","","","","","","","",""
"","ISI","","html-keyboard-response","27","530160","0.0-1.0-30.0","0","0","37243","","null","","","null","3","NaN","","","","","","","","","","","","","","",""
"","S2","","html-keyboard-response","28","530414","0.0-1.0-31.0","0","0","37243","","252","","","75","3","","k","1","3","training","adjacent","ED","5","4","M.jpg","P.jpg","1","0","0","",""
"","feedback","","html-keyboard-response","29","531424","0.0-1.0-33.0-0.0","0","0","37243","","null","","","null","3","","","","","","","","","","","","","","","",""
"","time_out","","html-keyboard-response","30","533430","0.0-1.0-35.0-0.0","0","0","37243","","null","","","null","3","","","","","","","","","","","","","","","",""
"","ITI","","html-keyboard-response","31","534433","0.0-1.0-36.0","0","0","37243","","null","","","null","3","","","","","","","","","","","","","","","NaN",""
"","S1","","html-keyboard-response","32","534689","0.0-1.0-38.0","0","0","37243","","null","","","null","4","","","","","","","","","","","","","","","",""
"","ISI","","html-keyboard-response","33","534849","0.0-1.0-39.0","0","0","37243","","148","","","68","4","d","","","","","","","","","","","","","","",""
"","S2","","html-keyboard-response","34","535105","0.0-1.0-40.0","0","0","37243","","null","","","null","4","","NaN","","","","","","","","","","","","","",""
"","response","","html-keyboard-response","35","535262","0.0-1.0-41.0-0.0","0","0","37243","","156","","","68","4","","","1","4","training","adjacent","EF","5","6","M.jpg","L.jpg","0","1","0","",""
"","feedback","","html-keyboard-response","36","536273","0.0-1.0-42.0-0.0","0","0","37243","","null","","","null","4","","","","","","","","","","","","","","","",""
"","time_out","","html-keyboard-response","37","538279","0.0-1.0-44.0-0.0","0","0","37243","","null","","","null","4","","","","","","","","","","","","","","","",""
"","ITI","","html-keyboard-response","38","539287","0.0-1.0-45.0","0","0","37243","","null","","","null","4","","","","","","","","","","","","","","","NaN",""
"","S1","","html-keyboard-response","39","539544","0.0-1.0-47.0","0","0","37243","","null","","","null","5","","","","","","","","","","","","","","","",""
"","ISI","","html-keyboard-response","40","539703","0.0-1.0-48.0","0","0","37243","","null","","","null","5","NaN","","","","","","","","","","","","","","",""
"","S2","","html-keyboard-response","41","539774","0.0-1.0-49.0","0","0","37243","","70","","","75","5","","k","1","5","training","adjacent","FE","6","5","L.jpg","M.jpg","1","0","0","",""
"","feedback","","html-keyboard-response","42","540785","0.0-1.0-51.0-0.0","0","0","37243","","null","","","null","5","","","","","","","","","","","","","","","",""
"","time_out","","html-keyboard-response","43","542791","0.0-1.0-53.0-0.0","0","0","37243","","null","","","null","5","","","","","","","","","","","","","","","",""
"","ITI","","html-keyboard-response","44","543800","0.0-1.0-54.0","0","0","37243","","null","","","null","5","","","","","","","","","","","","","","","NaN",""
"","S1","","html-keyboard-response","45","544055","0.0-1.0-56.0","0","0","37243","","null","","","null","6","","","","","","","","","","","","","","","",""
"","ISI","","html-keyboard-response","46","544209","0.0-1.0-57.0","0","0","37243","","null","","","null","6","NaN","","","","","","","","","","","","","","",""
"","S2","","html-keyboard-response","47","544465","0.0-1.0-58.0","0","0","37243","","null","","","null","6","","NaN","","","","","","","","","","","","","",""
"","response","","html-keyboard-response","48","544535","0.0-1.0-59.0-0.0","0","0","37243","","68","","","75","6","","","1","6","training","adjacent","GF","7","6","R.jpg","L.jpg","1","0","0","",""
"","feedback","","html-keyboard-response","49","545543","0.0-1.0-60.0-0.0","0","0","37243","","null","","","null","6","","","","","","","","","","","","","","","",""
"","time_out","","html-keyboard-response","50","547553","0.0-1.0-62.0-0.0","0","0","37243","","null","","","null","6","","","","","","","","","","","","","","","",""
"","ITI","","html-keyboard-response","51","548561","0.0-1.0-63.0","0","0","37243","","null","","","null","6","","","","","","","","","","","","","","","NaN",""
"","S1","","html-keyboard-response","52","548817","0.0-1.0-65.0","0","0","37243","","null","","","null","7","","","","","","","","","","","","","","","",""
"","ISI","","html-keyboard-response","53","548977","0.0-1.0-66.0","0","0","37243","","null","","","null","7","NaN","","","","","","","","","","","","","","",""
"","S2","","html-keyboard-response","54","549127","0.0-1.0-67.0","0","0","37243","","148","","","68","7","","d","1","7","training","adjacent","FE","6","5","L.jpg","M.jpg","0","0","1","",""
"","feedback","","html-keyboard-response","55","550129","0.0-1.0-69.0-0.0","0","0","37243","","null","","","null","7","","","","","","","","","","","","","","","",""
"","ITI","","html-keyboard-response","56","551135","0.0-1.0-72.0","0","0","37243","","null","","","null","7","","","","","","","","","","","","","","","NaN",""
"","S1","","html-keyboard-response","57","551393","0.0-1.0-74.0","0","0","37243","","null","","","null","8","","","","","","","","","","","","","","","",""
"","ISI","","html-keyboard-response","58","551553","0.0-1.0-75.0","0","0","37243","","null","","","null","8","NaN","","","","","","","","","","","","","","",""
"","S2","","html-keyboard-response","59","551809","0.0-1.0-76.0","0","0","37243","","null","","","null","8","","NaN","","","","","","","","","","","","","",""
"","response","","html-keyboard-response","60","552031","0.0-1.0-77.0-0.0","0","0","37243","","220","","","68","8","","","1","8","training","adjacent","BA","2","1","N.jpg","Q.jpg","0","0","1","",""
"","feedback","","html-keyboard-response","61","553039","0.0-1.0-78.0-0.0","0","0","37243","","null","","","null","8","","","","","","","","","","","","","","","",""
"","ITI","","html-keyboard-response","62","554049","0.0-1.0-81.0","0","0","37243","","null","","","null","8","","","","","","","","","","","","","","","NaN",""
"","S1","","html-keyboard-response","63","554305","0.0-1.0-83.0","0","0","37243","","null","","","null","9","","","","","","","","","","","","","","","",""
"","ISI","","html-keyboard-response","64","554465","0.0-1.0-84.0","0","0","37243","","null","","","null","9","NaN","","","","","","","","","","","","","","",""
"","S2","","html-keyboard-response","65","554695","0.0-1.0-85.0","0","0","37243","","227","","","68","9","","d","1","9","training","adjacent","BC","2","3","N.jpg","O.jpg","0","1","0","",""
"","feedback","","html-keyboard-response","66","555705","0.0-1.0-87.0-0.0","0","0","37243","","null","","","null","9","","","","","","","","","","","","","","","",""
"","time_out","","html-keyboard-response","67","557714","0.0-1.0-89.0-0.0","0","0","37243","","null","","","null","9","","","","","","","","","","","","","","","",""
"","ITI","","html-keyboard-response","68","558721","0.0-1.0-90.0","0","0","37243","","null","","","null","9","","","","","","","","","","","","","","","NaN",""
"","S1","","html-keyboard-response","69","558977","0.0-1.0-92.0","0","0","37243","","null","","","null","10","","","","","","","","","","","","","","","",""
"","ISI","","html-keyboard-response","70","559135","0.0-1.0-93.0","0","0","37243","","60","","","75","10","k","","","","","","","","","","","","","","",""
"","S2","","html-keyboard-response","71","559393","0.0-1.0-94.0","0","0","37243","","null","","","null","10","","NaN","","","","","","","","","","","","","",""
"","response","","html-keyboard-response","72","559559","0.0-1.0-95.0-0.0","0","0","37243","","164","","","68","10","","","1","10","training","adjacent","GF","7","6","R.jpg","L.jpg","0","0","1","",""
"","feedback","","html-keyboard-response","73","560568","0.0-1.0-96.0-0.0","0","0","37243","","null","","","null","10","","","","","","","","","","","","","","","",""
"","ITI","","html-keyboard-response","74","561576","0.0-1.0-99.0","0","0","37243","","null","","","null","10","","","","","","","","","","","","","","","NaN",""
"","S1","","html-keyboard-response","75","561831","0.0-1.0-101.0","0","0","37243","","null","","","null","11","","","","","","","","","","","","","","","",""
"","ISI","","html-keyboard-response","76","561986","0.0-1.0-102.0","0","0","37243","","null","","","null","11","NaN","","","","","","","","","","","","","","",""
"","S2","","html-keyboard-response","77","562240","0.0-1.0-103.0","0","0","37243","","null","","","null","11","","NaN","","","","","","","","","","","","","",""
"","response","","html-keyboard-response","78","562343","0.0-1.0-104.0-0.0","0","0","37243","","102","","","68","11","","","1","11","training","adjacent","BC","2","3","N.jpg","O.jpg","0","1","0","",""
"","feedback","","html-keyboard-response","79","563352","0.0-1.0-105.0-0.0","0","0","37243","","null","","","null","11","","","","","","","","","","","","","","","",""
"","time_out","","html-keyboard-response","80","565362","0.0-1.0-107.0-0.0","0","0","37243","","null","","","null","11","","","","","","","","","","","","","","","",""
"","ITI","","html-keyboard-response","81","566367","0.0-1.0-108.0","0","0","37243","","492","","","75","11","","","","","","","","","","","","","","","k",""
"","S1","","html-keyboard-response","82","566626","0.0-1.0-110.0","0","0","37243","","null","","","null","12","","","","","","","","","","","","","","","",""
"","ISI","","html-keyboard-response","83","566786","0.0-1.0-111.0","0","0","37243","","null","","","null","12","NaN","","","","","","","","","","","","","","",""
"","S2","","html-keyboard-response","84","566967","0.0-1.0-112.0","0","0","37243","","180","","","75","12","","k","1","12","training","adjacent","DE","4","5","P.jpg","M.jpg","1","1","1","",""
"","feedback","","html-keyboard-response","85","567976","0.0-1.0-114.0-0.0","0","0","37243","","null","","","null","12","","","","","","","","","","","","","","","",""
"","ITI","","html-keyboard-response","86","568984","0.0-1.0-117.0","0","0","37243","","null","","","null","12","","","","","","","","","","","","","","","NaN",""
"","S1","","html-keyboard-response","87","569240","0.0-1.0-119.0","0","0","37243","","null","","","null","13","","","","","","","","","","","","","","","",""
"","ISI","","html-keyboard-response","88","569394","0.0-1.0-120.0","0","0","37243","","null","","","null","13","NaN","","","","","","","","","","","","","","",""
"","S2","","html-keyboard-response","89","569650","0.0-1.0-121.0","0","0","37243","","null","","","null","13","","NaN","","","","","","","","","","","","","",""
"","response","","html-keyboard-response","90","569736","0.0-1.0-122.0-0.0","0","0","37243","","84","","","68","13","","","1","13","training","adjacent","DC","4","3","P.jpg","O.jpg","0","0","1","",""
"","feedback","","html-keyboard-response","91","570744","0.0-1.0-123.0-0.0","0","0","37243","","null","","","null","13","","","","","","","","","","","","","","","",""
"","ITI","","html-keyboard-response","92","571752","0.0-1.0-126.0","0","0","37243","","null","","","null","13","","","","","","","","","","","","","","","NaN",""
"","S1","","html-keyboard-response","93","572008","0.0-1.0-128.0","0","0","37243","","null","","","null","14","","","","","","","","","","","","","","","",""
"","ISI","","html-keyboard-response","94","572168","0.0-1.0-129.0","0","0","37243","","117","","","75","14","k","","","","","","","","","","","","","","",""
"","S2","","html-keyboard-response","95","572424","0.0-1.0-130.0","0","0","37243","","null","","","null","14","","NaN","","","","","","","","","","","","","",""
"","response","","html-keyboard-response","96","572583","0.0-1.0-131.0-0.0","0","0","37243","","158","","","75","14","","","1","14","training","adjacent","FE","6","5","L.jpg","M.jpg","1","0","0","",""
"","feedback","","html-keyboard-response","97","573592","0.0-1.0-132.0-0.0","0","0","37243","","null","","","null","14","","","","","","","","","","","","","","","",""
"","time_out","","html-keyboard-response","98","575602","0.0-1.0-134.0-0.0","0","0","37243","","null","","","null","14","","","","","","","","","","","","","","","",""
"","ITI","","html-keyboard-response","99","576610","0.0-1.0-135.0","0","0","37243","","564","","","68","14","","","","","","","","","","","","","","","d",""
"","S1","","html-keyboard-response","100","576866","0.0-1.0-137.0","0","0","37243","","null","","","null","15","","","","","","","","","","","","","","","",""
"","ISI","","html-keyboard-response","101","577026","0.0-1.0-138.0","0","0","37243","","59","","","68","15","d","","","","","","","","","","","","","","",""
"","S2","","html-keyboard-response","102","577282","0.0-1.0-139.0","0","0","37243","","null","","","null","15","","NaN","","","","","","","","","","","","","",""
"","response","","html-keyboard-response","103","577439","0.0-1.0-140.0-0.0","0","0","37243","","155","","","68","15","","","1","15","training","adjacent","EF","5","6","M.jpg","L.jpg","0","1","0","",""
"","feedback","","html-keyboard-response","104","578450","0.0-1.0-141.0-0.0","0","0","37243","","null","","","null","15","","","","","","","","","","","","","","","",""
"","time_out","","html-keyboard-response","105","580456","0.0-1.0-143.0-0.0","0","0","37243","","null","","","null","15","","","","","","","","","","","","","","","",""
"","ITI","","html-keyboard-response","106","581464","0.0-1.0-144.0","0","0","37243","","null","","","null","15","","","","","","","","","","","","","","","NaN",""
"","S1","","html-keyboard-response","107","581720","0.0-1.0-146.0","0","0","37243","","null","","","null","16","","","","","","","","","","","","","","","",""
"","ISI","","html-keyboard-response","108","581875","0.0-1.0-147.0","0","0","37243","","38","","","75","16","k","","","","","","","","","","","","","","",""
"","S2","","html-keyboard-response","109","582130","0.0-1.0-148.0","0","0","37243","","null","","","null","16","","NaN","","","","","","","","","","","","","",""
"","response","","html-keyboard-response","110","582176","0.0-1.0-149.0-0.0","0","0","37243","","43","","","75","16","","","1","16","training","adjacent","BC","2","3","N.jpg","O.jpg","1","1","1","",""
"","feedback","","html-keyboard-response","111","583186","0.0-1.0-150.0-0.0","0","0","37243","","null","","","null","16","","","","","","","","","","","","","","","",""
"","ITI","","html-keyboard-response","112","584195","0.0-1.0-153.0","0","0","37243","","null","","","null","16","","","","","","","","","","","","","","","NaN",""
"","S1","","html-keyboard-response","113","584450","0.0-1.0-155.0","0","0","37243","","null","","","null","17","","","","","","","","","","","","","","","",""
"","ISI","","html-keyboard-response","114","584610","0.0-1.0-156.0","0","0","37243","","null","","","null","17","NaN","","","","","","","","","","","","","","",""
"","S2","","html-keyboard-response","115","584866","0.0-1.0-157.0","0","0","37243","","null","","","null","17","","NaN","","","","","","","","","","","","","",""
"","response","","html-keyboard-response","116","584888","0.0-1.0-158.0-0.0","0","0","37243","","19","","","75","17","","","1","17","training","adjacent","BC","2","3","N.jpg","O.jpg","1","1","1","",""
"","feedback","","html-keyboard-response","117","585896","0.0-1.0-159.0-0.0","0","0","37243","","null","","","null","17","","","","","","","","","","","","","","","",""
"","ITI","","html-keyboard-response","118","586904","0.0-1.0-162.0","0","0","37243","","null","","","null","17","","","","","","","","","","","","","","","NaN",""
"","S1","","html-keyboard-response","119","587160","0.0-1.0-164.0","0","0","37243","","null","","","null","18","","","","","","","","","","","","","","","",""
"","ISI","","html-keyboard-response","120","587315","0.0-1.0-165.0","0","0","37243","","null","","","null","18","NaN","","","","","","","","","","","","","","",""
"","S2","","html-keyboard-response","121","587570","0.0-1.0-166.0","0","0","37243","","null","","","null","18","","NaN","","","","","","","","","","","","","",""
"","response","","html-keyboard-response","122","589330","0.0-1.0-167.0-0.0","0","0","37243","","null","","","null","18","","","1","18","training","adjacent","EF","5","6","M.jpg","L.jpg","NaN","1","0","",""
"","too_slow_prompt","","html-keyboard-response","123","590336","0.0-1.0-169.0-0.0","1","0","37243","","null","","","null","","","","","","","","","","","","","","","","",""
"","time_out","","html-keyboard-response","124","592344","0.0-1.0-170.0-0.0","0","0","37243","","null","","","null","18","","","","","","","","","","","","","","","",""
"","ITI","","html-keyboard-response","125","593352","0.0-1.0-171.0","0","0","37243","","398","","","68","18","","","","","","","","","","","","","","","d",""
"","S1","","html-keyboard-response","126","593608","0.0-1.0-173.0","0","0","37243","","null","","","null","19","","","","","","","","","","","","","","","",""
"","ISI","","html-keyboard-response","127","593762","0.0-1.0-174.0","0","0","37243","","78","","","75","19","k","","","","","","","","","","","","","","",""
"","S2","","html-keyboard-response","128","594018","0.0-1.0-175.0","0","0","37243","","null","","","null","19","","NaN","","","","","","","","","","","","","",""
"","response","","html-keyboard-response","129","594112","0.0-1.0-176.0-0.0","0","0","37243","","92","","","75","19","","","1","19","training","adjacent","AB","1","2","Q.jpg","N.jpg","1","1","1","",""
"","feedback","","html-keyboard-response","130","595123","0.0-1.0-177.0-0.0","0","0","37243","","null","","","null","19","","","","","","","","","","","","","","","",""
"","ITI","","html-keyboard-response","131","596130","0.0-1.0-180.0","0","0","37243","","null","","","null","19","","","","","","","","","","","","","","","NaN",""
"","S1","","html-keyboard-response","132","596385","0.0-1.0-182.0","0","0","37243","","null","","","null","20","","","","","","","","","","","","","","","",""
"","ISI","","html-keyboard-response","133","596536","0.0-1.0-183.0","0","0","37243","","null","","","null","20","NaN","","","","","","","","","","","","","","",""
"","S2","","html-keyboard-response","134","596792","0.0-1.0-184.0","0","0","37243","","null","","","null","20","","NaN","","","","","","","","","","","","","",""
"","response","","html-keyboard-response","135","596832","0.0-1.0-185.0-0.0","0","0","37243","","38","","","68","20","","","1","20","training","adjacent","ED","5","4","M.jpg","P.jpg","0","0","1","",""
"","feedback","","html-keyboard-response","136","597841","0.0-1.0-186.0-0.0","0","0","37243","","null","","","null","20","","","","","","","","","","","","","","","",""
"","ITI","","html-keyboard-response","137","598851","0.0-1.0-189.0","0","0","37243","","null","","","null","20","","","","","","","","","","","","","","","NaN",""
"","S1","","html-keyboard-response","138","599107","0.0-1.0-191.0","0","0","37243","","null","","","null","21","","","","","","","","","","","","","","","",""
"","ISI","","html-keyboard-response","139","599267","0.0-1.0-192.0","0","0","37243","","null","","","null","21","NaN","","","","","","","","","","","","","","",""
"","S2","","html-keyboard-response","140","599448","0.0-1.0-193.0","0","0","37243","","180","","","75","21","","k","1","21","training","adjacent","CB","3","2","O.jpg","N.jpg","1","0","0","",""
"","feedback","","html-keyboard-response","141","600457","0.0-1.0-195.0-0.0","0","0","37243","","null","","","null","21","","","","","","","","","","","","","","","",""
"","time_out","","html-keyboard-response","142","602467","0.0-1.0-197.0-0.0","0","0","37243","","null","","","null","21","","","","","","","","","","","","","","","",""
"","ITI","","html-keyboard-response","143","603475","0.0-1.0-198.0","0","0","37243","","null","","","null","21","","","","","","","","","","","","","","","NaN",""
"","S1","","html-keyboard-response","144","603731","0.0-1.0-200.0","0","0","37243","","null","","","null","22","","","","","","","","","","","","","","","",""
"","ISI","","html-keyboard-response","145","603888","0.0-1.0-201.0","0","0","37243","","20","","","75","22","k","","","","","","","","","","","","","","",""
"","S2","","html-keyboard-response","146","604147","0.0-1.0-202.0","0","0","37243","","null","","","null","22","","NaN","","","","","","","","","","","","","",""
"","response","","html-keyboard-response","147","604176","0.0-1.0-203.0-0.0","0","0","37243","","28","","","75","22","","","1","22","training","adjacent","DC","4","3","P.jpg","O.jpg","1","0","0","",""
"","feedback","","html-keyboard-response","148","605187","0.0-1.0-204.0-0.0","0","0","37243","","null","","","null","22","","","","","","","","","","","","","","","",""
"","time_out","","html-keyboard-response","149","607193","0.0-1.0-206.0-0.0","0","0","37243","","null","","","null","22","","","","","","","","","","","","","","","",""
"","ITI","","html-keyboard-response","150","608201","0.0-1.0-207.0","0","0","37243","","null","","","null","22","","","","","","","","","","","","","","","NaN",""
"","S1","","html-keyboard-response","151","608457","0.0-1.0-209.0","0","0","37243","","null","","","null","23","","","","","","","","","","","","","","","",""
"","ISI","","html-keyboard-response","152","608617","0.0-1.0-210.0","0","0","37243","","null","","","null","23","NaN","","","","","","","","","","","","","","",""
"","S2","","html-keyboard-response","153","608832","0.0-1.0-211.0","0","0","37243","","213","","","75","23","","k","1","23","training","adjacent","FE","6","5","L.jpg","M.jpg","1","0","0","",""
"","feedback","","html-keyboard-response","154","609842","0.0-1.0-213.0-0.0","0","0","37243","","null","","","null","23","","","","","","","","","","","","","","","",""
"","time_out","","html-keyboard-response","155","611849","0.0-1.0-215.0-0.0","0","0","37243","","null","","","null","23","","","","","","","","","","","","","","","",""
"","ITI","","html-keyboard-response","156","612851","0.0-1.0-216.0","0","0","37243","","null","","","null","23","","","","","","","","","","","","","","","NaN",""
"","S1","","html-keyboard-response","157","613108","0.0-1.0-218.0","0","0","37243","","null","","","null","24","","","","","","","","","","","","","","","",""
"","ISI","","html-keyboard-response","158","613268","0.0-1.0-219.0","0","0","37243","","null","","","null","24","NaN","","","","","","","","","","","","","","",""
"","S2","","html-keyboard-response","159","613497","0.0-1.0-220.0","0","0","37243","","227","","","75","24","","k","1","24","training","adjacent","DC","4","3","P.jpg","O.jpg","1","0","0","",""
"","feedback","","html-keyboard-response","160","614506","0.0-1.0-222.0-0.0","0","0","37243","","null","","","null","24","","","","","","","","","","","","","","","",""
"","time_out","","html-keyboard-response","161","616515","0.0-1.0-224.0-0.0","0","0","37243","","null","","","null","24","","","","","","","","","","","","","","","",""
"","ITI","","html-keyboard-response","162","617524","0.0-1.0-225.0","0","0","37243","","null","","","null","24","","","","","","","","","","","","","","","NaN",""
"","S1","","html-keyboard-response","163","617779","0.0-1.0-227.0","0","0","37243","","null","","","null","25","","","","","","","","","","","","","","","",""
"","ISI","","html-keyboard-response","164","617938","0.0-1.0-228.0","0","0","37243","","null","","","null","25","NaN","","","","","","","","","","","","","","",""
"","S2","","html-keyboard-response","165","618105","0.0-1.0-229.0","0","0","37243","","165","","","68","25","","d","1","25","training","adjacent","FG","6","7","L.jpg","R.jpg","0","1","0","",""
"","feedback","","html-keyboard-response","166","619113","0.0-1.0-231.0-0.0","0","0","37243","","null","","","null","25","","","","","","","","","","","","","","","",""
"","time_out","","html-keyboard-response","167","621124","0.0-1.0-233.0-0.0","0","0","37243","","null","","","null","25","","","","","","","","","","","","","","","",""
"","ITI","","html-keyboard-response","168","622132","0.0-1.0-234.0","0","0","37243","","null","","","null","25","","","","","","","","","","","","","","","NaN",""
"","S1","","html-keyboard-response","169","622387","0.0-1.0-236.0","0","0","37243","","null","","","null","26","","","","","","","","","","","","","","","",""
"","ISI","","html-keyboard-response","170","622548","0.0-1.0-237.0","0","0","37243","","null","","","null","26","NaN","","","","","","","","","","","","","","",""
"","S2","","html-keyboard-response","171","622665","0.0-1.0-238.0","0","0","37243","","116","","","75","26","","k","1","26","training","adjacent","BA","2","1","N.jpg","Q.jpg","1","0","0","",""
"","feedback","","html-keyboard-response","172","623698","0.0-1.0-240.0-0.0","0","0","37243","","null","","","null","26","","","","","","","","","","","","","","","",""
"","time_out","","html-keyboard-response","173","625705","0.0-1.0-242.0-0.0","0","0","37243","","null","","","null","26","","","","","","","","","","","","","","","",""
"","ITI","","html-keyboard-response","174","626713","0.0-1.0-243.0","0","0","37243","","null","","","null","26","","","","","","","","","","","","","","","NaN",""
"","S1","","html-keyboard-response","175","626970","0.0-1.0-245.0","0","0","37243","","null","","","null","27","","","","","","","","","","","","","","","",""
"","ISI","","html-keyboard-response","176","627129","0.0-1.0-246.0","0","0","37243","","117","","","68","27","d","","","","","","","","","","","","","","",""
"","S2","","html-keyboard-response","177","627386","0.0-1.0-247.0","0","0","37243","","null","","","null","27","","NaN","","","","","","","","","","","","","",""
"","response","","html-keyboard-response","178","627801","0.0-1.0-248.0-0.0","0","0","37243","","413","","","68","27","","","1","27","training","adjacent","ED","5","4","M.jpg","P.jpg","0","0","1","",""
"","feedback","","html-keyboard-response","179","628809","0.0-1.0-249.0-0.0","0","0","37243","","null","","","null","27","","","","","","","","","","","","","","","",""
"","ITI","","html-keyboard-response","180","629818","0.0-1.0-252.0","0","0","37243","","null","","","null","27","","","","","","","","","","","","","","","NaN",""
"","S1","","html-keyboard-response","181","630073","0.0-1.0-254.0","0","0","37243","","null","","","null","28","","","","","","","","","","","","","","","",""
"","ISI","","html-keyboard-response","182","630228","0.0-1.0-255.0","0","0","37243","","null","","","null","28","NaN","","","","","","","","","","","","","","",""
"","S2","","html-keyboard-response","183","630483","0.0-1.0-256.0","0","0","37243","","null","","","null","28","","NaN","","","","","","","","","","","","","",""
"","response","","html-keyboard-response","184","630961","0.0-1.0-257.0-0.0","0","0","37243","","476","","","68","28","","","1","28","training","adjacent","CD","3","4","O.jpg","P.jpg","0","1","0","",""
"","feedback","","html-keyboard-response","185","631972","0.0-1.0-258.0-0.0","0","0","37243","","null","","","null","28","","","","","","","","","","","","","","","",""
"","time_out","","html-keyboard-response","186","633978","0.0-1.0-260.0-0.0","0","0","37243","","null","","","null","28","","","","","","","","","","","","","","","",""
"","ITI","","html-keyboard-response","187","634986","0.0-1.0-261.0","0","0","37243","","null","","","null","28","","","","","","","","","","","","","","","NaN",""
"","S1","","html-keyboard-response","188","635242","0.0-1.0-263.0","0","0","37243","","null","","","null","29","","","","","","","","","","","","","","","",""
"","ISI","","html-keyboard-response","189","635402","0.0-1.0-264.0","0","0","37243","","null","","","null","29","NaN","","","","","","","","","","","","","","",""
"","S2","","html-keyboard-response","190","635537","0.0-1.0-265.0","0","0","37243","","133","","","75","29","","k","1","29","training","adjacent","CD","3","4","O.jpg","P.jpg","1","1","1","",""
"","feedback","","html-keyboard-response","191","636551","0.0-1.0-267.0-0.0","0","0","37243","","null","","","null","29","","","","","","","","","","","","","","","",""
"","ITI","","html-keyboard-response","192","637556","0.0-1.0-270.0","0","0","37243","","null","","","null","29","","","","","","","","","","","","","","","NaN",""
"","S1","","html-keyboard-response","193","637812","0.0-1.0-272.0","0","0","37243","","null","","","null","30","","","","","","","","","","","","","","","",""
"","ISI","","html-keyboard-response","194","637972","0.0-1.0-273.0","0","0","37243","","null","","","null","30","NaN","","","","","","","","","","","","","","",""
"","S2","","html-keyboard-response","195","638228","0.0-1.0-274.0","0","0","37243","","null","","","null","30","","NaN","","","","","","","","","","","","","",""
"","response","","html-keyboard-response","196","638273","0.0-1.0-275.0-0.0","0","0","37243","","44","","","68","30","","","1","30","training","adjacent","CD","3","4","O.jpg","P.jpg","0","1","0","",""
"","feedback","","html-keyboard-response","197","639284","0.0-1.0-276.0-0.0","0","0","37243","","null","","","null","30","","","","","","","","","","","","","","","",""
"","time_out","","html-keyboard-response","198","641290","0.0-1.0-278.0-0.0","0","0","37243","","null","","","null","30","","","","","","","","","","","","","","","",""
"","ITI","","html-keyboard-response","199","642298","0.0-1.0-279.0","0","0","37243","","142","","","75","30","","","","","","","","","","","","","","","k",""
"","S1","","html-keyboard-response","200","642554","0.0-1.0-281.0","0","0","37243","","null","","","null","31","","","","","","","","","","","","","","","",""
"","ISI","","html-keyboard-response","201","642708","0.0-1.0-282.0","0","0","37243","","46","","","75","31","k","","","","","","","","","","","","","","",""
"","S2","","html-keyboard-response","202","642965","0.0-1.0-283.0","0","0","37243","","null","","","null","31","","NaN","","","","","","","","","","","","","",""
"","response","","html-keyboard-response","203","642985","0.0-1.0-284.0-0.0","0","0","37243","","19","","","75","31","","","1","31","training","adjacent","CD","3","4","O.jpg","P.jpg","1","1","1","",""
"","feedback","","html-keyboard-response","204","643994","0.0-1.0-285.0-0.0","0","0","37243","","null","","","null","31","","","","","","","","","","","","","","","",""
"","ITI","","html-keyboard-response","205","645002","0.0-1.0-288.0","0","0","37243","","null","","","null","31","","","","","","","","","","","","","","","NaN",""
"","S1","","html-keyboard-response","206","645258","0.0-1.0-290.0","0","0","37243","","null","","","null","32","","","","","","","","","","","","","","","",""
"","ISI","","html-keyboard-response","207","645412","0.0-1.0-291.0","0","0","37243","","null","","","null","32","NaN","","","","","","","","","","","","","","",""
"","S2","","html-keyboard-response","208","645668","0.0-1.0-292.0","0","0","37243","","null","","","null","32","","NaN","","","","","","","","","","","","","",""
"","response","","html-keyboard-response","209","647428","0.0-1.0-293.0-0.0","0","0","37243","","null","","","null","32","","","1","32","training","adjacent","CB","3","2","O.jpg","N.jpg","NaN","0","0","",""
"","too_slow_prompt","","html-keyboard-response","210","648436","0.0-1.0-295.0-0.0","1","0","37243","","null","","","null","","","","","","","","","","","","","","","","",""
"","time_out","","html-keyboard-response","211","650442","0.0-1.0-296.0-0.0","0","0","37243","","null","","","null","32","","","","","","","","","","","","","","","",""
"","ITI","","html-keyboard-response","212","651451","0.0-1.0-297.0","0","0","37243","","null","","","null","32","","","","","","","","","","","","","","","NaN",""
"","S1","","html-keyboard-response","213","651706","0.0-1.0-299.0","0","0","37243","","null","","","null","33","","","","","","","","","","","","","","","",""
"","ISI","","html-keyboard-response","214","651861","0.0-1.0-300.0","0","0","37243","","79","","","68","33","d","","","","","","","","","","","","","","",""
"","S2","","html-keyboard-response","215","652116","0.0-1.0-301.0","0","0","37243","","null","","","null","33","","NaN","","","","","","","","","","","","","",""
"","response","","html-keyboard-response","216","652274","0.0-1.0-302.0-0.0","0","0","37243","","156","","","68","33","","","1","33","training","adjacent","FG","6","7","L.jpg","R.jpg","0","1","0","",""
"","feedback","","html-keyboard-response","217","653286","0.0-1.0-303.0-0.0","0","0","37243","","null","","","null","33","","","","","","","","","","","","","","","",""
"","time_out","","html-keyboard-response","218","655290","0.0-1.0-305.0-0.0","0","0","37243","","null","","","null","33","","","","","","","","","","","","","","","",""
"","ITI","","html-keyboard-response","219","656298","0.0-1.0-306.0","0","0","37243","","null","","","null","33","","","","","","","","","","","","","","","NaN",""
"","S1","","html-keyboard-response","220","656554","0.0-1.0-308.0","0","0","37243","","null","","","null","34","","","","","","","","","","","","","","","",""
"","ISI","","html-keyboard-response","221","656709","0.0-1.0-309.0","0","0","37243","","null","","","null","34","NaN","","","","","","","","","","","","","","",""
"","S2","","html-keyboard-response","222","656964","0.0-1.0-310.0","0","0","37243","","null","","","null","34","","NaN","","","","","","","","","","","","","",""
"","response","","html-keyboard-response","223","657171","0.0-1.0-311.0-0.0","0","0","37243","","205","","","75","34","","","1","34","training","adjacent","GF","7","6","R.jpg","L.jpg","1","0","0","",""
"","feedback","","html-keyboard-response","224","658181","0.0-1.0-312.0-0.0","0","0","37243","","null","","","null","34","","","","","","","","","","","","","","","",""
"","time_out","","html-keyboard-response","225","660187","0.0-1.0-314.0-0.0","0","0","37243","","null","","","null","34","","","","","","","","","","","","","","","",""
"","ITI","","html-keyboard-response","226","661194","0.0-1.0-315.0","0","0","37243","","null","","","null","34","","","","","","","","","","","","","","","NaN",""
"","S1","","html-keyboard-response","227","661450","0.0-1.0-317.0","0","0","37243","","null","","","null","35","","","","","","","","","","","","","","","",""
"","ISI","","html-keyboard-response","228","661605","0.0-1.0-318.0","0","0","37243","","null","","","null","35","NaN","","","","","","","","","","","","","","",""
"","S2","","html-keyboard-response","229","661861","0.0-1.0-319.0","0","0","37243","","null","","","null","35","","NaN","","","","","","","","","","","","","",""
"","response","","html-keyboard-response","230","662178","0.0-1.0-320.0-0.0","0","0","37243","","316","","","75","35","","","1","35","training","adjacent","AB","1","2","Q.jpg","N.jpg","1","1","1","",""
"","feedback","","html-keyboard-response","231","663189","0.0-1.0-321.0-0.0","0","0","37243","","null","","","null","35","","","","","","","","","","","","","","","",""
"","ITI","","html-keyboard-response","232","664197","0.0-1.0-324.0","0","0","37243","","null","","","null","35","","","","","","","","","","","","","","","NaN",""
"","S1","","html-keyboard-response","233","664453","0.0-1.0-326.0","0","0","37243","","null","","","null","36","","","","","","","","","","","","","","","",""
"","ISI","","html-keyboard-response","234","664613","0.0-1.0-327.0","0","0","37243","","null","","","null","36","NaN","","","","","","","","","","","","","","",""
"","S2","","html-keyboard-response","235","664869","0.0-1.0-328.0","0","0","37243","","null","","","null","36","","NaN","","","","","","","","","","","","","",""
"","response","","html-keyboard-response","236","665290","0.0-1.0-329.0-0.0","0","0","37243","","420","","","68","36","","","1","36","training","adjacent","CB","3","2","O.jpg","N.jpg","0","0","1","",""
"","feedback","","html-keyboard-response","237","666299","0.0-1.0-330.0-0.0","0","0","37243","","null","","","null","36","","","","","","","","","","","","","","","",""
"","ITI","","html-keyboard-response","238","667307","0.0-1.0-333.0","0","0","37243","","null","","","null","36","","","","","","","","","","","","","","","NaN",""
"","S1","","html-keyboard-response","239","667563","0.0-1.0-335.0","0","0","37243","","null","","","null","37","","","","","","","","","","","","","","","",""
"","ISI","","html-keyboard-response","240","667722","0.0-1.0-336.0","0","0","37243","","null","","","null","37","NaN","","","","","","","","","","","","","","",""
"","S2","","html-keyboard-response","241","667979","0.0-1.0-337.0","0","0","37243","","null","","","null","37","","NaN","","","","","","","","","","","","","",""
"","response","","html-keyboard-response","242","668010","0.0-1.0-338.0-0.0","0","0","37243","","30","","","68","37","","","1","37","training","adjacent","ED","5","4","M.jpg","P.jpg","0","0","1","",""
"","feedback","","html-keyboard-response","243","669019","0.0-1.0-339.0-0.0","0","0","37243","","null","","","null","37","","","","","","","","","","","","","","","",""
"","ITI","","html-keyboard-response","244","670027","0.0-1.0-342.0","0","0","37243","","null","","","null","37","","","","","","","","","","","","","","","NaN",""
"","S1","","html-keyboard-response","245","670283","0.0-1.0-344.0","0","0","37243","","null","","","null","38","","","","","","","","","","","","","","","",""
"","ISI","","html-keyboard-response","246","670437","0.0-1.0-345.0","0","0","37243","","null","","","null","38","NaN","","","","","","","","","","","","","","",""
"","S2","","html-keyboard-response","247","670693","0.0-1.0-346.0","0","0","37243","","null","","","null","38","","NaN","","","","","","","","","","","","","",""
"","response","","html-keyboard-response","248","670842","0.0-1.0-347.0-0.0","0","0","37243","","148","","","75","38","","","1","38","training","adjacent","FG","6","7","L.jpg","R.jpg","1","1","1","",""
"","feedback","","html-keyboard-response","249","671851","0.0-1.0-348.0-0.0","0","0","37243","","null","","","null","38","","","","","","","","","","","","","","","",""
"","ITI","","html-keyboard-response","250","672859","0.0-1.0-351.0","0","0","37243","","null","","","null","38","","","","","","","","","","","","","","","NaN",""
"","S1","","html-keyboard-response","251","673115","0.0-1.0-353.0","0","0","37243","","null","","","null","39","","","","","","","","","","","","","","","",""
"","ISI","","html-keyboard-response","252","673269","0.0-1.0-354.0","0","0","37243","","null","","","null","39","NaN","","","","","","","","","","","","","","",""
"","S2","","html-keyboard-response","253","673525","0.0-1.0-355.0","0","0","37243","","null","","","null","39","","NaN","","","","","","","","","","","","","",""
"","response","","html-keyboard-response","254","673579","0.0-1.0-356.0-0.0","0","0","37243","","52","","","68","39","","","1","39","training","adjacent","DE","4","5","P.jpg","M.jpg","0","1","0","",""
"","feedback","","html-keyboard-response","255","674587","0.0-1.0-357.0-0.0","0","0","37243","","null","","","null","39","","","","","","","","","","","","","","","",""
"","time_out","","html-keyboard-response","256","676597","0.0-1.0-359.0-0.0","0","0","37243","","null","","","null","39","","","","","","","","","","","","","","","",""
"","ITI","","html-keyboard-response","257","677605","0.0-1.0-360.0","0","0","37243","","131","","","75","39","","","","","","","","","","","","","","","k",""
"","S1","","html-keyboard-response","258","677861","0.0-1.0-362.0","0","0","37243","","null","","","null","40","","","","","","","","","","","","","","","",""
"","ISI","","html-keyboard-response","259","678021","0.0-1.0-363.0","0","0","37243","","null","","","null","40","NaN","","","","","","","","","","","","","","",""
"","S2","","html-keyboard-response","260","678139","0.0-1.0-364.0","0","0","37243","","115","","","75","40","","k","1","40","training","adjacent","DC","4","3","P.jpg","O.jpg","1","0","0","",""
"","feedback","","html-keyboard-response","261","679147","0.0-1.0-366.0-0.0","0","0","37243","","null","","","null","40","","","","","","","","","","","","","","","",""
"","time_out","","html-keyboard-response","262","681157","0.0-1.0-368.0-0.0","0","0","37243","","null","","","null","40","","","","","","","","","","","","","","","",""
"","ITI","","html-keyboard-response","263","682165","0.0-1.0-369.0","0","0","37243","","null","","","null","40","","","","","","","","","","","","","","","NaN",""
"","S1","","html-keyboard-response","264","682421","0.0-1.0-371.0","0","0","37243","","null","","","null","41","","","","","","","","","","","","","","","",""
"","ISI","","html-keyboard-response","265","682581","0.0-1.0-372.0","0","0","37243","","null","","","null","41","NaN","","","","","","","","","","","","","","",""
"","S2","","html-keyboard-response","266","682837","0.0-1.0-373.0","0","0","37243","","null","","","null","41","","NaN","","","","","","","","","","","","","",""
"","response","","html-keyboard-response","267","682987","0.0-1.0-374.0-0.0","0","0","37243","","148","","","68","41","","","1","41","training","adjacent","AB","1","2","Q.jpg","N.jpg","0","1","0","",""
"","feedback","","html-keyboard-response","268","683995","0.0-1.0-375.0-0.0","0","0","37243","","null","","","null","41","","","","","","","","","","","","","","","",""
"","time_out","","html-keyboard-response","269","686005","0.0-1.0-377.0-0.0","0","0","37243","","null","","","null","41","","","","","","","","","","","","","","","",""
"","ITI","","html-keyboard-response","270","687013","0.0-1.0-378.0","0","0","37243","","null","","","null","41","","","","","","","","","","","","","","","NaN",""
"","S1","","html-keyboard-response","271","687270","0.0-1.0-380.0","0","0","37243","","null","","","null","42","","","","","","","","","","","","","","","",""
"","ISI","","html-keyboard-response","272","687431","0.0-1.0-381.0","0","0","37243","","34","","","75","42","k","","","","","","","","","","","","","","",""
"","S2","","html-keyboard-response","273","687686","0.0-1.0-382.0","0","0","37243","","null","","","null","42","","NaN","","","","","","","","","","","","","",""
"","response","","html-keyboard-response","274","687747","0.0-1.0-383.0-0.0","0","0","37243","","60","","","75","42","","","1","42","training","adjacent","EF","5","6","M.jpg","L.jpg","1","1","1","",""
"","feedback","","html-keyboard-response","275","688758","0.0-1.0-384.0-0.0","0","0","37243","","null","","","null","42","","","","","","","","","","","","","","","",""
"","ITI","","html-keyboard-response","276","689765","0.0-1.0-387.0","0","0","37243","","null","","","null","42","","","","","","","","","","","","","","","NaN",""
"","S1","","html-keyboard-response","277","690021","0.0-1.0-389.0","0","0","37243","","null","","","null","43","","","","","","","","","","","","","","","",""
"","ISI","","html-keyboard-response","278","690181","0.0-1.0-390.0","0","0","37243","","null","","","null","43","NaN","","","","","","","","","","","","","","",""
"","S2","","html-keyboard-response","279","690437","0.0-1.0-391.0","0","0","37243","","null","","","null","43","","NaN","","","","","","","","","","","","","",""
"","response","","html-keyboard-response","280","690755","0.0-1.0-392.0-0.0","0","0","37243","","316","","","75","43","","","1","43","training","adjacent","AB","1","2","Q.jpg","N.jpg","1","1","1","",""
"","feedback","","html-keyboard-response","281","691765","0.0-1.0-393.0-0.0","0","0","37243","","null","","","null","43","","","","","","","","","","","","","","","",""
"","ITI","","html-keyboard-response","282","692774","0.0-1.0-396.0","0","0","37243","","null","","","null","43","","","","","","","","","","","","","","","NaN",""
"","S1","","html-keyboard-response","283","693029","0.0-1.0-398.0","0","0","37243","","null","","","null","44","","","","","","","","","","","","","","","",""
"","ISI","","html-keyboard-response","284","693189","0.0-1.0-399.0","0","0","37243","","null","","","null","44","NaN","","","","","","","","","","","","","","",""
"","S2","","html-keyboard-response","285","693445","0.0-1.0-400.0","0","0","37243","","null","","","null","44","","NaN","","","","","","","","","","","","","",""
"","response","","html-keyboard-response","286","693475","0.0-1.0-401.0-0.0","0","0","37243","","29","","","75","44","","","1","44","training","adjacent","FG","6","7","L.jpg","R.jpg","1","1","1","",""
"","feedback","","html-keyboard-response","287","694485","0.0-1.0-402.0-0.0","0","0","37243","","null","","","null","44","","","","","","","","","","","","","","","",""
"","ITI","","html-keyboard-response","288","695494","0.0-1.0-405.0","0","0","37243","","null","","","null","44","","","","","","","","","","","","","","","NaN",""
"","S1","","html-keyboard-response","289","695750","0.0-1.0-407.0","0","0","37243","","null","","","null","45","","","","","","","","","","","","","","","",""
"","ISI","","html-keyboard-response","290","695909","0.0-1.0-408.0","0","0","37243","","null","","","null","45","NaN","","","","","","","","","","","","","","",""
"","S2","","html-keyboard-response","291","696166","0.0-1.0-409.0","0","0","37243","","null","","","null","45","","NaN","","","","","","","","","","","","","",""
"","response","","html-keyboard-response","292","696259","0.0-1.0-410.0-0.0","0","0","37243","","91","","","75","45","","","1","45","training","adjacent","DE","4","5","P.jpg","M.jpg","1","1","1","",""
"","feedback","","html-keyboard-response","293","697270","0.0-1.0-411.0-0.0","0","0","37243","","null","","","null","45","","","","","","","","","","","","","","","",""
"","ITI","","html-keyboard-response","294","698278","0.0-1.0-414.0","0","0","37243","","null","","","null","45","","","","","","","","","","","","","","","NaN",""
"","S1","","html-keyboard-response","295","698534","0.0-1.0-416.0","0","0","37243","","null","","","null","46","","","","","","","","","","","","","","","",""
"","ISI","","html-keyboard-response","296","698694","0.0-1.0-417.0","0","0","37243","","null","","","null","46","NaN","","","","","","","","","","","","","","",""
"","S2","","html-keyboard-response","297","698949","0.0-1.0-418.0","0","0","37243","","null","","","null","46","","NaN","","","","","","","","","","","","","",""
"","response","","html-keyboard-response","298","700710","0.0-1.0-419.0-0.0","0","0","37243","","null","","","null","46","","","1","46","training","adjacent","BA","2","1","N.jpg","Q.jpg","NaN","0","0","",""
"","too_slow_prompt","","html-keyboard-response","299","701718","0.0-1.0-421.0-0.0","1","0","37243","","null","","","null","","","","","","","","","","","","","","","","",""
"","time_out","","html-keyboard-response","300","703724","0.0-1.0-422.0-0.0","0","0","37243","","null","","","null","46","","","","","","","","","","","","","","","",""
"","ITI","","html-keyboard-response","301","704736","0.0-1.0-423.0","0","0","37243","","null","","","null","46","","","","","","","","","","","","","","","NaN",""
"","S1","","html-keyboard-response","302","704998","0.0-1.0-425.0","0","0","37243","","null","","","null","47","","","","","","","","","","","","","","","",""
"","ISI","","html-keyboard-response","303","705158","0.0-1.0-426.0","0","0","37243","","null","","","null","47","NaN","","","","","","","","","","","","","","",""
"","S2","","html-keyboard-response","304","705323","0.0-1.0-427.0","0","0","37243","","164","","","75","47","","k","1","47","training","adjacent","BA","2","1","N.jpg","Q.jpg","1","0","0","",""
"","feedback","","html-keyboard-response","305","706332","0.0-1.0-429.0-0.0","0","0","37243","","null","","","null","47","","","","","","","","","","","","","","","",""
"","time_out","","html-keyboard-response","306","708340","0.0-1.0-431.0-0.0","0","0","37243","","null","","","null","47","","","","","","","","","","","","","","","",""
"","ITI","","html-keyboard-response","307","709350","0.0-1.0-432.0","0","0","37243","","null","","","null","47","","","","","","","","","","","","","","","NaN",""
"","block_over","","html-keyboard-response","308","712773","0.0-1.0-433.0-0.0","0","0","37243","","3420","","","32","47","","","","","","","","","","","","","","","",""
"","S1","","html-keyboard-response","309","713030","0.0-1.0-434.0","0","0","37243","","null","","","null","48","","","","","","","","","","","","","","","",""
"","ISI","","html-keyboard-response","310","713190","0.0-1.0-435.0","0","0","37243","","null","","","null","48","NaN","","","","","","","","","","","","","","",""
"","S2","","html-keyboard-response","311","713444","0.0-1.0-436.0","0","0","37243","","null","","","null","48","","NaN","","","","","","","","","","","","","",""
"","response","","html-keyboard-response","312","713475","0.0-1.0-437.0-0.0","0","0","37243","","29","","","75","48","","","2","48","training","adjacent","DE","4","5","P.jpg","M.jpg","1","1","1","",""
"","feedback","","html-keyboard-response","313","714486","0.0-1.0-438.0-0.0","0","0","37243","","null","","","null","48","","","","","","","","","","","","","","","",""
"","ITI","","html-keyboard-response","314","715494","0.0-1.0-441.0","0","0","37243","","null","","","null","48","","","","","","","","","","","","","","","NaN",""
"","S1","","html-keyboard-response","315","715751","0.0-1.0-443.0","0","0","37243","","null","","","null","49","","","","","","","","","","","","","","","",""
"","ISI","","html-keyboard-response","316","715911","0.0-1.0-444.0","0","0","37243","","null","","","null","49","NaN","","","","","","","","","","","","","","",""
"","S2","","html-keyboard-response","317","716155","0.0-1.0-445.0","0","0","37243","","242","","","75","49","","k","2","49","training","adjacent","EF","5","6","M.jpg","L.jpg","1","1","1","",""
"","feedback","","html-keyboard-response","318","717164","0.0-1.0-447.0-0.0","0","0","37243","","null","","","null","49","","","","","","","","","","","","","","","",""
"","ITI","","html-keyboard-response","319","718173","0.0-1.0-450.0","0","0","37243","","null","","","null","49","","","","","","","","","","","","","","","NaN",""
"","S1","","html-keyboard-response","320","718428","0.0-1.0-452.0","0","0","37243","","null","","","null","50","","","","","","","","","","","","","","","",""
"","ISI","","html-keyboard-response","321","718582","0.0-1.0-453.0","0","0","37243","","null","","","null","50","NaN","","","","","","","","","","","","","","",""
"","S2","","html-keyboard-response","322","718839","0.0-1.0-454.0","0","0","37243","","null","","","null","50","","NaN","","","","","","","","","","","","","",""
"","response","","html-keyboard-response","323","719012","0.0-1.0-455.0-0.0","0","0","37243","","172","","","75","50","","","2","50","training","adjacent","CD","3","4","O.jpg","P.jpg","1","1","1","",""
"","feedback","","html-keyboard-response","324","720022","0.0-1.0-456.0-0.0","0","0","37243","","null","","","null","50","","","","","","","","","","","","","","","",""
"","ITI","","html-keyboard-response","325","721030","0.0-1.0-459.0","0","0","37243","","null","","","null","50","","","","","","","","","","","","","","","NaN",""
"","S1","","html-keyboard-response","326","721286","0.0-1.0-461.0","0","0","37243","","null","","","null","51","","","","","","","","","","","","","","","",""
"","ISI","","html-keyboard-response","327","721440","0.0-1.0-462.0","0","0","37243","","null","","","null","51","NaN","","","","","","","","","","","","","","",""
"","S2","","html-keyboard-response","328","721692","0.0-1.0-463.0","0","0","37243","","null","","","null","51","","NaN","","","","","","","","","","","","","",""
"","response","","html-keyboard-response","329","721987","0.0-1.0-464.0-0.0","0","0","37243","","293","","","75","51","","","2","51","training","adjacent","BC","2","3","N.jpg","O.jpg","1","1","1","",""
"","feedback","","html-keyboard-response","330","722998","0.0-1.0-465.0-0.0","0","0","37243","","null","","","null","51","","","","","","","","","","","","","","","",""
"","ITI","","html-keyboard-response","331","724006","0.0-1.0-468.0","0","0","37243","","null","","","null","51","","","","","","","","","","","","","","","NaN",""
"","S1","","html-keyboard-response","332","724262","0.0-1.0-470.0","0","0","37243","","null","","","null","52","","","","","","","","","","","","","","","",""
"","ISI","","html-keyboard-response","333","724422","0.0-1.0-471.0","0","0","37243","","null","","","null","52","NaN","","","","","","","","","","","","","","",""
"","S2","","html-keyboard-response","334","724679","0.0-1.0-472.0","0","0","37243","","null","","","null","52","","NaN","","","","","","","","","","","","","",""
"","response","","html-keyboard-response","335","724701","0.0-1.0-473.0-0.0","0","0","37243","","19","","","75","52","","","2","52","training","adjacent","FG","6","7","L.jpg","R.jpg","1","1","1","",""
"","feedback","","html-keyboard-response","336","725710","0.0-1.0-474.0-0.0","0","0","37243","","null","","","null","52","","","","","","","","","","","","","","","",""
"","ITI","","html-keyboard-response","337","726717","0.0-1.0-477.0","0","0","37243","","null","","","null","52","","","","","","","","","","","","","","","NaN",""
"","S1","","html-keyboard-response","338","726972","0.0-1.0-479.0","0","0","37243","","null","","","null","53","","","","","","","","","","","","","","","",""
"","ISI","","html-keyboard-response","339","727126","0.0-1.0-480.0","0","0","37243","","null","","","null","53","NaN","","","","","","","","","","","","","","",""
"","S2","","html-keyboard-response","340","727382","0.0-1.0-481.0","0","0","37243","","null","","","null","53","","NaN","","","","","","","","","","","","","",""
"","response","","html-keyboard-response","341","727548","0.0-1.0-482.0-0.0","0","0","37243","","164","","","75","53","","","2","53","training","adjacent","DC","4","3","P.jpg","O.jpg","1","0","0","",""
"","feedback","","html-keyboard-response","342","728556","0.0-1.0-483.0-0.0","0","0","37243","","null","","","null","53","","","","","","","","","","","","","","","",""
"","time_out","","html-keyboard-response","343","730567","0.0-1.0-485.0-0.0","0","0","37243","","null","","","null","53","","","","","","","","","","","","","","","",""
"","ITI","","html-keyboard-response","344","731575","0.0-1.0-486.0","0","0","37243","","null","","","null","53","","","","","","","","","","","","","","","NaN",""
"","S1","","html-keyboard-response","345","731831","0.0-1.0-488.0","0","0","37243","","null","","","null","54","","","","","","","","","","","","","","","",""
"","ISI","","html-keyboard-response","346","731991","0.0-1.0-489.0","0","0","37243","","null","","","null","54","NaN","","","","","","","","","","","","","","",""
"","S2","","html-keyboard-response","347","732092","0.0-1.0-490.0","0","0","37243","","100","","","75","54","","k","2","54","training","adjacent","FG","6","7","L.jpg","R.jpg","1","1","1","",""
"","feedback","","html-keyboard-response","348","733101","0.0-1.0-492.0-0.0","0","0","37243","","null","","","null","54","","","","","","","","","","","","","","","",""
"","ITI","","html-keyboard-response","349","734108","0.0-1.0-495.0","0","0","37243","","null","","","null","54","","","","","","","","","","","","","","","NaN",""
"","S1","","html-keyboard-response","350","734365","0.0-1.0-497.0","0","0","37243","","null","","","null","55","","","","","","","","","","","","","","","",""
"","ISI","","html-keyboard-response","351","734525","0.0-1.0-498.0","0","0","37243","","null","","","null","55","NaN","","","","","","","","","","","","","","",""
"","S2","","html-keyboard-response","352","734676","0.0-1.0-499.0","0","0","37243","","150","","","75","55","","k","2","55","training","adjacent","FG","6","7","L.jpg","R.jpg","1","1","1","",""
"","feedback","","html-keyboard-response","353","735687","0.0-1.0-501.0-0.0","0","0","37243","","null","","","null","55","","","","","","","","","","","","","","","",""
"","ITI","","html-keyboard-response","354","736695","0.0-1.0-504.0","0","0","37243","","null","","","null","55","","","","","","","","","","","","","","","NaN",""
"","S1","","html-keyboard-response","355","736951","0.0-1.0-506.0","0","0","37243","","null","","","null","56","","","","","","","","","","","","","","","",""
"","ISI","","html-keyboard-response","356","737111","0.0-1.0-507.0","0","0","37243","","null","","","null","56","NaN","","","","","","","","","","","","","","",""
"","S2","","html-keyboard-response","357","737308","0.0-1.0-508.0","0","0","37243","","195","","","68","56","","d","2","56","training","adjacent","CD","3","4","O.jpg","P.jpg","0","1","0","",""
"","feedback","","html-keyboard-response","358","738318","0.0-1.0-510.0-0.0","0","0","37243","","null","","","null","56","","","","","","","","","","","","","","","",""
"","time_out","","html-keyboard-response","359","740327","0.0-1.0-512.0-0.0","0","0","37243","","null","","","null","56","","","","","","","","","","","","","","","",""
"","ITI","","html-keyboard-response","360","741333","0.0-1.0-513.0","0","0","37243","","null","","","null","56","","","","","","","","","","","","","","","NaN",""
"","S1","","html-keyboard-response","361","741591","0.0-1.0-515.0","0","0","37243","","null","","","null","57","","","","","","","","","","","","","","","",""
"","ISI","","html-keyboard-response","362","741751","0.0-1.0-516.0","0","0","37243","","null","","","null","57","NaN","","","","","","","","","","","","","","",""
"","S2","","html-keyboard-response","363","741972","0.0-1.0-517.0","0","0","37243","","219","","","75","57","","k","2","57","training","adjacent","FE","6","5","L.jpg","M.jpg","1","0","0","",""
"","feedback","","html-keyboard-response","364","742983","0.0-1.0-519.0-0.0","0","0","37243","","null","","","null","57","","","","","","","","","","","","","","","",""
"","time_out","","html-keyboard-response","365","744990","0.0-1.0-521.0-0.0","0","0","37243","","null","","","null","57","","","","","","","","","","","","","","","",""
"","ITI","","html-keyboard-response","366","745997","0.0-1.0-522.0","0","0","37243","","null","","","null","57","","","","","","","","","","","","","","","NaN",""
"","S1","","html-keyboard-response","367","746253","0.0-1.0-524.0","0","0","37243","","null","","","null","58","","","","","","","","","","","","","","","",""
"","ISI","","html-keyboard-response","368","746407","0.0-1.0-525.0","0","0","37243","","78","","","75","58","k","","","","","","","","","","","","","","",""
"","S2","","html-keyboard-response","369","746663","0.0-1.0-526.0","0","0","37243","","null","","","null","58","","NaN","","","","","","","","","","","","","",""
"","response","","html-keyboard-response","370","746917","0.0-1.0-527.0-0.0","0","0","37243","","251","","","75","58","","","2","58","training","adjacent","FE","6","5","L.jpg","M.jpg","1","0","0","",""
"","feedback","","html-keyboard-response","371","747930","0.0-1.0-528.0-0.0","0","0","37243","","null","","","null","58","","","","","","","","","","","","","","","",""
"","time_out","","html-keyboard-response","372","749933","0.0-1.0-530.0-0.0","0","0","37243","","null","","","null","58","","","","","","","","","","","","","","","",""
"","ITI","","html-keyboard-response","373","750935","0.0-1.0-531.0","0","0","37243","","null","","","null","58","","","","","","","","","","","","","","","NaN",""
"","S1","","html-keyboard-response","374","751191","0.0-1.0-533.0","0","0","37243","","null","","","null","59","","","","","","","","","","","","","","","",""
"","ISI","","html-keyboard-response","375","751351","0.0-1.0-534.0","0","0","37243","","null","","","null","59","NaN","","","","","","","","","","","","","","",""
"","S2","","html-keyboard-response","376","751608","0.0-1.0-535.0","0","0","37243","","null","","","null","59","","NaN","","","","","","","","","","","","","",""
"","response","","html-keyboard-response","377","751828","0.0-1.0-536.0-0.0","0","0","37243","","219","","","68","59","","","2","59","training","adjacent","ED","5","4","M.jpg","P.jpg","0","0","1","",""
"","feedback","","html-keyboard-response","378","752839","0.0-1.0-537.0-0.0","0","0","37243","","null","","","null","59","","","","","","","","","","","","","","","",""
"","ITI","","html-keyboard-response","379","753845","0.0-1.0-540.0","0","0","37243","","null","","","null","59","","","","","","","","","","","","","","","NaN",""
"","S1","","html-keyboard-response","380","754103","0.0-1.0-542.0","0","0","37243","","null","","","null","60","","","","","","","","","","","","","","","",""
"","ISI","","html-keyboard-response","381","754263","0.0-1.0-543.0","0","0","37243","","null","","","null","60","NaN","","","","","","","","","","","","","","",""
"","S2","","html-keyboard-response","382","754519","0.0-1.0-544.0","0","0","37243","","null","","","null","60","","NaN","","","","","","","","","","","","","",""
"","response","","html-keyboard-response","383","755116","0.0-1.0-545.0-0.0","0","0","37243","","595","","","68","60","","","2","60","training","adjacent","AB","1","2","Q.jpg","N.jpg","0","1","0","",""
"","feedback","","html-keyboard-response","384","756125","0.0-1.0-546.0-0.0","0","0","37243","","null","","","null","60","","","","","","","","","","","","","","","",""
"","time_out","","html-keyboard-response","385","758135","0.0-1.0-548.0-0.0","0","0","37243","","null","","","null","60","","","","","","","","","","","","","","","",""
"","ITI","","html-keyboard-response","386","759141","0.0-1.0-549.0","0","0","37243","","436","","","75","60","","","","","","","","","","","","","","","k",""
"","S1","","html-keyboard-response","387","759399","0.0-1.0-551.0","0","0","37243","","null","","","null","61","","","","","","","","","","","","","","","",""
"","ISI","","html-keyboard-response","388","759560","0.0-1.0-552.0","0","0","37243","","null","","","null","61","NaN","","","","","","","","","","","","","","",""
"","S2","","html-keyboard-response","389","759709","0.0-1.0-553.0","0","0","37243","","147","","","75","61","","k","2","61","training","adjacent","ED","5","4","M.jpg","P.jpg","1","0","0","",""
"","feedback","","html-keyboard-response","390","760718","0.0-1.0-555.0-0.0","0","0","37243","","null","","","null","61","","","","","","","","","","","","","","","",""
"","time_out","","html-keyboard-response","391","762728","0.0-1.0-557.0-0.0","0","0","37243","","null","","","null","61","","","","","","","","","","","","","","","",""
"","ITI","","html-keyboard-response","392","763736","0.0-1.0-558.0","0","0","37243","","null","","","null","61","","","","","","","","","","","","","","","NaN",""
"","S1","","html-keyboard-response","393","763991","0.0-1.0-560.0","0","0","37243","","null","","","null","62","","","","","","","","","","","","","","","",""
"","ISI","","html-keyboard-response","394","764151","0.0-1.0-561.0","0","0","37243","","108","","","75","62","k","","","","","","","","","","","","","","",""
"","S2","","html-keyboard-response","395","764408","0.0-1.0-562.0","0","0","37243","","null","","","null","62","","NaN","","","","","","","","","","","","","",""
"","response","","html-keyboard-response","396","764516","0.0-1.0-563.0-0.0","0","0","37243","","107","","","75","62","","","2","62","training","adjacent","BC","2","3","N.jpg","O.jpg","1","1","1","",""
"","feedback","","html-keyboard-response","397","765528","0.0-1.0-564.0-0.0","0","0","37243","","null","","","null","62","","","","","","","","","","","","","","","",""
"","ITI","","html-keyboard-response","398","766536","0.0-1.0-567.0","0","0","37243","","null","","","null","62","","","","","","","","","","","","","","","NaN",""
"","S1","","html-keyboard-response","399","766792","0.0-1.0-569.0","0","0","37243","","null","","","null","63","","","","","","","","","","","","","","","",""
"","ISI","","html-keyboard-response","400","766952","0.0-1.0-570.0","0","0","37243","","null","","","null","63","NaN","","","","","","","","","","","","","","",""
"","S2","","html-keyboard-response","401","767189","0.0-1.0-571.0","0","0","37243","","236","","","68","63","","d","2","63","training","adjacent","BC","2","3","N.jpg","O.jpg","0","1","0","",""
"","feedback","","html-keyboard-response","402","768200","0.0-1.0-573.0-0.0","0","0","37243","","null","","","null","63","","","","","","","","","","","","","","","",""
"","time_out","","html-keyboard-response","403","770205","0.0-1.0-575.0-0.0","0","0","37243","","null","","","null","63","","","","","","","","","","","","","","","",""
"","ITI","","html-keyboard-response","404","771214","0.0-1.0-576.0","0","0","37243","","null","","","null","63","","","","","","","","","","","","","","","NaN",""
"","S1","","html-keyboard-response","405","771471","0.0-1.0-578.0","0","0","37243","","null","","","null","64","","","","","","","","","","","","","","","",""
"","ISI","","html-keyboard-response","406","771629","0.0-1.0-579.0","0","0","37243","","null","","","null","64","NaN","","","","","","","","","","","","","","",""
"","S2","","html-keyboard-response","407","771805","0.0-1.0-580.0","0","0","37243","","174","","","75","64","","k","2","64","training","adjacent","DE","4","5","P.jpg","M.jpg","1","1","1","",""
"","feedback","","html-keyboard-response","408","772814","0.0-1.0-582.0-0.0","0","0","37243","","null","","","null","64","","","","","","","","","","","","","","","",""
"","ITI","","html-keyboard-response","409","773822","0.0-1.0-585.0","0","0","37243","","null","","","null","64","","","","","","","","","","","","","","","NaN",""
"","S1","","html-keyboard-response","410","774078","0.0-1.0-587.0","0","0","37243","","null","","","null","65","","","","","","","","","","","","","","","",""
"","ISI","","html-keyboard-response","411","774232","0.0-1.0-588.0","0","0","37243","","null","","","null","65","NaN","","","","","","","","","","","","","","",""
"","S2","","html-keyboard-response","412","774488","0.0-1.0-589.0","0","0","37243","","null","","","null","65","","NaN","","","","","","","","","","","","","",""
"","response","","html-keyboard-response","413","774717","0.0-1.0-590.0-0.0","0","0","37243","","228","","","75","65","","","2","65","training","adjacent","DC","4","3","P.jpg","O.jpg","1","0","0","",""
"","feedback","","html-keyboard-response","414","775726","0.0-1.0-591.0-0.0","0","0","37243","","null","","","null","65","","","","","","","","","","","","","","","",""
"","time_out","","html-keyboard-response","415","777736","0.0-1.0-593.0-0.0","0","0","37243","","null","","","null","65","","","","","","","","","","","","","","","",""
"","ITI","","html-keyboard-response","416","778742","0.0-1.0-594.0","0","0","37243","","107","","","68","65","","","","","","","","","","","","","","","d",""
"","S1","","html-keyboard-response","417","779000","0.0-1.0-596.0","0","0","37243","","null","","","null","66","","","","","","","","","","","","","","","",""
"","ISI","","html-keyboard-response","418","779160","0.0-1.0-597.0","0","0","37243","","124","","","68","66","d","","","","","","","","","","","","","","",""
"","S2","","html-keyboard-response","419","779416","0.0-1.0-598.0","0","0","37243","","null","","","null","66","","NaN","","","","","","","","","","","","","",""
"","response","","html-keyboard-response","420","779662","0.0-1.0-599.0-0.0","0","0","37243","","244","","","75","66","","","2","66","training","adjacent","DE","4","5","P.jpg","M.jpg","1","1","1","",""
"","feedback","","html-keyboard-response","421","780670","0.0-1.0-600.0-0.0","0","0","37243","","null","","","null","66","","","","","","","","","","","","","","","",""
"","ITI","","html-keyboard-response","422","781678","0.0-1.0-603.0","0","0","37243","","null","","","null","66","","","","","","","","","","","","","","","NaN",""
"","S1","","html-keyboard-response","423","781934","0.0-1.0-605.0","0","0","37243","","null","","","null","67","","","","","","","","","","","","","","","",""
"","ISI","","html-keyboard-response","424","782088","0.0-1.0-606.0","0","0","37243","","null","","","null","67","NaN","","","","","","","","","","","","","","",""
"","S2","","html-keyboard-response","425","782343","0.0-1.0-607.0","0","0","37243","","null","","","null","67","","NaN","","","","","","","","","","","","","",""
"","response","","html-keyboard-response","426","782373","0.0-1.0-608.0-0.0","0","0","37243","","29","","","68","67","","","2","67","training","adjacent","DE","4","5","P.jpg","M.jpg","0","1","0","",""
"","feedback","","html-keyboard-response","427","783384","0.0-1.0-609.0-0.0","0","0","37243","","null","","","null","67","","","","","","","","","","","","","","","",""
"","time_out","","html-keyboard-response","428","785390","0.0-1.0-611.0-0.0","0","0","37243","","null","","","null","67","","","","","","","","","","","","","","","",""
"","ITI","","html-keyboard-response","429","786398","0.0-1.0-612.0","0","0","37243","","438","","","75","67","","","","","","","","","","","","","","","k",""
"","S1","","html-keyboard-response","430","786654","0.0-1.0-614.0","0","0","37243","","null","","","null","68","","","","","","","","","","","","","","","",""
"","ISI","","html-keyboard-response","431","786809","0.0-1.0-615.0","0","0","37243","","null","","","null","68","NaN","","","","","","","","","","","","","","",""
"","S2","","html-keyboard-response","432","786869","0.0-1.0-616.0","0","0","37243","","59","","","75","68","","k","2","68","training","adjacent","FE","6","5","L.jpg","M.jpg","1","0","0","",""
"","feedback","","html-keyboard-response","433","787881","0.0-1.0-618.0-0.0","0","0","37243","","null","","","null","68","","","","","","","","","","","","","","","",""
"","time_out","","html-keyboard-response","434","789886","0.0-1.0-620.0-0.0","0","0","37243","","null","","","null","68","","","","","","","","","","","","","","","",""
"","ITI","","html-keyboard-response","435","790894","0.0-1.0-621.0","0","0","37243","","886","","","75","68","","","","","","","","","","","","","","","k",""
"","S1","","html-keyboard-response","436","791150","0.0-1.0-623.0","0","0","37243","","null","","","null","69","","","","","","","","","","","","","","","",""
"","ISI","","html-keyboard-response","437","791304","0.0-1.0-624.0","0","0","37243","","127","","","75","69","k","","","","","","","","","","","","","","",""
"","S2","","html-keyboard-response","438","791560","0.0-1.0-625.0","0","0","37243","","null","","","null","69","","NaN","","","","","","","","","","","","","",""
"","response","","html-keyboard-response","439","791717","0.0-1.0-626.0-0.0","0","0","37243","","155","","","75","69","","","2","69","training","adjacent","BA","2","1","N.jpg","Q.jpg","1","0","0","",""
"","feedback","","html-keyboard-response","440","792728","0.0-1.0-627.0-0.0","0","0","37243","","null","","","null","69","","","","","","","","","","","","","","","",""
"","time_out","","html-keyboard-response","441","794734","0.0-1.0-629.0-0.0","0","0","37243","","null","","","null","69","","","","","","","","","","","","","","","",""
"","ITI","","html-keyboard-response","442","795737","0.0-1.0-630.0","0","0","37243","","934","","","68","69","","","","","","","","","","","","","","","d",""
"","S1","","html-keyboard-response","443","795991","0.0-1.0-632.0","0","0","37243","","null","","","null","70","","","","","","","","","","","","","","","",""
"","ISI","","html-keyboard-response","444","796152","0.0-1.0-633.0","0","0","37243","","null","","","null","70","NaN","","","","","","","","","","","","","","",""
"","S2","","html-keyboard-response","445","796382","0.0-1.0-634.0","0","0","37243","","228","","","75","70","","k","2","70","training","adjacent","AB","1","2","Q.jpg","N.jpg","1","1","1","",""
"","feedback","","html-keyboard-response","446","797390","0.0-1.0-636.0-0.0","0","0","37243","","null","","","null","70","","","","","","","","","","","","","","","",""
"","ITI","","html-keyboard-response","447","798398","0.0-1.0-639.0","0","0","37243","","null","","","null","70","","","","","","","","","","","","","","","NaN",""
"","S1","","html-keyboard-response","448","798654","0.0-1.0-641.0","0","0","37243","","null","","","null","71","","","","","","","","","","","","","","","",""
"","ISI","","html-keyboard-response","449","798808","0.0-1.0-642.0","0","0","37243","","null","","","null","71","NaN","","","","","","","","","","","","","","",""
"","S2","","html-keyboard-response","450","799066","0.0-1.0-643.0","0","0","37243","","null","","","null","71","","NaN","","","","","","","","","","","","","",""
"","response","","html-keyboard-response","451","799438","0.0-1.0-644.0-0.0","0","0","37243","","370","","","68","71","","","2","71","training","adjacent","EF","5","6","M.jpg","L.jpg","0","1","0","",""
"","feedback","","html-keyboard-response","452","800441","0.0-1.0-645.0-0.0","0","0","37243","","null","","","null","71","","","","","","","","","","","","","","","",""
"","time_out","","html-keyboard-response","453","802446","0.0-1.0-647.0-0.0","0","0","37243","","null","","","null","71","","","","","","","","","","","","","","","",""
"","ITI","","html-keyboard-response","454","803454","0.0-1.0-648.0","0","0","37243","","null","","","null","71","","","","","","","","","","","","","","","NaN",""
"","S1","","html-keyboard-response","455","803711","0.0-1.0-650.0","0","0","37243","","null","","","null","72","","","","","","","","","","","","","","","",""
"","ISI","","html-keyboard-response","456","803865","0.0-1.0-651.0","0","0","37243","","null","","","null","72","NaN","","","","","","","","","","","","","","",""
"","S2","","html-keyboard-response","457","804121","0.0-1.0-652.0","0","0","37243","","null","","","null","72","","NaN","","","","","","","","","","","","","",""
"","response","","html-keyboard-response","458","804382","0.0-1.0-653.0-0.0","0","0","37243","","260","","","75","72","","","2","72","training","adjacent","CB","3","2","O.jpg","N.jpg","1","0","0","",""
"","feedback","","html-keyboard-response","459","805391","0.0-1.0-654.0-0.0","0","0","37243","","null","","","null","72","","","","","","","","","","","","","","","",""
"","time_out","","html-keyboard-response","460","807401","0.0-1.0-656.0-0.0","0","0","37243","","null","","","null","72","","","","","","","","","","","","","","","",""
"","ITI","","html-keyboard-response","461","808409","0.0-1.0-657.0","0","0","37243","","null","","","null","72","","","","","","","","","","","","","","","NaN",""
"","S1","","html-keyboard-response","462","808667","0.0-1.0-659.0","0","0","37243","","null","","","null","73","","","","","","","","","","","","","","","",""
"","ISI","","html-keyboard-response","463","808825","0.0-1.0-660.0","0","0","37243","","null","","","null","73","NaN","","","","","","","","","","","","","","",""
"","S2","","html-keyboard-response","464","809081","0.0-1.0-661.0","0","0","37243","","null","","","null","73","","NaN","","","","","","","","","","","","","",""
"","response","","html-keyboard-response","465","809358","0.0-1.0-662.0-0.0","0","0","37243","","275","","","75","73","","","2","73","training","adjacent","GF","7","6","R.jpg","L.jpg","1","0","0","",""
"","feedback","","html-keyboard-response","466","810367","0.0-1.0-663.0-0.0","0","0","37243","","null","","","null","73","","","","","","","","","","","","","","","",""
"","time_out","","html-keyboard-response","467","812377","0.0-1.0-665.0-0.0","0","0","37243","","null","","","null","73","","","","","","","","","","","","","","","",""
"","ITI","","html-keyboard-response","468","813382","0.0-1.0-666.0","0","0","37243","","804","","","68","73","","","","","","","","","","","","","","","d",""
"","S1","","html-keyboard-response","469","813641","0.0-1.0-668.0","0","0","37243","","null","","","null","74","","","","","","","","","","","","","","","",""
"","ISI","","html-keyboard-response","470","813801","0.0-1.0-669.0","0","0","37243","","null","","","null","74","NaN","","","","","","","","","","","","","","",""
"","S2","","html-keyboard-response","471","814057","0.0-1.0-670.0","0","0","37243","","null","","","null","74","","NaN","","","","","","","","","","","","","",""
"","response","","html-keyboard-response","472","814078","0.0-1.0-671.0-0.0","0","0","37243","","19","","","68","74","","","2","74","training","adjacent","FG","6","7","L.jpg","R.jpg","0","1","0","",""
"","feedback","","html-keyboard-response","473","815087","0.0-1.0-672.0-0.0","0","0","37243","","null","","","null","74","","","","","","","","","","","","","","","",""
"","time_out","","html-keyboard-response","474","817097","0.0-1.0-674.0-0.0","0","0","37243","","null","","","null","74","","","","","","","","","","","","","","","",""
"","ITI","","html-keyboard-response","475","818105","0.0-1.0-675.0","0","0","37243","","null","","","null","74","","","","","","","","","","","","","","","NaN",""
"","S1","","html-keyboard-response","476","818364","0.0-1.0-677.0","0","0","37243","","null","","","null","75","","","","","","","","","","","","","","","",""
"","ISI","","html-keyboard-response","477","818522","0.0-1.0-678.0","0","0","37243","","null","","","null","75","NaN","","","","","","","","","","","","","","",""
"","S2","","html-keyboard-response","478","818710","0.0-1.0-679.0","0","0","37243","","186","","","75","75","","k","2","75","training","adjacent","BC","2","3","N.jpg","O.jpg","1","1","1","",""
"","feedback","","html-keyboard-response","479","819724","0.0-1.0-681.0-0.0","0","0","37243","","null","","","null","75","","","","","","","","","","","","","","","",""
"","ITI","","html-keyboard-response","480","820730","0.0-1.0-684.0","0","0","37243","","null","","","null","75","","","","","","","","","","","","","","","NaN",""
"","S1","","html-keyboard-response","481","820985","0.0-1.0-686.0","0","0","37243","","null","","","null","76","","","","","","","","","","","","","","","",""
"","ISI","","html-keyboard-response","482","821143","0.0-1.0-687.0","0","0","37243","","null","","","null","76","NaN","","","","","","","","","","","","","","",""
"","S2","","html-keyboard-response","483","821401","0.0-1.0-688.0","0","0","37243","","null","","","null","76","","NaN","","","","","","","","","","","","","",""
"","response","","html-keyboard-response","484","821663","0.0-1.0-689.0-0.0","0","0","37243","","259","","","68","76","","","2","76","training","adjacent","CB","3","2","O.jpg","N.jpg","0","0","1","",""
"","feedback","","html-keyboard-response","485","822671","0.0-1.0-690.0-0.0","0","0","37243","","null","","","null","76","","","","","","","","","","","","","","","",""
"","ITI","","html-keyboard-response","486","823679","0.0-1.0-693.0","0","0","37243","","null","","","null","76","","","","","","","","","","","","","","","NaN",""
"","S1","","html-keyboard-response","487","823935","0.0-1.0-695.0","0","0","37243","","null","","","null","77","","","","","","","","","","","","","","","",""
"","ISI","","html-keyboard-response","488","824089","0.0-1.0-696.0","0","0","37243","","null","","","null","77","NaN","","","","","","","","","","","","","","",""
"","S2","","html-keyboard-response","489","824343","0.0-1.0-697.0","0","0","37243","","null","","","null","77","","NaN","","","","","","","","","","","","","",""
"","response","","html-keyboard-response","490","824695","0.0-1.0-698.0-0.0","0","0","37243","","350","","","68","77","","","2","77","training","adjacent","ED","5","4","M.jpg","P.jpg","0","0","1","",""
"","feedback","","html-keyboard-response","491","825705","0.0-1.0-699.0-0.0","0","0","37243","","null","","","null","77","","","","","","","","","","","","","","","",""
"","ITI","","html-keyboard-response","492","826710","0.0-1.0-702.0","0","0","37243","","772","","","75","77","","","","","","","","","","","","","","","k",""
"","S1","","html-keyboard-response","493","826969","0.0-1.0-704.0","0","0","37243","","null","","","null","78","","","","","","","","","","","","","","","",""
"","ISI","","html-keyboard-response","494","827130","0.0-1.0-705.0","0","0","37243","","124","","","68","78","d","","","","","","","","","","","","","","",""
"","S2","","html-keyboard-response","495","827385","0.0-1.0-706.0","0","0","37243","","null","","","null","78","","NaN","","","","","","","","","","","","","",""
"","response","","html-keyboard-response","496","827623","0.0-1.0-707.0-0.0","0","0","37243","","235","","","75","78","","","2","78","training","adjacent","BA","2","1","N.jpg","Q.jpg","1","0","0","",""
"","feedback","","html-keyboard-response","497","828634","0.0-1.0-708.0-0.0","0","0","37243","","null","","","null","78","","","","","","","","","","","","","","","",""
"","time_out","","html-keyboard-response","498","830639","0.0-1.0-710.0-0.0","0","0","37243","","null","","","null","78","","","","","","","","","","","","","","","",""
"","ITI","","html-keyboard-response","499","831642","0.0-1.0-711.0","0","0","37243","","358","","","75","78","","","","","","","","","","","","","","","k",""
"","S1","","html-keyboard-response","500","831898","0.0-1.0-713.0","0","0","37243","","null","","","null","79","","","","","","","","","","","","","","","",""
"","ISI","","html-keyboard-response","501","832067","0.0-1.0-714.0","0","0","37243","","null","","","null","79","NaN","","","","","","","","","","","","","","",""
"","S2","","html-keyboard-response","502","832319","0.0-1.0-715.0","0","0","37243","","null","","","null","79","","NaN","","","","","","","","","","","","","",""
"","response","","html-keyboard-response","503","832351","0.0-1.0-716.0-0.0","0","0","37243","","30","","","75","79","","","2","79","training","adjacent","CD","3","4","O.jpg","P.jpg","1","1","1","",""
"","feedback","","html-keyboard-response","504","833364","0.0-1.0-717.0-0.0","0","0","37243","","null","","","null","79","","","","","","","","","","","","","","","",""
"","ITI","","html-keyboard-response","505","834368","0.0-1.0-720.0","0","0","37243","","null","","","null","79","","","","","","","","","","","","","","","NaN",""
"","S1","","html-keyboard-response","506","834624","0.0-1.0-722.0","0","0","37243","","null","","","null","80","","","","","","","","","","","","","","","",""
"","ISI","","html-keyboard-response","507","834778","0.0-1.0-723.0","0","0","37243","","null","","","null","80","NaN","","","","","","","","","","","","","","",""
"","S2","","html-keyboard-response","508","835034","0.0-1.0-724.0","0","0","37243","","null","","","null","80","","NaN","","","","","","","","","","","","","",""
"","response","","html-keyboard-response","509","835615","0.0-1.0-725.0-0.0","0","0","37243","","580","","","75","80","","","2","80","training","adjacent","AB","1","2","Q.jpg","N.jpg","1","1","1","",""
"","feedback","","html-keyboard-response","510","836624","0.0-1.0-726.0-0.0","0","0","37243","","null","","","null","80","","","","","","","","","","","","","","","",""
"","ITI","","html-keyboard-response","511","837631","0.0-1.0-729.0","0","0","37243","","null","","","null","80","","","","","","","","","","","","","","","NaN",""
"","S1","","html-keyboard-response","512","837888","0.0-1.0-731.0","0","0","37243","","null","","","null","81","","","","","","","","","","","","","","","",""
"","ISI","","html-keyboard-response","513","838042","0.0-1.0-732.0","0","0","37243","","94","","","68","81","d","","","","","","","","","","","","","","",""
"","S2","","html-keyboard-response","514","838298","0.0-1.0-733.0","0","0","37243","","null","","","null","81","","NaN","","","","","","","","","","","","","",""
"","response","","html-keyboard-response","515","838415","0.0-1.0-734.0-0.0","0","0","37243","","116","","","75","81","","","2","81","training","adjacent","DC","4","3","P.jpg","O.jpg","1","0","0","",""
"","feedback","","html-keyboard-response","516","839426","0.0-1.0-735.0-0.0","0","0","37243","","null","","","null","81","","","","","","","","","","","","","","","",""
"","time_out","","html-keyboard-response","517","841434","0.0-1.0-737.0-0.0","0","0","37243","","null","","","null","81","","","","","","","","","","","","","","","",""
"","ITI","","html-keyboard-response","518","842442","0.0-1.0-738.0","0","0","37243","","null","","","null","81","","","","","","","","","","","","","","","NaN",""
"","S1","","html-keyboard-response","519","842698","0.0-1.0-740.0","0","0","37243","","null","","","null","82","","","","","","","","","","","","","","","",""
"","ISI","","html-keyboard-response","520","842858","0.0-1.0-741.0","0","0","37243","","null","","","null","82","NaN","","","","","","","","","","","","","","",""
"","S2","","html-keyboard-response","521","843114","0.0-1.0-742.0","0","0","37243","","null","","","null","82","","NaN","","","","","","","","","","","","","",""
"","response","","html-keyboard-response","522","843711","0.0-1.0-743.0-0.0","0","0","37243","","596","","","68","82","","","2","82","training","adjacent","CB","3","2","O.jpg","N.jpg","0","0","1","",""
"","feedback","","html-keyboard-response","523","844720","0.0-1.0-744.0-0.0","0","0","37243","","null","","","null","82","","","","","","","","","","","","","","","",""
"","ITI","","html-keyboard-response","524","845722","0.0-1.0-747.0","0","0","37243","","null","","","null","82","","","","","","","","","","","","","","","NaN",""
"","S1","","html-keyboard-response","525","845978","0.0-1.0-749.0","0","0","37243","","null","","","null","83","","","","","","","","","","","","","","","",""
"","ISI","","html-keyboard-response","526","846138","0.0-1.0-750.0","0","0","37243","","52","","","75","83","k","","","","","","","","","","","","","","",""
"","S2","","html-keyboard-response","527","846394","0.0-1.0-751.0","0","0","37243","","null","","","null","83","","NaN","","","","","","","","","","","","","",""
"","response","","html-keyboard-response","528","846527","0.0-1.0-752.0-0.0","0","0","37243","","132","","","68","83","","","2","83","training","adjacent","FE","6","5","L.jpg","M.jpg","0","0","1","",""
"","feedback","","html-keyboard-response","529","847536","0.0-1.0-753.0-0.0","0","0","37243","","null","","","null","83","","","","","","","","","","","","","","","",""
"","ITI","","html-keyboard-response","530","848539","0.0-1.0-756.0","0","0","37243","","null","","","null","83","","","","","","","","","","","","","","","NaN",""
"","S1","","html-keyboard-response","531","848794","0.0-1.0-758.0","0","0","37243","","null","","","null","84","","","","","","","","","","","","","","","",""
"","ISI","","html-keyboard-response","532","848955","0.0-1.0-759.0","0","0","37243","","null","","","null","84","NaN","","","","","","","","","","","","","","",""
"","S2","","html-keyboard-response","533","849210","0.0-1.0-760.0","0","0","37243","","null","","","null","84","","NaN","","","","","","","","","","","","","",""
"","response","","html-keyboard-response","534","849696","0.0-1.0-761.0-0.0","0","0","37243","","484","","","68","84","","","2","84","training","adjacent","GF","7","6","R.jpg","L.jpg","0","0","1","",""
"","feedback","","html-keyboard-response","535","850704","0.0-1.0-762.0-0.0","0","0","37243","","null","","","null","84","","","","","","","","","","","","","","","",""
"","ITI","","html-keyboard-response","536","851712","0.0-1.0-765.0","0","0","37243","","null","","","null","84","","","","","","","","","","","","","","","NaN",""
"","S1","","html-keyboard-response","537","851968","0.0-1.0-767.0","0","0","37243","","null","","","null","85","","","","","","","","","","","","","","","",""
"","ISI","","html-keyboard-response","538","852122","0.0-1.0-768.0","0","0","37243","","null","","","null","85","NaN","","","","","","","","","","","","","","",""
"","S2","","html-keyboard-response","539","852128","0.0-1.0-769.0","0","0","37243","","4","","","75","85","","k","2","85","training","adjacent","DC","4","3","P.jpg","O.jpg","1","0","0","",""
"","feedback","","html-keyboard-response","540","853136","0.0-1.0-771.0-0.0","0","0","37243","","null","","","null","85","","","","","","","","","","","","","","","",""
"","time_out","","html-keyboard-response","541","855144","0.0-1.0-773.0-0.0","0","0","37243","","null","","","null","85","","","","","","","","","","","","","","","",""
"","ITI","","html-keyboard-response","542","856155","0.0-1.0-774.0","0","0","37243","","null","","","null","85","","","","","","","","","","","","","","","NaN",""
"","S1","","html-keyboard-response","543","856411","0.0-1.0-776.0","0","0","37243","","null","","","null","86","","","","","","","","","","","","","","","",""
"","ISI","","html-keyboard-response","544","856571","0.0-1.0-777.0","0","0","37243","","null","","","null","86","NaN","","","","","","","","","","","","","","",""
"","S2","","html-keyboard-response","545","856828","0.0-1.0-778.0","0","0","37243","","null","","","null","86","","NaN","","","","","","","","","","","","","",""
"","response","","html-keyboard-response","546","857087","0.0-1.0-779.0-0.0","0","0","37243","","258","","","68","86","","","2","86","training","adjacent","EF","5","6","M.jpg","L.jpg","0","1","0","",""
"","feedback","","html-keyboard-response","547","858090","0.0-1.0-780.0-0.0","0","0","37243","","null","","","null","86","","","","","","","","","","","","","","","",""
"","time_out","","html-keyboard-response","548","860096","0.0-1.0-782.0-0.0","0","0","37243","","null","","","null","86","","","","","","","","","","","","","","","",""
"","ITI","","html-keyboard-response","549","861104","0.0-1.0-783.0","0","0","37243","","910","","","75","86","","","","","","","","","","","","","","","k",""
"","S1","","html-keyboard-response","550","861360","0.0-1.0-785.0","0","0","37243","","null","","","null","87","","","","","","","","","","","","","","","",""
"","ISI","","html-keyboard-response","551","861514","0.0-1.0-786.0","0","0","37243","","null","","","null","87","NaN","","","","","","","","","","","","","","",""
"","S2","","html-keyboard-response","552","861771","0.0-1.0-787.0","0","0","37243","","null","","","null","87","","NaN","","","","","","","","","","","","","",""
"","response","","html-keyboard-response","553","861920","0.0-1.0-788.0-0.0","0","0","37243","","147","","","75","87","","","2","87","training","adjacent","BA","2","1","N.jpg","Q.jpg","1","0","0","",""
"","feedback","","html-keyboard-response","554","862928","0.0-1.0-789.0-0.0","0","0","37243","","null","","","null","87","","","","","","","","","","","","","","","",""
"","time_out","","html-keyboard-response","555","864938","0.0-1.0-791.0-0.0","0","0","37243","","null","","","null","87","","","","","","","","","","","","","","","",""
"","ITI","","html-keyboard-response","556","865945","0.0-1.0-792.0","0","0","37243","","436","","","68","87","","","","","","","","","","","","","","","d",""
"","S1","","html-keyboard-response","557","866203","0.0-1.0-794.0","0","0","37243","","null","","","null","88","","","","","","","","","","","","","","","",""
"","ISI","","html-keyboard-response","558","866363","0.0-1.0-795.0","0","0","37243","","null","","","null","88","NaN","","","","","","","","","","","","","","",""
"","S2","","html-keyboard-response","559","866584","0.0-1.0-796.0","0","0","37243","","220","","","68","88","","d","2","88","training","adjacent","GF","7","6","R.jpg","L.jpg","0","0","1","",""
"","feedback","","html-keyboard-response","560","867594","0.0-1.0-798.0-0.0","0","0","37243","","null","","","null","88","","","","","","","","","","","","","","","",""
"","ITI","","html-keyboard-response","561","868603","0.0-1.0-801.0","0","0","37243","","null","","","null","88","","","","","","","","","","","","","","","NaN",""
"","S1","","html-keyboard-response","562","868859","0.0-1.0-803.0","0","0","37243","","null","","","null","89","","","","","","","","","","","","","","","",""
"","ISI","","html-keyboard-response","563","869019","0.0-1.0-804.0","0","0","37243","","null","","","null","89","NaN","","","","","","","","","","","","","","",""
"","S2","","html-keyboard-response","564","869275","0.0-1.0-805.0","0","0","37243","","null","","","null","89","","NaN","","","","","","","","","","","","","",""
"","response","","html-keyboard-response","565","869392","0.0-1.0-806.0-0.0","0","0","37243","","115","","","75","89","","","2","89","training","adjacent","BA","2","1","N.jpg","Q.jpg","1","0","0","",""
"","feedback","","html-keyboard-response","566","870401","0.0-1.0-807.0-0.0","0","0","37243","","null","","","null","89","","","","","","","","","","","","","","","",""
"","time_out","","html-keyboard-response","567","872411","0.0-1.0-809.0-0.0","0","0","37243","","null","","","null","89","","","","","","","","","","","","","","","",""
"","ITI","","html-keyboard-response","568","873419","0.0-1.0-810.0","0","0","37243","","12","","","75","89","","","","","","","","","","","","","","","k",""
"","S1","","html-keyboard-response","569","873675","0.0-1.0-812.0","0","0","37243","","null","","","null","90","","","","","","","","","","","","","","","",""
"","ISI","","html-keyboard-response","570","873833","0.0-1.0-813.0","0","0","37243","","null","","","null","90","NaN","","","","","","","","","","","","","","",""
"","S2","","html-keyboard-response","571","873984","0.0-1.0-814.0","0","0","37243","","149","","","75","90","","k","2","90","training","adjacent","CB","3","2","O.jpg","N.jpg","1","0","0","",""
"","feedback","","html-keyboard-response","572","874993","0.0-1.0-816.0-0.0","0","0","37243","","null","","","null","90","","","","","","","","","","","","","","","",""
"","time_out","","html-keyboard-response","573","877004","0.0-1.0-818.0-0.0","0","0","37243","","null","","","null","90","","","","","","","","","","","","","","","",""
"","ITI","","html-keyboard-response","574","878011","0.0-1.0-819.0","0","0","37243","","107","","","68","90","","","","","","","","","","","","","","","d",""
"","S1","","html-keyboard-response","575","878267","0.0-1.0-821.0","0","0","37243","","null","","","null","91","","","","","","","","","","","","","","","",""
"","ISI","","html-keyboard-response","576","878427","0.0-1.0-822.0","0","0","37243","","84","","","68","91","d","","","","","","","","","","","","","","",""
"","S2","","html-keyboard-response","577","878683","0.0-1.0-823.0","0","0","37243","","null","","","null","91","","NaN","","","","","","","","","","","","","",""
"","response","","html-keyboard-response","578","878984","0.0-1.0-824.0-0.0","0","0","37243","","299","","","68","91","","","2","91","training","adjacent","EF","5","6","M.jpg","L.jpg","0","1","0","",""
"","feedback","","html-keyboard-response","579","879995","0.0-1.0-825.0-0.0","0","0","37243","","null","","","null","91","","","","","","","","","","","","","","","",""
"","time_out","","html-keyboard-response","580","882001","0.0-1.0-827.0-0.0","0","0","37243","","null","","","null","91","","","","","","","","","","","","","","","",""
"","ITI","","html-keyboard-response","581","883009","0.0-1.0-828.0","0","0","37243","","774","","","75","91","","","","","","","","","","","","","","","k",""
"","S1","","html-keyboard-response","582","883265","0.0-1.0-830.0","0","0","37243","","null","","","null","92","","","","","","","","","","","","","","","",""
