"success","ttype","start_time","trial_type","trial_index","time_elapsed","internal_node_id","warning","missed_checkup","PID","view_history","rt","responses","repeat_instructions","key_press","index","keypress_isi","keypress_S2","block","trial_num","phase","group_type","pair_type","S1_stim","S2_stim","S1_img","S2_img","S1_chosen","S1_higher","accuracy","keypress_iti","total_bonus_tally"
"true","full_screen","d07282022hr1759","fullscreen","0","2449","0.0-0.0","0","0","33390","","","","","","","","","","","","","","","","","","","","","",""
"","instructions","","instructions","1","57337","0.0-1.0-0.0-0.0","0","0","33390","[{""page_index"":0,""viewing_time"":17857},{""page_index"":1,""viewing_time"":30249},{""page_index"":2,""viewing_time"":5020},{""page_index"":3,""viewing_time"":1759}]","54886","","","","","","","","","","","","","","","","","","","",""
"","comprehension_check","","survey-multi-choice","2","90959","0.0-1.0-0.0-1.0","0","0","33390","","33614","{""Q0"":""True"",""Q1"":""True"",""Q2"":""While the images are shown"",""Q3"":""Green mark"",""Q4"":""either D or K""}","1","","","","","","","","","","","","","","","","","",""
"","missed_instruction_checkup","","html-keyboard-response","3","96056","0.0-1.0-0.0-2.0-0.0","0","1","33390","","5093","","","32","","","","","","","","","","","","","","","","",""
"","instructions","","instructions","4","106828","0.0-1.0-0.1-0.1","0","0","33390","[{""page_index"":0,""viewing_time"":7718},{""page_index"":1,""viewing_time"":1320},{""page_index"":2,""viewing_time"":829},{""page_index"":3,""viewing_time"":902}]","10769","","","","","","","","","","","","","","","","","","","",""
"","comprehension_check","","survey-multi-choice","5","213386","0.0-1.0-0.1-1.1","0","0","33390","","106552","{""Q0"":""True"",""Q1"":""True"",""Q2"":""When you see the prompt 'MAKE A CHOICE' after the second image was presented"",""Q3"":""Green mark"",""Q4"":""either D or K""}","0","","","","","","","","","","","","","","","","","",""
"","start_exp","","html-keyboard-response","6","216596","0.0-1.0-1.0","0","0","33390","","3207","","","32","","","","","","","","","","","","","","","","",""
"","S1","","html-keyboard-response","7","216849","0.0-1.0-2.0","0","0","33390","","null","","","null","0","","","","","","","","","","","","","","","",""
"","ISI","","html-keyboard-response","8","218852","0.0-1.0-3.0","0","0","33390","","null","","","null","0","NaN","","","","","","","","","","","","","","",""
"","S2","","html-keyboard-response","9","219105","0.0-1.0-4.0","0","0","33390","","null","","","null","0","","NaN","","","","","","","","","","","","","",""
"","response","","html-keyboard-response","10","221107","0.0-1.0-5.0","0","0","33390","","null","","","null","0","","","1","0","training","adjacent","BC","2","3","Q.jpg","R.jpg","NaN","1","0","",""
"","too_slow_prompt","","html-keyboard-response","11","222110","0.0-1.0-7.0-0.0","1","0","33390","","null","","","null","","","","","","","","","","","","","","","","",""
"","time_out","","html-keyboard-response","12","224114","0.0-1.0-8.0-0.0","0","0","33390","","null","","","null","0","","","","","","","","","","","","","","","",""
"","ITI","","html-keyboard-response","13","225116","0.0-1.0-9.0","0","0","33390","","null","","","null","0","","","","","","","","","","","","","","","NaN",""
"","S1","","html-keyboard-response","14","225370","0.0-1.0-11.0","0","0","33390","","null","","","null","1","","","","","","","","","","","","","","","",""
"","ISI","","html-keyboard-response","15","227371","0.0-1.0-12.0","0","0","33390","","627","","","75","1","k","","","","","","","","","","","","","","",""
"","S2","","html-keyboard-response","16","227625","0.0-1.0-13.0","0","0","33390","","null","","","null","1","","NaN","","","","","","","","","","","","","",""
"","response","","html-keyboard-response","17","227985","0.0-1.0-14.0","0","0","33390","","359","","","75","1","","","1","1","training","adjacent","BA","2","1","Q.jpg","L.jpg","0","0","1","",""
"","feedback","","html-keyboard-response","18","228988","0.0-1.0-15.0-0.0","0","0","33390","","null","","","null","1","","","","","","","","","","","","","","","",""
"","ITI","","html-keyboard-response","19","229991","0.0-1.0-18.0","0","0","33390","","null","","","null","1","","","","","","","","","","","","","","","NaN",""
"","S1","","html-keyboard-response","20","230243","0.0-1.0-20.0","0","0","33390","","null","","","null","2","","","","","","","","","","","","","","","",""
"","ISI","","html-keyboard-response","21","232246","0.0-1.0-21.0","0","0","33390","","480","","","75","2","k","","","","","","","","","","","","","","",""
"","S2","","html-keyboard-response","22","232499","0.0-1.0-22.0","0","0","33390","","238","","","68","2","","d","","","","","","","","","","","","","",""
"","response","","html-keyboard-response","23","232546","0.0-1.0-23.0","0","0","33390","","45","","","75","2","","","1","2","training","adjacent","CB","3","2","R.jpg","Q.jpg","0","0","1","",""
"","feedback","","html-keyboard-response","24","233548","0.0-1.0-24.0-0.0","0","0","33390","","null","","","null","2","","","","","","","","","","","","","","","",""
"","ITI","","html-keyboard-response","25","234551","0.0-1.0-27.0","0","0","33390","","103","","","68","2","","","","","","","","","","","","","","","d",""
"","S1","","html-keyboard-response","26","234804","0.0-1.0-29.0","0","0","33390","","null","","","null","3","","","","","","","","","","","","","","","",""
"","ISI","","html-keyboard-response","27","236806","0.0-1.0-30.0","0","0","33390","","18","","","75","3","k","","","","","","","","","","","","","","",""
"","S2","","html-keyboard-response","28","237058","0.0-1.0-31.0","0","0","33390","","57","","","75","3","","k","","","","","","","","","","","","","",""
"","response","","html-keyboard-response","29","237103","0.0-1.0-32.0","0","0","33390","","43","","","75","3","","","1","3","training","adjacent","AB","1","2","L.jpg","Q.jpg","0","1","0","",""
"","feedback","","html-keyboard-response","30","238106","0.0-1.0-33.0-0.0","0","0","33390","","null","","","null","3","","","","","","","","","","","","","","","",""
"","time_out","","html-keyboard-response","31","240108","0.0-1.0-35.0-0.0","0","0","33390","","null","","","null","3","","","","","","","","","","","","","","","",""
"","ITI","","html-keyboard-response","32","241110","0.0-1.0-36.0","0","0","33390","","148","","","75","3","","","","","","","","","","","","","","","k",""
"","S1","","html-keyboard-response","33","241362","0.0-1.0-38.0","0","0","33390","","null","","","null","4","","","","","","","","","","","","","","","",""
"","ISI","","html-keyboard-response","34","243364","0.0-1.0-39.0","0","0","33390","","362","","","75","4","k","","","","","","","","","","","","","","",""
"","S2","","html-keyboard-response","35","243616","0.0-1.0-40.0","0","0","33390","","179","","","68","4","","d","","","","","","","","","","","","","",""
"","response","","html-keyboard-response","36","243695","0.0-1.0-41.0","0","0","33390","","78","","","75","4","","","1","4","training","adjacent","GF","7","6","N.jpg","P.jpg","0","0","1","",""
"","feedback","","html-keyboard-response","37","244697","0.0-1.0-42.0-0.0","0","0","33390","","null","","","null","4","","","","","","","","","","","","","","","",""
"","ITI","","html-keyboard-response","38","245699","0.0-1.0-45.0","0","0","33390","","1","","","75","4","","","","","","","","","","","","","","","k",""
"","S1","","html-keyboard-response","39","245952","0.0-1.0-47.0","0","0","33390","","null","","","null","5","","","","","","","","","","","","","","","",""
"","ISI","","html-keyboard-response","40","247962","0.0-1.0-48.0","0","0","33390","","62","","","75","5","k","","","","","","","","","","","","","","",""
"","S2","","html-keyboard-response","41","248215","0.0-1.0-49.0","0","0","33390","","211","","","75","5","","k","","","","","","","","","","","","","",""
"","response","","html-keyboard-response","42","248374","0.0-1.0-50.0","0","0","33390","","157","","","68","5","","","1","5","training","adjacent","DC","4","3","M.jpg","R.jpg","1","0","0","",""
"","feedback","","html-keyboard-response","43","249376","0.0-1.0-51.0-0.0","0","0","33390","","null","","","null","5","","","","","","","","","","","","","","","",""
"","time_out","","html-keyboard-response","44","251379","0.0-1.0-53.0-0.0","0","0","33390","","null","","","null","5","","","","","","","","","","","","","","","",""
"","ITI","","html-keyboard-response","45","252382","0.0-1.0-54.0","0","0","33390","","203","","","75","5","","","","","","","","","","","","","","","k",""
"","S1","","html-keyboard-response","46","252635","0.0-1.0-56.0","0","0","33390","","null","","","null","6","","","","","","","","","","","","","","","",""
"","ISI","","html-keyboard-response","47","254637","0.0-1.0-57.0","0","0","33390","","147","","","68","6","d","","","","","","","","","","","","","","",""
"","S2","","html-keyboard-response","48","254891","0.0-1.0-58.0","0","0","33390","","35","","","75","6","","k","","","","","","","","","","","","","",""
"","response","","html-keyboard-response","49","254964","0.0-1.0-59.0","0","0","33390","","72","","","75","6","","","1","6","training","adjacent","FG","6","7","P.jpg","N.jpg","0","1","0","",""
"","feedback","","html-keyboard-response","50","255968","0.0-1.0-60.0-0.0","0","0","33390","","null","","","null","6","","","","","","","","","","","","","","","",""
"","time_out","","html-keyboard-response","51","257970","0.0-1.0-62.0-0.0","0","0","33390","","null","","","null","6","","","","","","","","","","","","","","","",""
"","ITI","","html-keyboard-response","52","258974","0.0-1.0-63.0","0","0","33390","","52","","","68","6","","","","","","","","","","","","","","","d",""
"","S1","","html-keyboard-response","53","259228","0.0-1.0-65.0","0","0","33390","","null","","","null","7","","","","","","","","","","","","","","","",""
"","ISI","","html-keyboard-response","54","261231","0.0-1.0-66.0","0","0","33390","","43","","","75","7","k","","","","","","","","","","","","","","",""
"","S2","","html-keyboard-response","55","261484","0.0-1.0-67.0","0","0","33390","","51","","","75","7","","k","","","","","","","","","","","","","",""
"","response","","html-keyboard-response","56","261524","0.0-1.0-68.0","0","0","33390","","39","","","75","7","","","1","7","training","adjacent","DE","4","5","M.jpg","O.jpg","0","1","0","",""
"","feedback","","html-keyboard-response","57","262527","0.0-1.0-69.0-0.0","0","0","33390","","null","","","null","7","","","","","","","","","","","","","","","",""
"","time_out","","html-keyboard-response","58","264529","0.0-1.0-71.0-0.0","0","0","33390","","null","","","null","7","","","","","","","","","","","","","","","",""
"","ITI","","html-keyboard-response","59","265532","0.0-1.0-72.0","0","0","33390","","24","","","75","7","","","","","","","","","","","","","","","k",""
"","S1","","html-keyboard-response","60","265785","0.0-1.0-74.0","0","0","33390","","null","","","null","8","","","","","","","","","","","","","","","",""
"","ISI","","html-keyboard-response","61","267786","0.0-1.0-75.0","0","0","33390","","208","","","75","8","k","","","","","","","","","","","","","","",""
"","S2","","html-keyboard-response","62","268039","0.0-1.0-76.0","0","0","33390","","126","","","75","8","","k","","","","","","","","","","","","","",""
"","response","","html-keyboard-response","63","268154","0.0-1.0-77.0","0","0","33390","","112","","","75","8","","","1","8","training","adjacent","FE","6","5","P.jpg","O.jpg","0","0","1","",""
"","feedback","","html-keyboard-response","64","269157","0.0-1.0-78.0-0.0","0","0","33390","","null","","","null","8","","","","","","","","","","","","","","","",""
"","ITI","","html-keyboard-response","65","270160","0.0-1.0-81.0","0","0","33390","","356","","","75","8","","","","","","","","","","","","","","","k",""
"","S1","","html-keyboard-response","66","270413","0.0-1.0-83.0","0","0","33390","","null","","","null","9","","","","","","","","","","","","","","","",""
"","ISI","","html-keyboard-response","67","272416","0.0-1.0-84.0","0","0","33390","","258","","","75","9","k","","","","","","","","","","","","","","",""
"","S2","","html-keyboard-response","68","272670","0.0-1.0-85.0","0","0","33390","","17","","","75","9","","k","","","","","","","","","","","","","",""
"","response","","html-keyboard-response","69","272736","0.0-1.0-86.0","0","0","33390","","62","","","75","9","","","1","9","training","adjacent","FG","6","7","P.jpg","N.jpg","0","1","0","",""
"","feedback","","html-keyboard-response","70","273738","0.0-1.0-87.0-0.0","0","0","33390","","null","","","null","9","","","","","","","","","","","","","","","",""
"","time_out","","html-keyboard-response","71","275740","0.0-1.0-89.0-0.0","0","0","33390","","null","","","null","9","","","","","","","","","","","","","","","",""
"","ITI","","html-keyboard-response","72","276742","0.0-1.0-90.0","0","0","33390","","951","","","75","9","","","","","","","","","","","","","","","k",""
"","S1","","html-keyboard-response","73","276995","0.0-1.0-92.0","0","0","33390","","null","","","null","10","","","","","","","","","","","","","","","",""
"","ISI","","html-keyboard-response","74","278997","0.0-1.0-93.0","0","0","33390","","137","","","75","10","k","","","","","","","","","","","","","","",""
"","S2","","html-keyboard-response","75","279251","0.0-1.0-94.0","0","0","33390","","65","","","75","10","","k","","","","","","","","","","","","","",""
"","response","","html-keyboard-response","76","279273","0.0-1.0-95.0","0","0","33390","","21","","","75","10","","","1","10","training","adjacent","DC","4","3","M.jpg","R.jpg","0","0","1","",""
"","feedback","","html-keyboard-response","77","280276","0.0-1.0-96.0-0.0","0","0","33390","","null","","","null","10","","","","","","","","","","","","","","","",""
"","ITI","","html-keyboard-response","78","281278","0.0-1.0-99.0","0","0","33390","","215","","","75","10","","","","","","","","","","","","","","","k",""
"","S1","","html-keyboard-response","79","281532","0.0-1.0-101.0","0","0","33390","","null","","","null","11","","","","","","","","","","","","","","","",""
"","ISI","","html-keyboard-response","80","283535","0.0-1.0-102.0","0","0","33390","","221","","","75","11","k","","","","","","","","","","","","","","",""
"","S2","","html-keyboard-response","81","283792","0.0-1.0-103.0","0","0","33390","","58","","","75","11","","k","","","","","","","","","","","","","",""
"","response","","html-keyboard-response","82","283835","0.0-1.0-104.0","0","0","33390","","41","","","75","11","","","1","11","training","adjacent","CB","3","2","R.jpg","Q.jpg","0","0","1","",""
"","feedback","","html-keyboard-response","83","284838","0.0-1.0-105.0-0.0","0","0","33390","","null","","","null","11","","","","","","","","","","","","","","","",""
"","ITI","","html-keyboard-response","84","285842","0.0-1.0-108.0","0","0","33390","","16","","","75","11","","","","","","","","","","","","","","","k",""
"","S1","","html-keyboard-response","85","286094","0.0-1.0-110.0","0","0","33390","","null","","","null","12","","","","","","","","","","","","","","","",""
"","ISI","","html-keyboard-response","86","288097","0.0-1.0-111.0","0","0","33390","","8","","","75","12","k","","","","","","","","","","","","","","",""
"","S2","","html-keyboard-response","87","288349","0.0-1.0-112.0","0","0","33390","","216","","","75","12","","k","","","","","","","","","","","","","",""
"","response","","html-keyboard-response","88","288577","0.0-1.0-113.0","0","0","33390","","225","","","75","12","","","1","12","training","adjacent","BC","2","3","Q.jpg","R.jpg","0","1","0","",""
"","feedback","","html-keyboard-response","89","289581","0.0-1.0-114.0-0.0","0","0","33390","","null","","","null","12","","","","","","","","","","","","","","","",""
"","time_out","","html-keyboard-response","90","291583","0.0-1.0-116.0-0.0","0","0","33390","","null","","","null","12","","","","","","","","","","","","","","","",""
"","ITI","","html-keyboard-response","91","292587","0.0-1.0-117.0","0","0","33390","","null","","","null","12","","","","","","","","","","","","","","","NaN",""
"","S1","","html-keyboard-response","92","292840","0.0-1.0-119.0","0","0","33390","","null","","","null","13","","","","","","","","","","","","","","","",""
"","ISI","","html-keyboard-response","93","294842","0.0-1.0-120.0","0","0","33390","","null","","","null","13","NaN","","","","","","","","","","","","","","",""
"","S2","","html-keyboard-response","94","295095","0.0-1.0-121.0","0","0","33390","","null","","","null","13","","NaN","","","","","","","","","","","","","",""
"","response","","html-keyboard-response","95","296479","0.0-1.0-122.0","0","0","33390","","1380","","","75","13","","","1","13","training","adjacent","BA","2","1","Q.jpg","L.jpg","0","0","1","",""
"","feedback","","html-keyboard-response","96","297482","0.0-1.0-123.0-0.0","0","0","33390","","null","","","null","13","","","","","","","","","","","","","","","",""
"","ITI","","html-keyboard-response","97","298485","0.0-1.0-126.0","0","0","33390","","120","","","75","13","","","","","","","","","","","","","","","k",""
"","S1","","html-keyboard-response","98","298738","0.0-1.0-128.0","0","0","33390","","null","","","null","14","","","","","","","","","","","","","","","",""
"","ISI","","html-keyboard-response","99","300740","0.0-1.0-129.0","0","0","33390","","null","","","null","14","NaN","","","","","","","","","","","","","","",""
"","S2","","html-keyboard-response","100","300993","0.0-1.0-130.0","0","0","33390","","61","","","74","14","","j","","","","","","","","","","","","","",""
"","response","","html-keyboard-response","101","301655","0.0-1.0-131.0","0","0","33390","","660","","","75","14","","","1","14","training","adjacent","GF","7","6","N.jpg","P.jpg","0","0","1","",""
"","feedback","","html-keyboard-response","102","302657","0.0-1.0-132.0-0.0","0","0","33390","","null","","","null","14","","","","","","","","","","","","","","","",""
"","ITI","","html-keyboard-response","103","303660","0.0-1.0-135.0","0","0","33390","","null","","","null","14","","","","","","","","","","","","","","","NaN",""
"","S1","","html-keyboard-response","104","303913","0.0-1.0-137.0","0","0","33390","","null","","","null","15","","","","","","","","","","","","","","","",""
"","ISI","","html-keyboard-response","105","305915","0.0-1.0-138.0","0","0","33390","","null","","","null","15","NaN","","","","","","","","","","","","","","",""
"","S2","","html-keyboard-response","106","306167","0.0-1.0-139.0","0","0","33390","","null","","","null","15","","NaN","","","","","","","","","","","","","",""
"","response","","html-keyboard-response","107","308170","0.0-1.0-140.0","0","0","33390","","null","","","null","15","","","1","15","training","adjacent","FE","6","5","P.jpg","O.jpg","NaN","0","0","",""
"","too_slow_prompt","","html-keyboard-response","108","309172","0.0-1.0-142.0-0.0","1","0","33390","","null","","","null","","","","","","","","","","","","","","","","",""
"","time_out","","html-keyboard-response","109","311175","0.0-1.0-143.0-0.0","0","0","33390","","null","","","null","15","","","","","","","","","","","","","","","",""
"","ITI","","html-keyboard-response","110","312177","0.0-1.0-144.0","0","0","33390","","null","","","null","15","","","","","","","","","","","","","","","NaN",""
"","S1","","html-keyboard-response","111","312430","0.0-1.0-146.0","0","0","33390","","null","","","null","16","","","","","","","","","","","","","","","",""
"","ISI","","html-keyboard-response","112","314433","0.0-1.0-147.0","0","0","33390","","null","","","null","16","NaN","","","","","","","","","","","","","","",""
"","S2","","html-keyboard-response","113","314686","0.0-1.0-148.0","0","0","33390","","null","","","null","16","","NaN","","","","","","","","","","","","","",""
"","response","","html-keyboard-response","114","316688","0.0-1.0-149.0","0","0","33390","","null","","","null","16","","","1","16","training","adjacent","DC","4","3","M.jpg","R.jpg","NaN","0","0","",""
"","too_slow_prompt","","html-keyboard-response","115","317692","0.0-1.0-151.0-0.0","1","0","33390","","null","","","null","","","","","","","","","","","","","","","","",""
"","time_out","","html-keyboard-response","116","319695","0.0-1.0-152.0-0.0","0","0","33390","","null","","","null","16","","","","","","","","","","","","","","","",""
"","ITI","","html-keyboard-response","117","320698","0.0-1.0-153.0","0","0","33390","","null","","","null","16","","","","","","","","","","","","","","","NaN",""
"","S1","","html-keyboard-response","118","320951","0.0-1.0-155.0","0","0","33390","","null","","","null","17","","","","","","","","","","","","","","","",""
"","ISI","","html-keyboard-response","119","322954","0.0-1.0-156.0","0","0","33390","","null","","","null","17","NaN","","","","","","","","","","","","","","",""
"","S2","","html-keyboard-response","120","323207","0.0-1.0-157.0","0","0","33390","","null","","","null","17","","NaN","","","","","","","","","","","","","",""
"","response","","html-keyboard-response","121","325210","0.0-1.0-158.0","0","0","33390","","null","","","null","17","","","1","17","training","adjacent","CD","3","4","R.jpg","M.jpg","NaN","1","0","",""
"","too_slow_prompt","","html-keyboard-response","122","326213","0.0-1.0-160.0-0.0","1","0","33390","","null","","","null","","","","","","","","","","","","","","","","",""
"","time_out","","html-keyboard-response","123","328216","0.0-1.0-161.0-0.0","0","0","33390","","null","","","null","17","","","","","","","","","","","","","","","",""
"","ITI","","html-keyboard-response","124","329220","0.0-1.0-162.0","0","0","33390","","null","","","null","17","","","","","","","","","","","","","","","NaN",""
"","S1","","html-keyboard-response","125","329474","0.0-1.0-164.0","0","0","33390","","null","","","null","18","","","","","","","","","","","","","","","",""
"","ISI","","html-keyboard-response","126","331481","0.0-1.0-165.0","0","0","33390","","null","","","null","18","NaN","","","","","","","","","","","","","","",""
"","S2","","html-keyboard-response","127","331735","0.0-1.0-166.0","0","0","33390","","null","","","null","18","","NaN","","","","","","","","","","","","","",""
"","response","","html-keyboard-response","128","333738","0.0-1.0-167.0","0","0","33390","","null","","","null","18","","","1","18","training","adjacent","ED","5","4","O.jpg","M.jpg","NaN","0","0","",""
"","too_slow_prompt","","html-keyboard-response","129","334741","0.0-1.0-169.0-0.0","1","0","33390","","null","","","null","","","","","","","","","","","","","","","","",""
"","time_out","","html-keyboard-response","130","336743","0.0-1.0-170.0-0.0","0","0","33390","","null","","","null","18","","","","","","","","","","","","","","","",""
"","ITI","","html-keyboard-response","131","337746","0.0-1.0-171.0","0","0","33390","","null","","","null","18","","","","","","","","","","","","","","","NaN",""
"","S1","","html-keyboard-response","132","337999","0.0-1.0-173.0","0","0","33390","","null","","","null","19","","","","","","","","","","","","","","","",""
"","ISI","","html-keyboard-response","133","340004","0.0-1.0-174.0","0","0","33390","","212","","","68","19","d","","","","","","","","","","","","","","",""
"","S2","","html-keyboard-response","134","340259","0.0-1.0-175.0","0","0","33390","","null","","","null","19","","NaN","","","","","","","","","","","","","",""
"","response","","html-keyboard-response","135","340275","0.0-1.0-176.0","0","0","33390","","13","","","68","19","","","1","19","training","adjacent","ED","5","4","O.jpg","M.jpg","1","0","0","",""
"","feedback","","html-keyboard-response","136","341278","0.0-1.0-177.0-0.0","0","0","33390","","null","","","null","19","","","","","","","","","","","","","","","",""
"","time_out","","html-keyboard-response","137","343281","0.0-1.0-179.0-0.0","0","0","33390","","null","","","null","19","","","","","","","","","","","","","","","",""
"","ITI","","html-keyboard-response","138","344284","0.0-1.0-180.0","0","0","33390","","322","","","68","19","","","","","","","","","","","","","","","d",""
"","S1","","html-keyboard-response","139","344536","0.0-1.0-182.0","0","0","33390","","null","","","null","20","","","","","","","","","","","","","","","",""
"","ISI","","html-keyboard-response","140","346538","0.0-1.0-183.0","0","0","33390","","367","","","68","20","d","","","","","","","","","","","","","","",""
"","S2","","html-keyboard-response","141","346792","0.0-1.0-184.0","0","0","33390","","195","","","68","20","","d","","","","","","","","","","","","","",""
"","response","","html-keyboard-response","142","347225","0.0-1.0-185.0","0","0","33390","","431","","","68","20","","","1","20","training","adjacent","CD","3","4","R.jpg","M.jpg","1","1","1","",""
"","feedback","","html-keyboard-response","143","348228","0.0-1.0-186.0-0.0","0","0","33390","","null","","","null","20","","","","","","","","","","","","","","","",""
"","ITI","","html-keyboard-response","144","349231","0.0-1.0-189.0","0","0","33390","","215","","","68","20","","","","","","","","","","","","","","","d",""
"","S1","","html-keyboard-response","145","349483","0.0-1.0-191.0","0","0","33390","","null","","","null","21","","","","","","","","","","","","","","","",""
"","ISI","","html-keyboard-response","146","351487","0.0-1.0-192.0","0","0","33390","","280","","","68","21","d","","","","","","","","","","","","","","",""
"","S2","","html-keyboard-response","147","351740","0.0-1.0-193.0","0","0","33390","","null","","","null","21","","NaN","","","","","","","","","","","","","",""
"","response","","html-keyboard-response","148","351775","0.0-1.0-194.0","0","0","33390","","33","","","68","21","","","1","21","training","adjacent","FG","6","7","P.jpg","N.jpg","1","1","1","",""
"","feedback","","html-keyboard-response","149","352779","0.0-1.0-195.0-0.0","0","0","33390","","null","","","null","21","","","","","","","","","","","","","","","",""
"","ITI","","html-keyboard-response","150","353781","0.0-1.0-198.0","0","0","33390","","164","","","68","21","","","","","","","","","","","","","","","d",""
"","S1","","html-keyboard-response","151","354033","0.0-1.0-200.0","0","0","33390","","null","","","null","22","","","","","","","","","","","","","","","",""
"","ISI","","html-keyboard-response","152","356036","0.0-1.0-201.0","0","0","33390","","282","","","68","22","d","","","","","","","","","","","","","","",""
"","S2","","html-keyboard-response","153","356291","0.0-1.0-202.0","0","0","33390","","107","","","68","22","","d","","","","","","","","","","","","","",""
"","response","","html-keyboard-response","154","356653","0.0-1.0-203.0","0","0","33390","","359","","","68","22","","","1","22","training","adjacent","EF","5","6","O.jpg","P.jpg","1","1","1","",""
"","feedback","","html-keyboard-response","155","357655","0.0-1.0-204.0-0.0","0","0","33390","","null","","","null","22","","","","","","","","","","","","","","","",""
"","ITI","","html-keyboard-response","156","358658","0.0-1.0-207.0","0","0","33390","","419","","","68","22","","","","","","","","","","","","","","","d",""
"","S1","","html-keyboard-response","157","358911","0.0-1.0-209.0","0","0","33390","","null","","","null","23","","","","","","","","","","","","","","","",""
"","ISI","","html-keyboard-response","158","360913","0.0-1.0-210.0","0","0","33390","","222","","","68","23","d","","","","","","","","","","","","","","",""
"","S2","","html-keyboard-response","159","361165","0.0-1.0-211.0","0","0","33390","","null","","","null","23","","NaN","","","","","","","","","","","","","",""
"","response","","html-keyboard-response","160","361335","0.0-1.0-212.0","0","0","33390","","167","","","68","23","","","1","23","training","adjacent","BA","2","1","Q.jpg","L.jpg","1","0","0","",""
"","feedback","","html-keyboard-response","161","362337","0.0-1.0-213.0-0.0","0","0","33390","","null","","","null","23","","","","","","","","","","","","","","","",""
"","time_out","","html-keyboard-response","162","364341","0.0-1.0-215.0-0.0","0","0","33390","","null","","","null","23","","","","","","","","","","","","","","","",""
"","ITI","","html-keyboard-response","163","365344","0.0-1.0-216.0","0","0","33390","","182","","","68","23","","","","","","","","","","","","","","","d",""
"","S1","","html-keyboard-response","164","365596","0.0-1.0-218.0","0","0","33390","","null","","","null","24","","","","","","","","","","","","","","","",""
"","ISI","","html-keyboard-response","165","367598","0.0-1.0-219.0","0","0","33390","","208","","","68","24","d","","","","","","","","","","","","","","",""
"","S2","","html-keyboard-response","166","367851","0.0-1.0-220.0","0","0","33390","","174","","","68","24","","d","","","","","","","","","","","","","",""
"","response","","html-keyboard-response","167","368085","0.0-1.0-221.0","0","0","33390","","233","","","68","24","","","1","24","training","adjacent","DE","4","5","M.jpg","O.jpg","1","1","1","",""
"","feedback","","html-keyboard-response","168","369087","0.0-1.0-222.0-0.0","0","0","33390","","null","","","null","24","","","","","","","","","","","","","","","",""
"","ITI","","html-keyboard-response","169","370090","0.0-1.0-225.0","0","0","33390","","146","","","68","24","","","","","","","","","","","","","","","d",""
"","S1","","html-keyboard-response","170","370342","0.0-1.0-227.0","0","0","33390","","null","","","null","25","","","","","","","","","","","","","","","",""
"","ISI","","html-keyboard-response","171","372343","0.0-1.0-228.0","0","0","33390","","221","","","68","25","d","","","","","","","","","","","","","","",""
"","S2","","html-keyboard-response","172","372596","0.0-1.0-229.0","0","0","33390","","169","","","68","25","","d","","","","","","","","","","","","","",""
"","response","","html-keyboard-response","173","372805","0.0-1.0-230.0","0","0","33390","","207","","","68","25","","","1","25","training","adjacent","EF","5","6","O.jpg","P.jpg","1","1","1","",""
"","feedback","","html-keyboard-response","174","373807","0.0-1.0-231.0-0.0","0","0","33390","","null","","","null","25","","","","","","","","","","","","","","","",""
"","ITI","","html-keyboard-response","175","374810","0.0-1.0-234.0","0","0","33390","","286","","","68","25","","","","","","","","","","","","","","","d",""
"","S1","","html-keyboard-response","176","375062","0.0-1.0-236.0","0","0","33390","","null","","","null","26","","","","","","","","","","","","","","","",""
"","ISI","","html-keyboard-response","177","377064","0.0-1.0-237.0","0","0","33390","","147","","","75","26","k","","","","","","","","","","","","","","",""
"","S2","","html-keyboard-response","178","377319","0.0-1.0-238.0","0","0","33390","","28","","","75","26","","k","","","","","","","","","","","","","",""
"","response","","html-keyboard-response","179","377384","0.0-1.0-239.0","0","0","33390","","63","","","75","26","","","1","26","training","adjacent","BC","2","3","Q.jpg","R.jpg","0","1","0","",""
"","feedback","","html-keyboard-response","180","378388","0.0-1.0-240.0-0.0","0","0","33390","","null","","","null","26","","","","","","","","","","","","","","","",""
"","time_out","","html-keyboard-response","181","380391","0.0-1.0-242.0-0.0","0","0","33390","","null","","","null","26","","","","","","","","","","","","","","","",""
"","ITI","","html-keyboard-response","182","381395","0.0-1.0-243.0","0","0","33390","","280","","","75","26","","","","","","","","","","","","","","","k",""
"","S1","","html-keyboard-response","183","381648","0.0-1.0-245.0","0","0","33390","","null","","","null","27","","","","","","","","","","","","","","","",""
"","ISI","","html-keyboard-response","184","383651","0.0-1.0-246.0","0","0","33390","","5","","","75","27","k","","","","","","","","","","","","","","",""
"","S2","","html-keyboard-response","185","383904","0.0-1.0-247.0","0","0","33390","","211","","","75","27","","k","","","","","","","","","","","","","",""
"","response","","html-keyboard-response","186","384144","0.0-1.0-248.0","0","0","33390","","238","","","75","27","","","1","27","training","adjacent","BC","2","3","Q.jpg","R.jpg","0","1","0","",""
"","feedback","","html-keyboard-response","187","385147","0.0-1.0-249.0-0.0","0","0","33390","","null","","","null","27","","","","","","","","","","","","","","","",""
"","time_out","","html-keyboard-response","188","387152","0.0-1.0-251.0-0.0","0","0","33390","","null","","","null","27","","","","","","","","","","","","","","","",""
"","ITI","","html-keyboard-response","189","388155","0.0-1.0-252.0","0","0","33390","","71","","","75","27","","","","","","","","","","","","","","","k",""
"","S1","","html-keyboard-response","190","388408","0.0-1.0-254.0","0","0","33390","","null","","","null","28","","","","","","","","","","","","","","","",""
"","ISI","","html-keyboard-response","191","390412","0.0-1.0-255.0","0","0","33390","","122","","","75","28","k","","","","","","","","","","","","","","",""
"","S2","","html-keyboard-response","192","390671","0.0-1.0-256.0","0","0","33390","","111","","","75","28","","k","","","","","","","","","","","","","",""
"","response","","html-keyboard-response","193","390754","0.0-1.0-257.0","0","0","33390","","82","","","75","28","","","1","28","training","adjacent","FE","6","5","P.jpg","O.jpg","0","0","1","",""
"","feedback","","html-keyboard-response","194","391756","0.0-1.0-258.0-0.0","0","0","33390","","null","","","null","28","","","","","","","","","","","","","","","",""
"","ITI","","html-keyboard-response","195","392760","0.0-1.0-261.0","0","0","33390","","46","","","75","28","","","","","","","","","","","","","","","k",""
"","S1","","html-keyboard-response","196","393012","0.0-1.0-263.0","0","0","33390","","null","","","null","29","","","","","","","","","","","","","","","",""
"","ISI","","html-keyboard-response","197","395015","0.0-1.0-264.0","0","0","33390","","111","","","75","29","k","","","","","","","","","","","","","","",""
"","S2","","html-keyboard-response","198","395268","0.0-1.0-265.0","0","0","33390","","194","","","75","29","","k","","","","","","","","","","","","","",""
"","response","","html-keyboard-response","199","395475","0.0-1.0-266.0","0","0","33390","","204","","","75","29","","","1","29","training","adjacent","CB","3","2","R.jpg","Q.jpg","0","0","1","",""
"","feedback","","html-keyboard-response","200","396477","0.0-1.0-267.0-0.0","0","0","33390","","null","","","null","29","","","","","","","","","","","","","","","",""
"","ITI","","html-keyboard-response","201","397479","0.0-1.0-270.0","0","0","33390","","16","","","75","29","","","","","","","","","","","","","","","k",""
"","S1","","html-keyboard-response","202","397732","0.0-1.0-272.0","0","0","33390","","null","","","null","30","","","","","","","","","","","","","","","",""
"","ISI","","html-keyboard-response","203","399735","0.0-1.0-273.0","0","0","33390","","90","","","75","30","k","","","","","","","","","","","","","","",""
"","S2","","html-keyboard-response","204","399989","0.0-1.0-274.0","0","0","33390","","null","","","null","30","","NaN","","","","","","","","","","","","","",""
"","response","","html-keyboard-response","205","400035","0.0-1.0-275.0","0","0","33390","","43","","","75","30","","","1","30","training","adjacent","GF","7","6","N.jpg","P.jpg","0","0","1","",""
"","feedback","","html-keyboard-response","206","401038","0.0-1.0-276.0-0.0","0","0","33390","","null","","","null","30","","","","","","","","","","","","","","","",""
"","ITI","","html-keyboard-response","207","402040","0.0-1.0-279.0","0","0","33390","","155","","","75","30","","","","","","","","","","","","","","","k",""
"","S1","","html-keyboard-response","208","402293","0.0-1.0-281.0","0","0","33390","","null","","","null","31","","","","","","","","","","","","","","","",""
"","ISI","","html-keyboard-response","209","404295","0.0-1.0-282.0","0","0","33390","","200","","","75","31","k","","","","","","","","","","","","","","",""
"","S2","","html-keyboard-response","210","404548","0.0-1.0-283.0","0","0","33390","","146","","","75","31","","k","","","","","","","","","","","","","",""
"","response","","html-keyboard-response","211","404664","0.0-1.0-284.0","0","0","33390","","115","","","75","31","","","1","31","training","adjacent","EF","5","6","O.jpg","P.jpg","0","1","0","",""
"","feedback","","html-keyboard-response","212","405667","0.0-1.0-285.0-0.0","0","0","33390","","null","","","null","31","","","","","","","","","","","","","","","",""
"","time_out","","html-keyboard-response","213","407670","0.0-1.0-287.0-0.0","0","0","33390","","null","","","null","31","","","","","","","","","","","","","","","",""
"","ITI","","html-keyboard-response","214","408672","0.0-1.0-288.0","0","0","33390","","343","","","75","31","","","","","","","","","","","","","","","k",""
"","S1","","html-keyboard-response","215","408924","0.0-1.0-290.0","0","0","33390","","null","","","null","32","","","","","","","","","","","","","","","",""
"","ISI","","html-keyboard-response","216","410926","0.0-1.0-291.0","0","0","33390","","20","","","75","32","k","","","","","","","","","","","","","","",""
"","S2","","html-keyboard-response","217","411178","0.0-1.0-292.0","0","0","33390","","26","","","75","32","","k","","","","","","","","","","","","","",""
"","response","","html-keyboard-response","218","411404","0.0-1.0-293.0","0","0","33390","","224","","","75","32","","","1","32","training","adjacent","BA","2","1","Q.jpg","L.jpg","0","0","1","",""
"","feedback","","html-keyboard-response","219","412406","0.0-1.0-294.0-0.0","0","0","33390","","null","","","null","32","","","","","","","","","","","","","","","",""
"","ITI","","html-keyboard-response","220","413409","0.0-1.0-297.0","0","0","33390","","47","","","75","32","","","","","","","","","","","","","","","k",""
"","S1","","html-keyboard-response","221","413662","0.0-1.0-299.0","0","0","33390","","null","","","null","33","","","","","","","","","","","","","","","",""
"","ISI","","html-keyboard-response","222","415664","0.0-1.0-300.0","0","0","33390","","221","","","75","33","k","","","","","","","","","","","","","","",""
"","S2","","html-keyboard-response","223","415918","0.0-1.0-301.0","0","0","33390","","239","","","75","33","","k","","","","","","","","","","","","","",""
"","response","","html-keyboard-response","224","416184","0.0-1.0-302.0","0","0","33390","","264","","","75","33","","","1","33","training","adjacent","AB","1","2","L.jpg","Q.jpg","0","1","0","",""
"","feedback","","html-keyboard-response","225","417190","0.0-1.0-303.0-0.0","0","0","33390","","null","","","null","33","","","","","","","","","","","","","","","",""
"","time_out","","html-keyboard-response","226","419194","0.0-1.0-305.0-0.0","0","0","33390","","null","","","null","33","","","","","","","","","","","","","","","",""
"","ITI","","html-keyboard-response","227","420197","0.0-1.0-306.0","0","0","33390","","249","","","75","33","","","","","","","","","","","","","","","k",""
"","S1","","html-keyboard-response","228","420450","0.0-1.0-308.0","0","0","33390","","null","","","null","34","","","","","","","","","","","","","","","",""
"","ISI","","html-keyboard-response","229","422454","0.0-1.0-309.0","0","0","33390","","106","","","75","34","k","","","","","","","","","","","","","","",""
"","S2","","html-keyboard-response","230","422707","0.0-1.0-310.0","0","0","33390","","null","","","null","34","","NaN","","","","","","","","","","","","","",""
"","response","","html-keyboard-response","231","423565","0.0-1.0-311.0","0","0","33390","","856","","","75","34","","","1","34","training","adjacent","ED","5","4","O.jpg","M.jpg","0","0","1","",""
"","feedback","","html-keyboard-response","232","424567","0.0-1.0-312.0-0.0","0","0","33390","","null","","","null","34","","","","","","","","","","","","","","","",""
"","ITI","","html-keyboard-response","233","425570","0.0-1.0-315.0","0","0","33390","","null","","","null","34","","","","","","","","","","","","","","","NaN",""
"","S1","","html-keyboard-response","234","425823","0.0-1.0-317.0","0","0","33390","","null","","","null","35","","","","","","","","","","","","","","","",""
"","ISI","","html-keyboard-response","235","427825","0.0-1.0-318.0","0","0","33390","","1179","","","75","35","k","","","","","","","","","","","","","","",""
"","S2","","html-keyboard-response","236","428078","0.0-1.0-319.0","0","0","33390","","null","","","null","35","","NaN","","","","","","","","","","","","","",""
"","response","","html-keyboard-response","237","429207","0.0-1.0-320.0","0","0","33390","","1128","","","75","35","","","1","35","training","adjacent","CB","3","2","R.jpg","Q.jpg","0","0","1","",""
"","feedback","","html-keyboard-response","238","430213","0.0-1.0-321.0-0.0","0","0","33390","","null","","","null","35","","","","","","","","","","","","","","","",""
"","ITI","","html-keyboard-response","239","431216","0.0-1.0-324.0","0","0","33390","","null","","","null","35","","","","","","","","","","","","","","","NaN",""
"","S1","","html-keyboard-response","240","431468","0.0-1.0-326.0","0","0","33390","","null","","","null","36","","","","","","","","","","","","","","","",""
"","ISI","","html-keyboard-response","241","433470","0.0-1.0-327.0","0","0","33390","","511","","","75","36","k","","","","","","","","","","","","","","",""
"","S2","","html-keyboard-response","242","433725","0.0-1.0-328.0","0","0","33390","","null","","","null","36","","NaN","","","","","","","","","","","","","",""
"","response","","html-keyboard-response","243","433794","0.0-1.0-329.0","0","0","33390","","67","","","75","36","","","1","36","training","adjacent","AB","1","2","L.jpg","Q.jpg","0","1","0","",""
"","feedback","","html-keyboard-response","244","434799","0.0-1.0-330.0-0.0","0","0","33390","","null","","","null","36","","","","","","","","","","","","","","","",""
"","time_out","","html-keyboard-response","245","436802","0.0-1.0-332.0-0.0","0","0","33390","","null","","","null","36","","","","","","","","","","","","","","","",""
"","ITI","","html-keyboard-response","246","437807","0.0-1.0-333.0","0","0","33390","","157","","","75","36","","","","","","","","","","","","","","","k",""
"","S1","","html-keyboard-response","247","438061","0.0-1.0-335.0","0","0","33390","","null","","","null","37","","","","","","","","","","","","","","","",""
"","ISI","","html-keyboard-response","248","440064","0.0-1.0-336.0","0","0","33390","","291","","","68","37","d","","","","","","","","","","","","","","",""
"","S2","","html-keyboard-response","249","440317","0.0-1.0-337.0","0","0","33390","","78","","","75","37","","k","","","","","","","","","","","","","",""
"","response","","html-keyboard-response","250","440464","0.0-1.0-338.0","0","0","33390","","145","","","75","37","","","1","37","training","adjacent","DE","4","5","M.jpg","O.jpg","0","1","0","",""
"","feedback","","html-keyboard-response","251","441466","0.0-1.0-339.0-0.0","0","0","33390","","null","","","null","37","","","","","","","","","","","","","","","",""
"","time_out","","html-keyboard-response","252","443469","0.0-1.0-341.0-0.0","0","0","33390","","null","","","null","37","","","","","","","","","","","","","","","",""
"","ITI","","html-keyboard-response","253","444472","0.0-1.0-342.0","0","0","33390","","39","","","68","37","","","","","","","","","","","","","","","d",""
"","S1","","html-keyboard-response","254","444726","0.0-1.0-344.0","0","0","33390","","null","","","null","38","","","","","","","","","","","","","","","",""
"","ISI","","html-keyboard-response","255","446728","0.0-1.0-345.0","0","0","33390","","766","","","75","38","k","","","","","","","","","","","","","","",""
"","S2","","html-keyboard-response","256","446982","0.0-1.0-346.0","0","0","33390","","118","","","75","38","","k","","","","","","","","","","","","","",""
"","response","","html-keyboard-response","257","447263","0.0-1.0-347.0","0","0","33390","","280","","","68","38","","","1","38","training","adjacent","CD","3","4","R.jpg","M.jpg","1","1","1","",""
"","feedback","","html-keyboard-response","258","448267","0.0-1.0-348.0-0.0","0","0","33390","","null","","","null","38","","","","","","","","","","","","","","","",""
"","ITI","","html-keyboard-response","259","449269","0.0-1.0-351.0","0","0","33390","","616","","","75","38","","","","","","","","","","","","","","","k",""
"","S1","","html-keyboard-response","260","449522","0.0-1.0-353.0","0","0","33390","","null","","","null","39","","","","","","","","","","","","","","","",""
"","ISI","","html-keyboard-response","261","451524","0.0-1.0-354.0","0","0","33390","","241","","","75","39","k","","","","","","","","","","","","","","",""
"","S2","","html-keyboard-response","262","451778","0.0-1.0-355.0","0","0","33390","","239","","","68","39","","d","","","","","","","","","","","","","",""
"","response","","html-keyboard-response","263","452374","0.0-1.0-356.0","0","0","33390","","595","","","68","39","","","1","39","training","adjacent","AB","1","2","L.jpg","Q.jpg","1","1","1","",""
"","feedback","","html-keyboard-response","264","453377","0.0-1.0-357.0-0.0","0","0","33390","","null","","","null","39","","","","","","","","","","","","","","","",""
"","ITI","","html-keyboard-response","265","454380","0.0-1.0-360.0","0","0","33390","","32","","","75","39","","","","","","","","","","","","","","","k",""
"","block_over","","html-keyboard-response","266","725895","0.0-1.0-361.0-0.0","0","0","33390","","271512","","","32","39","","","","","","","","","","","","","","","",""
"","S1","","html-keyboard-response","267","726147","0.0-1.0-362.0","0","0","33390","","null","","","null","40","","","","","","","","","","","","","","","",""
"","ISI","","html-keyboard-response","268","728151","0.0-1.0-363.0","0","0","33390","","1795","","","68","40","d","","","","","","","","","","","","","","",""
"","S2","","html-keyboard-response","269","728402","0.0-1.0-364.0","0","0","33390","","null","","","null","40","","NaN","","","","","","","","","","","","","",""
"","response","","html-keyboard-response","270","728585","0.0-1.0-365.0","0","0","33390","","180","","","75","40","","","2","40","training","adjacent","ED","5","4","O.jpg","M.jpg","0","0","1","",""
"","feedback","","html-keyboard-response","271","729589","0.0-1.0-366.0-0.0","0","0","33390","","null","","","null","40","","","","","","","","","","","","","","","",""
"","ITI","","html-keyboard-response","272","730591","0.0-1.0-369.0","0","0","33390","","124","","","75","40","","","","","","","","","","","","","","","k",""
"","S1","","html-keyboard-response","273","730845","0.0-1.0-371.0","0","0","33390","","null","","","null","41","","","","","","","","","","","","","","","",""
"","ISI","","html-keyboard-response","274","732847","0.0-1.0-372.0","0","0","33390","","207","","","75","41","k","","","","","","","","","","","","","","",""
"","S2","","html-keyboard-response","275","733100","0.0-1.0-373.0","0","0","33390","","null","","","null","41","","NaN","","","","","","","","","","","","","",""
"","response","","html-keyboard-response","276","733204","0.0-1.0-374.0","0","0","33390","","103","","","75","41","","","2","41","training","adjacent","DE","4","5","M.jpg","O.jpg","0","1","0","",""
"","feedback","","html-keyboard-response","277","734207","0.0-1.0-375.0-0.0","0","0","33390","","null","","","null","41","","","","","","","","","","","","","","","",""
"","time_out","","html-keyboard-response","278","736210","0.0-1.0-377.0-0.0","0","0","33390","","null","","","null","41","","","","","","","","","","","","","","","",""
"","ITI","","html-keyboard-response","279","737213","0.0-1.0-378.0","0","0","33390","","null","","","null","41","","","","","","","","","","","","","","","NaN",""
"","S1","","html-keyboard-response","280","737465","0.0-1.0-380.0","0","0","33390","","null","","","null","42","","","","","","","","","","","","","","","",""
"","ISI","","html-keyboard-response","281","739467","0.0-1.0-381.0","0","0","33390","","287","","","75","42","k","","","","","","","","","","","","","","",""
"","S2","","html-keyboard-response","282","739720","0.0-1.0-382.0","0","0","33390","","null","","","null","42","","NaN","","","","","","","","","","","","","",""
"","response","","html-keyboard-response","283","739934","0.0-1.0-383.0","0","0","33390","","212","","","68","42","","","2","42","training","adjacent","FE","6","5","P.jpg","O.jpg","1","0","0","",""
"","feedback","","html-keyboard-response","284","740937","0.0-1.0-384.0-0.0","0","0","33390","","null","","","null","42","","","","","","","","","","","","","","","",""
"","time_out","","html-keyboard-response","285","742940","0.0-1.0-386.0-0.0","0","0","33390","","null","","","null","42","","","","","","","","","","","","","","","",""
"","ITI","","html-keyboard-response","286","743942","0.0-1.0-387.0","0","0","33390","","263","","","68","42","","","","","","","","","","","","","","","d",""
"","S1","","html-keyboard-response","287","744195","0.0-1.0-389.0","0","0","33390","","null","","","null","43","","","","","","","","","","","","","","","",""
"","ISI","","html-keyboard-response","288","746197","0.0-1.0-390.0","0","0","33390","","672","","","75","43","k","","","","","","","","","","","","","","",""
"","S2","","html-keyboard-response","289","746451","0.0-1.0-391.0","0","0","33390","","65","","","75","43","","k","","","","","","","","","","","","","",""
"","response","","html-keyboard-response","290","746586","0.0-1.0-392.0","0","0","33390","","132","","","75","43","","","2","43","training","adjacent","CD","3","4","R.jpg","M.jpg","0","1","0","",""
"","feedback","","html-keyboard-response","291","747590","0.0-1.0-393.0-0.0","0","0","33390","","null","","","null","43","","","","","","","","","","","","","","","",""
"","time_out","","html-keyboard-response","292","749592","0.0-1.0-395.0-0.0","0","0","33390","","null","","","null","43","","","","","","","","","","","","","","","",""
"","ITI","","html-keyboard-response","293","750594","0.0-1.0-396.0","0","0","33390","","276","","","75","43","","","","","","","","","","","","","","","k",""
"","S1","","html-keyboard-response","294","750847","0.0-1.0-398.0","0","0","33390","","null","","","null","44","","","","","","","","","","","","","","","",""
"","ISI","","html-keyboard-response","295","752849","0.0-1.0-399.0","0","0","33390","","486","","","75","44","k","","","","","","","","","","","","","","",""
"","S2","","html-keyboard-response","296","753102","0.0-1.0-400.0","0","0","33390","","242","","","75","44","","k","","","","","","","","","","","","","",""
"","response","","html-keyboard-response","297","753374","0.0-1.0-401.0","0","0","33390","","270","","","68","44","","","2","44","training","adjacent","GF","7","6","N.jpg","P.jpg","1","0","0","",""
"","feedback","","html-keyboard-response","298","754376","0.0-1.0-402.0-0.0","0","0","33390","","null","","","null","44","","","","","","","","","","","","","","","",""
"","time_out","","html-keyboard-response","299","756378","0.0-1.0-404.0-0.0","0","0","33390","","null","","","null","44","","","","","","","","","","","","","","","",""
"","ITI","","html-keyboard-response","300","757381","0.0-1.0-405.0","0","0","33390","","44","","","75","44","","","","","","","","","","","","","","","k",""
"","S1","","html-keyboard-response","301","757635","0.0-1.0-407.0","0","0","33390","","null","","","null","45","","","","","","","","","","","","","","","",""
"","ISI","","html-keyboard-response","302","759638","0.0-1.0-408.0","0","0","33390","","1057","","","68","45","d","","","","","","","","","","","","","","",""
"","S2","","html-keyboard-response","303","759892","0.0-1.0-409.0","0","0","33390","","194","","","75","45","","k","","","","","","","","","","","","","",""
"","response","","html-keyboard-response","304","760194","0.0-1.0-410.0","0","0","33390","","301","","","68","45","","","2","45","training","adjacent","EF","5","6","O.jpg","P.jpg","1","1","1","",""
"","feedback","","html-keyboard-response","305","761198","0.0-1.0-411.0-0.0","0","0","33390","","null","","","null","45","","","","","","","","","","","","","","","",""
"","ITI","","html-keyboard-response","306","762200","0.0-1.0-414.0","0","0","33390","","125","","","68","45","","","","","","","","","","","","","","","d",""
"","S1","","html-keyboard-response","307","762455","0.0-1.0-416.0","0","0","33390","","null","","","null","46","","","","","","","","","","","","","","","",""
"","ISI","","html-keyboard-response","308","764457","0.0-1.0-417.0","0","0","33390","","357","","","68","46","d","","","","","","","","","","","","","","",""
"","S2","","html-keyboard-response","309","764709","0.0-1.0-418.0","0","0","33390","","6","","","75","46","","k","","","","","","","","","","","","","",""
"","response","","html-keyboard-response","310","764834","0.0-1.0-419.0","0","0","33390","","123","","","75","46","","","2","46","training","adjacent","CB","3","2","R.jpg","Q.jpg","0","0","1","",""
"","feedback","","html-keyboard-response","311","765838","0.0-1.0-420.0-0.0","0","0","33390","","null","","","null","46","","","","","","","","","","","","","","","",""
"","ITI","","html-keyboard-response","312","766840","0.0-1.0-423.0","0","0","33390","","187","","","75","46","","","","","","","","","","","","","","","k",""
"","S1","","html-keyboard-response","313","767093","0.0-1.0-425.0","0","0","33390","","null","","","null","47","","","","","","","","","","","","","","","",""
"","ISI","","html-keyboard-response","314","769095","0.0-1.0-426.0","0","0","33390","","215","","","75","47","k","","","","","","","","","","","","","","",""
"","S2","","html-keyboard-response","315","769347","0.0-1.0-427.0","0","0","33390","","225","","","75","47","","k","","","","","","","","","","","","","",""
"","response","","html-keyboard-response","316","769594","0.0-1.0-428.0","0","0","33390","","245","","","75","47","","","2","47","training","adjacent","BA","2","1","Q.jpg","L.jpg","0","0","1","",""
"","feedback","","html-keyboard-response","317","770596","0.0-1.0-429.0-0.0","0","0","33390","","null","","","null","47","","","","","","","","","","","","","","","",""
"","ITI","","html-keyboard-response","318","771598","0.0-1.0-432.0","0","0","33390","","327","","","75","47","","","","","","","","","","","","","","","k",""
"","S1","","html-keyboard-response","319","771850","0.0-1.0-434.0","0","0","33390","","null","","","null","48","","","","","","","","","","","","","","","",""
"","ISI","","html-keyboard-response","320","773852","0.0-1.0-435.0","0","0","33390","","47","","","75","48","k","","","","","","","","","","","","","","",""
"","S2","","html-keyboard-response","321","774104","0.0-1.0-436.0","0","0","33390","","250","","","68","48","","d","","","","","","","","","","","","","",""
"","response","","html-keyboard-response","322","774490","0.0-1.0-437.0","0","0","33390","","383","","","75","48","","","2","48","training","adjacent","DC","4","3","M.jpg","R.jpg","0","0","1","",""
"","feedback","","html-keyboard-response","323","775494","0.0-1.0-438.0-0.0","0","0","33390","","null","","","null","48","","","","","","","","","","","","","","","",""
"","ITI","","html-keyboard-response","324","776497","0.0-1.0-441.0","0","0","33390","","298","","","68","48","","","","","","","","","","","","","","","d",""
"","S1","","html-keyboard-response","325","776751","0.0-1.0-443.0","0","0","33390","","null","","","null","49","","","","","","","","","","","","","","","",""
"","ISI","","html-keyboard-response","326","778753","0.0-1.0-444.0","0","0","33390","","127","","","68","49","d","","","","","","","","","","","","","","",""
"","S2","","html-keyboard-response","327","779006","0.0-1.0-445.0","0","0","33390","","null","","","null","49","","NaN","","","","","","","","","","","","","",""
"","response","","html-keyboard-response","328","779062","0.0-1.0-446.0","0","0","33390","","55","","","68","49","","","2","49","training","adjacent","ED","5","4","O.jpg","M.jpg","1","0","0","",""
"","feedback","","html-keyboard-response","329","780074","0.0-1.0-447.0-0.0","0","0","33390","","null","","","null","49","","","","","","","","","","","","","","","",""
"","time_out","","html-keyboard-response","330","782077","0.0-1.0-449.0-0.0","0","0","33390","","null","","","null","49","","","","","","","","","","","","","","","",""
"","ITI","","html-keyboard-response","331","783079","0.0-1.0-450.0","0","0","33390","","1","","","75","49","","","","","","","","","","","","","","","k",""
"","S1","","html-keyboard-response","332","783330","0.0-1.0-452.0","0","0","33390","","null","","","null","50","","","","","","","","","","","","","","","",""
"","ISI","","html-keyboard-response","333","785333","0.0-1.0-453.0","0","0","33390","","163","","","75","50","k","","","","","","","","","","","","","","",""
"","S2","","html-keyboard-response","334","785587","0.0-1.0-454.0","0","0","33390","","null","","","null","50","","NaN","","","","","","","","","","","","","",""
"","response","","html-keyboard-response","335","785864","0.0-1.0-455.0","0","0","33390","","275","","","75","50","","","2","50","training","adjacent","AB","1","2","L.jpg","Q.jpg","0","1","0","",""
"","feedback","","html-keyboard-response","336","786868","0.0-1.0-456.0-0.0","0","0","33390","","null","","","null","50","","","","","","","","","","","","","","","",""
"","time_out","","html-keyboard-response","337","788871","0.0-1.0-458.0-0.0","0","0","33390","","null","","","null","50","","","","","","","","","","","","","","","",""
"","ITI","","html-keyboard-response","338","789873","0.0-1.0-459.0","0","0","33390","","202","","","68","50","","","","","","","","","","","","","","","d",""
"","S1","","html-keyboard-response","339","790126","0.0-1.0-461.0","0","0","33390","","null","","","null","51","","","","","","","","","","","","","","","",""
"","ISI","","html-keyboard-response","340","792127","0.0-1.0-462.0","0","0","33390","","177","","","75","51","k","","","","","","","","","","","","","","",""
"","S2","","html-keyboard-response","341","792381","0.0-1.0-463.0","0","0","33390","","163","","","68","51","","d","","","","","","","","","","","","","",""
"","response","","html-keyboard-response","342","792527","0.0-1.0-464.0","0","0","33390","","144","","","75","51","","","2","51","training","adjacent","ED","5","4","O.jpg","M.jpg","0","0","1","",""
"","feedback","","html-keyboard-response","343","793531","0.0-1.0-465.0-0.0","0","0","33390","","null","","","null","51","","","","","","","","","","","","","","","",""
"","ITI","","html-keyboard-response","344","794536","0.0-1.0-468.0","0","0","33390","","182","","","68","51","","","","","","","","","","","","","","","d",""
"","S1","","html-keyboard-response","345","794788","0.0-1.0-470.0","0","0","33390","","null","","","null","52","","","","","","","","","","","","","","","",""
"","ISI","","html-keyboard-response","346","796793","0.0-1.0-471.0","0","0","33390","","194","","","68","52","d","","","","","","","","","","","","","","",""
"","S2","","html-keyboard-response","347","797046","0.0-1.0-472.0","0","0","33390","","99","","","68","52","","d","","","","","","","","","","","","","",""
"","response","","html-keyboard-response","348","797174","0.0-1.0-473.0","0","0","33390","","126","","","75","52","","","2","52","training","adjacent","FE","6","5","P.jpg","O.jpg","0","0","1","",""
"","feedback","","html-keyboard-response","349","798179","0.0-1.0-474.0-0.0","0","0","33390","","null","","","null","52","","","","","","","","","","","","","","","",""
"","ITI","","html-keyboard-response","350","799180","0.0-1.0-477.0","0","0","33390","","304","","","75","52","","","","","","","","","","","","","","","k",""
"","S1","","html-keyboard-response","351","799433","0.0-1.0-479.0","0","0","33390","","null","","","null","53","","","","","","","","","","","","","","","",""
"","ISI","","html-keyboard-response","352","801435","0.0-1.0-480.0","0","0","33390","","550","","","75","53","k","","","","","","","","","","","","","","",""
"","S2","","html-keyboard-response","353","801688","0.0-1.0-481.0","0","0","33390","","17","","","75","53","","k","","","","","","","","","","","","","",""
"","response","","html-keyboard-response","354","801824","0.0-1.0-482.0","0","0","33390","","134","","","75","53","","","2","53","training","adjacent","DC","4","3","M.jpg","R.jpg","0","0","1","",""
"","feedback","","html-keyboard-response","355","802827","0.0-1.0-483.0-0.0","0","0","33390","","null","","","null","53","","","","","","","","","","","","","","","",""
"","ITI","","html-keyboard-response","356","803829","0.0-1.0-486.0","0","0","33390","","126","","","75","53","","","","","","","","","","","","","","","k",""
"","S1","","html-keyboard-response","357","804082","0.0-1.0-488.0","0","0","33390","","null","","","null","54","","","","","","","","","","","","","","","",""
"","ISI","","html-keyboard-response","358","806085","0.0-1.0-489.0","0","0","33390","","270","","","75","54","k","","","","","","","","","","","","","","",""
"","S2","","html-keyboard-response","359","806337","0.0-1.0-490.0","0","0","33390","","128","","","75","54","","k","","","","","","","","","","","","","",""
"","response","","html-keyboard-response","360","806634","0.0-1.0-491.0","0","0","33390","","295","","","75","54","","","2","54","training","adjacent","FG","6","7","P.jpg","N.jpg","0","1","0","",""
"","feedback","","html-keyboard-response","361","807637","0.0-1.0-492.0-0.0","0","0","33390","","null","","","null","54","","","","","","","","","","","","","","","",""
"","time_out","","html-keyboard-response","362","809640","0.0-1.0-494.0-0.0","0","0","33390","","null","","","null","54","","","","","","","","","","","","","","","",""
"","ITI","","html-keyboard-response","363","810643","0.0-1.0-495.0","0","0","33390","","291","","","75","54","","","","","","","","","","","","","","","k",""
"","S1","","html-keyboard-response","364","810896","0.0-1.0-497.0","0","0","33390","","null","","","null","55","","","","","","","","","","","","","","","",""
"","ISI","","html-keyboard-response","365","812898","0.0-1.0-498.0","0","0","33390","","177","","","75","55","k","","","","","","","","","","","","","","",""
"","S2","","html-keyboard-response","366","813152","0.0-1.0-499.0","0","0","33390","","224","","","75","55","","k","","","","","","","","","","","","","",""
"","response","","html-keyboard-response","367","813504","0.0-1.0-500.0","0","0","33390","","351","","","75","55","","","2","55","training","adjacent","FG","6","7","P.jpg","N.jpg","0","1","0","",""
"","feedback","","html-keyboard-response","368","814507","0.0-1.0-501.0-0.0","0","0","33390","","null","","","null","55","","","","","","","","","","","","","","","",""
"","time_out","","html-keyboard-response","369","816510","0.0-1.0-503.0-0.0","0","0","33390","","null","","","null","55","","","","","","","","","","","","","","","",""
"","ITI","","html-keyboard-response","370","817512","0.0-1.0-504.0","0","0","33390","","82","","","75","55","","","","","","","","","","","","","","","k",""
"","S1","","html-keyboard-response","371","817764","0.0-1.0-506.0","0","0","33390","","null","","","null","56","","","","","","","","","","","","","","","",""
"","ISI","","html-keyboard-response","372","819768","0.0-1.0-507.0","0","0","33390","","39","","","75","56","k","","","","","","","","","","","","","","",""
"","S2","","html-keyboard-response","373","820020","0.0-1.0-508.0","0","0","33390","","145","","","75","56","","k","","","","","","","","","","","","","",""
"","response","","html-keyboard-response","374","820194","0.0-1.0-509.0","0","0","33390","","172","","","75","56","","","2","56","training","adjacent","EF","5","6","O.jpg","P.jpg","0","1","0","",""
"","feedback","","html-keyboard-response","375","821198","0.0-1.0-510.0-0.0","0","0","33390","","null","","","null","56","","","","","","","","","","","","","","","",""
"","time_out","","html-keyboard-response","376","823201","0.0-1.0-512.0-0.0","0","0","33390","","null","","","null","56","","","","","","","","","","","","","","","",""
"","ITI","","html-keyboard-response","377","824203","0.0-1.0-513.0","0","0","33390","","71","","","75","56","","","","","","","","","","","","","","","k",""
"","S1","","html-keyboard-response","378","824456","0.0-1.0-515.0","0","0","33390","","null","","","null","57","","","","","","","","","","","","","","","",""
"","ISI","","html-keyboard-response","379","826458","0.0-1.0-516.0","0","0","33390","","257","","","75","57","k","","","","","","","","","","","","","","",""
"","S2","","html-keyboard-response","380","826710","0.0-1.0-517.0","0","0","33390","","205","","","75","57","","k","","","","","","","","","","","","","",""
"","response","","html-keyboard-response","381","827050","0.0-1.0-518.0","0","0","33390","","338","","","75","57","","","2","57","training","adjacent","CD","3","4","R.jpg","M.jpg","0","1","0","",""
"","feedback","","html-keyboard-response","382","828052","0.0-1.0-519.0-0.0","0","0","33390","","null","","","null","57","","","","","","","","","","","","","","","",""
"","time_out","","html-keyboard-response","383","830055","0.0-1.0-521.0-0.0","0","0","33390","","null","","","null","57","","","","","","","","","","","","","","","",""
"","ITI","","html-keyboard-response","384","831057","0.0-1.0-522.0","0","0","33390","","158","","","75","57","","","","","","","","","","","","","","","k",""
"","S1","","html-keyboard-response","385","831311","0.0-1.0-524.0","0","0","33390","","null","","","null","58","","","","","","","","","","","","","","","",""
"","ISI","","html-keyboard-response","386","833313","0.0-1.0-525.0","0","0","33390","","102","","","75","58","k","","","","","","","","","","","","","","",""
"","S2","","html-keyboard-response","387","833568","0.0-1.0-526.0","0","0","33390","","19","","","75","58","","k","","","","","","","","","","","","","",""
"","response","","html-keyboard-response","388","833715","0.0-1.0-527.0","0","0","33390","","144","","","75","58","","","2","58","training","adjacent","FE","6","5","P.jpg","O.jpg","0","0","1","",""
"","feedback","","html-keyboard-response","389","834717","0.0-1.0-528.0-0.0","0","0","33390","","null","","","null","58","","","","","","","","","","","","","","","",""
"","ITI","","html-keyboard-response","390","835720","0.0-1.0-531.0","0","0","33390","","155","","","75","58","","","","","","","","","","","","","","","k",""
"","S1","","html-keyboard-response","391","835974","0.0-1.0-533.0","0","0","33390","","null","","","null","59","","","","","","","","","","","","","","","",""
"","ISI","","html-keyboard-response","392","837977","0.0-1.0-534.0","0","0","33390","","409","","","75","59","k","","","","","","","","","","","","","","",""
"","S2","","html-keyboard-response","393","838230","0.0-1.0-535.0","0","0","33390","","null","","","null","59","","NaN","","","","","","","","","","","","","",""
"","response","","html-keyboard-response","394","838284","0.0-1.0-536.0","0","0","33390","","52","","","75","59","","","2","59","training","adjacent","DE","4","5","M.jpg","O.jpg","0","1","0","",""
"","feedback","","html-keyboard-response","395","839287","0.0-1.0-537.0-0.0","0","0","33390","","null","","","null","59","","","","","","","","","","","","","","","",""
"","time_out","","html-keyboard-response","396","841289","0.0-1.0-539.0-0.0","0","0","33390","","null","","","null","59","","","","","","","","","","","","","","","",""
"","ITI","","html-keyboard-response","397","842291","0.0-1.0-540.0","0","0","33390","","223","","","68","59","","","","","","","","","","","","","","","d",""
"","S1","","html-keyboard-response","398","842544","0.0-1.0-542.0","0","0","33390","","null","","","null","60","","","","","","","","","","","","","","","",""
"","ISI","","html-keyboard-response","399","844546","0.0-1.0-543.0","0","0","33390","","1779","","","68","60","d","","","","","","","","","","","","","","",""
"","S2","","html-keyboard-response","400","844799","0.0-1.0-544.0","0","0","33390","","196","","","68","60","","d","","","","","","","","","","","","","",""
"","response","","html-keyboard-response","401","845954","0.0-1.0-545.0","0","0","33390","","1153","","","68","60","","","2","60","training","adjacent","DE","4","5","M.jpg","O.jpg","1","1","1","",""
"","feedback","","html-keyboard-response","402","846959","0.0-1.0-546.0-0.0","0","0","33390","","null","","","null","60","","","","","","","","","","","","","","","",""
"","ITI","","html-keyboard-response","403","847961","0.0-1.0-549.0","0","0","33390","","624","","","68","60","","","","","","","","","","","","","","","d",""
"","S1","","html-keyboard-response","404","848214","0.0-1.0-551.0","0","0","33390","","null","","","null","61","","","","","","","","","","","","","","","",""
"","ISI","","html-keyboard-response","405","850216","0.0-1.0-552.0","0","0","33390","","299","","","68","61","d","","","","","","","","","","","","","","",""
"","S2","","html-keyboard-response","406","850469","0.0-1.0-553.0","0","0","33390","","126","","","68","61","","d","","","","","","","","","","","","","",""
"","response","","html-keyboard-response","407","850704","0.0-1.0-554.0","0","0","33390","","234","","","68","61","","","2","61","training","adjacent","EF","5","6","O.jpg","P.jpg","1","1","1","",""
"","feedback","","html-keyboard-response","408","851706","0.0-1.0-555.0-0.0","0","0","33390","","null","","","null","61","","","","","","","","","","","","","","","",""
"","ITI","","html-keyboard-response","409","852709","0.0-1.0-558.0","0","0","33390","","7","","","68","61","","","","","","","","","","","","","","","d",""
"","S1","","html-keyboard-response","410","852962","0.0-1.0-560.0","0","0","33390","","null","","","null","62","","","","","","","","","","","","","","","",""
"","ISI","","html-keyboard-response","411","854966","0.0-1.0-561.0","0","0","33390","","181","","","68","62","d","","","","","","","","","","","","","","",""
"","S2","","html-keyboard-response","412","855223","0.0-1.0-562.0","0","0","33390","","null","","","null","62","","NaN","","","","","","","","","","","","","",""
"","response","","html-keyboard-response","413","855735","0.0-1.0-563.0","0","0","33390","","509","","","68","62","","","2","62","training","adjacent","DC","4","3","M.jpg","R.jpg","1","0","0","",""
"","feedback","","html-keyboard-response","414","856739","0.0-1.0-564.0-0.0","0","0","33390","","null","","","null","62","","","","","","","","","","","","","","","",""
"","time_out","","html-keyboard-response","415","858742","0.0-1.0-566.0-0.0","0","0","33390","","null","","","null","62","","","","","","","","","","","","","","","",""
"","ITI","","html-keyboard-response","416","859745","0.0-1.0-567.0","0","0","33390","","291","","","68","62","","","","","","","","","","","","","","","d",""
"","S1","","html-keyboard-response","417","859998","0.0-1.0-569.0","0","0","33390","","null","","","null","63","","","","","","","","","","","","","","","",""
"","ISI","","html-keyboard-response","418","862001","0.0-1.0-570.0","0","0","33390","","794","","","68","63","d","","","","","","","","","","","","","","",""
"","S2","","html-keyboard-response","419","862256","0.0-1.0-571.0","0","0","33390","","null","","","null","63","","NaN","","","","","","","","","","","","","",""
"","response","","html-keyboard-response","420","864258","0.0-1.0-572.0","0","0","33390","","null","","","null","63","","","2","63","training","adjacent","CB","3","2","R.jpg","Q.jpg","NaN","0","0","",""
"","too_slow_prompt","","html-keyboard-response","421","865261","0.0-1.0-574.0-0.0","1","0","33390","","null","","","null","","","","","","","","","","","","","","","","",""
"","time_out","","html-keyboard-response","422","867264","0.0-1.0-575.0-0.0","0","0","33390","","null","","","null","63","","","","","","","","","","","","","","","",""
"","ITI","","html-keyboard-response","423","868267","0.0-1.0-576.0","0","0","33390","","178","","","68","63","","","","","","","","","","","","","","","d",""
"","S1","","html-keyboard-response","424","868520","0.0-1.0-578.0","0","0","33390","","null","","","null","64","","","","","","","","","","","","","","","",""
"","ISI","","html-keyboard-response","425","870523","0.0-1.0-579.0","0","0","33390","","802","","","68","64","d","","","","","","","","","","","","","","",""
"","S2","","html-keyboard-response","426","870776","0.0-1.0-580.0","0","0","33390","","60","","","68","64","","d","","","","","","","","","","","","","",""
"","response","","html-keyboard-response","427","871014","0.0-1.0-581.0","0","0","33390","","237","","","68","64","","","2","64","training","adjacent","BA","2","1","Q.jpg","L.jpg","1","0","0","",""
"","feedback","","html-keyboard-response","428","872019","0.0-1.0-582.0-0.0","0","0","33390","","null","","","null","64","","","","","","","","","","","","","","","",""
"","time_out","","html-keyboard-response","429","874021","0.0-1.0-584.0-0.0","0","0","33390","","null","","","null","64","","","","","","","","","","","","","","","",""
"","ITI","","html-keyboard-response","430","875025","0.0-1.0-585.0","0","0","33390","","281","","","68","64","","","","","","","","","","","","","","","d",""
"","S1","","html-keyboard-response","431","875278","0.0-1.0-587.0","0","0","33390","","null","","","null","65","","","","","","","","","","","","","","","",""
"","ISI","","html-keyboard-response","432","877280","0.0-1.0-588.0","0","0","33390","","185","","","68","65","d","","","","","","","","","","","","","","",""
"","S2","","html-keyboard-response","433","877533","0.0-1.0-589.0","0","0","33390","","222","","","68","65","","d","","","","","","","","","","","","","",""
"","response","","html-keyboard-response","434","877764","0.0-1.0-590.0","0","0","33390","","230","","","68","65","","","2","65","training","adjacent","ED","5","4","O.jpg","M.jpg","1","0","0","",""
"","feedback","","html-keyboard-response","435","878766","0.0-1.0-591.0-0.0","0","0","33390","","null","","","null","65","","","","","","","","","","","","","","","",""
"","time_out","","html-keyboard-response","436","880772","0.0-1.0-593.0-0.0","0","0","33390","","null","","","null","65","","","","","","","","","","","","","","","",""
"","ITI","","html-keyboard-response","437","881777","0.0-1.0-594.0","0","0","33390","","188","","","68","65","","","","","","","","","","","","","","","d",""
"","S1","","html-keyboard-response","438","882030","0.0-1.0-596.0","0","0","33390","","null","","","null","66","","","","","","","","","","","","","","","",""
"","ISI","","html-keyboard-response","439","884033","0.0-1.0-597.0","0","0","33390","","242","","","68","66","d","","","","","","","","","","","","","","",""
"","S2","","html-keyboard-response","440","884299","0.0-1.0-598.0","0","0","33390","","null","","","null","66","","NaN","","","","","","","","","","","","","",""
"","response","","html-keyboard-response","441","884364","0.0-1.0-599.0","0","0","33390","","60","","","68","66","","","2","66","training","adjacent","BA","2","1","Q.jpg","L.jpg","1","0","0","",""
"","feedback","","html-keyboard-response","442","885367","0.0-1.0-600.0-0.0","0","0","33390","","null","","","null","66","","","","","","","","","","","","","","","",""
"","time_out","","html-keyboard-response","443","887369","0.0-1.0-602.0-0.0","0","0","33390","","null","","","null","66","","","","","","","","","","","","","","","",""
"","ITI","","html-keyboard-response","444","888371","0.0-1.0-603.0","0","0","33390","","24","","","68","66","","","","","","","","","","","","","","","d",""
"","S1","","html-keyboard-response","445","888624","0.0-1.0-605.0","0","0","33390","","null","","","null","67","","","","","","","","","","","","","","","",""
"","ISI","","html-keyboard-response","446","890626","0.0-1.0-606.0","0","0","33390","","33","","","68","67","d","","","","","","","","","","","","","","",""
"","S2","","html-keyboard-response","447","890879","0.0-1.0-607.0","0","0","33390","","196","","","68","67","","d","","","","","","","","","","","","","",""
"","response","","html-keyboard-response","448","891184","0.0-1.0-608.0","0","0","33390","","304","","","68","67","","","2","67","training","adjacent","AB","1","2","L.jpg","Q.jpg","1","1","1","",""
"","feedback","","html-keyboard-response","449","892187","0.0-1.0-609.0-0.0","0","0","33390","","null","","","null","67","","","","","","","","","","","","","","","",""
"","ITI","","html-keyboard-response","450","893189","0.0-1.0-612.0","0","0","33390","","146","","","68","67","","","","","","","","","","","","","","","d",""
"","S1","","html-keyboard-response","451","893441","0.0-1.0-614.0","0","0","33390","","null","","","null","68","","","","","","","","","","","","","","","",""
"","ISI","","html-keyboard-response","452","895443","0.0-1.0-615.0","0","0","33390","","222","","","68","68","d","","","","","","","","","","","","","","",""
"","S2","","html-keyboard-response","453","895695","0.0-1.0-616.0","0","0","33390","","null","","","null","68","","NaN","","","","","","","","","","","","","",""
"","response","","html-keyboard-response","454","895754","0.0-1.0-617.0","0","0","33390","","57","","","68","68","","","2","68","training","adjacent","CD","3","4","R.jpg","M.jpg","1","1","1","",""
"","feedback","","html-keyboard-response","455","896756","0.0-1.0-618.0-0.0","0","0","33390","","null","","","null","68","","","","","","","","","","","","","","","",""
"","ITI","","html-keyboard-response","456","897760","0.0-1.0-621.0","0","0","33390","","345","","","68","68","","","","","","","","","","","","","","","d",""
"","S1","","html-keyboard-response","457","898013","0.0-1.0-623.0","0","0","33390","","null","","","null","69","","","","","","","","","","","","","","","",""
"","ISI","","html-keyboard-response","458","900014","0.0-1.0-624.0","0","0","33390","","80","","","68","69","d","","","","","","","","","","","","","","",""
"","S2","","html-keyboard-response","459","900267","0.0-1.0-625.0","0","0","33390","","null","","","null","69","","NaN","","","","","","","","","","","","","",""
"","response","","html-keyboard-response","460","900834","0.0-1.0-626.0","0","0","33390","","566","","","68","69","","","2","69","training","adjacent","AB","1","2","L.jpg","Q.jpg","1","1","1","",""
"","feedback","","html-keyboard-response","461","901839","0.0-1.0-627.0-0.0","0","0","33390","","null","","","null","69","","","","","","","","","","","","","","","",""
"","ITI","","html-keyboard-response","462","902841","0.0-1.0-630.0","0","0","33390","","274","","","68","69","","","","","","","","","","","","","","","d",""
"","S1","","html-keyboard-response","463","903094","0.0-1.0-632.0","0","0","33390","","null","","","null","70","","","","","","","","","","","","","","","",""
"","ISI","","html-keyboard-response","464","905097","0.0-1.0-633.0","0","0","33390","","258","","","68","70","d","","","","","","","","","","","","","","",""
"","S2","","html-keyboard-response","465","905350","0.0-1.0-634.0","0","0","33390","","null","","","null","70","","NaN","","","","","","","","","","","","","",""
"","response","","html-keyboard-response","466","905845","0.0-1.0-635.0","0","0","33390","","493","","","68","70","","","2","70","training","adjacent","DE","4","5","M.jpg","O.jpg","1","1","1","",""
"","feedback","","html-keyboard-response","467","906847","0.0-1.0-636.0-0.0","0","0","33390","","null","","","null","70","","","","","","","","","","","","","","","",""
"","ITI","","html-keyboard-response","468","907850","0.0-1.0-639.0","0","0","33390","","765","","","68","70","","","","","","","","","","","","","","","d",""
"","S1","","html-keyboard-response","469","908103","0.0-1.0-641.0","0","0","33390","","null","","","null","71","","","","","","","","","","","","","","","",""
"","ISI","","html-keyboard-response","470","910106","0.0-1.0-642.0","0","0","33390","","359","","","68","71","d","","","","","","","","","","","","","","",""
"","S2","","html-keyboard-response","471","910359","0.0-1.0-643.0","0","0","33390","","6","","","68","71","","d","","","","","","","","","","","","","",""
"","response","","html-keyboard-response","472","910555","0.0-1.0-644.0","0","0","33390","","195","","","68","71","","","2","71","training","adjacent","DC","4","3","M.jpg","R.jpg","1","0","0","",""
"","feedback","","html-keyboard-response","473","911557","0.0-1.0-645.0-0.0","0","0","33390","","null","","","null","71","","","","","","","","","","","","","","","",""
"","time_out","","html-keyboard-response","474","913559","0.0-1.0-647.0-0.0","0","0","33390","","null","","","null","71","","","","","","","","","","","","","","","",""
"","ITI","","html-keyboard-response","475","914562","0.0-1.0-648.0","0","0","33390","","353","","","68","71","","","","","","","","","","","","","","","d",""
"","S1","","html-keyboard-response","476","914815","0.0-1.0-650.0","0","0","33390","","null","","","null","72","","","","","","","","","","","","","","","",""
"","ISI","","html-keyboard-response","477","916819","0.0-1.0-651.0","0","0","33390","","16","","","68","72","d","","","","","","","","","","","","","","",""
"","S2","","html-keyboard-response","478","917072","0.0-1.0-652.0","0","0","33390","","null","","","null","72","","NaN","","","","","","","","","","","","","",""
"","response","","html-keyboard-response","479","917184","0.0-1.0-653.0","0","0","33390","","110","","","68","72","","","2","72","training","adjacent","BC","2","3","Q.jpg","R.jpg","1","1","1","",""
"","feedback","","html-keyboard-response","480","918187","0.0-1.0-654.0-0.0","0","0","33390","","null","","","null","72","","","","","","","","","","","","","","","",""
"","ITI","","html-keyboard-response","481","919190","0.0-1.0-657.0","0","0","33390","","125","","","68","72","","","","","","","","","","","","","","","d",""
"","S1","","html-keyboard-response","482","919445","0.0-1.0-659.0","0","0","33390","","null","","","null","73","","","","","","","","","","","","","","","",""
"","ISI","","html-keyboard-response","483","921447","0.0-1.0-660.0","0","0","33390","","338","","","68","73","d","","","","","","","","","","","","","","",""
"","S2","","html-keyboard-response","484","921699","0.0-1.0-661.0","0","0","33390","","null","","","null","73","","NaN","","","","","","","","","","","","","",""
"","response","","html-keyboard-response","485","921717","0.0-1.0-662.0","0","0","33390","","17","","","68","73","","","2","73","training","adjacent","BC","2","3","Q.jpg","R.jpg","1","1","1","",""
"","feedback","","html-keyboard-response","486","922720","0.0-1.0-663.0-0.0","0","0","33390","","null","","","null","73","","","","","","","","","","","","","","","",""
"","ITI","","html-keyboard-response","487","923723","0.0-1.0-666.0","0","0","33390","","44","","","68","73","","","","","","","","","","","","","","","d",""
"","S1","","html-keyboard-response","488","923976","0.0-1.0-668.0","0","0","33390","","null","","","null","74","","","","","","","","","","","","","","","",""
"","ISI","","html-keyboard-response","489","925978","0.0-1.0-669.0","0","0","33390","","237","","","68","74","d","","","","","","","","","","","","","","",""
"","S2","","html-keyboard-response","490","926231","0.0-1.0-670.0","0","0","33390","","null","","","null","74","","NaN","","","","","","","","","","","","","",""
"","response","","html-keyboard-response","491","926285","0.0-1.0-671.0","0","0","33390","","53","","","68","74","","","2","74","training","adjacent","FG","6","7","P.jpg","N.jpg","1","1","1","",""
"","feedback","","html-keyboard-response","492","927288","0.0-1.0-672.0-0.0","0","0","33390","","null","","","null","74","","","","","","","","","","","","","","","",""
"","ITI","","html-keyboard-response","493","928291","0.0-1.0-675.0","0","0","33390","","124","","","68","74","","","","","","","","","","","","","","","d",""
"","S1","","html-keyboard-response","494","928543","0.0-1.0-677.0","0","0","33390","","null","","","null","75","","","","","","","","","","","","","","","",""
"","ISI","","html-keyboard-response","495","930546","0.0-1.0-678.0","0","0","33390","","300","","","68","75","d","","","","","","","","","","","","","","",""
"","S2","","html-keyboard-response","496","930799","0.0-1.0-679.0","0","0","33390","","6","","","68","75","","d","","","","","","","","","","","","","",""
"","response","","html-keyboard-response","497","930875","0.0-1.0-680.0","0","0","33390","","74","","","68","75","","","2","75","training","adjacent","CB","3","2","R.jpg","Q.jpg","1","0","0","",""
"","feedback","","html-keyboard-response","498","931878","0.0-1.0-681.0-0.0","0","0","33390","","null","","","null","75","","","","","","","","","","","","","","","",""
"","time_out","","html-keyboard-response","499","933881","0.0-1.0-683.0-0.0","0","0","33390","","null","","","null","75","","","","","","","","","","","","","","","",""
"","ITI","","html-keyboard-response","500","934885","0.0-1.0-684.0","0","0","33390","","31","","","68","75","","","","","","","","","","","","","","","d",""
"","S1","","html-keyboard-response","501","935138","0.0-1.0-686.0","0","0","33390","","null","","","null","76","","","","","","","","","","","","","","","",""
"","ISI","","html-keyboard-response","502","937141","0.0-1.0-687.0","0","0","33390","","73","","","68","76","d","","","","","","","","","","","","","","",""
"","S2","","html-keyboard-response","503","937395","0.0-1.0-688.0","0","0","33390","","131","","","68","76","","d","","","","","","","","","","","","","",""
"","response","","html-keyboard-response","504","937584","0.0-1.0-689.0","0","0","33390","","188","","","68","76","","","2","76","training","adjacent","GF","7","6","N.jpg","P.jpg","1","0","0","",""
"","feedback","","html-keyboard-response","505","938587","0.0-1.0-690.0-0.0","0","0","33390","","null","","","null","76","","","","","","","","","","","","","","","",""
"","time_out","","html-keyboard-response","506","940591","0.0-1.0-692.0-0.0","0","0","33390","","null","","","null","76","","","","","","","","","","","","","","","",""
"","ITI","","html-keyboard-response","507","941592","0.0-1.0-693.0","0","0","33390","","162","","","75","76","","","","","","","","","","","","","","","k",""
"","S1","","html-keyboard-response","508","941845","0.0-1.0-695.0","0","0","33390","","null","","","null","77","","","","","","","","","","","","","","","",""
"","ISI","","html-keyboard-response","509","943849","0.0-1.0-696.0","0","0","33390","","277","","","75","77","k","","","","","","","","","","","","","","",""
"","S2","","html-keyboard-response","510","944103","0.0-1.0-697.0","0","0","33390","","null","","","null","77","","NaN","","","","","","","","","","","","","",""
"","response","","html-keyboard-response","511","944176","0.0-1.0-698.0","0","0","33390","","71","","","75","77","","","2","77","training","adjacent","GF","7","6","N.jpg","P.jpg","0","0","1","",""
"","feedback","","html-keyboard-response","512","945179","0.0-1.0-699.0-0.0","0","0","33390","","null","","","null","77","","","","","","","","","","","","","","","",""
"","ITI","","html-keyboard-response","513","946182","0.0-1.0-702.0","0","0","33390","","143","","","75","77","","","","","","","","","","","","","","","k",""
"","S1","","html-keyboard-response","514","946434","0.0-1.0-704.0","0","0","33390","","null","","","null","78","","","","","","","","","","","","","","","",""
"","ISI","","html-keyboard-response","515","948436","0.0-1.0-705.0","0","0","33390","","90","","","75","78","k","","","","","","","","","","","","","","",""
"","S2","","html-keyboard-response","516","948690","0.0-1.0-706.0","0","0","33390","","null","","","null","78","","NaN","","","","","","","","","","","","","",""
"","response","","html-keyboard-response","517","948725","0.0-1.0-707.0","0","0","33390","","34","","","75","78","","","2","78","training","adjacent","CD","3","4","R.jpg","M.jpg","0","1","0","",""
"","feedback","","html-keyboard-response","518","949727","0.0-1.0-708.0-0.0","0","0","33390","","null","","","null","78","","","","","","","","","","","","","","","",""
"","time_out","","html-keyboard-response","519","951730","0.0-1.0-710.0-0.0","0","0","33390","","null","","","null","78","","","","","","","","","","","","","","","",""
"","ITI","","html-keyboard-response","520","952731","0.0-1.0-711.0","0","0","33390","","283","","","75","78","","","","","","","","","","","","","","","k",""
"","S1","","html-keyboard-response","521","952988","0.0-1.0-713.0","0","0","33390","","null","","","null","79","","","","","","","","","","","","","","","",""
"","ISI","","html-keyboard-response","522","954990","0.0-1.0-714.0","0","0","33390","","7","","","75","79","k","","","","","","","","","","","","","","",""
"","S2","","html-keyboard-response","523","955243","0.0-1.0-715.0","0","0","33390","","32","","","75","79","","k","","","","","","","","","","","","","",""
"","response","","html-keyboard-response","524","955465","0.0-1.0-716.0","0","0","33390","","220","","","75","79","","","2","79","training","adjacent","BC","2","3","Q.jpg","R.jpg","0","1","0","",""
"","feedback","","html-keyboard-response","525","956467","0.0-1.0-717.0-0.0","0","0","33390","","null","","","null","79","","","","","","","","","","","","","","","",""
"","time_out","","html-keyboard-response","526","958470","0.0-1.0-719.0-0.0","0","0","33390","","null","","","null","79","","","","","","","","","","","","","","","",""
"","ITI","","html-keyboard-response","527","959472","0.0-1.0-720.0","0","0","33390","","84","","","75","79","","","","","","","","","","","","","","","k",""
"","block_over","","html-keyboard-response","528","961844","0.0-1.0-721.0-0.0","0","0","33390","","2369","","","32","79","","","","","","","","","","","","","","","",""
"","S1","","html-keyboard-response","529","962097","0.0-1.0-722.0","0","0","33390","","null","","","null","80","","","","","","","","","","","","","","","",""
"","ISI","","html-keyboard-response","530","964099","0.0-1.0-723.0","0","0","33390","","1526","","","75","80","k","","","","","","","","","","","","","","",""
"","S2","","html-keyboard-response","531","964351","0.0-1.0-724.0","0","0","33390","","null","","","null","80","","NaN","","","","","","","","","","","","","",""
"","response","","html-keyboard-response","532","964385","0.0-1.0-725.0","0","0","33390","","33","","","75","80","","","3","80","training","adjacent","EF","5","6","O.jpg","P.jpg","0","1","0","",""
"","feedback","","html-keyboard-response","533","965388","0.0-1.0-726.0-0.0","0","0","33390","","null","","","null","80","","","","","","","","","","","","","","","",""
"","time_out","","html-keyboard-response","534","967391","0.0-1.0-728.0-0.0","0","0","33390","","null","","","null","80","","","","","","","","","","","","","","","",""
"","ITI","","html-keyboard-response","535","968393","0.0-1.0-729.0","0","0","33390","","201","","","75","80","","","","","","","","","","","","","","","k",""
"","S1","","html-keyboard-response","536","968646","0.0-1.0-731.0","0","0","33390","","null","","","null","81","","","","","","","","","","","","","","","",""
"","ISI","","html-keyboard-response","537","970649","0.0-1.0-732.0","0","0","33390","","275","","","75","81","k","","","","","","","","","","","","","","",""
"","S2","","html-keyboard-response","538","970901","0.0-1.0-733.0","0","0","33390","","204","","","75","81","","k","","","","","","","","","","","","","",""
"","response","","html-keyboard-response","539","971202","0.0-1.0-734.0","0","0","33390","","299","","","75","81","","","3","81","training","adjacent","CB","3","2","R.jpg","Q.jpg","0","0","1","",""
"","feedback","","html-keyboard-response","540","972205","0.0-1.0-735.0-0.0","0","0","33390","","null","","","null","81","","","","","","","","","","","","","","","",""
"","ITI","","html-keyboard-response","541","973209","0.0-1.0-738.0","0","0","33390","","327","","","75","81","","","","","","","","","","","","","","","k",""
"","S1","","html-keyboard-response","542","973463","0.0-1.0-740.0","0","0","33390","","null","","","null","82","","","","","","","","","","","","","","","",""
"","ISI","","html-keyboard-response","543","975466","0.0-1.0-741.0","0","0","33390","","210","","","75","82","k","","","","","","","","","","","","","","",""
"","S2","","html-keyboard-response","544","975719","0.0-1.0-742.0","0","0","33390","","46","","","75","82","","k","","","","","","","","","","","","","",""
"","response","","html-keyboard-response","545","975824","0.0-1.0-743.0","0","0","33390","","104","","","75","82","","","3","82","training","adjacent","DC","4","3","M.jpg","R.jpg","0","0","1","",""
"","feedback","","html-keyboard-response","546","976826","0.0-1.0-744.0-0.0","0","0","33390","","null","","","null","82","","","","","","","","","","","","","","","",""
"","ITI","","html-keyboard-response","547","977829","0.0-1.0-747.0","0","0","33390","","297","","","75","82","","","","","","","","","","","","","","","k",""
"","S1","","html-keyboard-response","548","978081","0.0-1.0-749.0","0","0","33390","","null","","","null","83","","","","","","","","","","","","","","","",""
"","ISI","","html-keyboard-response","549","980083","0.0-1.0-750.0","0","0","33390","","293","","","75","83","k","","","","","","","","","","","","","","",""
"","S2","","html-keyboard-response","550","980337","0.0-1.0-751.0","0","0","33390","","null","","","null","83","","NaN","","","","","","","","","","","","","",""
"","response","","html-keyboard-response","551","980864","0.0-1.0-752.0","0","0","33390","","525","","","75","83","","","3","83","training","adjacent","FE","6","5","P.jpg","O.jpg","0","0","1","",""
"","feedback","","html-keyboard-response","552","981867","0.0-1.0-753.0-0.0","0","0","33390","","null","","","null","83","","","","","","","","","","","","","","","",""
"","ITI","","html-keyboard-response","553","982869","0.0-1.0-756.0","0","0","33390","","86","","","75","83","","","","","","","","","","","","","","","k",""
"","S1","","html-keyboard-response","554","983122","0.0-1.0-758.0","0","0","33390","","null","","","null","84","","","","","","","","","","","","","","","",""
"","ISI","","html-keyboard-response","555","985126","0.0-1.0-759.0","0","0","33390","","121","","","75","84","k","","","","","","","","","","","","","","",""
"","S2","","html-keyboard-response","556","985379","0.0-1.0-760.0","0","0","33390","","null","","","null","84","","NaN","","","","","","","","","","","","","",""
"","response","","html-keyboard-response","557","985665","0.0-1.0-761.0","0","0","33390","","284","","","75","84","","","3","84","training","adjacent","EF","5","6","O.jpg","P.jpg","0","1","0","",""
"","feedback","","html-keyboard-response","558","986669","0.0-1.0-762.0-0.0","0","0","33390","","null","","","null","84","","","","","","","","","","","","","","","",""
"","time_out","","html-keyboard-response","559","988672","0.0-1.0-764.0-0.0","0","0","33390","","null","","","null","84","","","","","","","","","","","","","","","",""
"","ITI","","html-keyboard-response","560","989674","0.0-1.0-765.0","0","0","33390","","771","","","68","84","","","","","","","","","","","","","","","d",""
"","S1","","html-keyboard-response","561","989927","0.0-1.0-767.0","0","0","33390","","null","","","null","85","","","","","","","","","","","","","","","",""
"","ISI","","html-keyboard-response","562","991929","0.0-1.0-768.0","0","0","33390","","105","","","68","85","d","","","","","","","","","","","","","","",""
"","S2","","html-keyboard-response","563","992181","0.0-1.0-769.0","0","0","33390","","213","","","68","85","","d","","","","","","","","","","","","","",""
"","response","","html-keyboard-response","564","992684","0.0-1.0-770.0","0","0","33390","","501","","","68","85","","","3","85","training","adjacent","CD","3","4","R.jpg","M.jpg","1","1","1","",""
"","feedback","","html-keyboard-response","565","993686","0.0-1.0-771.0-0.0","0","0","33390","","null","","","null","85","","","","","","","","","","","","","","","",""
"","ITI","","html-keyboard-response","566","994690","0.0-1.0-774.0","0","0","33390","","292","","","70","85","","","","","","","","","","","","","","","f",""
"","S1","","html-keyboard-response","567","994942","0.0-1.0-776.0","0","0","33390","","null","","","null","86","","","","","","","","","","","","","","","",""
"","ISI","","html-keyboard-response","568","996945","0.0-1.0-777.0","0","0","33390","","261","","","68","86","d","","","","","","","","","","","","","","",""
"","S2","","html-keyboard-response","569","997197","0.0-1.0-778.0","0","0","33390","","null","","","null","86","","NaN","","","","","","","","","","","","","",""
"","response","","html-keyboard-response","570","997525","0.0-1.0-779.0","0","0","33390","","326","","","68","86","","","3","86","training","adjacent","FE","6","5","P.jpg","O.jpg","1","0","0","",""
"","feedback","","html-keyboard-response","571","998528","0.0-1.0-780.0-0.0","0","0","33390","","null","","","null","86","","","","","","","","","","","","","","","",""
"","time_out","","html-keyboard-response","572","1000531","0.0-1.0-782.0-0.0","0","0","33390","","null","","","null","86","","","","","","","","","","","","","","","",""
"","ITI","","html-keyboard-response","573","1001536","0.0-1.0-783.0","0","0","33390","","202","","","68","86","","","","","","","","","","","","","","","d",""
"","S1","","html-keyboard-response","574","1001789","0.0-1.0-785.0","0","0","33390","","null","","","null","87","","","","","","","","","","","","","","","",""
"","ISI","","html-keyboard-response","575","1003792","0.0-1.0-786.0","0","0","33390","","132","","","68","87","d","","","","","","","","","","","","","","",""
"","S2","","html-keyboard-response","576","1004047","0.0-1.0-787.0","0","0","33390","","null","","","null","87","","NaN","","","","","","","","","","","","","",""
"","response","","html-keyboard-response","577","1005056","0.0-1.0-788.0","0","0","33390","","1006","","","68","87","","","3","87","training","adjacent","BA","2","1","Q.jpg","L.jpg","1","0","0","",""
"","feedback","","html-keyboard-response","578","1006059","0.0-1.0-789.0-0.0","0","0","33390","","null","","","null","87","","","","","","","","","","","","","","","",""
"","time_out","","html-keyboard-response","579","1008063","0.0-1.0-791.0-0.0","0","0","33390","","null","","","null","87","","","","","","","","","","","","","","","",""
"","ITI","","html-keyboard-response","580","1009066","0.0-1.0-792.0","0","0","33390","","null","","","null","87","","","","","","","","","","","","","","","NaN",""
"","S1","","html-keyboard-response","581","1009318","0.0-1.0-794.0","0","0","33390","","null","","","null","88","","","","","","","","","","","","","","","",""
"","ISI","","html-keyboard-response","582","1011321","0.0-1.0-795.0","0","0","33390","","null","","","null","88","NaN","","","","","","","","","","","","","","",""
"","S2","","html-keyboard-response","583","1011573","0.0-1.0-796.0","0","0","33390","","null","","","null","88","","NaN","","","","","","","","","","","","","",""
"","response","","html-keyboard-response","584","1012165","0.0-1.0-797.0","0","0","33390","","590","","","75","88","","","3","88","training","adjacent","BC","2","3","Q.jpg","R.jpg","0","1","0","",""
"","feedback","","html-keyboard-response","585","1013168","0.0-1.0-798.0-0.0","0","0","33390","","null","","","null","88","","","","","","","","","","","","","","","",""
"","time_out","","html-keyboard-response","586","1015175","0.0-1.0-800.0-0.0","0","0","33390","","null","","","null","88","","","","","","","","","","","","","","","",""
"","ITI","","html-keyboard-response","587","1016178","0.0-1.0-801.0","0","0","33390","","228","","","75","88","","","","","","","","","","","","","","","k",""
"","S1","","html-keyboard-response","588","1016431","0.0-1.0-803.0","0","0","33390","","null","","","null","89","","","","","","","","","","","","","","","",""
"","ISI","","html-keyboard-response","589","1018433","0.0-1.0-804.0","0","0","33390","","192","","","75","89","k","","","","","","","","","","","","","","",""
