"success","ttype","start_time","trial_type","trial_index","time_elapsed","internal_node_id","warning","missed_checkup","PID","view_history","rt","responses","repeat_instructions","key_press","index","keypress_isi","keypress_S2","block","trial_num","phase","group_type","pair_type","S1_stim","S2_stim","S1_img","S2_img","S1_chosen","S1_higher","accuracy","keypress_iti","total_bonus_tally"
"true","full_screen","d08012022hr1522","fullscreen","0","61514","0.0-0.0","0","0","53970","","","","","","","","","","","","","","","","","","","","","",""
"","instructions","","instructions","1","148840","0.0-1.0-0.0-0.0","0","0","53970","[{""page_index"":0,""viewing_time"":4450},{""page_index"":1,""viewing_time"":46840},{""page_index"":2,""viewing_time"":30208},{""page_index"":3,""viewing_time"":5824}]","87322","","","","","","","","","","","","","","","","","","","",""
"","comprehension_check","","survey-multi-choice","2","195328","0.0-1.0-0.0-1.0","0","0","53970","","46484","{""Q0"":""True"",""Q1"":""D"",""Q2"":""While the images are shown"",""Q3"":""Green mark"",""Q4"":""either D or K""}","1","","","","","","","","","","","","","","","","","",""
"","missed_instruction_checkup","","html-keyboard-response","3","199995","0.0-1.0-0.0-2.0-0.0","0","1","53970","","4663","","","32","","","","","","","","","","","","","","","","",""
"","instructions","","instructions","4","222976","0.0-1.0-0.1-0.1","0","0","53970","[{""page_index"":0,""viewing_time"":8312},{""page_index"":1,""viewing_time"":10592},{""page_index"":2,""viewing_time"":2792},{""page_index"":3,""viewing_time"":1280}]","22976","","","","","","","","","","","","","","","","","","","",""
"","comprehension_check","","survey-multi-choice","5","232488","0.0-1.0-0.1-1.1","0","0","53970","","9504","{""Q0"":""True"",""Q1"":""D"",""Q2"":""When you see the prompt 'MAKE A CHOICE' after the second image was presented"",""Q3"":""Green mark"",""Q4"":""either D or K""}","0","","","","","","","","","","","","","","","","","",""
"","start_exp","","html-keyboard-response","6","237109","0.0-1.0-1.0","0","0","53970","","4617","","","32","","","","","","","","","","","","","","","","",""
"","S1","","html-keyboard-response","7","237366","0.0-1.0-2.0","0","0","53970","","null","","","null","0","","","","","","","","","","","","","","","",""
"","ISI","","html-keyboard-response","8","239371","0.0-1.0-3.0","0","0","53970","","null","","","null","0","NaN","","","","","","","","","","","","","","",""
"","S2","","html-keyboard-response","9","239625","0.0-1.0-4.0","0","0","53970","","null","","","null","0","","NaN","","","","","","","","","","","","","",""
"","response","","html-keyboard-response","10","240267","0.0-1.0-5.0","0","0","53970","","638","","","75","0","","","1","0","training","adjacent","EF","5","6","M.jpg","O.jpg","0","1","0","",""
"","feedback","","html-keyboard-response","11","241273","0.0-1.0-6.0-0.0","0","0","53970","","null","","","null","0","","","","","","","","","","","","","","","",""
"","time_out","","html-keyboard-response","12","243277","0.0-1.0-8.0-0.0","0","0","53970","","null","","","null","0","","","","","","","","","","","","","","","",""
"","ITI","","html-keyboard-response","13","244281","0.0-1.0-9.0","0","0","53970","","null","","","null","0","","","","","","","","","","","","","","","NaN",""
"","S1","","html-keyboard-response","14","244536","0.0-1.0-11.0","0","0","53970","","null","","","null","1","","","","","","","","","","","","","","","",""
"","ISI","","html-keyboard-response","15","246540","0.0-1.0-12.0","0","0","53970","","null","","","null","1","NaN","","","","","","","","","","","","","","",""
"","S2","","html-keyboard-response","16","246795","0.0-1.0-13.0","0","0","53970","","null","","","null","1","","NaN","","","","","","","","","","","","","",""
"","response","","html-keyboard-response","17","247011","0.0-1.0-14.0","0","0","53970","","213","","","68","1","","","1","1","training","adjacent","BC","2","3","Q.jpg","L.jpg","1","1","1","",""
"","feedback","","html-keyboard-response","18","248017","0.0-1.0-15.0-0.0","0","0","53970","","null","","","null","1","","","","","","","","","","","","","","","",""
"","ITI","","html-keyboard-response","19","249021","0.0-1.0-18.0","0","0","53970","","null","","","null","1","","","","","","","","","","","","","","","NaN",""
"","S1","","html-keyboard-response","20","249275","0.0-1.0-20.0","0","0","53970","","null","","","null","2","","","","","","","","","","","","","","","",""
"","ISI","","html-keyboard-response","21","251279","0.0-1.0-21.0","0","0","53970","","null","","","null","2","NaN","","","","","","","","","","","","","","",""
"","S2","","html-keyboard-response","22","251533","0.0-1.0-22.0","0","0","53970","","null","","","null","2","","NaN","","","","","","","","","","","","","",""
"","response","","html-keyboard-response","23","252844","0.0-1.0-23.0","0","0","53970","","1307","","","68","2","","","1","2","training","adjacent","ED","5","4","M.jpg","N.jpg","1","0","0","",""
"","feedback","","html-keyboard-response","24","253849","0.0-1.0-24.0-0.0","0","0","53970","","null","","","null","2","","","","","","","","","","","","","","","",""
"","time_out","","html-keyboard-response","25","255854","0.0-1.0-26.0-0.0","0","0","53970","","null","","","null","2","","","","","","","","","","","","","","","",""
"","ITI","","html-keyboard-response","26","256860","0.0-1.0-27.0","0","0","53970","","null","","","null","2","","","","","","","","","","","","","","","NaN",""
"","S1","","html-keyboard-response","27","257123","0.0-1.0-29.0","0","0","53970","","null","","","null","3","","","","","","","","","","","","","","","",""
"","ISI","","html-keyboard-response","28","259127","0.0-1.0-30.0","0","0","53970","","null","","","null","3","NaN","","","","","","","","","","","","","","",""
"","S2","","html-keyboard-response","29","259381","0.0-1.0-31.0","0","0","53970","","null","","","null","3","","NaN","","","","","","","","","","","","","",""
"","response","","html-keyboard-response","30","259957","0.0-1.0-32.0","0","0","53970","","572","","","75","3","","","1","3","training","adjacent","DC","4","3","N.jpg","L.jpg","0","0","1","",""
"","feedback","","html-keyboard-response","31","260961","0.0-1.0-33.0-0.0","0","0","53970","","null","","","null","3","","","","","","","","","","","","","","","",""
"","ITI","","html-keyboard-response","32","261965","0.0-1.0-36.0","0","0","53970","","null","","","null","3","","","","","","","","","","","","","","","NaN",""
"","S1","","html-keyboard-response","33","262221","0.0-1.0-38.0","0","0","53970","","null","","","null","4","","","","","","","","","","","","","","","",""
"","ISI","","html-keyboard-response","34","264225","0.0-1.0-39.0","0","0","53970","","null","","","null","4","NaN","","","","","","","","","","","","","","",""
"","S2","","html-keyboard-response","35","264479","0.0-1.0-40.0","0","0","53970","","null","","","null","4","","NaN","","","","","","","","","","","","","",""
"","response","","html-keyboard-response","36","264878","0.0-1.0-41.0","0","0","53970","","396","","","75","4","","","1","4","training","adjacent","ED","5","4","M.jpg","N.jpg","0","0","1","",""
"","feedback","","html-keyboard-response","37","265883","0.0-1.0-42.0-0.0","0","0","53970","","null","","","null","4","","","","","","","","","","","","","","","",""
"","ITI","","html-keyboard-response","38","266888","0.0-1.0-45.0","0","0","53970","","null","","","null","4","","","","","","","","","","","","","","","NaN",""
"","S1","","html-keyboard-response","39","267142","0.0-1.0-47.0","0","0","53970","","null","","","null","5","","","","","","","","","","","","","","","",""
"","ISI","","html-keyboard-response","40","269146","0.0-1.0-48.0","0","0","53970","","null","","","null","5","NaN","","","","","","","","","","","","","","",""
"","S2","","html-keyboard-response","41","269401","0.0-1.0-49.0","0","0","53970","","null","","","null","5","","NaN","","","","","","","","","","","","","",""
"","response","","html-keyboard-response","42","270013","0.0-1.0-50.0","0","0","53970","","610","","","68","5","","","1","5","training","adjacent","GF","7","6","P.jpg","O.jpg","1","0","0","",""
"","feedback","","html-keyboard-response","43","271018","0.0-1.0-51.0-0.0","0","0","53970","","null","","","null","5","","","","","","","","","","","","","","","",""
"","time_out","","html-keyboard-response","44","273022","0.0-1.0-53.0-0.0","0","0","53970","","null","","","null","5","","","","","","","","","","","","","","","",""
"","ITI","","html-keyboard-response","45","274026","0.0-1.0-54.0","0","0","53970","","null","","","null","5","","","","","","","","","","","","","","","NaN",""
"","S1","","html-keyboard-response","46","274281","0.0-1.0-56.0","0","0","53970","","null","","","null","6","","","","","","","","","","","","","","","",""
"","ISI","","html-keyboard-response","47","276285","0.0-1.0-57.0","0","0","53970","","null","","","null","6","NaN","","","","","","","","","","","","","","",""
"","S2","","html-keyboard-response","48","276539","0.0-1.0-58.0","0","0","53970","","null","","","null","6","","NaN","","","","","","","","","","","","","",""
"","response","","html-keyboard-response","49","277033","0.0-1.0-59.0","0","0","53970","","489","","","75","6","","","1","6","training","adjacent","DC","4","3","N.jpg","L.jpg","0","0","1","",""
"","feedback","","html-keyboard-response","50","278037","0.0-1.0-60.0-0.0","0","0","53970","","null","","","null","6","","","","","","","","","","","","","","","",""
"","ITI","","html-keyboard-response","51","279042","0.0-1.0-63.0","0","0","53970","","null","","","null","6","","","","","","","","","","","","","","","NaN",""
"","S1","","html-keyboard-response","52","279296","0.0-1.0-65.0","0","0","53970","","null","","","null","7","","","","","","","","","","","","","","","",""
"","ISI","","html-keyboard-response","53","281301","0.0-1.0-66.0","0","0","53970","","null","","","null","7","NaN","","","","","","","","","","","","","","",""
"","S2","","html-keyboard-response","54","281555","0.0-1.0-67.0","0","0","53970","","null","","","null","7","","NaN","","","","","","","","","","","","","",""
"","response","","html-keyboard-response","55","282043","0.0-1.0-68.0","0","0","53970","","484","","","75","7","","","1","7","training","adjacent","DC","4","3","N.jpg","L.jpg","0","0","1","",""
"","feedback","","html-keyboard-response","56","283048","0.0-1.0-69.0-0.0","0","0","53970","","null","","","null","7","","","","","","","","","","","","","","","",""
"","ITI","","html-keyboard-response","57","284052","0.0-1.0-72.0","0","0","53970","","null","","","null","7","","","","","","","","","","","","","","","NaN",""
"","S1","","html-keyboard-response","58","284306","0.0-1.0-74.0","0","0","53970","","null","","","null","8","","","","","","","","","","","","","","","",""
"","ISI","","html-keyboard-response","59","286310","0.0-1.0-75.0","0","0","53970","","null","","","null","8","NaN","","","","","","","","","","","","","","",""
"","S2","","html-keyboard-response","60","286565","0.0-1.0-76.0","0","0","53970","","null","","","null","8","","NaN","","","","","","","","","","","","","",""
"","response","","html-keyboard-response","61","286958","0.0-1.0-77.0","0","0","53970","","390","","","75","8","","","1","8","training","adjacent","DC","4","3","N.jpg","L.jpg","0","0","1","",""
"","feedback","","html-keyboard-response","62","287964","0.0-1.0-78.0-0.0","0","0","53970","","null","","","null","8","","","","","","","","","","","","","","","",""
"","ITI","","html-keyboard-response","63","288969","0.0-1.0-81.0","0","0","53970","","null","","","null","8","","","","","","","","","","","","","","","NaN",""
"","S1","","html-keyboard-response","64","289224","0.0-1.0-83.0","0","0","53970","","null","","","null","9","","","","","","","","","","","","","","","",""
"","ISI","","html-keyboard-response","65","291229","0.0-1.0-84.0","0","0","53970","","null","","","null","9","NaN","","","","","","","","","","","","","","",""
"","S2","","html-keyboard-response","66","291487","0.0-1.0-85.0","0","0","53970","","null","","","null","9","","NaN","","","","","","","","","","","","","",""
"","response","","html-keyboard-response","67","291868","0.0-1.0-86.0","0","0","53970","","377","","","68","9","","","1","9","training","adjacent","AB","1","2","R.jpg","Q.jpg","1","1","1","",""
"","feedback","","html-keyboard-response","68","292873","0.0-1.0-87.0-0.0","0","0","53970","","null","","","null","9","","","","","","","","","","","","","","","",""
"","ITI","","html-keyboard-response","69","293877","0.0-1.0-90.0","0","0","53970","","null","","","null","9","","","","","","","","","","","","","","","NaN",""
"","S1","","html-keyboard-response","70","294132","0.0-1.0-92.0","0","0","53970","","null","","","null","10","","","","","","","","","","","","","","","",""
"","ISI","","html-keyboard-response","71","296136","0.0-1.0-93.0","0","0","53970","","null","","","null","10","NaN","","","","","","","","","","","","","","",""
"","S2","","html-keyboard-response","72","296390","0.0-1.0-94.0","0","0","53970","","null","","","null","10","","NaN","","","","","","","","","","","","","",""
"","response","","html-keyboard-response","73","296943","0.0-1.0-95.0","0","0","53970","","550","","","68","10","","","1","10","training","adjacent","CD","3","4","L.jpg","N.jpg","1","1","1","",""
"","feedback","","html-keyboard-response","74","297949","0.0-1.0-96.0-0.0","0","0","53970","","null","","","null","10","","","","","","","","","","","","","","","",""
"","ITI","","html-keyboard-response","75","298952","0.0-1.0-99.0","0","0","53970","","null","","","null","10","","","","","","","","","","","","","","","NaN",""
"","S1","","html-keyboard-response","76","299206","0.0-1.0-101.0","0","0","53970","","null","","","null","11","","","","","","","","","","","","","","","",""
"","ISI","","html-keyboard-response","77","301210","0.0-1.0-102.0","0","0","53970","","null","","","null","11","NaN","","","","","","","","","","","","","","",""
"","S2","","html-keyboard-response","78","301468","0.0-1.0-103.0","0","0","53970","","null","","","null","11","","NaN","","","","","","","","","","","","","",""
"","response","","html-keyboard-response","79","301977","0.0-1.0-104.0","0","0","53970","","505","","","68","11","","","1","11","training","adjacent","GF","7","6","P.jpg","O.jpg","1","0","0","",""
"","feedback","","html-keyboard-response","80","302981","0.0-1.0-105.0-0.0","0","0","53970","","null","","","null","11","","","","","","","","","","","","","","","",""
"","time_out","","html-keyboard-response","81","304986","0.0-1.0-107.0-0.0","0","0","53970","","null","","","null","11","","","","","","","","","","","","","","","",""
"","ITI","","html-keyboard-response","82","305989","0.0-1.0-108.0","0","0","53970","","null","","","null","11","","","","","","","","","","","","","","","NaN",""
"","S1","","html-keyboard-response","83","306244","0.0-1.0-110.0","0","0","53970","","null","","","null","12","","","","","","","","","","","","","","","",""
"","ISI","","html-keyboard-response","84","308248","0.0-1.0-111.0","0","0","53970","","null","","","null","12","NaN","","","","","","","","","","","","","","",""
"","S2","","html-keyboard-response","85","308502","0.0-1.0-112.0","0","0","53970","","null","","","null","12","","NaN","","","","","","","","","","","","","",""
"","response","","html-keyboard-response","86","309271","0.0-1.0-113.0","0","0","53970","","766","","","68","12","","","1","12","training","adjacent","FE","6","5","O.jpg","M.jpg","1","0","0","",""
"","feedback","","html-keyboard-response","87","310276","0.0-1.0-114.0-0.0","0","0","53970","","null","","","null","12","","","","","","","","","","","","","","","",""
"","time_out","","html-keyboard-response","88","312280","0.0-1.0-116.0-0.0","0","0","53970","","null","","","null","12","","","","","","","","","","","","","","","",""
"","ITI","","html-keyboard-response","89","313284","0.0-1.0-117.0","0","0","53970","","null","","","null","12","","","","","","","","","","","","","","","NaN",""
"","S1","","html-keyboard-response","90","313539","0.0-1.0-119.0","0","0","53970","","null","","","null","13","","","","","","","","","","","","","","","",""
"","ISI","","html-keyboard-response","91","315544","0.0-1.0-120.0","0","0","53970","","null","","","null","13","NaN","","","","","","","","","","","","","","",""
"","S2","","html-keyboard-response","92","315798","0.0-1.0-121.0","0","0","53970","","null","","","null","13","","NaN","","","","","","","","","","","","","",""
"","response","","html-keyboard-response","93","316398","0.0-1.0-122.0","0","0","53970","","597","","","75","13","","","1","13","training","adjacent","GF","7","6","P.jpg","O.jpg","0","0","1","",""
"","feedback","","html-keyboard-response","94","317402","0.0-1.0-123.0-0.0","0","0","53970","","null","","","null","13","","","","","","","","","","","","","","","",""
"","ITI","","html-keyboard-response","95","318406","0.0-1.0-126.0","0","0","53970","","null","","","null","13","","","","","","","","","","","","","","","NaN",""
"","S1","","html-keyboard-response","96","318674","0.0-1.0-128.0","0","0","53970","","null","","","null","14","","","","","","","","","","","","","","","",""
"","ISI","","html-keyboard-response","97","320678","0.0-1.0-129.0","0","0","53970","","null","","","null","14","NaN","","","","","","","","","","","","","","",""
"","S2","","html-keyboard-response","98","320932","0.0-1.0-130.0","0","0","53970","","null","","","null","14","","NaN","","","","","","","","","","","","","",""
"","response","","html-keyboard-response","99","321453","0.0-1.0-131.0","0","0","53970","","518","","","68","14","","","1","14","training","adjacent","BA","2","1","Q.jpg","R.jpg","1","0","0","",""
"","feedback","","html-keyboard-response","100","322457","0.0-1.0-132.0-0.0","0","0","53970","","null","","","null","14","","","","","","","","","","","","","","","",""
"","time_out","","html-keyboard-response","101","324461","0.0-1.0-134.0-0.0","0","0","53970","","null","","","null","14","","","","","","","","","","","","","","","",""
"","ITI","","html-keyboard-response","102","325464","0.0-1.0-135.0","0","0","53970","","null","","","null","14","","","","","","","","","","","","","","","NaN",""
"","S1","","html-keyboard-response","103","325719","0.0-1.0-137.0","0","0","53970","","null","","","null","15","","","","","","","","","","","","","","","",""
"","ISI","","html-keyboard-response","104","327722","0.0-1.0-138.0","0","0","53970","","null","","","null","15","NaN","","","","","","","","","","","","","","",""
"","S2","","html-keyboard-response","105","327976","0.0-1.0-139.0","0","0","53970","","null","","","null","15","","NaN","","","","","","","","","","","","","",""
"","response","","html-keyboard-response","106","328524","0.0-1.0-140.0","0","0","53970","","545","","","75","15","","","1","15","training","adjacent","BA","2","1","Q.jpg","R.jpg","0","0","1","",""
"","feedback","","html-keyboard-response","107","329536","0.0-1.0-141.0-0.0","0","0","53970","","null","","","null","15","","","","","","","","","","","","","","","",""
"","ITI","","html-keyboard-response","108","330540","0.0-1.0-144.0","0","0","53970","","null","","","null","15","","","","","","","","","","","","","","","NaN",""
"","S1","","html-keyboard-response","109","330794","0.0-1.0-146.0","0","0","53970","","null","","","null","16","","","","","","","","","","","","","","","",""
"","ISI","","html-keyboard-response","110","332797","0.0-1.0-147.0","0","0","53970","","null","","","null","16","NaN","","","","","","","","","","","","","","",""
"","S2","","html-keyboard-response","111","333051","0.0-1.0-148.0","0","0","53970","","null","","","null","16","","NaN","","","","","","","","","","","","","",""
"","response","","html-keyboard-response","112","333619","0.0-1.0-149.0","0","0","53970","","564","","","68","16","","","1","16","training","adjacent","CB","3","2","L.jpg","Q.jpg","1","0","0","",""
"","feedback","","html-keyboard-response","113","334623","0.0-1.0-150.0-0.0","0","0","53970","","null","","","null","16","","","","","","","","","","","","","","","",""
"","time_out","","html-keyboard-response","114","336626","0.0-1.0-152.0-0.0","0","0","53970","","null","","","null","16","","","","","","","","","","","","","","","",""
"","ITI","","html-keyboard-response","115","337630","0.0-1.0-153.0","0","0","53970","","null","","","null","16","","","","","","","","","","","","","","","NaN",""
"","S1","","html-keyboard-response","116","337884","0.0-1.0-155.0","0","0","53970","","null","","","null","17","","","","","","","","","","","","","","","",""
"","ISI","","html-keyboard-response","117","339888","0.0-1.0-156.0","0","0","53970","","null","","","null","17","NaN","","","","","","","","","","","","","","",""
"","S2","","html-keyboard-response","118","340143","0.0-1.0-157.0","0","0","53970","","null","","","null","17","","NaN","","","","","","","","","","","","","",""
"","response","","html-keyboard-response","119","340694","0.0-1.0-158.0","0","0","53970","","547","","","75","17","","","1","17","training","adjacent","ED","5","4","M.jpg","N.jpg","0","0","1","",""
"","feedback","","html-keyboard-response","120","341699","0.0-1.0-159.0-0.0","0","0","53970","","null","","","null","17","","","","","","","","","","","","","","","",""
"","ITI","","html-keyboard-response","121","342702","0.0-1.0-162.0","0","0","53970","","null","","","null","17","","","","","","","","","","","","","","","NaN",""
"","S1","","html-keyboard-response","122","342956","0.0-1.0-164.0","0","0","53970","","null","","","null","18","","","","","","","","","","","","","","","",""
"","ISI","","html-keyboard-response","123","344959","0.0-1.0-165.0","0","0","53970","","null","","","null","18","NaN","","","","","","","","","","","","","","",""
"","S2","","html-keyboard-response","124","345213","0.0-1.0-166.0","0","0","53970","","null","","","null","18","","NaN","","","","","","","","","","","","","",""
"","response","","html-keyboard-response","125","346220","0.0-1.0-167.0","0","0","53970","","1004","","","75","18","","","1","18","training","adjacent","AB","1","2","R.jpg","Q.jpg","0","1","0","",""
"","feedback","","html-keyboard-response","126","347224","0.0-1.0-168.0-0.0","0","0","53970","","null","","","null","18","","","","","","","","","","","","","","","",""
"","time_out","","html-keyboard-response","127","349228","0.0-1.0-170.0-0.0","0","0","53970","","null","","","null","18","","","","","","","","","","","","","","","",""
"","ITI","","html-keyboard-response","128","350231","0.0-1.0-171.0","0","0","53970","","null","","","null","18","","","","","","","","","","","","","","","NaN",""
"","S1","","html-keyboard-response","129","350485","0.0-1.0-173.0","0","0","53970","","null","","","null","19","","","","","","","","","","","","","","","",""
"","ISI","","html-keyboard-response","130","352489","0.0-1.0-174.0","0","0","53970","","null","","","null","19","NaN","","","","","","","","","","","","","","",""
"","S2","","html-keyboard-response","131","352755","0.0-1.0-175.0","0","0","53970","","null","","","null","19","","NaN","","","","","","","","","","","","","",""
"","response","","html-keyboard-response","132","353373","0.0-1.0-176.0","0","0","53970","","614","","","68","19","","","1","19","training","adjacent","CD","3","4","L.jpg","N.jpg","1","1","1","",""
"","feedback","","html-keyboard-response","133","354377","0.0-1.0-177.0-0.0","0","0","53970","","null","","","null","19","","","","","","","","","","","","","","","",""
"","ITI","","html-keyboard-response","134","355380","0.0-1.0-180.0","0","0","53970","","null","","","null","19","","","","","","","","","","","","","","","NaN",""
"","S1","","html-keyboard-response","135","355634","0.0-1.0-182.0","0","0","53970","","null","","","null","20","","","","","","","","","","","","","","","",""
"","ISI","","html-keyboard-response","136","357638","0.0-1.0-183.0","0","0","53970","","null","","","null","20","NaN","","","","","","","","","","","","","","",""
"","S2","","html-keyboard-response","137","357893","0.0-1.0-184.0","0","0","53970","","null","","","null","20","","NaN","","","","","","","","","","","","","",""
"","response","","html-keyboard-response","138","358553","0.0-1.0-185.0","0","0","53970","","657","","","68","20","","","1","20","training","adjacent","FE","6","5","O.jpg","M.jpg","1","0","0","",""
"","feedback","","html-keyboard-response","139","359557","0.0-1.0-186.0-0.0","0","0","53970","","null","","","null","20","","","","","","","","","","","","","","","",""
"","time_out","","html-keyboard-response","140","361560","0.0-1.0-188.0-0.0","0","0","53970","","null","","","null","20","","","","","","","","","","","","","","","",""
"","ITI","","html-keyboard-response","141","362565","0.0-1.0-189.0","0","0","53970","","null","","","null","20","","","","","","","","","","","","","","","NaN",""
"","S1","","html-keyboard-response","142","362818","0.0-1.0-191.0","0","0","53970","","null","","","null","21","","","","","","","","","","","","","","","",""
"","ISI","","html-keyboard-response","143","364822","0.0-1.0-192.0","0","0","53970","","null","","","null","21","NaN","","","","","","","","","","","","","","",""
"","S2","","html-keyboard-response","144","365076","0.0-1.0-193.0","0","0","53970","","null","","","null","21","","NaN","","","","","","","","","","","","","",""
"","response","","html-keyboard-response","145","365463","0.0-1.0-194.0","0","0","53970","","383","","","75","21","","","1","21","training","adjacent","CB","3","2","L.jpg","Q.jpg","0","0","1","",""
"","feedback","","html-keyboard-response","146","366468","0.0-1.0-195.0-0.0","0","0","53970","","null","","","null","21","","","","","","","","","","","","","","","",""
"","ITI","","html-keyboard-response","147","367471","0.0-1.0-198.0","0","0","53970","","null","","","null","21","","","","","","","","","","","","","","","NaN",""
"","S1","","html-keyboard-response","148","367725","0.0-1.0-200.0","0","0","53970","","null","","","null","22","","","","","","","","","","","","","","","",""
"","ISI","","html-keyboard-response","149","369729","0.0-1.0-201.0","0","0","53970","","null","","","null","22","NaN","","","","","","","","","","","","","","",""
"","S2","","html-keyboard-response","150","369987","0.0-1.0-202.0","0","0","53970","","null","","","null","22","","NaN","","","","","","","","","","","","","",""
"","response","","html-keyboard-response","151","370643","0.0-1.0-203.0","0","0","53970","","652","","","75","22","","","1","22","training","adjacent","DE","4","5","N.jpg","M.jpg","0","1","0","",""
"","feedback","","html-keyboard-response","152","371647","0.0-1.0-204.0-0.0","0","0","53970","","null","","","null","22","","","","","","","","","","","","","","","",""
"","time_out","","html-keyboard-response","153","373650","0.0-1.0-206.0-0.0","0","0","53970","","null","","","null","22","","","","","","","","","","","","","","","",""
"","ITI","","html-keyboard-response","154","374654","0.0-1.0-207.0","0","0","53970","","null","","","null","22","","","","","","","","","","","","","","","NaN",""
"","S1","","html-keyboard-response","155","374908","0.0-1.0-209.0","0","0","53970","","null","","","null","23","","","","","","","","","","","","","","","",""
"","ISI","","html-keyboard-response","156","376910","0.0-1.0-210.0","0","0","53970","","483","","","68","23","d","","","","","","","","","","","","","","",""
"","S2","","html-keyboard-response","157","377166","0.0-1.0-211.0","0","0","53970","","null","","","null","23","","NaN","","","","","","","","","","","","","",""
"","response","","html-keyboard-response","158","377827","0.0-1.0-212.0","0","0","53970","","657","","","68","23","","","1","23","training","adjacent","CD","3","4","L.jpg","N.jpg","1","1","1","",""
"","feedback","","html-keyboard-response","159","378832","0.0-1.0-213.0-0.0","0","0","53970","","null","","","null","23","","","","","","","","","","","","","","","",""
"","ITI","","html-keyboard-response","160","379836","0.0-1.0-216.0","0","0","53970","","null","","","null","23","","","","","","","","","","","","","","","NaN",""
"","S1","","html-keyboard-response","161","380090","0.0-1.0-218.0","0","0","53970","","null","","","null","24","","","","","","","","","","","","","","","",""
"","ISI","","html-keyboard-response","162","382093","0.0-1.0-219.0","0","0","53970","","null","","","null","24","NaN","","","","","","","","","","","","","","",""
"","S2","","html-keyboard-response","163","382348","0.0-1.0-220.0","0","0","53970","","null","","","null","24","","NaN","","","","","","","","","","","","","",""
"","response","","html-keyboard-response","164","383458","0.0-1.0-221.0","0","0","53970","","1106","","","68","24","","","1","24","training","adjacent","BA","2","1","Q.jpg","R.jpg","1","0","0","",""
"","feedback","","html-keyboard-response","165","384477","0.0-1.0-222.0-0.0","0","0","53970","","null","","","null","24","","","","","","","","","","","","","","","",""
"","time_out","","html-keyboard-response","166","386482","0.0-1.0-224.0-0.0","0","0","53970","","null","","","null","24","","","","","","","","","","","","","","","",""
"","ITI","","html-keyboard-response","167","387485","0.0-1.0-225.0","0","0","53970","","null","","","null","24","","","","","","","","","","","","","","","NaN",""
"","S1","","html-keyboard-response","168","387739","0.0-1.0-227.0","0","0","53970","","null","","","null","25","","","","","","","","","","","","","","","",""
"","ISI","","html-keyboard-response","169","389743","0.0-1.0-228.0","0","0","53970","","null","","","null","25","NaN","","","","","","","","","","","","","","",""
"","S2","","html-keyboard-response","170","389997","0.0-1.0-229.0","0","0","53970","","null","","","null","25","","NaN","","","","","","","","","","","","","",""
"","response","","html-keyboard-response","171","390476","0.0-1.0-230.0","0","0","53970","","475","","","68","25","","","1","25","training","adjacent","FG","6","7","O.jpg","P.jpg","1","1","1","",""
"","feedback","","html-keyboard-response","172","391480","0.0-1.0-231.0-0.0","0","0","53970","","null","","","null","25","","","","","","","","","","","","","","","",""
"","ITI","","html-keyboard-response","173","392484","0.0-1.0-234.0","0","0","53970","","null","","","null","25","","","","","","","","","","","","","","","NaN",""
"","S1","","html-keyboard-response","174","392738","0.0-1.0-236.0","0","0","53970","","null","","","null","26","","","","","","","","","","","","","","","",""
"","ISI","","html-keyboard-response","175","394742","0.0-1.0-237.0","0","0","53970","","null","","","null","26","NaN","","","","","","","","","","","","","","",""
"","S2","","html-keyboard-response","176","394996","0.0-1.0-238.0","0","0","53970","","null","","","null","26","","NaN","","","","","","","","","","","","","",""
"","response","","html-keyboard-response","177","395312","0.0-1.0-239.0","0","0","53970","","312","","","75","26","","","1","26","training","adjacent","CB","3","2","L.jpg","Q.jpg","0","0","1","",""
"","feedback","","html-keyboard-response","178","396316","0.0-1.0-240.0-0.0","0","0","53970","","null","","","null","26","","","","","","","","","","","","","","","",""
"","ITI","","html-keyboard-response","179","397320","0.0-1.0-243.0","0","0","53970","","null","","","null","26","","","","","","","","","","","","","","","NaN",""
"","S1","","html-keyboard-response","180","397574","0.0-1.0-245.0","0","0","53970","","null","","","null","27","","","","","","","","","","","","","","","",""
"","ISI","","html-keyboard-response","181","399578","0.0-1.0-246.0","0","0","53970","","null","","","null","27","NaN","","","","","","","","","","","","","","",""
"","S2","","html-keyboard-response","182","399832","0.0-1.0-247.0","0","0","53970","","null","","","null","27","","NaN","","","","","","","","","","","","","",""
"","response","","html-keyboard-response","183","400259","0.0-1.0-248.0","0","0","53970","","423","","","68","27","","","1","27","training","adjacent","FE","6","5","O.jpg","M.jpg","1","0","0","",""
"","feedback","","html-keyboard-response","184","401265","0.0-1.0-249.0-0.0","0","0","53970","","null","","","null","27","","","","","","","","","","","","","","","",""
"","time_out","","html-keyboard-response","185","403268","0.0-1.0-251.0-0.0","0","0","53970","","null","","","null","27","","","","","","","","","","","","","","","",""
"","ITI","","html-keyboard-response","186","404272","0.0-1.0-252.0","0","0","53970","","null","","","null","27","","","","","","","","","","","","","","","NaN",""
"","S1","","html-keyboard-response","187","404526","0.0-1.0-254.0","0","0","53970","","null","","","null","28","","","","","","","","","","","","","","","",""
"","ISI","","html-keyboard-response","188","406529","0.0-1.0-255.0","0","0","53970","","null","","","null","28","NaN","","","","","","","","","","","","","","",""
"","S2","","html-keyboard-response","189","406797","0.0-1.0-256.0","0","0","53970","","null","","","null","28","","NaN","","","","","","","","","","","","","",""
"","response","","html-keyboard-response","190","407394","0.0-1.0-257.0","0","0","53970","","595","","","68","28","","","1","28","training","adjacent","FG","6","7","O.jpg","P.jpg","1","1","1","",""
"","feedback","","html-keyboard-response","191","408399","0.0-1.0-258.0-0.0","0","0","53970","","null","","","null","28","","","","","","","","","","","","","","","",""
"","ITI","","html-keyboard-response","192","409403","0.0-1.0-261.0","0","0","53970","","null","","","null","28","","","","","","","","","","","","","","","NaN",""
"","S1","","html-keyboard-response","193","409657","0.0-1.0-263.0","0","0","53970","","null","","","null","29","","","","","","","","","","","","","","","",""
"","ISI","","html-keyboard-response","194","411661","0.0-1.0-264.0","0","0","53970","","null","","","null","29","NaN","","","","","","","","","","","","","","",""
"","S2","","html-keyboard-response","195","411916","0.0-1.0-265.0","0","0","53970","","null","","","null","29","","NaN","","","","","","","","","","","","","",""
"","response","","html-keyboard-response","196","412603","0.0-1.0-266.0","0","0","53970","","683","","","68","29","","","1","29","training","adjacent","ED","5","4","M.jpg","N.jpg","1","0","0","",""
"","feedback","","html-keyboard-response","197","413606","0.0-1.0-267.0-0.0","0","0","53970","","null","","","null","29","","","","","","","","","","","","","","","",""
"","time_out","","html-keyboard-response","198","415610","0.0-1.0-269.0-0.0","0","0","53970","","null","","","null","29","","","","","","","","","","","","","","","",""
"","ITI","","html-keyboard-response","199","416614","0.0-1.0-270.0","0","0","53970","","null","","","null","29","","","","","","","","","","","","","","","NaN",""
"","S1","","html-keyboard-response","200","416868","0.0-1.0-272.0","0","0","53970","","null","","","null","30","","","","","","","","","","","","","","","",""
"","ISI","","html-keyboard-response","201","418872","0.0-1.0-273.0","0","0","53970","","null","","","null","30","NaN","","","","","","","","","","","","","","",""
"","S2","","html-keyboard-response","202","419126","0.0-1.0-274.0","0","0","53970","","null","","","null","30","","NaN","","","","","","","","","","","","","",""
"","response","","html-keyboard-response","203","419951","0.0-1.0-275.0","0","0","53970","","822","","","68","30","","","1","30","training","adjacent","DE","4","5","N.jpg","M.jpg","1","1","1","",""
"","feedback","","html-keyboard-response","204","420955","0.0-1.0-276.0-0.0","0","0","53970","","null","","","null","30","","","","","","","","","","","","","","","",""
"","ITI","","html-keyboard-response","205","421959","0.0-1.0-279.0","0","0","53970","","null","","","null","30","","","","","","","","","","","","","","","NaN",""
"","S1","","html-keyboard-response","206","422213","0.0-1.0-281.0","0","0","53970","","null","","","null","31","","","","","","","","","","","","","","","",""
"","ISI","","html-keyboard-response","207","424216","0.0-1.0-282.0","0","0","53970","","null","","","null","31","NaN","","","","","","","","","","","","","","",""
"","S2","","html-keyboard-response","208","424470","0.0-1.0-283.0","0","0","53970","","null","","","null","31","","NaN","","","","","","","","","","","","","",""
"","response","","html-keyboard-response","209","425176","0.0-1.0-284.0","0","0","53970","","702","","","75","31","","","1","31","training","adjacent","EF","5","6","M.jpg","O.jpg","0","1","0","",""
"","feedback","","html-keyboard-response","210","426180","0.0-1.0-285.0-0.0","0","0","53970","","null","","","null","31","","","","","","","","","","","","","","","",""
"","time_out","","html-keyboard-response","211","428183","0.0-1.0-287.0-0.0","0","0","53970","","null","","","null","31","","","","","","","","","","","","","","","",""
"","ITI","","html-keyboard-response","212","429187","0.0-1.0-288.0","0","0","53970","","null","","","null","31","","","","","","","","","","","","","","","NaN",""
"","S1","","html-keyboard-response","213","429441","0.0-1.0-290.0","0","0","53970","","null","","","null","32","","","","","","","","","","","","","","","",""
"","ISI","","html-keyboard-response","214","431445","0.0-1.0-291.0","0","0","53970","","null","","","null","32","NaN","","","","","","","","","","","","","","",""
"","S2","","html-keyboard-response","215","431700","0.0-1.0-292.0","0","0","53970","","null","","","null","32","","NaN","","","","","","","","","","","","","",""
"","response","","html-keyboard-response","216","433146","0.0-1.0-293.0","0","0","53970","","1443","","","68","32","","","1","32","training","adjacent","BC","2","3","Q.jpg","L.jpg","1","1","1","",""
"","feedback","","html-keyboard-response","217","434150","0.0-1.0-294.0-0.0","0","0","53970","","null","","","null","32","","","","","","","","","","","","","","","",""
"","ITI","","html-keyboard-response","218","435154","0.0-1.0-297.0","0","0","53970","","null","","","null","32","","","","","","","","","","","","","","","NaN",""
"","S1","","html-keyboard-response","219","435409","0.0-1.0-299.0","0","0","53970","","null","","","null","33","","","","","","","","","","","","","","","",""
"","ISI","","html-keyboard-response","220","437413","0.0-1.0-300.0","0","0","53970","","null","","","null","33","NaN","","","","","","","","","","","","","","",""
"","S2","","html-keyboard-response","221","437668","0.0-1.0-301.0","0","0","53970","","null","","","null","33","","NaN","","","","","","","","","","","","","",""
"","response","","html-keyboard-response","222","438184","0.0-1.0-302.0","0","0","53970","","512","","","75","33","","","1","33","training","adjacent","FG","6","7","O.jpg","P.jpg","0","1","0","",""
"","feedback","","html-keyboard-response","223","439188","0.0-1.0-303.0-0.0","0","0","53970","","null","","","null","33","","","","","","","","","","","","","","","",""
"","time_out","","html-keyboard-response","224","441192","0.0-1.0-305.0-0.0","0","0","53970","","null","","","null","33","","","","","","","","","","","","","","","",""
"","ITI","","html-keyboard-response","225","442196","0.0-1.0-306.0","0","0","53970","","null","","","null","33","","","","","","","","","","","","","","","NaN",""
"","S1","","html-keyboard-response","226","442450","0.0-1.0-308.0","0","0","53970","","null","","","null","34","","","","","","","","","","","","","","","",""
"","ISI","","html-keyboard-response","227","444453","0.0-1.0-309.0","0","0","53970","","null","","","null","34","NaN","","","","","","","","","","","","","","",""
"","S2","","html-keyboard-response","228","444706","0.0-1.0-310.0","0","0","53970","","null","","","null","34","","NaN","","","","","","","","","","","","","",""
"","response","","html-keyboard-response","229","445433","0.0-1.0-311.0","0","0","53970","","724","","","68","34","","","1","34","training","adjacent","DE","4","5","N.jpg","M.jpg","1","1","1","",""
"","feedback","","html-keyboard-response","230","446438","0.0-1.0-312.0-0.0","0","0","53970","","null","","","null","34","","","","","","","","","","","","","","","",""
"","ITI","","html-keyboard-response","231","447442","0.0-1.0-315.0","0","0","53970","","null","","","null","34","","","","","","","","","","","","","","","NaN",""
"","S1","","html-keyboard-response","232","447696","0.0-1.0-317.0","0","0","53970","","null","","","null","35","","","","","","","","","","","","","","","",""
"","ISI","","html-keyboard-response","233","449701","0.0-1.0-318.0","0","0","53970","","null","","","null","35","NaN","","","","","","","","","","","","","","",""
"","S2","","html-keyboard-response","234","449955","0.0-1.0-319.0","0","0","53970","","null","","","null","35","","NaN","","","","","","","","","","","","","",""
"","response","","html-keyboard-response","235","450360","0.0-1.0-320.0","0","0","53970","","400","","","75","35","","","1","35","training","adjacent","CD","3","4","L.jpg","N.jpg","0","1","0","",""
"","feedback","","html-keyboard-response","236","451365","0.0-1.0-321.0-0.0","0","0","53970","","null","","","null","35","","","","","","","","","","","","","","","",""
"","time_out","","html-keyboard-response","237","453368","0.0-1.0-323.0-0.0","0","0","53970","","null","","","null","35","","","","","","","","","","","","","","","",""
"","ITI","","html-keyboard-response","238","454372","0.0-1.0-324.0","0","0","53970","","null","","","null","35","","","","","","","","","","","","","","","NaN",""
"","S1","","html-keyboard-response","239","454627","0.0-1.0-326.0","0","0","53970","","null","","","null","36","","","","","","","","","","","","","","","",""
"","ISI","","html-keyboard-response","240","456630","0.0-1.0-327.0","0","0","53970","","null","","","null","36","NaN","","","","","","","","","","","","","","",""
"","S2","","html-keyboard-response","241","456885","0.0-1.0-328.0","0","0","53970","","null","","","null","36","","NaN","","","","","","","","","","","","","",""
"","response","","html-keyboard-response","242","457863","0.0-1.0-329.0","0","0","53970","","975","","","68","36","","","1","36","training","adjacent","BC","2","3","Q.jpg","L.jpg","1","1","1","",""
"","feedback","","html-keyboard-response","243","458870","0.0-1.0-330.0-0.0","0","0","53970","","null","","","null","36","","","","","","","","","","","","","","","",""
"","ITI","","html-keyboard-response","244","459873","0.0-1.0-333.0","0","0","53970","","null","","","null","36","","","","","","","","","","","","","","","NaN",""
"","S1","","html-keyboard-response","245","460128","0.0-1.0-335.0","0","0","53970","","null","","","null","37","","","","","","","","","","","","","","","",""
"","ISI","","html-keyboard-response","246","462131","0.0-1.0-336.0","0","0","53970","","null","","","null","37","NaN","","","","","","","","","","","","","","",""
"","S2","","html-keyboard-response","247","462386","0.0-1.0-337.0","0","0","53970","","null","","","null","37","","NaN","","","","","","","","","","","","","",""
"","response","","html-keyboard-response","248","463949","0.0-1.0-338.0","0","0","53970","","1559","","","75","37","","","1","37","training","adjacent","CB","3","2","L.jpg","Q.jpg","0","0","1","",""
"","feedback","","html-keyboard-response","249","464953","0.0-1.0-339.0-0.0","0","0","53970","","null","","","null","37","","","","","","","","","","","","","","","",""
"","ITI","","html-keyboard-response","250","465956","0.0-1.0-342.0","0","0","53970","","null","","","null","37","","","","","","","","","","","","","","","NaN",""
"","S1","","html-keyboard-response","251","466209","0.0-1.0-344.0","0","0","53970","","null","","","null","38","","","","","","","","","","","","","","","",""
"","ISI","","html-keyboard-response","252","468213","0.0-1.0-345.0","0","0","53970","","null","","","null","38","NaN","","","","","","","","","","","","","","",""
"","S2","","html-keyboard-response","253","468467","0.0-1.0-346.0","0","0","53970","","null","","","null","38","","NaN","","","","","","","","","","","","","",""
"","response","","html-keyboard-response","254","469298","0.0-1.0-347.0","0","0","53970","","828","","","75","38","","","1","38","training","adjacent","EF","5","6","M.jpg","O.jpg","0","1","0","",""
"","feedback","","html-keyboard-response","255","470302","0.0-1.0-348.0-0.0","0","0","53970","","null","","","null","38","","","","","","","","","","","","","","","",""
"","time_out","","html-keyboard-response","256","472306","0.0-1.0-350.0-0.0","0","0","53970","","null","","","null","38","","","","","","","","","","","","","","","",""
"","ITI","","html-keyboard-response","257","473310","0.0-1.0-351.0","0","0","53970","","null","","","null","38","","","","","","","","","","","","","","","NaN",""
"","S1","","html-keyboard-response","258","473564","0.0-1.0-353.0","0","0","53970","","null","","","null","39","","","","","","","","","","","","","","","",""
"","ISI","","html-keyboard-response","259","475569","0.0-1.0-354.0","0","0","53970","","null","","","null","39","NaN","","","","","","","","","","","","","","",""
"","S2","","html-keyboard-response","260","475822","0.0-1.0-355.0","0","0","53970","","null","","","null","39","","NaN","","","","","","","","","","","","","",""
"","response","","html-keyboard-response","261","476432","0.0-1.0-356.0","0","0","53970","","606","","","75","39","","","1","39","training","adjacent","GF","7","6","P.jpg","O.jpg","0","0","1","",""
"","feedback","","html-keyboard-response","262","477436","0.0-1.0-357.0-0.0","0","0","53970","","null","","","null","39","","","","","","","","","","","","","","","",""
"","ITI","","html-keyboard-response","263","478441","0.0-1.0-360.0","0","0","53970","","null","","","null","39","","","","","","","","","","","","","","","NaN",""
"","S1","","html-keyboard-response","264","478695","0.0-1.0-362.0","0","0","53970","","null","","","null","40","","","","","","","","","","","","","","","",""
"","ISI","","html-keyboard-response","265","480699","0.0-1.0-363.0","0","0","53970","","null","","","null","40","NaN","","","","","","","","","","","","","","",""
"","S2","","html-keyboard-response","266","480952","0.0-1.0-364.0","0","0","53970","","null","","","null","40","","NaN","","","","","","","","","","","","","",""
"","response","","html-keyboard-response","267","481736","0.0-1.0-365.0","0","0","53970","","781","","","68","40","","","1","40","training","adjacent","DE","4","5","N.jpg","M.jpg","1","1","1","",""
"","feedback","","html-keyboard-response","268","482741","0.0-1.0-366.0-0.0","0","0","53970","","null","","","null","40","","","","","","","","","","","","","","","",""
"","ITI","","html-keyboard-response","269","483745","0.0-1.0-369.0","0","0","53970","","null","","","null","40","","","","","","","","","","","","","","","NaN",""
"","S1","","html-keyboard-response","270","483999","0.0-1.0-371.0","0","0","53970","","null","","","null","41","","","","","","","","","","","","","","","",""
"","ISI","","html-keyboard-response","271","486003","0.0-1.0-372.0","0","0","53970","","null","","","null","41","NaN","","","","","","","","","","","","","","",""
"","S2","","html-keyboard-response","272","486257","0.0-1.0-373.0","0","0","53970","","null","","","null","41","","NaN","","","","","","","","","","","","","",""
"","response","","html-keyboard-response","273","487014","0.0-1.0-374.0","0","0","53970","","754","","","75","41","","","1","41","training","adjacent","EF","5","6","M.jpg","O.jpg","0","1","0","",""
"","feedback","","html-keyboard-response","274","488018","0.0-1.0-375.0-0.0","0","0","53970","","null","","","null","41","","","","","","","","","","","","","","","",""
"","time_out","","html-keyboard-response","275","490021","0.0-1.0-377.0-0.0","0","0","53970","","null","","","null","41","","","","","","","","","","","","","","","",""
"","ITI","","html-keyboard-response","276","491025","0.0-1.0-378.0","0","0","53970","","null","","","null","41","","","","","","","","","","","","","","","NaN",""
"","S1","","html-keyboard-response","277","491279","0.0-1.0-380.0","0","0","53970","","null","","","null","42","","","","","","","","","","","","","","","",""
"","ISI","","html-keyboard-response","278","493284","0.0-1.0-381.0","0","0","53970","","null","","","null","42","NaN","","","","","","","","","","","","","","",""
"","S2","","html-keyboard-response","279","493539","0.0-1.0-382.0","0","0","53970","","null","","","null","42","","NaN","","","","","","","","","","","","","",""
"","response","","html-keyboard-response","280","494034","0.0-1.0-383.0","0","0","53970","","492","","","75","42","","","1","42","training","adjacent","BC","2","3","Q.jpg","L.jpg","0","1","0","",""
"","feedback","","html-keyboard-response","281","495038","0.0-1.0-384.0-0.0","0","0","53970","","null","","","null","42","","","","","","","","","","","","","","","",""
"","time_out","","html-keyboard-response","282","497042","0.0-1.0-386.0-0.0","0","0","53970","","null","","","null","42","","","","","","","","","","","","","","","",""
"","ITI","","html-keyboard-response","283","498055","0.0-1.0-387.0","0","0","53970","","null","","","null","42","","","","","","","","","","","","","","","NaN",""
"","S1","","html-keyboard-response","284","498309","0.0-1.0-389.0","0","0","53970","","null","","","null","43","","","","","","","","","","","","","","","",""
"","ISI","","html-keyboard-response","285","500313","0.0-1.0-390.0","0","0","53970","","null","","","null","43","NaN","","","","","","","","","","","","","","",""
"","S2","","html-keyboard-response","286","500567","0.0-1.0-391.0","0","0","53970","","null","","","null","43","","NaN","","","","","","","","","","","","","",""
"","response","","html-keyboard-response","287","500885","0.0-1.0-392.0","0","0","53970","","315","","","68","43","","","1","43","training","adjacent","AB","1","2","R.jpg","Q.jpg","1","1","1","",""
"","feedback","","html-keyboard-response","288","501891","0.0-1.0-393.0-0.0","0","0","53970","","null","","","null","43","","","","","","","","","","","","","","","",""
"","ITI","","html-keyboard-response","289","502895","0.0-1.0-396.0","0","0","53970","","null","","","null","43","","","","","","","","","","","","","","","NaN",""
"","S1","","html-keyboard-response","290","503149","0.0-1.0-398.0","0","0","53970","","null","","","null","44","","","","","","","","","","","","","","","",""
"","ISI","","html-keyboard-response","291","505153","0.0-1.0-399.0","0","0","53970","","null","","","null","44","NaN","","","","","","","","","","","","","","",""
"","S2","","html-keyboard-response","292","505407","0.0-1.0-400.0","0","0","53970","","null","","","null","44","","NaN","","","","","","","","","","","","","",""
"","response","","html-keyboard-response","293","506072","0.0-1.0-401.0","0","0","53970","","662","","","75","44","","","1","44","training","adjacent","FG","6","7","O.jpg","P.jpg","0","1","0","",""
"","feedback","","html-keyboard-response","294","507077","0.0-1.0-402.0-0.0","0","0","53970","","null","","","null","44","","","","","","","","","","","","","","","",""
"","time_out","","html-keyboard-response","295","509082","0.0-1.0-404.0-0.0","0","0","53970","","null","","","null","44","","","","","","","","","","","","","","","",""
"","ITI","","html-keyboard-response","296","510086","0.0-1.0-405.0","0","0","53970","","null","","","null","44","","","","","","","","","","","","","","","NaN",""
"","S1","","html-keyboard-response","297","510339","0.0-1.0-407.0","0","0","53970","","null","","","null","45","","","","","","","","","","","","","","","",""
"","ISI","","html-keyboard-response","298","512344","0.0-1.0-408.0","0","0","53970","","null","","","null","45","NaN","","","","","","","","","","","","","","",""
"","S2","","html-keyboard-response","299","512597","0.0-1.0-409.0","0","0","53970","","null","","","null","45","","NaN","","","","","","","","","","","","","",""
"","response","","html-keyboard-response","300","513539","0.0-1.0-410.0","0","0","53970","","939","","","68","45","","","1","45","training","adjacent","FE","6","5","O.jpg","M.jpg","1","0","0","",""
"","feedback","","html-keyboard-response","301","514544","0.0-1.0-411.0-0.0","0","0","53970","","null","","","null","45","","","","","","","","","","","","","","","",""
"","time_out","","html-keyboard-response","302","516548","0.0-1.0-413.0-0.0","0","0","53970","","null","","","null","45","","","","","","","","","","","","","","","",""
"","ITI","","html-keyboard-response","303","517552","0.0-1.0-414.0","0","0","53970","","null","","","null","45","","","","","","","","","","","","","","","NaN",""
"","S1","","html-keyboard-response","304","517806","0.0-1.0-416.0","0","0","53970","","null","","","null","46","","","","","","","","","","","","","","","",""
"","ISI","","html-keyboard-response","305","519810","0.0-1.0-417.0","0","0","53970","","null","","","null","46","NaN","","","","","","","","","","","","","","",""
"","S2","","html-keyboard-response","306","520064","0.0-1.0-418.0","0","0","53970","","null","","","null","46","","NaN","","","","","","","","","","","","","",""
"","response","","html-keyboard-response","307","520651","0.0-1.0-419.0","0","0","53970","","583","","","75","46","","","1","46","training","adjacent","BA","2","1","Q.jpg","R.jpg","0","0","1","",""
"","feedback","","html-keyboard-response","308","521656","0.0-1.0-420.0-0.0","0","0","53970","","null","","","null","46","","","","","","","","","","","","","","","",""
"","ITI","","html-keyboard-response","309","522659","0.0-1.0-423.0","0","0","53970","","null","","","null","46","","","","","","","","","","","","","","","NaN",""
"","S1","","html-keyboard-response","310","522913","0.0-1.0-425.0","0","0","53970","","null","","","null","47","","","","","","","","","","","","","","","",""
"","ISI","","html-keyboard-response","311","524916","0.0-1.0-426.0","0","0","53970","","null","","","null","47","NaN","","","","","","","","","","","","","","",""
"","S2","","html-keyboard-response","312","525171","0.0-1.0-427.0","0","0","53970","","null","","","null","47","","NaN","","","","","","","","","","","","","",""
"","response","","html-keyboard-response","313","527174","0.0-1.0-428.0","0","0","53970","","null","","","null","47","","","1","47","training","adjacent","AB","1","2","R.jpg","Q.jpg","NaN","1","0","",""
"","too_slow_prompt","","html-keyboard-response","314","528178","0.0-1.0-430.0-0.0","1","0","53970","","null","","","null","","","","","","","","","","","","","","","","",""
"","time_out","","html-keyboard-response","315","530183","0.0-1.0-431.0-0.0","0","0","53970","","null","","","null","47","","","","","","","","","","","","","","","",""
"","ITI","","html-keyboard-response","316","531187","0.0-1.0-432.0","0","0","53970","","null","","","null","47","","","","","","","","","","","","","","","NaN",""
"","block_over","","html-keyboard-response","317","618044","0.0-1.0-433.0-0.0","0","0","53970","","86854","","","32","47","","","","","","","","","","","","","","","",""
"","S1","","html-keyboard-response","318","618298","0.0-1.0-434.0","0","0","53970","","null","","","null","48","","","","","","","","","","","","","","","",""
"","ISI","","html-keyboard-response","319","620302","0.0-1.0-435.0","0","0","53970","","null","","","null","48","NaN","","","","","","","","","","","","","","",""
"","S2","","html-keyboard-response","320","620556","0.0-1.0-436.0","0","0","53970","","null","","","null","48","","NaN","","","","","","","","","","","","","",""
"","response","","html-keyboard-response","321","622560","0.0-1.0-437.0","0","0","53970","","null","","","null","48","","","2","48","training","adjacent","BC","2","3","Q.jpg","L.jpg","NaN","1","0","",""
"","too_slow_prompt","","html-keyboard-response","322","623564","0.0-1.0-439.0-0.0","1","0","53970","","null","","","null","","","","","","","","","","","","","","","","",""
"","time_out","","html-keyboard-response","323","625568","0.0-1.0-440.0-0.0","0","0","53970","","null","","","null","48","","","","","","","","","","","","","","","",""
"","ITI","","html-keyboard-response","324","626572","0.0-1.0-441.0","0","0","53970","","null","","","null","48","","","","","","","","","","","","","","","NaN",""
"","S1","","html-keyboard-response","325","626827","0.0-1.0-443.0","0","0","53970","","null","","","null","49","","","","","","","","","","","","","","","",""
"","ISI","","html-keyboard-response","326","628832","0.0-1.0-444.0","0","0","53970","","null","","","null","49","NaN","","","","","","","","","","","","","","",""
"","S2","","html-keyboard-response","327","629086","0.0-1.0-445.0","0","0","53970","","null","","","null","49","","NaN","","","","","","","","","","","","","",""
"","response","","html-keyboard-response","328","629315","0.0-1.0-446.0","0","0","53970","","225","","","68","49","","","2","49","training","adjacent","BA","2","1","Q.jpg","R.jpg","1","0","0","",""
"","feedback","","html-keyboard-response","329","630318","0.0-1.0-447.0-0.0","0","0","53970","","null","","","null","49","","","","","","","","","","","","","","","",""
"","time_out","","html-keyboard-response","330","632322","0.0-1.0-449.0-0.0","0","0","53970","","null","","","null","49","","","","","","","","","","","","","","","",""
"","ITI","","html-keyboard-response","331","633326","0.0-1.0-450.0","0","0","53970","","null","","","null","49","","","","","","","","","","","","","","","NaN",""
"","S1","","html-keyboard-response","332","633581","0.0-1.0-452.0","0","0","53970","","null","","","null","50","","","","","","","","","","","","","","","",""
"","ISI","","html-keyboard-response","333","635585","0.0-1.0-453.0","0","0","53970","","null","","","null","50","NaN","","","","","","","","","","","","","","",""
"","S2","","html-keyboard-response","334","635839","0.0-1.0-454.0","0","0","53970","","null","","","null","50","","NaN","","","","","","","","","","","","","",""
"","response","","html-keyboard-response","335","636149","0.0-1.0-455.0","0","0","53970","","306","","","75","50","","","2","50","training","adjacent","CB","3","2","L.jpg","Q.jpg","0","0","1","",""
"","feedback","","html-keyboard-response","336","637154","0.0-1.0-456.0-0.0","0","0","53970","","null","","","null","50","","","","","","","","","","","","","","","",""
"","ITI","","html-keyboard-response","337","638157","0.0-1.0-459.0","0","0","53970","","null","","","null","50","","","","","","","","","","","","","","","NaN",""
"","S1","","html-keyboard-response","338","638413","0.0-1.0-461.0","0","0","53970","","null","","","null","51","","","","","","","","","","","","","","","",""
"","ISI","","html-keyboard-response","339","640426","0.0-1.0-462.0","0","0","53970","","null","","","null","51","NaN","","","","","","","","","","","","","","",""
"","S2","","html-keyboard-response","340","640680","0.0-1.0-463.0","0","0","53970","","null","","","null","51","","NaN","","","","","","","","","","","","","",""
"","response","","html-keyboard-response","341","641113","0.0-1.0-464.0","0","0","53970","","430","","","75","51","","","2","51","training","adjacent","CD","3","4","L.jpg","N.jpg","0","1","0","",""
"","feedback","","html-keyboard-response","342","642119","0.0-1.0-465.0-0.0","0","0","53970","","null","","","null","51","","","","","","","","","","","","","","","",""
"","time_out","","html-keyboard-response","343","644124","0.0-1.0-467.0-0.0","0","0","53970","","null","","","null","51","","","","","","","","","","","","","","","",""
"","ITI","","html-keyboard-response","344","645128","0.0-1.0-468.0","0","0","53970","","null","","","null","51","","","","","","","","","","","","","","","NaN",""
"","S1","","html-keyboard-response","345","645383","0.0-1.0-470.0","0","0","53970","","null","","","null","52","","","","","","","","","","","","","","","",""
"","ISI","","html-keyboard-response","346","647386","0.0-1.0-471.0","0","0","53970","","null","","","null","52","NaN","","","","","","","","","","","","","","",""
"","S2","","html-keyboard-response","347","647641","0.0-1.0-472.0","0","0","53970","","null","","","null","52","","NaN","","","","","","","","","","","","","",""
"","response","","html-keyboard-response","348","648332","0.0-1.0-473.0","0","0","53970","","688","","","68","52","","","2","52","training","adjacent","EF","5","6","M.jpg","O.jpg","1","1","1","",""
"","feedback","","html-keyboard-response","349","649339","0.0-1.0-474.0-0.0","0","0","53970","","null","","","null","52","","","","","","","","","","","","","","","",""
"","ITI","","html-keyboard-response","350","650343","0.0-1.0-477.0","0","0","53970","","null","","","null","52","","","","","","","","","","","","","","","NaN",""
"","S1","","html-keyboard-response","351","650597","0.0-1.0-479.0","0","0","53970","","null","","","null","53","","","","","","","","","","","","","","","",""
"","ISI","","html-keyboard-response","352","652600","0.0-1.0-480.0","0","0","53970","","null","","","null","53","NaN","","","","","","","","","","","","","","",""
"","S2","","html-keyboard-response","353","652854","0.0-1.0-481.0","0","0","53970","","null","","","null","53","","NaN","","","","","","","","","","","","","",""
"","response","","html-keyboard-response","354","653166","0.0-1.0-482.0","0","0","53970","","308","","","75","53","","","2","53","training","adjacent","AB","1","2","R.jpg","Q.jpg","0","1","0","",""
"","feedback","","html-keyboard-response","355","654171","0.0-1.0-483.0-0.0","0","0","53970","","null","","","null","53","","","","","","","","","","","","","","","",""
"","time_out","","html-keyboard-response","356","656177","0.0-1.0-485.0-0.0","0","0","53970","","null","","","null","53","","","","","","","","","","","","","","","",""
"","ITI","","html-keyboard-response","357","657181","0.0-1.0-486.0","0","0","53970","","null","","","null","53","","","","","","","","","","","","","","","NaN",""
"","S1","","html-keyboard-response","358","657435","0.0-1.0-488.0","0","0","53970","","null","","","null","54","","","","","","","","","","","","","","","",""
"","ISI","","html-keyboard-response","359","659439","0.0-1.0-489.0","0","0","53970","","null","","","null","54","NaN","","","","","","","","","","","","","","",""
"","S2","","html-keyboard-response","360","659693","0.0-1.0-490.0","0","0","53970","","null","","","null","54","","NaN","","","","","","","","","","","","","",""
"","response","","html-keyboard-response","361","660348","0.0-1.0-491.0","0","0","53970","","651","","","75","54","","","2","54","training","adjacent","CD","3","4","L.jpg","N.jpg","0","1","0","",""
"","feedback","","html-keyboard-response","362","661352","0.0-1.0-492.0-0.0","0","0","53970","","null","","","null","54","","","","","","","","","","","","","","","",""
"","time_out","","html-keyboard-response","363","663356","0.0-1.0-494.0-0.0","0","0","53970","","null","","","null","54","","","","","","","","","","","","","","","",""
"","ITI","","html-keyboard-response","364","664359","0.0-1.0-495.0","0","0","53970","","null","","","null","54","","","","","","","","","","","","","","","NaN",""
"","S1","","html-keyboard-response","365","664613","0.0-1.0-497.0","0","0","53970","","null","","","null","55","","","","","","","","","","","","","","","",""
"","ISI","","html-keyboard-response","366","666617","0.0-1.0-498.0","0","0","53970","","null","","","null","55","NaN","","","","","","","","","","","","","","",""
"","S2","","html-keyboard-response","367","666872","0.0-1.0-499.0","0","0","53970","","null","","","null","55","","NaN","","","","","","","","","","","","","",""
"","response","","html-keyboard-response","368","667180","0.0-1.0-500.0","0","0","53970","","304","","","68","55","","","2","55","training","adjacent","GF","7","6","P.jpg","O.jpg","1","0","0","",""
"","feedback","","html-keyboard-response","369","668185","0.0-1.0-501.0-0.0","0","0","53970","","null","","","null","55","","","","","","","","","","","","","","","",""
"","time_out","","html-keyboard-response","370","670189","0.0-1.0-503.0-0.0","0","0","53970","","null","","","null","55","","","","","","","","","","","","","","","",""
"","ITI","","html-keyboard-response","371","671192","0.0-1.0-504.0","0","0","53970","","null","","","null","55","","","","","","","","","","","","","","","NaN",""
"","S1","","html-keyboard-response","372","671446","0.0-1.0-506.0","0","0","53970","","null","","","null","56","","","","","","","","","","","","","","","",""
"","ISI","","html-keyboard-response","373","673450","0.0-1.0-507.0","0","0","53970","","null","","","null","56","NaN","","","","","","","","","","","","","","",""
"","S2","","html-keyboard-response","374","673706","0.0-1.0-508.0","0","0","53970","","null","","","null","56","","NaN","","","","","","","","","","","","","",""
"","response","","html-keyboard-response","375","673793","0.0-1.0-509.0","0","0","53970","","84","","","75","56","","","2","56","training","adjacent","DE","4","5","N.jpg","M.jpg","0","1","0","",""
"","feedback","","html-keyboard-response","376","674797","0.0-1.0-510.0-0.0","0","0","53970","","null","","","null","56","","","","","","","","","","","","","","","",""
"","time_out","","html-keyboard-response","377","676801","0.0-1.0-512.0-0.0","0","0","53970","","null","","","null","56","","","","","","","","","","","","","","","",""
"","ITI","","html-keyboard-response","378","677805","0.0-1.0-513.0","0","0","53970","","null","","","null","56","","","","","","","","","","","","","","","NaN",""
"","S1","","html-keyboard-response","379","678059","0.0-1.0-515.0","0","0","53970","","null","","","null","57","","","","","","","","","","","","","","","",""
"","ISI","","html-keyboard-response","380","680062","0.0-1.0-516.0","0","0","53970","","null","","","null","57","NaN","","","","","","","","","","","","","","",""
"","S2","","html-keyboard-response","381","680317","0.0-1.0-517.0","0","0","53970","","null","","","null","57","","NaN","","","","","","","","","","","","","",""
"","response","","html-keyboard-response","382","680460","0.0-1.0-518.0","0","0","53970","","140","","","68","57","","","2","57","training","adjacent","DE","4","5","N.jpg","M.jpg","1","1","1","",""
"","feedback","","html-keyboard-response","383","681467","0.0-1.0-519.0-0.0","0","0","53970","","null","","","null","57","","","","","","","","","","","","","","","",""
"","ITI","","html-keyboard-response","384","682470","0.0-1.0-522.0","0","0","53970","","null","","","null","57","","","","","","","","","","","","","","","NaN",""
"","S1","","html-keyboard-response","385","682724","0.0-1.0-524.0","0","0","53970","","null","","","null","58","","","","","","","","","","","","","","","",""
"","ISI","","html-keyboard-response","386","684728","0.0-1.0-525.0","0","0","53970","","null","","","null","58","NaN","","","","","","","","","","","","","","",""
"","S2","","html-keyboard-response","387","684981","0.0-1.0-526.0","0","0","53970","","null","","","null","58","","NaN","","","","","","","","","","","","","",""
"","response","","html-keyboard-response","388","685118","0.0-1.0-527.0","0","0","53970","","133","","","68","58","","","2","58","training","adjacent","CD","3","4","L.jpg","N.jpg","1","1","1","",""
"","feedback","","html-keyboard-response","389","686122","0.0-1.0-528.0-0.0","0","0","53970","","null","","","null","58","","","","","","","","","","","","","","","",""
"","ITI","","html-keyboard-response","390","687126","0.0-1.0-531.0","0","0","53970","","null","","","null","58","","","","","","","","","","","","","","","NaN",""
"","S1","","html-keyboard-response","391","687380","0.0-1.0-533.0","0","0","53970","","null","","","null","59","","","","","","","","","","","","","","","",""
"","ISI","","html-keyboard-response","392","689384","0.0-1.0-534.0","0","0","53970","","null","","","null","59","NaN","","","","","","","","","","","","","","",""
"","S2","","html-keyboard-response","393","689638","0.0-1.0-535.0","0","0","53970","","null","","","null","59","","NaN","","","","","","","","","","","","","",""
"","response","","html-keyboard-response","394","689971","0.0-1.0-536.0","0","0","53970","","330","","","68","59","","","2","59","training","adjacent","DC","4","3","N.jpg","L.jpg","1","0","0","",""
"","feedback","","html-keyboard-response","395","690976","0.0-1.0-537.0-0.0","0","0","53970","","null","","","null","59","","","","","","","","","","","","","","","",""
"","time_out","","html-keyboard-response","396","692980","0.0-1.0-539.0-0.0","0","0","53970","","null","","","null","59","","","","","","","","","","","","","","","",""
"","ITI","","html-keyboard-response","397","693985","0.0-1.0-540.0","0","0","53970","","null","","","null","59","","","","","","","","","","","","","","","NaN",""
"","S1","","html-keyboard-response","398","694239","0.0-1.0-542.0","0","0","53970","","null","","","null","60","","","","","","","","","","","","","","","",""
"","ISI","","html-keyboard-response","399","696244","0.0-1.0-543.0","0","0","53970","","null","","","null","60","NaN","","","","","","","","","","","","","","",""
"","S2","","html-keyboard-response","400","696500","0.0-1.0-544.0","0","0","53970","","null","","","null","60","","NaN","","","","","","","","","","","","","",""
"","response","","html-keyboard-response","401","696866","0.0-1.0-545.0","0","0","53970","","363","","","68","60","","","2","60","training","adjacent","BA","2","1","Q.jpg","R.jpg","1","0","0","",""
"","feedback","","html-keyboard-response","402","697871","0.0-1.0-546.0-0.0","0","0","53970","","null","","","null","60","","","","","","","","","","","","","","","",""
"","time_out","","html-keyboard-response","403","699874","0.0-1.0-548.0-0.0","0","0","53970","","null","","","null","60","","","","","","","","","","","","","","","",""
"","ITI","","html-keyboard-response","404","700878","0.0-1.0-549.0","0","0","53970","","null","","","null","60","","","","","","","","","","","","","","","NaN",""
"","S1","","html-keyboard-response","405","701135","0.0-1.0-551.0","0","0","53970","","null","","","null","61","","","","","","","","","","","","","","","",""
"","ISI","","html-keyboard-response","406","703139","0.0-1.0-552.0","0","0","53970","","null","","","null","61","NaN","","","","","","","","","","","","","","",""
"","S2","","html-keyboard-response","407","703393","0.0-1.0-553.0","0","0","53970","","null","","","null","61","","NaN","","","","","","","","","","","","","",""
"","response","","html-keyboard-response","408","703603","0.0-1.0-554.0","0","0","53970","","206","","","75","61","","","2","61","training","adjacent","FG","6","7","O.jpg","P.jpg","0","1","0","",""
"","feedback","","html-keyboard-response","409","704607","0.0-1.0-555.0-0.0","0","0","53970","","null","","","null","61","","","","","","","","","","","","","","","",""
"","time_out","","html-keyboard-response","410","706611","0.0-1.0-557.0-0.0","0","0","53970","","null","","","null","61","","","","","","","","","","","","","","","",""
"","ITI","","html-keyboard-response","411","707615","0.0-1.0-558.0","0","0","53970","","null","","","null","61","","","","","","","","","","","","","","","NaN",""
"","S1","","html-keyboard-response","412","707869","0.0-1.0-560.0","0","0","53970","","null","","","null","62","","","","","","","","","","","","","","","",""
"","ISI","","html-keyboard-response","413","709873","0.0-1.0-561.0","0","0","53970","","null","","","null","62","NaN","","","","","","","","","","","","","","",""
"","S2","","html-keyboard-response","414","710127","0.0-1.0-562.0","0","0","53970","","null","","","null","62","","NaN","","","","","","","","","","","","","",""
"","response","","html-keyboard-response","415","710208","0.0-1.0-563.0","0","0","53970","","77","","","68","62","","","2","62","training","adjacent","FE","6","5","O.jpg","M.jpg","1","0","0","",""
"","feedback","","html-keyboard-response","416","711213","0.0-1.0-564.0-0.0","0","0","53970","","null","","","null","62","","","","","","","","","","","","","","","",""
"","time_out","","html-keyboard-response","417","713218","0.0-1.0-566.0-0.0","0","0","53970","","null","","","null","62","","","","","","","","","","","","","","","",""
"","ITI","","html-keyboard-response","418","714222","0.0-1.0-567.0","0","0","53970","","null","","","null","62","","","","","","","","","","","","","","","NaN",""
"","S1","","html-keyboard-response","419","714476","0.0-1.0-569.0","0","0","53970","","null","","","null","63","","","","","","","","","","","","","","","",""
"","ISI","","html-keyboard-response","420","716479","0.0-1.0-570.0","0","0","53970","","null","","","null","63","NaN","","","","","","","","","","","","","","",""
"","S2","","html-keyboard-response","421","716734","0.0-1.0-571.0","0","0","53970","","null","","","null","63","","NaN","","","","","","","","","","","","","",""
"","response","","html-keyboard-response","422","717022","0.0-1.0-572.0","0","0","53970","","285","","","75","63","","","2","63","training","adjacent","BC","2","3","Q.jpg","L.jpg","0","1","0","",""
"","feedback","","html-keyboard-response","423","718033","0.0-1.0-573.0-0.0","0","0","53970","","null","","","null","63","","","","","","","","","","","","","","","",""
"","time_out","","html-keyboard-response","424","720036","0.0-1.0-575.0-0.0","0","0","53970","","null","","","null","63","","","","","","","","","","","","","","","",""
"","ITI","","html-keyboard-response","425","721040","0.0-1.0-576.0","0","0","53970","","null","","","null","63","","","","","","","","","","","","","","","NaN",""
"","S1","","html-keyboard-response","426","721295","0.0-1.0-578.0","0","0","53970","","null","","","null","64","","","","","","","","","","","","","","","",""
"","ISI","","html-keyboard-response","427","723299","0.0-1.0-579.0","0","0","53970","","null","","","null","64","NaN","","","","","","","","","","","","","","",""
"","S2","","html-keyboard-response","428","723559","0.0-1.0-580.0","0","0","53970","","null","","","null","64","","NaN","","","","","","","","","","","","","",""
"","response","","html-keyboard-response","429","724149","0.0-1.0-581.0","0","0","53970","","586","","","68","64","","","2","64","training","adjacent","FG","6","7","O.jpg","P.jpg","1","1","1","",""
"","feedback","","html-keyboard-response","430","725154","0.0-1.0-582.0-0.0","0","0","53970","","null","","","null","64","","","","","","","","","","","","","","","",""
"","ITI","","html-keyboard-response","431","726158","0.0-1.0-585.0","0","0","53970","","null","","","null","64","","","","","","","","","","","","","","","NaN",""
"","S1","","html-keyboard-response","432","726413","0.0-1.0-587.0","0","0","53970","","null","","","null","65","","","","","","","","","","","","","","","",""
"","ISI","","html-keyboard-response","433","728417","0.0-1.0-588.0","0","0","53970","","null","","","null","65","NaN","","","","","","","","","","","","","","",""
"","S2","","html-keyboard-response","434","728670","0.0-1.0-589.0","0","0","53970","","null","","","null","65","","NaN","","","","","","","","","","","","","",""
"","response","","html-keyboard-response","435","729216","0.0-1.0-590.0","0","0","53970","","543","","","68","65","","","2","65","training","adjacent","DC","4","3","N.jpg","L.jpg","1","0","0","",""
"","feedback","","html-keyboard-response","436","730221","0.0-1.0-591.0-0.0","0","0","53970","","null","","","null","65","","","","","","","","","","","","","","","",""
"","time_out","","html-keyboard-response","437","732225","0.0-1.0-593.0-0.0","0","0","53970","","null","","","null","65","","","","","","","","","","","","","","","",""
"","ITI","","html-keyboard-response","438","733230","0.0-1.0-594.0","0","0","53970","","null","","","null","65","","","","","","","","","","","","","","","NaN",""
"","S1","","html-keyboard-response","439","733483","0.0-1.0-596.0","0","0","53970","","null","","","null","66","","","","","","","","","","","","","","","",""
"","ISI","","html-keyboard-response","440","735486","0.0-1.0-597.0","0","0","53970","","null","","","null","66","NaN","","","","","","","","","","","","","","",""
"","S2","","html-keyboard-response","441","735740","0.0-1.0-598.0","0","0","53970","","null","","","null","66","","NaN","","","","","","","","","","","","","",""
"","response","","html-keyboard-response","442","736137","0.0-1.0-599.0","0","0","53970","","393","","","68","66","","","2","66","training","adjacent","FE","6","5","O.jpg","M.jpg","1","0","0","",""
"","feedback","","html-keyboard-response","443","737141","0.0-1.0-600.0-0.0","0","0","53970","","null","","","null","66","","","","","","","","","","","","","","","",""
"","time_out","","html-keyboard-response","444","739145","0.0-1.0-602.0-0.0","0","0","53970","","null","","","null","66","","","","","","","","","","","","","","","",""
"","ITI","","html-keyboard-response","445","740149","0.0-1.0-603.0","0","0","53970","","null","","","null","66","","","","","","","","","","","","","","","NaN",""
"","S1","","html-keyboard-response","446","740404","0.0-1.0-605.0","0","0","53970","","null","","","null","67","","","","","","","","","","","","","","","",""
"","ISI","","html-keyboard-response","447","742408","0.0-1.0-606.0","0","0","53970","","null","","","null","67","NaN","","","","","","","","","","","","","","",""
"","S2","","html-keyboard-response","448","742661","0.0-1.0-607.0","0","0","53970","","null","","","null","67","","NaN","","","","","","","","","","","","","",""
"","response","","html-keyboard-response","449","743510","0.0-1.0-608.0","0","0","53970","","846","","","68","67","","","2","67","training","adjacent","BC","2","3","Q.jpg","L.jpg","1","1","1","",""
"","feedback","","html-keyboard-response","450","744515","0.0-1.0-609.0-0.0","0","0","53970","","null","","","null","67","","","","","","","","","","","","","","","",""
"","ITI","","html-keyboard-response","451","745519","0.0-1.0-612.0","0","0","53970","","null","","","null","67","","","","","","","","","","","","","","","NaN",""
"","S1","","html-keyboard-response","452","745774","0.0-1.0-614.0","0","0","53970","","null","","","null","68","","","","","","","","","","","","","","","",""
"","ISI","","html-keyboard-response","453","747777","0.0-1.0-615.0","0","0","53970","","null","","","null","68","NaN","","","","","","","","","","","","","","",""
"","S2","","html-keyboard-response","454","748031","0.0-1.0-616.0","0","0","53970","","null","","","null","68","","NaN","","","","","","","","","","","","","",""
"","response","","html-keyboard-response","455","748388","0.0-1.0-617.0","0","0","53970","","354","","","75","68","","","2","68","training","adjacent","ED","5","4","M.jpg","N.jpg","0","0","1","",""
"","feedback","","html-keyboard-response","456","749393","0.0-1.0-618.0-0.0","0","0","53970","","null","","","null","68","","","","","","","","","","","","","","","",""
"","ITI","","html-keyboard-response","457","750397","0.0-1.0-621.0","0","0","53970","","null","","","null","68","","","","","","","","","","","","","","","NaN",""
"","S1","","html-keyboard-response","458","750651","0.0-1.0-623.0","0","0","53970","","null","","","null","69","","","","","","","","","","","","","","","",""
"","ISI","","html-keyboard-response","459","752655","0.0-1.0-624.0","0","0","53970","","null","","","null","69","NaN","","","","","","","","","","","","","","",""
"","S2","","html-keyboard-response","460","752910","0.0-1.0-625.0","0","0","53970","","null","","","null","69","","NaN","","","","","","","","","","","","","",""
"","response","","html-keyboard-response","461","753491","0.0-1.0-626.0","0","0","53970","","577","","","68","69","","","2","69","training","adjacent","BA","2","1","Q.jpg","R.jpg","1","0","0","",""
"","feedback","","html-keyboard-response","462","754497","0.0-1.0-627.0-0.0","0","0","53970","","null","","","null","69","","","","","","","","","","","","","","","",""
"","time_out","","html-keyboard-response","463","756501","0.0-1.0-629.0-0.0","0","0","53970","","null","","","null","69","","","","","","","","","","","","","","","",""
"","ITI","","html-keyboard-response","464","757506","0.0-1.0-630.0","0","0","53970","","null","","","null","69","","","","","","","","","","","","","","","NaN",""
"","S1","","html-keyboard-response","465","757762","0.0-1.0-632.0","0","0","53970","","null","","","null","70","","","","","","","","","","","","","","","",""
"","ISI","","html-keyboard-response","466","759766","0.0-1.0-633.0","0","0","53970","","null","","","null","70","NaN","","","","","","","","","","","","","","",""
"","S2","","html-keyboard-response","467","760021","0.0-1.0-634.0","0","0","53970","","null","","","null","70","","NaN","","","","","","","","","","","","","",""
"","response","","html-keyboard-response","468","760094","0.0-1.0-635.0","0","0","53970","","69","","","68","70","","","2","70","training","adjacent","AB","1","2","R.jpg","Q.jpg","1","1","1","",""
"","feedback","","html-keyboard-response","469","761099","0.0-1.0-636.0-0.0","0","0","53970","","null","","","null","70","","","","","","","","","","","","","","","",""
"","ITI","","html-keyboard-response","470","762104","0.0-1.0-639.0","0","0","53970","","null","","","null","70","","","","","","","","","","","","","","","NaN",""
"","S1","","html-keyboard-response","471","762359","0.0-1.0-641.0","0","0","53970","","null","","","null","71","","","","","","","","","","","","","","","",""
"","ISI","","html-keyboard-response","472","764364","0.0-1.0-642.0","0","0","53970","","null","","","null","71","NaN","","","","","","","","","","","","","","",""
"","S2","","html-keyboard-response","473","764620","0.0-1.0-643.0","0","0","53970","","null","","","null","71","","NaN","","","","","","","","","","","","","",""
"","response","","html-keyboard-response","474","765054","0.0-1.0-644.0","0","0","53970","","430","","","75","71","","","2","71","training","adjacent","BA","2","1","Q.jpg","R.jpg","0","0","1","",""
"","feedback","","html-keyboard-response","475","766059","0.0-1.0-645.0-0.0","0","0","53970","","null","","","null","71","","","","","","","","","","","","","","","",""
"","ITI","","html-keyboard-response","476","767063","0.0-1.0-648.0","0","0","53970","","null","","","null","71","","","","","","","","","","","","","","","NaN",""
"","S1","","html-keyboard-response","477","767318","0.0-1.0-650.0","0","0","53970","","null","","","null","72","","","","","","","","","","","","","","","",""
"","ISI","","html-keyboard-response","478","769324","0.0-1.0-651.0","0","0","53970","","null","","","null","72","NaN","","","","","","","","","","","","","","",""
"","S2","","html-keyboard-response","479","769579","0.0-1.0-652.0","0","0","53970","","null","","","null","72","","NaN","","","","","","","","","","","","","",""
"","response","","html-keyboard-response","480","769878","0.0-1.0-653.0","0","0","53970","","295","","","68","72","","","2","72","training","adjacent","AB","1","2","R.jpg","Q.jpg","1","1","1","",""
"","feedback","","html-keyboard-response","481","770883","0.0-1.0-654.0-0.0","0","0","53970","","null","","","null","72","","","","","","","","","","","","","","","",""
"","ITI","","html-keyboard-response","482","771888","0.0-1.0-657.0","0","0","53970","","null","","","null","72","","","","","","","","","","","","","","","NaN",""
"","S1","","html-keyboard-response","483","772143","0.0-1.0-659.0","0","0","53970","","null","","","null","73","","","","","","","","","","","","","","","",""
"","ISI","","html-keyboard-response","484","774146","0.0-1.0-660.0","0","0","53970","","null","","","null","73","NaN","","","","","","","","","","","","","","",""
"","S2","","html-keyboard-response","485","774400","0.0-1.0-661.0","0","0","53970","","null","","","null","73","","NaN","","","","","","","","","","","","","",""
"","response","","html-keyboard-response","486","775224","0.0-1.0-662.0","0","0","53970","","821","","","75","73","","","2","73","training","adjacent","CD","3","4","L.jpg","N.jpg","0","1","0","",""
"","feedback","","html-keyboard-response","487","776229","0.0-1.0-663.0-0.0","0","0","53970","","null","","","null","73","","","","","","","","","","","","","","","",""
"","time_out","","html-keyboard-response","488","778233","0.0-1.0-665.0-0.0","0","0","53970","","null","","","null","73","","","","","","","","","","","","","","","",""
"","ITI","","html-keyboard-response","489","779237","0.0-1.0-666.0","0","0","53970","","null","","","null","73","","","","","","","","","","","","","","","NaN",""
"","S1","","html-keyboard-response","490","779491","0.0-1.0-668.0","0","0","53970","","null","","","null","74","","","","","","","","","","","","","","","",""
"","ISI","","html-keyboard-response","491","781497","0.0-1.0-669.0","0","0","53970","","null","","","null","74","NaN","","","","","","","","","","","","","","",""
"","S2","","html-keyboard-response","492","781751","0.0-1.0-670.0","0","0","53970","","null","","","null","74","","NaN","","","","","","","","","","","","","",""
"","response","","html-keyboard-response","493","782239","0.0-1.0-671.0","0","0","53970","","484","","","68","74","","","2","74","training","adjacent","ED","5","4","M.jpg","N.jpg","1","0","0","",""
"","feedback","","html-keyboard-response","494","783244","0.0-1.0-672.0-0.0","0","0","53970","","null","","","null","74","","","","","","","","","","","","","","","",""
"","time_out","","html-keyboard-response","495","785248","0.0-1.0-674.0-0.0","0","0","53970","","null","","","null","74","","","","","","","","","","","","","","","",""
"","ITI","","html-keyboard-response","496","786252","0.0-1.0-675.0","0","0","53970","","null","","","null","74","","","","","","","","","","","","","","","NaN",""
"","S1","","html-keyboard-response","497","786508","0.0-1.0-677.0","0","0","53970","","null","","","null","75","","","","","","","","","","","","","","","",""
"","ISI","","html-keyboard-response","498","788511","0.0-1.0-678.0","0","0","53970","","null","","","null","75","NaN","","","","","","","","","","","","","","",""
"","S2","","html-keyboard-response","499","788765","0.0-1.0-679.0","0","0","53970","","null","","","null","75","","NaN","","","","","","","","","","","","","",""
"","response","","html-keyboard-response","500","790132","0.0-1.0-680.0","0","0","53970","","1363","","","75","75","","","2","75","training","adjacent","DE","4","5","N.jpg","M.jpg","0","1","0","",""
"","feedback","","html-keyboard-response","501","791137","0.0-1.0-681.0-0.0","0","0","53970","","null","","","null","75","","","","","","","","","","","","","","","",""
"","time_out","","html-keyboard-response","502","793141","0.0-1.0-683.0-0.0","0","0","53970","","null","","","null","75","","","","","","","","","","","","","","","",""
"","ITI","","html-keyboard-response","503","794144","0.0-1.0-684.0","0","0","53970","","null","","","null","75","","","","","","","","","","","","","","","NaN",""
"","S1","","html-keyboard-response","504","794398","0.0-1.0-686.0","0","0","53970","","null","","","null","76","","","","","","","","","","","","","","","",""
"","ISI","","html-keyboard-response","505","796403","0.0-1.0-687.0","0","0","53970","","null","","","null","76","NaN","","","","","","","","","","","","","","",""
"","S2","","html-keyboard-response","506","796657","0.0-1.0-688.0","0","0","53970","","null","","","null","76","","NaN","","","","","","","","","","","","","",""
"","response","","html-keyboard-response","507","797902","0.0-1.0-689.0","0","0","53970","","1241","","","75","76","","","2","76","training","adjacent","FG","6","7","O.jpg","P.jpg","0","1","0","",""
"","feedback","","html-keyboard-response","508","798907","0.0-1.0-690.0-0.0","0","0","53970","","null","","","null","76","","","","","","","","","","","","","","","",""
"","time_out","","html-keyboard-response","509","800910","0.0-1.0-692.0-0.0","0","0","53970","","null","","","null","76","","","","","","","","","","","","","","","",""
"","ITI","","html-keyboard-response","510","801915","0.0-1.0-693.0","0","0","53970","","null","","","null","76","","","","","","","","","","","","","","","NaN",""
"","S1","","html-keyboard-response","511","802182","0.0-1.0-695.0","0","0","53970","","null","","","null","77","","","","","","","","","","","","","","","",""
"","ISI","","html-keyboard-response","512","804186","0.0-1.0-696.0","0","0","53970","","null","","","null","77","NaN","","","","","","","","","","","","","","",""
"","S2","","html-keyboard-response","513","804440","0.0-1.0-697.0","0","0","53970","","null","","","null","77","","NaN","","","","","","","","","","","","","",""
"","response","","html-keyboard-response","514","805244","0.0-1.0-698.0","0","0","53970","","800","","","68","77","","","2","77","training","adjacent","CB","3","2","L.jpg","Q.jpg","1","0","0","",""
"","feedback","","html-keyboard-response","515","806248","0.0-1.0-699.0-0.0","0","0","53970","","null","","","null","77","","","","","","","","","","","","","","","",""
"","time_out","","html-keyboard-response","516","808252","0.0-1.0-701.0-0.0","0","0","53970","","null","","","null","77","","","","","","","","","","","","","","","",""
"","ITI","","html-keyboard-response","517","809256","0.0-1.0-702.0","0","0","53970","","null","","","null","77","","","","","","","","","","","","","","","NaN",""
"","S1","","html-keyboard-response","518","809511","0.0-1.0-704.0","0","0","53970","","null","","","null","78","","","","","","","","","","","","","","","",""
"","ISI","","html-keyboard-response","519","811515","0.0-1.0-705.0","0","0","53970","","null","","","null","78","NaN","","","","","","","","","","","","","","",""
"","S2","","html-keyboard-response","520","811769","0.0-1.0-706.0","0","0","53970","","null","","","null","78","","NaN","","","","","","","","","","","","","",""
"","response","","html-keyboard-response","521","812605","0.0-1.0-707.0","0","0","53970","","833","","","75","78","","","2","78","training","adjacent","CB","3","2","L.jpg","Q.jpg","0","0","1","",""
"","feedback","","html-keyboard-response","522","813613","0.0-1.0-708.0-0.0","0","0","53970","","null","","","null","78","","","","","","","","","","","","","","","",""
"","ITI","","html-keyboard-response","523","814628","0.0-1.0-711.0","0","0","53970","","424","","","75","78","","","","","","","","","","","","","","","k",""
"","S1","","html-keyboard-response","524","814882","0.0-1.0-713.0","0","0","53970","","null","","","null","79","","","","","","","","","","","","","","","",""
"","ISI","","html-keyboard-response","525","816886","0.0-1.0-714.0","0","0","53970","","null","","","null","79","NaN","","","","","","","","","","","","","","",""
"","S2","","html-keyboard-response","526","817140","0.0-1.0-715.0","0","0","53970","","null","","","null","79","","NaN","","","","","","","","","","","","","",""
"","response","","html-keyboard-response","527","817534","0.0-1.0-716.0","0","0","53970","","391","","","75","79","","","2","79","training","adjacent","CB","3","2","L.jpg","Q.jpg","0","0","1","",""
"","feedback","","html-keyboard-response","528","818540","0.0-1.0-717.0-0.0","0","0","53970","","null","","","null","79","","","","","","","","","","","","","","","",""
"","ITI","","html-keyboard-response","529","819544","0.0-1.0-720.0","0","0","53970","","null","","","null","79","","","","","","","","","","","","","","","NaN",""
"","S1","","html-keyboard-response","530","819799","0.0-1.0-722.0","0","0","53970","","null","","","null","80","","","","","","","","","","","","","","","",""
"","ISI","","html-keyboard-response","531","821802","0.0-1.0-723.0","0","0","53970","","null","","","null","80","NaN","","","","","","","","","","","","","","",""
"","S2","","html-keyboard-response","532","822055","0.0-1.0-724.0","0","0","53970","","null","","","null","80","","NaN","","","","","","","","","","","","","",""
"","response","","html-keyboard-response","533","822634","0.0-1.0-725.0","0","0","53970","","575","","","75","80","","","2","80","training","adjacent","EF","5","6","M.jpg","O.jpg","0","1","0","",""
"","feedback","","html-keyboard-response","534","823638","0.0-1.0-726.0-0.0","0","0","53970","","null","","","null","80","","","","","","","","","","","","","","","",""
"","time_out","","html-keyboard-response","535","825643","0.0-1.0-728.0-0.0","0","0","53970","","null","","","null","80","","","","","","","","","","","","","","","",""
"","ITI","","html-keyboard-response","536","826647","0.0-1.0-729.0","0","0","53970","","null","","","null","80","","","","","","","","","","","","","","","NaN",""
"","S1","","html-keyboard-response","537","826902","0.0-1.0-731.0","0","0","53970","","null","","","null","81","","","","","","","","","","","","","","","",""
"","ISI","","html-keyboard-response","538","828905","0.0-1.0-732.0","0","0","53970","","null","","","null","81","NaN","","","","","","","","","","","","","","",""
"","S2","","html-keyboard-response","539","829160","0.0-1.0-733.0","0","0","53970","","null","","","null","81","","NaN","","","","","","","","","","","","","",""
"","response","","html-keyboard-response","540","830259","0.0-1.0-734.0","0","0","53970","","1095","","","68","81","","","2","81","training","adjacent","FE","6","5","O.jpg","M.jpg","1","0","0","",""
"","feedback","","html-keyboard-response","541","831265","0.0-1.0-735.0-0.0","0","0","53970","","null","","","null","81","","","","","","","","","","","","","","","",""
"","time_out","","html-keyboard-response","542","833269","0.0-1.0-737.0-0.0","0","0","53970","","null","","","null","81","","","","","","","","","","","","","","","",""
"","ITI","","html-keyboard-response","543","834273","0.0-1.0-738.0","0","0","53970","","null","","","null","81","","","","","","","","","","","","","","","NaN",""
"","S1","","html-keyboard-response","544","834528","0.0-1.0-740.0","0","0","53970","","null","","","null","82","","","","","","","","","","","","","","","",""
"","ISI","","html-keyboard-response","545","836531","0.0-1.0-741.0","0","0","53970","","null","","","null","82","NaN","","","","","","","","","","","","","","",""
"","S2","","html-keyboard-response","546","836787","0.0-1.0-742.0","0","0","53970","","null","","","null","82","","NaN","","","","","","","","","","","","","",""
"","response","","html-keyboard-response","547","837322","0.0-1.0-743.0","0","0","53970","","532","","","75","82","","","2","82","training","adjacent","EF","5","6","M.jpg","O.jpg","0","1","0","",""
"","feedback","","html-keyboard-response","548","838326","0.0-1.0-744.0-0.0","0","0","53970","","null","","","null","82","","","","","","","","","","","","","","","",""
"","time_out","","html-keyboard-response","549","840331","0.0-1.0-746.0-0.0","0","0","53970","","null","","","null","82","","","","","","","","","","","","","","","",""
"","ITI","","html-keyboard-response","550","841335","0.0-1.0-747.0","0","0","53970","","null","","","null","82","","","","","","","","","","","","","","","NaN",""
"","S1","","html-keyboard-response","551","841589","0.0-1.0-749.0","0","0","53970","","null","","","null","83","","","","","","","","","","","","","","","",""
"","ISI","","html-keyboard-response","552","843592","0.0-1.0-750.0","0","0","53970","","null","","","null","83","NaN","","","","","","","","","","","","","","",""
"","S2","","html-keyboard-response","553","843846","0.0-1.0-751.0","0","0","53970","","null","","","null","83","","NaN","","","","","","","","","","","","","",""
"","response","","html-keyboard-response","554","843935","0.0-1.0-752.0","0","0","53970","","86","","","68","83","","","2","83","training","adjacent","AB","1","2","R.jpg","Q.jpg","1","1","1","",""
"","feedback","","html-keyboard-response","555","844939","0.0-1.0-753.0-0.0","0","0","53970","","null","","","null","83","","","","","","","","","","","","","","","",""
"","ITI","","html-keyboard-response","556","845943","0.0-1.0-756.0","0","0","53970","","null","","","null","83","","","","","","","","","","","","","","","NaN",""
"","S1","","html-keyboard-response","557","846197","0.0-1.0-758.0","0","0","53970","","null","","","null","84","","","","","","","","","","","","","","","",""
"","ISI","","html-keyboard-response","558","848201","0.0-1.0-759.0","0","0","53970","","null","","","null","84","NaN","","","","","","","","","","","","","","",""
"","S2","","html-keyboard-response","559","848456","0.0-1.0-760.0","0","0","53970","","null","","","null","84","","NaN","","","","","","","","","","","","","",""
"","response","","html-keyboard-response","560","849496","0.0-1.0-761.0","0","0","53970","","1036","","","75","84","","","2","84","training","adjacent","GF","7","6","P.jpg","O.jpg","0","0","1","",""
"","feedback","","html-keyboard-response","561","850500","0.0-1.0-762.0-0.0","0","0","53970","","null","","","null","84","","","","","","","","","","","","","","","",""
"","ITI","","html-keyboard-response","562","851505","0.0-1.0-765.0","0","0","53970","","null","","","null","84","","","","","","","","","","","","","","","NaN",""
"","S1","","html-keyboard-response","563","851760","0.0-1.0-767.0","0","0","53970","","null","","","null","85","","","","","","","","","","","","","","","",""
"","ISI","","html-keyboard-response","564","853763","0.0-1.0-768.0","0","0","53970","","null","","","null","85","NaN","","","","","","","","","","","","","","",""
"","S2","","html-keyboard-response","565","854017","0.0-1.0-769.0","0","0","53970","","null","","","null","85","","NaN","","","","","","","","","","","","","",""
"","response","","html-keyboard-response","566","854949","0.0-1.0-770.0","0","0","53970","","930","","","68","85","","","2","85","training","adjacent","FG","6","7","O.jpg","P.jpg","1","1","1","",""
"","feedback","","html-keyboard-response","567","855954","0.0-1.0-771.0-0.0","0","0","53970","","null","","","null","85","","","","","","","","","","","","","","","",""
"","ITI","","html-keyboard-response","568","856958","0.0-1.0-774.0","0","0","53970","","null","","","null","85","","","","","","","","","","","","","","","NaN",""
"","S1","","html-keyboard-response","569","857215","0.0-1.0-776.0","0","0","53970","","null","","","null","86","","","","","","","","","","","","","","","",""
"","ISI","","html-keyboard-response","570","859219","0.0-1.0-777.0","0","0","53970","","null","","","null","86","NaN","","","","","","","","","","","","","","",""
"","S2","","html-keyboard-response","571","859472","0.0-1.0-778.0","0","0","53970","","null","","","null","86","","NaN","","","","","","","","","","","","","",""
"","response","","html-keyboard-response","572","860854","0.0-1.0-779.0","0","0","53970","","1376","","","75","86","","","2","86","training","adjacent","ED","5","4","M.jpg","N.jpg","0","0","1","",""
"","feedback","","html-keyboard-response","573","861859","0.0-1.0-780.0-0.0","0","0","53970","","null","","","null","86","","","","","","","","","","","","","","","",""
"","ITI","","html-keyboard-response","574","862863","0.0-1.0-783.0","0","0","53970","","null","","","null","86","","","","","","","","","","","","","","","NaN",""
"","S1","","html-keyboard-response","575","863117","0.0-1.0-785.0","0","0","53970","","null","","","null","87","","","","","","","","","","","","","","","",""
"","ISI","","html-keyboard-response","576","865121","0.0-1.0-786.0","0","0","53970","","null","","","null","87","NaN","","","","","","","","","","","","","","",""
"","S2","","html-keyboard-response","577","865376","0.0-1.0-787.0","0","0","53970","","null","","","null","87","","NaN","","","","","","","","","","","","","",""
"","response","","html-keyboard-response","578","867380","0.0-1.0-788.0","0","0","53970","","null","","","null","87","","","2","87","training","adjacent","ED","5","4","M.jpg","N.jpg","NaN","0","0","",""
"","too_slow_prompt","","html-keyboard-response","579","868385","0.0-1.0-790.0-0.0","1","0","53970","","null","","","null","","","","","","","","","","","","","","","","",""
"","time_out","","html-keyboard-response","580","870389","0.0-1.0-791.0-0.0","0","0","53970","","null","","","null","87","","","","","","","","","","","","","","","",""
"","ITI","","html-keyboard-response","581","871393","0.0-1.0-792.0","0","0","53970","","null","","","null","87","","","","","","","","","","","","","","","NaN",""
"","S1","","html-keyboard-response","582","871648","0.0-1.0-794.0","0","0","53970","","null","","","null","88","","","","","","","","","","","","","","","",""
