"success","ttype","start_time","trial_type","trial_index","time_elapsed","internal_node_id","warning","missed_checkup","PID","view_history","rt","responses","repeat_instructions","key_press","index","keypress_isi","keypress_S2","block","trial_num","phase","group_type","pair_type","S1_stim","S2_stim","S1_img","S2_img","S1_chosen","S1_higher","accuracy","keypress_iti","total_bonus_tally"
"true","full_screen","d04142023hr0102","fullscreen","0","12809","0.0-0.0","0","0","41094","","","","","","","","","","","","","","","","","","","","","",""
"","instructions","","instructions","1","45397","0.0-1.0-0.0-0.0","0","0","41094","[{""page_index"":0,""viewing_time"":2606},{""page_index"":1,""viewing_time"":20900},{""page_index"":2,""viewing_time"":6487},{""page_index"":3,""viewing_time"":2593}]","32586","","","","","","","","","","","","","","","","","","","",""
"","comprehension_check","","survey-multi-choice","2","69406","0.0-1.0-0.0-1.0","0","0","41094","","24006","{""Q0"":""True"",""Q1"":""D"",""Q2"":""Once the second image appears and while the screen 'MAKE A CHOICE' is shown"",""Q3"":""Green mark"",""Q4"":""either D or K""}","0","","","","","","","","","","","","","","","","","",""
"","start_exp","","html-keyboard-response","3","71743","0.0-1.0-1.0","0","0","41094","","2335","","","32","","","","","","","","","","","","","","","","",""
"","S1","","html-keyboard-response","4","71995","0.0-1.0-2.0","0","0","41094","","null","","","null","0","","","","","","","","","","","","","","","",""
"","ISI","","html-keyboard-response","5","72997","0.0-1.0-3.0","0","0","41094","","null","","","null","0","NaN","","","","","","","","","","","","","","",""
"","S2","","html-keyboard-response","6","73249","0.0-1.0-4.0","0","0","41094","","null","","","null","0","","NaN","","","","","","","","","","","","","",""
"","response","","html-keyboard-response","7","73911","0.0-1.0-5.0-0.0","0","0","41094","","661","","","68","0","","","1","0","training","adjacent","FG","6","7","Q.jpg","O.jpg","1","1","1","",""
"","feedback","","html-keyboard-response","8","74914","0.0-1.0-6.0-0.0","0","0","41094","","null","","","null","0","","","","","","","","","","","","","","","",""
"","ITI","","html-keyboard-response","9","75916","0.0-1.0-9.0","0","0","41094","","null","","","null","0","","","","","","","","","","","","","","","NaN",""
"","S1","","html-keyboard-response","10","76169","0.0-1.0-11.0","0","0","41094","","null","","","null","1","","","","","","","","","","","","","","","",""
"","ISI","","html-keyboard-response","11","77170","0.0-1.0-12.0","0","0","41094","","null","","","null","1","NaN","","","","","","","","","","","","","","",""
"","S2","","html-keyboard-response","12","77422","0.0-1.0-13.0","0","0","41094","","null","","","null","1","","NaN","","","","","","","","","","","","","",""
"","response","","html-keyboard-response","13","77857","0.0-1.0-14.0-0.0","0","0","41094","","434","","","68","1","","","1","1","training","adjacent","BC","2","3","R.jpg","L.jpg","1","1","1","",""
"","feedback","","html-keyboard-response","14","78860","0.0-1.0-15.0-0.0","0","0","41094","","null","","","null","1","","","","","","","","","","","","","","","",""
"","ITI","","html-keyboard-response","15","79862","0.0-1.0-18.0","0","0","41094","","null","","","null","1","","","","","","","","","","","","","","","NaN",""
"","S1","","html-keyboard-response","16","80115","0.0-1.0-20.0","0","0","41094","","null","","","null","2","","","","","","","","","","","","","","","",""
"","ISI","","html-keyboard-response","17","81117","0.0-1.0-21.0","0","0","41094","","null","","","null","2","NaN","","","","","","","","","","","","","","",""
"","S2","","html-keyboard-response","18","81369","0.0-1.0-22.0","0","0","41094","","null","","","null","2","","NaN","","","","","","","","","","","","","",""
"","response","","html-keyboard-response","19","81807","0.0-1.0-23.0-0.0","0","0","41094","","437","","","75","2","","","1","2","training","adjacent","ED","5","4","N.jpg","M.jpg","0","0","1","",""
"","feedback","","html-keyboard-response","20","82809","0.0-1.0-24.0-0.0","0","0","41094","","null","","","null","2","","","","","","","","","","","","","","","",""
"","ITI","","html-keyboard-response","21","83811","0.0-1.0-27.0","0","0","41094","","null","","","null","2","","","","","","","","","","","","","","","NaN",""
"","S1","","html-keyboard-response","22","84063","0.0-1.0-29.0","0","0","41094","","null","","","null","3","","","","","","","","","","","","","","","",""
"","ISI","","html-keyboard-response","23","85064","0.0-1.0-30.0","0","0","41094","","null","","","null","3","NaN","","","","","","","","","","","","","","",""
"","S2","","html-keyboard-response","24","85316","0.0-1.0-31.0","0","0","41094","","null","","","null","3","","NaN","","","","","","","","","","","","","",""
"","response","","html-keyboard-response","25","85935","0.0-1.0-32.0-0.0","0","0","41094","","618","","","75","3","","","1","3","training","adjacent","FG","6","7","Q.jpg","O.jpg","0","1","0","",""
"","feedback","","html-keyboard-response","26","86937","0.0-1.0-33.0-0.0","0","0","41094","","null","","","null","3","","","","","","","","","","","","","","","",""
"","time_out","","html-keyboard-response","27","88939","0.0-1.0-35.0-0.0","0","0","41094","","null","","","null","3","","","","","","","","","","","","","","","",""
"","ITI","","html-keyboard-response","28","89941","0.0-1.0-36.0","0","0","41094","","740","","","68","3","","","","","","","","","","","","","","","d",""
"","S1","","html-keyboard-response","29","90193","0.0-1.0-38.0","0","0","41094","","null","","","null","4","","","","","","","","","","","","","","","",""
"","ISI","","html-keyboard-response","30","91195","0.0-1.0-39.0","0","0","41094","","null","","","null","4","NaN","","","","","","","","","","","","","","",""
"","S2","","html-keyboard-response","31","91447","0.0-1.0-40.0","0","0","41094","","null","","","null","4","","NaN","","","","","","","","","","","","","",""
"","response","","html-keyboard-response","32","91737","0.0-1.0-41.0-0.0","0","0","41094","","289","","","68","4","","","1","4","training","adjacent","FE","6","5","Q.jpg","N.jpg","1","0","0","",""
"","feedback","","html-keyboard-response","33","92739","0.0-1.0-42.0-0.0","0","0","41094","","null","","","null","4","","","","","","","","","","","","","","","",""
"","time_out","","html-keyboard-response","34","94741","0.0-1.0-44.0-0.0","0","0","41094","","null","","","null","4","","","","","","","","","","","","","","","",""
"","ITI","","html-keyboard-response","35","95743","0.0-1.0-45.0","0","0","41094","","null","","","null","4","","","","","","","","","","","","","","","NaN",""
"","S1","","html-keyboard-response","36","95995","0.0-1.0-47.0","0","0","41094","","null","","","null","5","","","","","","","","","","","","","","","",""
"","ISI","","html-keyboard-response","37","96997","0.0-1.0-48.0","0","0","41094","","877","","","75","5","k","","","","","","","","","","","","","","",""
"","S2","","html-keyboard-response","38","97249","0.0-1.0-49.0","0","0","41094","","null","","","null","5","","NaN","","","","","","","","","","","","","",""
"","response","","html-keyboard-response","39","98359","0.0-1.0-50.0-0.0","0","0","41094","","1109","","","75","5","","","1","5","training","adjacent","CD","3","4","L.jpg","M.jpg","0","1","0","",""
"","feedback","","html-keyboard-response","40","99361","0.0-1.0-51.0-0.0","0","0","41094","","null","","","null","5","","","","","","","","","","","","","","","",""
"","time_out","","html-keyboard-response","41","101363","0.0-1.0-53.0-0.0","0","0","41094","","null","","","null","5","","","","","","","","","","","","","","","",""
"","ITI","","html-keyboard-response","42","102365","0.0-1.0-54.0","0","0","41094","","null","","","null","5","","","","","","","","","","","","","","","NaN",""
"","S1","","html-keyboard-response","43","102617","0.0-1.0-56.0","0","0","41094","","null","","","null","6","","","","","","","","","","","","","","","",""
"","ISI","","html-keyboard-response","44","103618","0.0-1.0-57.0","0","0","41094","","null","","","null","6","NaN","","","","","","","","","","","","","","",""
"","S2","","html-keyboard-response","45","103871","0.0-1.0-58.0","0","0","41094","","null","","","null","6","","NaN","","","","","","","","","","","","","",""
"","response","","html-keyboard-response","46","104935","0.0-1.0-59.0-0.0","0","0","41094","","1063","","","68","6","","","1","6","training","adjacent","DE","4","5","M.jpg","N.jpg","1","1","1","",""
"","feedback","","html-keyboard-response","47","105937","0.0-1.0-60.0-0.0","0","0","41094","","null","","","null","6","","","","","","","","","","","","","","","",""
"","ITI","","html-keyboard-response","48","106939","0.0-1.0-63.0","0","0","41094","","null","","","null","6","","","","","","","","","","","","","","","NaN",""
"","S1","","html-keyboard-response","49","107192","0.0-1.0-65.0","0","0","41094","","null","","","null","7","","","","","","","","","","","","","","","",""
"","ISI","","html-keyboard-response","50","108193","0.0-1.0-66.0","0","0","41094","","null","","","null","7","NaN","","","","","","","","","","","","","","",""
"","S2","","html-keyboard-response","51","108445","0.0-1.0-67.0","0","0","41094","","null","","","null","7","","NaN","","","","","","","","","","","","","",""
"","response","","html-keyboard-response","52","109407","0.0-1.0-68.0-0.0","0","0","41094","","961","","","75","7","","","1","7","training","adjacent","AB","1","2","P.jpg","R.jpg","0","1","0","",""
"","feedback","","html-keyboard-response","53","110409","0.0-1.0-69.0-0.0","0","0","41094","","null","","","null","7","","","","","","","","","","","","","","","",""
"","time_out","","html-keyboard-response","54","112411","0.0-1.0-71.0-0.0","0","0","41094","","null","","","null","7","","","","","","","","","","","","","","","",""
"","ITI","","html-keyboard-response","55","113414","0.0-1.0-72.0","0","0","41094","","null","","","null","7","","","","","","","","","","","","","","","NaN",""
"","S1","","html-keyboard-response","56","113666","0.0-1.0-74.0","0","0","41094","","null","","","null","8","","","","","","","","","","","","","","","",""
"","ISI","","html-keyboard-response","57","114667","0.0-1.0-75.0","0","0","41094","","null","","","null","8","NaN","","","","","","","","","","","","","","",""
"","S2","","html-keyboard-response","58","114920","0.0-1.0-76.0","0","0","41094","","null","","","null","8","","NaN","","","","","","","","","","","","","",""
"","response","","html-keyboard-response","59","115816","0.0-1.0-77.0-0.0","0","0","41094","","894","","","75","8","","","1","8","training","adjacent","BA","2","1","R.jpg","P.jpg","0","0","1","",""
"","feedback","","html-keyboard-response","60","116818","0.0-1.0-78.0-0.0","0","0","41094","","null","","","null","8","","","","","","","","","","","","","","","",""
"","ITI","","html-keyboard-response","61","117820","0.0-1.0-81.0","0","0","41094","","null","","","null","8","","","","","","","","","","","","","","","NaN",""
"","S1","","html-keyboard-response","62","118072","0.0-1.0-83.0","0","0","41094","","null","","","null","9","","","","","","","","","","","","","","","",""
"","ISI","","html-keyboard-response","63","119074","0.0-1.0-84.0","0","0","41094","","null","","","null","9","NaN","","","","","","","","","","","","","","",""
"","S2","","html-keyboard-response","64","119327","0.0-1.0-85.0","0","0","41094","","null","","","null","9","","NaN","","","","","","","","","","","","","",""
"","response","","html-keyboard-response","65","120055","0.0-1.0-86.0-0.0","0","0","41094","","727","","","75","9","","","1","9","training","adjacent","GF","7","6","O.jpg","Q.jpg","0","0","1","",""
"","feedback","","html-keyboard-response","66","121057","0.0-1.0-87.0-0.0","0","0","41094","","null","","","null","9","","","","","","","","","","","","","","","",""
"","ITI","","html-keyboard-response","67","122059","0.0-1.0-90.0","0","0","41094","","null","","","null","9","","","","","","","","","","","","","","","NaN",""
"","S1","","html-keyboard-response","68","122311","0.0-1.0-92.0","0","0","41094","","null","","","null","10","","","","","","","","","","","","","","","",""
"","ISI","","html-keyboard-response","69","123312","0.0-1.0-93.0","0","0","41094","","null","","","null","10","NaN","","","","","","","","","","","","","","",""
"","S2","","html-keyboard-response","70","123564","0.0-1.0-94.0","0","0","41094","","null","","","null","10","","NaN","","","","","","","","","","","","","",""
"","response","","html-keyboard-response","71","124255","0.0-1.0-95.0-0.0","0","0","41094","","691","","","68","10","","","1","10","training","adjacent","CD","3","4","L.jpg","M.jpg","1","1","1","",""
"","feedback","","html-keyboard-response","72","125257","0.0-1.0-96.0-0.0","0","0","41094","","null","","","null","10","","","","","","","","","","","","","","","",""
"","ITI","","html-keyboard-response","73","126259","0.0-1.0-99.0","0","0","41094","","null","","","null","10","","","","","","","","","","","","","","","NaN",""
"","S1","","html-keyboard-response","74","126511","0.0-1.0-101.0","0","0","41094","","null","","","null","11","","","","","","","","","","","","","","","",""
"","ISI","","html-keyboard-response","75","127512","0.0-1.0-102.0","0","0","41094","","null","","","null","11","NaN","","","","","","","","","","","","","","",""
"","S2","","html-keyboard-response","76","127764","0.0-1.0-103.0","0","0","41094","","null","","","null","11","","NaN","","","","","","","","","","","","","",""
"","response","","html-keyboard-response","77","128217","0.0-1.0-104.0-0.0","0","0","41094","","453","","","75","11","","","1","11","training","adjacent","GF","7","6","O.jpg","Q.jpg","0","0","1","",""
"","feedback","","html-keyboard-response","78","129219","0.0-1.0-105.0-0.0","0","0","41094","","null","","","null","11","","","","","","","","","","","","","","","",""
"","ITI","","html-keyboard-response","79","130221","0.0-1.0-108.0","0","0","41094","","null","","","null","11","","","","","","","","","","","","","","","NaN",""
"","S1","","html-keyboard-response","80","130473","0.0-1.0-110.0","0","0","41094","","null","","","null","12","","","","","","","","","","","","","","","",""
"","ISI","","html-keyboard-response","81","131474","0.0-1.0-111.0","0","0","41094","","null","","","null","12","NaN","","","","","","","","","","","","","","",""
"","S2","","html-keyboard-response","82","131727","0.0-1.0-112.0","0","0","41094","","null","","","null","12","","NaN","","","","","","","","","","","","","",""
"","response","","html-keyboard-response","83","132063","0.0-1.0-113.0-0.0","0","0","41094","","336","","","68","12","","","1","12","training","adjacent","CB","3","2","L.jpg","R.jpg","1","0","0","",""
"","feedback","","html-keyboard-response","84","133065","0.0-1.0-114.0-0.0","0","0","41094","","null","","","null","12","","","","","","","","","","","","","","","",""
"","time_out","","html-keyboard-response","85","135067","0.0-1.0-116.0-0.0","0","0","41094","","null","","","null","12","","","","","","","","","","","","","","","",""
"","ITI","","html-keyboard-response","86","136068","0.0-1.0-117.0","0","0","41094","","null","","","null","12","","","","","","","","","","","","","","","NaN",""
"","S1","","html-keyboard-response","87","136321","0.0-1.0-119.0","0","0","41094","","null","","","null","13","","","","","","","","","","","","","","","",""
"","ISI","","html-keyboard-response","88","137322","0.0-1.0-120.0","0","0","41094","","null","","","null","13","NaN","","","","","","","","","","","","","","",""
"","S2","","html-keyboard-response","89","137574","0.0-1.0-121.0","0","0","41094","","null","","","null","13","","NaN","","","","","","","","","","","","","",""
"","response","","html-keyboard-response","90","138071","0.0-1.0-122.0-0.0","0","0","41094","","497","","","68","13","","","1","13","training","adjacent","CD","3","4","L.jpg","M.jpg","1","1","1","",""
"","feedback","","html-keyboard-response","91","139073","0.0-1.0-123.0-0.0","0","0","41094","","null","","","null","13","","","","","","","","","","","","","","","",""
"","ITI","","html-keyboard-response","92","140075","0.0-1.0-126.0","0","0","41094","","null","","","null","13","","","","","","","","","","","","","","","NaN",""
"","S1","","html-keyboard-response","93","140326","0.0-1.0-128.0","0","0","41094","","null","","","null","14","","","","","","","","","","","","","","","",""
"","ISI","","html-keyboard-response","94","141328","0.0-1.0-129.0","0","0","41094","","null","","","null","14","NaN","","","","","","","","","","","","","","",""
"","S2","","html-keyboard-response","95","141581","0.0-1.0-130.0","0","0","41094","","null","","","null","14","","NaN","","","","","","","","","","","","","",""
"","response","","html-keyboard-response","96","142208","0.0-1.0-131.0-0.0","0","0","41094","","626","","","75","14","","","1","14","training","adjacent","BC","2","3","R.jpg","L.jpg","0","1","0","",""
"","feedback","","html-keyboard-response","97","143209","0.0-1.0-132.0-0.0","0","0","41094","","null","","","null","14","","","","","","","","","","","","","","","",""
"","time_out","","html-keyboard-response","98","145211","0.0-1.0-134.0-0.0","0","0","41094","","null","","","null","14","","","","","","","","","","","","","","","",""
"","ITI","","html-keyboard-response","99","146212","0.0-1.0-135.0","0","0","41094","","null","","","null","14","","","","","","","","","","","","","","","NaN",""
"","S1","","html-keyboard-response","100","146464","0.0-1.0-137.0","0","0","41094","","null","","","null","15","","","","","","","","","","","","","","","",""
"","ISI","","html-keyboard-response","101","147469","0.0-1.0-138.0","0","0","41094","","null","","","null","15","NaN","","","","","","","","","","","","","","",""
"","S2","","html-keyboard-response","102","147721","0.0-1.0-139.0","0","0","41094","","null","","","null","15","","NaN","","","","","","","","","","","","","",""
"","response","","html-keyboard-response","103","148391","0.0-1.0-140.0-0.0","0","0","41094","","670","","","75","15","","","1","15","training","adjacent","DC","4","3","M.jpg","L.jpg","0","0","1","",""
"","feedback","","html-keyboard-response","104","149393","0.0-1.0-141.0-0.0","0","0","41094","","null","","","null","15","","","","","","","","","","","","","","","",""
"","ITI","","html-keyboard-response","105","150396","0.0-1.0-144.0","0","0","41094","","null","","","null","15","","","","","","","","","","","","","","","NaN",""
"","S1","","html-keyboard-response","106","150648","0.0-1.0-146.0","0","0","41094","","null","","","null","16","","","","","","","","","","","","","","","",""
"","ISI","","html-keyboard-response","107","151651","0.0-1.0-147.0","0","0","41094","","null","","","null","16","NaN","","","","","","","","","","","","","","",""
"","S2","","html-keyboard-response","108","151904","0.0-1.0-148.0","0","0","41094","","null","","","null","16","","NaN","","","","","","","","","","","","","",""
"","response","","html-keyboard-response","109","152719","0.0-1.0-149.0-0.0","0","0","41094","","815","","","68","16","","","1","16","training","adjacent","FE","6","5","Q.jpg","N.jpg","1","0","0","",""
"","feedback","","html-keyboard-response","110","153721","0.0-1.0-150.0-0.0","0","0","41094","","null","","","null","16","","","","","","","","","","","","","","","",""
"","time_out","","html-keyboard-response","111","155723","0.0-1.0-152.0-0.0","0","0","41094","","null","","","null","16","","","","","","","","","","","","","","","",""
"","ITI","","html-keyboard-response","112","156725","0.0-1.0-153.0","0","0","41094","","null","","","null","16","","","","","","","","","","","","","","","NaN",""
"","S1","","html-keyboard-response","113","156977","0.0-1.0-155.0","0","0","41094","","null","","","null","17","","","","","","","","","","","","","","","",""
"","ISI","","html-keyboard-response","114","157979","0.0-1.0-156.0","0","0","41094","","null","","","null","17","NaN","","","","","","","","","","","","","","",""
"","S2","","html-keyboard-response","115","158231","0.0-1.0-157.0","0","0","41094","","null","","","null","17","","NaN","","","","","","","","","","","","","",""
"","response","","html-keyboard-response","116","158665","0.0-1.0-158.0-0.0","0","0","41094","","434","","","75","17","","","1","17","training","adjacent","ED","5","4","N.jpg","M.jpg","0","0","1","",""
"","feedback","","html-keyboard-response","117","159667","0.0-1.0-159.0-0.0","0","0","41094","","null","","","null","17","","","","","","","","","","","","","","","",""
"","ITI","","html-keyboard-response","118","160670","0.0-1.0-162.0","0","0","41094","","null","","","null","17","","","","","","","","","","","","","","","NaN",""
"","S1","","html-keyboard-response","119","160922","0.0-1.0-164.0","0","0","41094","","null","","","null","18","","","","","","","","","","","","","","","",""
"","ISI","","html-keyboard-response","120","161923","0.0-1.0-165.0","0","0","41094","","null","","","null","18","NaN","","","","","","","","","","","","","","",""
"","S2","","html-keyboard-response","121","162174","0.0-1.0-166.0","0","0","41094","","null","","","null","18","","NaN","","","","","","","","","","","","","",""
"","response","","html-keyboard-response","122","162671","0.0-1.0-167.0-0.0","0","0","41094","","497","","","68","18","","","1","18","training","adjacent","DC","4","3","M.jpg","L.jpg","1","0","0","",""
"","feedback","","html-keyboard-response","123","163674","0.0-1.0-168.0-0.0","0","0","41094","","null","","","null","18","","","","","","","","","","","","","","","",""
"","time_out","","html-keyboard-response","124","165676","0.0-1.0-170.0-0.0","0","0","41094","","null","","","null","18","","","","","","","","","","","","","","","",""
"","ITI","","html-keyboard-response","125","166679","0.0-1.0-171.0","0","0","41094","","null","","","null","18","","","","","","","","","","","","","","","NaN",""
"","S1","","html-keyboard-response","126","166931","0.0-1.0-173.0","0","0","41094","","null","","","null","19","","","","","","","","","","","","","","","",""
"","ISI","","html-keyboard-response","127","167933","0.0-1.0-174.0","0","0","41094","","null","","","null","19","NaN","","","","","","","","","","","","","","",""
"","S2","","html-keyboard-response","128","168185","0.0-1.0-175.0","0","0","41094","","null","","","null","19","","NaN","","","","","","","","","","","","","",""
"","response","","html-keyboard-response","129","168432","0.0-1.0-176.0-0.0","0","0","41094","","246","","","75","19","","","1","19","training","adjacent","EF","5","6","N.jpg","Q.jpg","0","1","0","",""
"","feedback","","html-keyboard-response","130","169433","0.0-1.0-177.0-0.0","0","0","41094","","null","","","null","19","","","","","","","","","","","","","","","",""
"","time_out","","html-keyboard-response","131","171434","0.0-1.0-179.0-0.0","0","0","41094","","null","","","null","19","","","","","","","","","","","","","","","",""
"","ITI","","html-keyboard-response","132","172436","0.0-1.0-180.0","0","0","41094","","null","","","null","19","","","","","","","","","","","","","","","NaN",""
"","S1","","html-keyboard-response","133","172688","0.0-1.0-182.0","0","0","41094","","null","","","null","20","","","","","","","","","","","","","","","",""
"","ISI","","html-keyboard-response","134","173690","0.0-1.0-183.0","0","0","41094","","null","","","null","20","NaN","","","","","","","","","","","","","","",""
"","S2","","html-keyboard-response","135","173942","0.0-1.0-184.0","0","0","41094","","null","","","null","20","","NaN","","","","","","","","","","","","","",""
"","response","","html-keyboard-response","136","174490","0.0-1.0-185.0-0.0","0","0","41094","","547","","","68","20","","","1","20","training","adjacent","FG","6","7","Q.jpg","O.jpg","1","1","1","",""
"","feedback","","html-keyboard-response","137","175492","0.0-1.0-186.0-0.0","0","0","41094","","null","","","null","20","","","","","","","","","","","","","","","",""
"","ITI","","html-keyboard-response","138","176493","0.0-1.0-189.0","0","0","41094","","null","","","null","20","","","","","","","","","","","","","","","NaN",""
"","S1","","html-keyboard-response","139","176745","0.0-1.0-191.0","0","0","41094","","null","","","null","21","","","","","","","","","","","","","","","",""
"","ISI","","html-keyboard-response","140","177746","0.0-1.0-192.0","0","0","41094","","null","","","null","21","NaN","","","","","","","","","","","","","","",""
"","S2","","html-keyboard-response","141","177999","0.0-1.0-193.0","0","0","41094","","null","","","null","21","","NaN","","","","","","","","","","","","","",""
"","response","","html-keyboard-response","142","178440","0.0-1.0-194.0-0.0","0","0","41094","","440","","","68","21","","","1","21","training","adjacent","FE","6","5","Q.jpg","N.jpg","1","0","0","",""
"","feedback","","html-keyboard-response","143","179441","0.0-1.0-195.0-0.0","0","0","41094","","null","","","null","21","","","","","","","","","","","","","","","",""
"","time_out","","html-keyboard-response","144","181443","0.0-1.0-197.0-0.0","0","0","41094","","null","","","null","21","","","","","","","","","","","","","","","",""
"","ITI","","html-keyboard-response","145","182445","0.0-1.0-198.0","0","0","41094","","null","","","null","21","","","","","","","","","","","","","","","NaN",""
"","S1","","html-keyboard-response","146","182698","0.0-1.0-200.0","0","0","41094","","null","","","null","22","","","","","","","","","","","","","","","",""
"","ISI","","html-keyboard-response","147","183700","0.0-1.0-201.0","0","0","41094","","null","","","null","22","NaN","","","","","","","","","","","","","","",""
"","S2","","html-keyboard-response","148","183952","0.0-1.0-202.0","0","0","41094","","null","","","null","22","","NaN","","","","","","","","","","","","","",""
"","response","","html-keyboard-response","149","184408","0.0-1.0-203.0-0.0","0","0","41094","","455","","","75","22","","","1","22","training","adjacent","CD","3","4","L.jpg","M.jpg","0","1","0","",""
"","feedback","","html-keyboard-response","150","185409","0.0-1.0-204.0-0.0","0","0","41094","","null","","","null","22","","","","","","","","","","","","","","","",""
"","time_out","","html-keyboard-response","151","187411","0.0-1.0-206.0-0.0","0","0","41094","","null","","","null","22","","","","","","","","","","","","","","","",""
"","ITI","","html-keyboard-response","152","188412","0.0-1.0-207.0","0","0","41094","","null","","","null","22","","","","","","","","","","","","","","","NaN",""
"","S1","","html-keyboard-response","153","188664","0.0-1.0-209.0","0","0","41094","","null","","","null","23","","","","","","","","","","","","","","","",""
"","ISI","","html-keyboard-response","154","189667","0.0-1.0-210.0","0","0","41094","","null","","","null","23","NaN","","","","","","","","","","","","","","",""
"","S2","","html-keyboard-response","155","189919","0.0-1.0-211.0","0","0","41094","","null","","","null","23","","NaN","","","","","","","","","","","","","",""
"","response","","html-keyboard-response","156","190624","0.0-1.0-212.0-0.0","0","0","41094","","704","","","75","23","","","1","23","training","adjacent","ED","5","4","N.jpg","M.jpg","0","0","1","",""
"","feedback","","html-keyboard-response","157","191626","0.0-1.0-213.0-0.0","0","0","41094","","null","","","null","23","","","","","","","","","","","","","","","",""
"","ITI","","html-keyboard-response","158","192629","0.0-1.0-216.0","0","0","41094","","null","","","null","23","","","","","","","","","","","","","","","NaN",""
"","S1","","html-keyboard-response","159","192881","0.0-1.0-218.0","0","0","41094","","null","","","null","24","","","","","","","","","","","","","","","",""
"","ISI","","html-keyboard-response","160","193882","0.0-1.0-219.0","0","0","41094","","null","","","null","24","NaN","","","","","","","","","","","","","","",""
"","S2","","html-keyboard-response","161","194134","0.0-1.0-220.0","0","0","41094","","null","","","null","24","","NaN","","","","","","","","","","","","","",""
"","response","","html-keyboard-response","162","194888","0.0-1.0-221.0-0.0","0","0","41094","","753","","","75","24","","","1","24","training","adjacent","AB","1","2","P.jpg","R.jpg","0","1","0","",""
"","feedback","","html-keyboard-response","163","195889","0.0-1.0-222.0-0.0","0","0","41094","","null","","","null","24","","","","","","","","","","","","","","","",""
"","time_out","","html-keyboard-response","164","197891","0.0-1.0-224.0-0.0","0","0","41094","","null","","","null","24","","","","","","","","","","","","","","","",""
"","ITI","","html-keyboard-response","165","198893","0.0-1.0-225.0","0","0","41094","","null","","","null","24","","","","","","","","","","","","","","","NaN",""
"","S1","","html-keyboard-response","166","199147","0.0-1.0-227.0","0","0","41094","","null","","","null","25","","","","","","","","","","","","","","","",""
"","ISI","","html-keyboard-response","167","200149","0.0-1.0-228.0","0","0","41094","","null","","","null","25","NaN","","","","","","","","","","","","","","",""
"","S2","","html-keyboard-response","168","200401","0.0-1.0-229.0","0","0","41094","","null","","","null","25","","NaN","","","","","","","","","","","","","",""
"","response","","html-keyboard-response","169","200896","0.0-1.0-230.0-0.0","0","0","41094","","494","","","75","25","","","1","25","training","adjacent","CB","3","2","L.jpg","R.jpg","0","0","1","",""
"","feedback","","html-keyboard-response","170","201899","0.0-1.0-231.0-0.0","0","0","41094","","null","","","null","25","","","","","","","","","","","","","","","",""
"","ITI","","html-keyboard-response","171","202901","0.0-1.0-234.0","0","0","41094","","null","","","null","25","","","","","","","","","","","","","","","NaN",""
"","S1","","html-keyboard-response","172","203153","0.0-1.0-236.0","0","0","41094","","null","","","null","26","","","","","","","","","","","","","","","",""
"","ISI","","html-keyboard-response","173","204155","0.0-1.0-237.0","0","0","41094","","null","","","null","26","NaN","","","","","","","","","","","","","","",""
"","S2","","html-keyboard-response","174","204407","0.0-1.0-238.0","0","0","41094","","null","","","null","26","","NaN","","","","","","","","","","","","","",""
"","response","","html-keyboard-response","175","204776","0.0-1.0-239.0-0.0","0","0","41094","","368","","","68","26","","","1","26","training","adjacent","EF","5","6","N.jpg","Q.jpg","1","1","1","",""
"","feedback","","html-keyboard-response","176","205778","0.0-1.0-240.0-0.0","0","0","41094","","null","","","null","26","","","","","","","","","","","","","","","",""
"","ITI","","html-keyboard-response","177","206780","0.0-1.0-243.0","0","0","41094","","null","","","null","26","","","","","","","","","","","","","","","NaN",""
"","S1","","html-keyboard-response","178","207032","0.0-1.0-245.0","0","0","41094","","null","","","null","27","","","","","","","","","","","","","","","",""
"","ISI","","html-keyboard-response","179","208035","0.0-1.0-246.0","0","0","41094","","null","","","null","27","NaN","","","","","","","","","","","","","","",""
"","S2","","html-keyboard-response","180","208287","0.0-1.0-247.0","0","0","41094","","null","","","null","27","","NaN","","","","","","","","","","","","","",""
"","response","","html-keyboard-response","181","208488","0.0-1.0-248.0-0.0","0","0","41094","","200","","","68","27","","","1","27","training","adjacent","BC","2","3","R.jpg","L.jpg","1","1","1","",""
"","feedback","","html-keyboard-response","182","209490","0.0-1.0-249.0-0.0","0","0","41094","","null","","","null","27","","","","","","","","","","","","","","","",""
"","ITI","","html-keyboard-response","183","210491","0.0-1.0-252.0","0","0","41094","","null","","","null","27","","","","","","","","","","","","","","","NaN",""
"","S1","","html-keyboard-response","184","210743","0.0-1.0-254.0","0","0","41094","","null","","","null","28","","","","","","","","","","","","","","","",""
"","ISI","","html-keyboard-response","185","211745","0.0-1.0-255.0","0","0","41094","","null","","","null","28","NaN","","","","","","","","","","","","","","",""
"","S2","","html-keyboard-response","186","211996","0.0-1.0-256.0","0","0","41094","","null","","","null","28","","NaN","","","","","","","","","","","","","",""
"","response","","html-keyboard-response","187","212169","0.0-1.0-257.0-0.0","0","0","41094","","171","","","75","28","","","1","28","training","adjacent","EF","5","6","N.jpg","Q.jpg","0","1","0","",""
"","feedback","","html-keyboard-response","188","213171","0.0-1.0-258.0-0.0","0","0","41094","","null","","","null","28","","","","","","","","","","","","","","","",""
"","time_out","","html-keyboard-response","189","215174","0.0-1.0-260.0-0.0","0","0","41094","","null","","","null","28","","","","","","","","","","","","","","","",""
"","ITI","","html-keyboard-response","190","216176","0.0-1.0-261.0","0","0","41094","","null","","","null","28","","","","","","","","","","","","","","","NaN",""
"","S1","","html-keyboard-response","191","216428","0.0-1.0-263.0","0","0","41094","","null","","","null","29","","","","","","","","","","","","","","","",""
"","ISI","","html-keyboard-response","192","217431","0.0-1.0-264.0","0","0","41094","","null","","","null","29","NaN","","","","","","","","","","","","","","",""
"","S2","","html-keyboard-response","193","217683","0.0-1.0-265.0","0","0","41094","","null","","","null","29","","NaN","","","","","","","","","","","","","",""
"","response","","html-keyboard-response","194","218209","0.0-1.0-266.0-0.0","0","0","41094","","525","","","75","29","","","1","29","training","adjacent","GF","7","6","O.jpg","Q.jpg","0","0","1","",""
"","feedback","","html-keyboard-response","195","219211","0.0-1.0-267.0-0.0","0","0","41094","","null","","","null","29","","","","","","","","","","","","","","","",""
"","ITI","","html-keyboard-response","196","220213","0.0-1.0-270.0","0","0","41094","","null","","","null","29","","","","","","","","","","","","","","","NaN",""
"","S1","","html-keyboard-response","197","220466","0.0-1.0-272.0","0","0","41094","","null","","","null","30","","","","","","","","","","","","","","","",""
"","ISI","","html-keyboard-response","198","221467","0.0-1.0-273.0","0","0","41094","","null","","","null","30","NaN","","","","","","","","","","","","","","",""
"","S2","","html-keyboard-response","199","221720","0.0-1.0-274.0","0","0","41094","","null","","","null","30","","NaN","","","","","","","","","","","","","",""
"","response","","html-keyboard-response","200","222059","0.0-1.0-275.0-0.0","0","0","41094","","338","","","68","30","","","1","30","training","adjacent","BC","2","3","R.jpg","L.jpg","1","1","1","",""
"","feedback","","html-keyboard-response","201","223062","0.0-1.0-276.0-0.0","0","0","41094","","null","","","null","30","","","","","","","","","","","","","","","",""
"","ITI","","html-keyboard-response","202","224064","0.0-1.0-279.0","0","0","41094","","null","","","null","30","","","","","","","","","","","","","","","NaN",""
"","S1","","html-keyboard-response","203","224316","0.0-1.0-281.0","0","0","41094","","null","","","null","31","","","","","","","","","","","","","","","",""
"","ISI","","html-keyboard-response","204","225317","0.0-1.0-282.0","0","0","41094","","null","","","null","31","NaN","","","","","","","","","","","","","","",""
"","S2","","html-keyboard-response","205","225569","0.0-1.0-283.0","0","0","41094","","null","","","null","31","","NaN","","","","","","","","","","","","","",""
"","response","","html-keyboard-response","206","225936","0.0-1.0-284.0-0.0","0","0","41094","","367","","","68","31","","","1","31","training","adjacent","FG","6","7","Q.jpg","O.jpg","1","1","1","",""
"","feedback","","html-keyboard-response","207","226938","0.0-1.0-285.0-0.0","0","0","41094","","null","","","null","31","","","","","","","","","","","","","","","",""
"","ITI","","html-keyboard-response","208","227940","0.0-1.0-288.0","0","0","41094","","null","","","null","31","","","","","","","","","","","","","","","NaN",""
"","S1","","html-keyboard-response","209","228192","0.0-1.0-290.0","0","0","41094","","null","","","null","32","","","","","","","","","","","","","","","",""
"","ISI","","html-keyboard-response","210","229193","0.0-1.0-291.0","0","0","41094","","null","","","null","32","NaN","","","","","","","","","","","","","","",""
"","S2","","html-keyboard-response","211","229445","0.0-1.0-292.0","0","0","41094","","null","","","null","32","","NaN","","","","","","","","","","","","","",""
"","response","","html-keyboard-response","212","229921","0.0-1.0-293.0-0.0","0","0","41094","","475","","","68","32","","","1","32","training","adjacent","DE","4","5","M.jpg","N.jpg","1","1","1","",""
"","feedback","","html-keyboard-response","213","230923","0.0-1.0-294.0-0.0","0","0","41094","","null","","","null","32","","","","","","","","","","","","","","","",""
"","ITI","","html-keyboard-response","214","231925","0.0-1.0-297.0","0","0","41094","","null","","","null","32","","","","","","","","","","","","","","","NaN",""
"","S1","","html-keyboard-response","215","232177","0.0-1.0-299.0","0","0","41094","","null","","","null","33","","","","","","","","","","","","","","","",""
"","ISI","","html-keyboard-response","216","233179","0.0-1.0-300.0","0","0","41094","","null","","","null","33","NaN","","","","","","","","","","","","","","",""
"","S2","","html-keyboard-response","217","233431","0.0-1.0-301.0","0","0","41094","","null","","","null","33","","NaN","","","","","","","","","","","","","",""
"","response","","html-keyboard-response","218","233923","0.0-1.0-302.0-0.0","0","0","41094","","492","","","75","33","","","1","33","training","adjacent","ED","5","4","N.jpg","M.jpg","0","0","1","",""
"","feedback","","html-keyboard-response","219","234925","0.0-1.0-303.0-0.0","0","0","41094","","null","","","null","33","","","","","","","","","","","","","","","",""
"","ITI","","html-keyboard-response","220","235927","0.0-1.0-306.0","0","0","41094","","null","","","null","33","","","","","","","","","","","","","","","NaN",""
"","S1","","html-keyboard-response","221","236179","0.0-1.0-308.0","0","0","41094","","null","","","null","34","","","","","","","","","","","","","","","",""
"","ISI","","html-keyboard-response","222","237181","0.0-1.0-309.0","0","0","41094","","null","","","null","34","NaN","","","","","","","","","","","","","","",""
"","S2","","html-keyboard-response","223","237433","0.0-1.0-310.0","0","0","41094","","null","","","null","34","","NaN","","","","","","","","","","","","","",""
"","response","","html-keyboard-response","224","237770","0.0-1.0-311.0-0.0","0","0","41094","","337","","","75","34","","","1","34","training","adjacent","AB","1","2","P.jpg","R.jpg","0","1","0","",""
"","feedback","","html-keyboard-response","225","238773","0.0-1.0-312.0-0.0","0","0","41094","","null","","","null","34","","","","","","","","","","","","","","","",""
"","time_out","","html-keyboard-response","226","240775","0.0-1.0-314.0-0.0","0","0","41094","","null","","","null","34","","","","","","","","","","","","","","","",""
"","ITI","","html-keyboard-response","227","241777","0.0-1.0-315.0","0","0","41094","","null","","","null","34","","","","","","","","","","","","","","","NaN",""
"","S1","","html-keyboard-response","228","242030","0.0-1.0-317.0","0","0","41094","","null","","","null","35","","","","","","","","","","","","","","","",""
"","ISI","","html-keyboard-response","229","243032","0.0-1.0-318.0","0","0","41094","","null","","","null","35","NaN","","","","","","","","","","","","","","",""
"","S2","","html-keyboard-response","230","243285","0.0-1.0-319.0","0","0","41094","","null","","","null","35","","NaN","","","","","","","","","","","","","",""
"","response","","html-keyboard-response","231","243688","0.0-1.0-320.0-0.0","0","0","41094","","403","","","75","35","","","1","35","training","adjacent","DE","4","5","M.jpg","N.jpg","0","1","0","",""
"","feedback","","html-keyboard-response","232","244690","0.0-1.0-321.0-0.0","0","0","41094","","null","","","null","35","","","","","","","","","","","","","","","",""
"","time_out","","html-keyboard-response","233","246692","0.0-1.0-323.0-0.0","0","0","41094","","null","","","null","35","","","","","","","","","","","","","","","",""
"","ITI","","html-keyboard-response","234","247694","0.0-1.0-324.0","0","0","41094","","null","","","null","35","","","","","","","","","","","","","","","NaN",""
"","S1","","html-keyboard-response","235","247946","0.0-1.0-326.0","0","0","41094","","null","","","null","36","","","","","","","","","","","","","","","",""
"","ISI","","html-keyboard-response","236","248949","0.0-1.0-327.0","0","0","41094","","null","","","null","36","NaN","","","","","","","","","","","","","","",""
"","S2","","html-keyboard-response","237","249202","0.0-1.0-328.0","0","0","41094","","null","","","null","36","","NaN","","","","","","","","","","","","","",""
"","response","","html-keyboard-response","238","249689","0.0-1.0-329.0-0.0","0","0","41094","","486","","","75","36","","","1","36","training","adjacent","DE","4","5","M.jpg","N.jpg","0","1","0","",""
"","feedback","","html-keyboard-response","239","250704","0.0-1.0-330.0-0.0","0","0","41094","","null","","","null","36","","","","","","","","","","","","","","","",""
"","time_out","","html-keyboard-response","240","252706","0.0-1.0-332.0-0.0","0","0","41094","","null","","","null","36","","","","","","","","","","","","","","","",""
"","ITI","","html-keyboard-response","241","253709","0.0-1.0-333.0","0","0","41094","","null","","","null","36","","","","","","","","","","","","","","","NaN",""
"","S1","","html-keyboard-response","242","253960","0.0-1.0-335.0","0","0","41094","","null","","","null","37","","","","","","","","","","","","","","","",""
"","ISI","","html-keyboard-response","243","254962","0.0-1.0-336.0","0","0","41094","","null","","","null","37","NaN","","","","","","","","","","","","","","",""
"","S2","","html-keyboard-response","244","255220","0.0-1.0-337.0","0","0","41094","","null","","","null","37","","NaN","","","","","","","","","","","","","",""
"","response","","html-keyboard-response","245","255536","0.0-1.0-338.0-0.0","0","0","41094","","316","","","75","37","","","1","37","training","adjacent","DC","4","3","M.jpg","L.jpg","0","0","1","",""
"","feedback","","html-keyboard-response","246","256538","0.0-1.0-339.0-0.0","0","0","41094","","null","","","null","37","","","","","","","","","","","","","","","",""
"","ITI","","html-keyboard-response","247","257541","0.0-1.0-342.0","0","0","41094","","null","","","null","37","","","","","","","","","","","","","","","NaN",""
"","S1","","html-keyboard-response","248","257807","0.0-1.0-344.0","0","0","41094","","null","","","null","38","","","","","","","","","","","","","","","",""
"","ISI","","html-keyboard-response","249","258809","0.0-1.0-345.0","0","0","41094","","null","","","null","38","NaN","","","","","","","","","","","","","","",""
"","S2","","html-keyboard-response","250","259061","0.0-1.0-346.0","0","0","41094","","null","","","null","38","","NaN","","","","","","","","","","","","","",""
"","response","","html-keyboard-response","251","259474","0.0-1.0-347.0-0.0","0","0","41094","","412","","","68","38","","","1","38","training","adjacent","BA","2","1","R.jpg","P.jpg","1","0","0","",""
"","feedback","","html-keyboard-response","252","260475","0.0-1.0-348.0-0.0","0","0","41094","","null","","","null","38","","","","","","","","","","","","","","","",""
"","time_out","","html-keyboard-response","253","262477","0.0-1.0-350.0-0.0","0","0","41094","","null","","","null","38","","","","","","","","","","","","","","","",""
"","ITI","","html-keyboard-response","254","263479","0.0-1.0-351.0","0","0","41094","","null","","","null","38","","","","","","","","","","","","","","","NaN",""
"","S1","","html-keyboard-response","255","263731","0.0-1.0-353.0","0","0","41094","","null","","","null","39","","","","","","","","","","","","","","","",""
"","ISI","","html-keyboard-response","256","264733","0.0-1.0-354.0","0","0","41094","","null","","","null","39","NaN","","","","","","","","","","","","","","",""
"","S2","","html-keyboard-response","257","264985","0.0-1.0-355.0","0","0","41094","","null","","","null","39","","NaN","","","","","","","","","","","","","",""
"","response","","html-keyboard-response","258","265297","0.0-1.0-356.0-0.0","0","0","41094","","311","","","68","39","","","1","39","training","adjacent","FE","6","5","Q.jpg","N.jpg","1","0","0","",""
"","feedback","","html-keyboard-response","259","266300","0.0-1.0-357.0-0.0","0","0","41094","","null","","","null","39","","","","","","","","","","","","","","","",""
"","time_out","","html-keyboard-response","260","268301","0.0-1.0-359.0-0.0","0","0","41094","","null","","","null","39","","","","","","","","","","","","","","","",""
"","ITI","","html-keyboard-response","261","269303","0.0-1.0-360.0","0","0","41094","","null","","","null","39","","","","","","","","","","","","","","","NaN",""
"","S1","","html-keyboard-response","262","269555","0.0-1.0-362.0","0","0","41094","","null","","","null","40","","","","","","","","","","","","","","","",""
"","ISI","","html-keyboard-response","263","270556","0.0-1.0-363.0","0","0","41094","","null","","","null","40","NaN","","","","","","","","","","","","","","",""
"","S2","","html-keyboard-response","264","270808","0.0-1.0-364.0","0","0","41094","","null","","","null","40","","NaN","","","","","","","","","","","","","",""
"","response","","html-keyboard-response","265","270868","0.0-1.0-365.0-0.0","0","0","41094","","58","","","68","40","","","1","40","training","adjacent","BA","2","1","R.jpg","P.jpg","1","0","0","",""
"","feedback","","html-keyboard-response","266","271871","0.0-1.0-366.0-0.0","0","0","41094","","null","","","null","40","","","","","","","","","","","","","","","",""
"","time_out","","html-keyboard-response","267","273873","0.0-1.0-368.0-0.0","0","0","41094","","null","","","null","40","","","","","","","","","","","","","","","",""
"","ITI","","html-keyboard-response","268","274874","0.0-1.0-369.0","0","0","41094","","null","","","null","40","","","","","","","","","","","","","","","NaN",""
"","S1","","html-keyboard-response","269","275126","0.0-1.0-371.0","0","0","41094","","null","","","null","41","","","","","","","","","","","","","","","",""
"","ISI","","html-keyboard-response","270","276129","0.0-1.0-372.0","0","0","41094","","null","","","null","41","NaN","","","","","","","","","","","","","","",""
"","S2","","html-keyboard-response","271","276381","0.0-1.0-373.0","0","0","41094","","null","","","null","41","","NaN","","","","","","","","","","","","","",""
"","response","","html-keyboard-response","272","276465","0.0-1.0-374.0-0.0","0","0","41094","","83","","","75","41","","","1","41","training","adjacent","BA","2","1","R.jpg","P.jpg","0","0","1","",""
"","feedback","","html-keyboard-response","273","277467","0.0-1.0-375.0-0.0","0","0","41094","","null","","","null","41","","","","","","","","","","","","","","","",""
"","ITI","","html-keyboard-response","274","278470","0.0-1.0-378.0","0","0","41094","","null","","","null","41","","","","","","","","","","","","","","","NaN",""
"","S1","","html-keyboard-response","275","278722","0.0-1.0-380.0","0","0","41094","","null","","","null","42","","","","","","","","","","","","","","","",""
"","ISI","","html-keyboard-response","276","279723","0.0-1.0-381.0","0","0","41094","","null","","","null","42","NaN","","","","","","","","","","","","","","",""
"","S2","","html-keyboard-response","277","279975","0.0-1.0-382.0","0","0","41094","","null","","","null","42","","NaN","","","","","","","","","","","","","",""
"","response","","html-keyboard-response","278","280585","0.0-1.0-383.0-0.0","0","0","41094","","609","","","75","42","","","1","42","training","adjacent","DC","4","3","M.jpg","L.jpg","0","0","1","",""
"","feedback","","html-keyboard-response","279","281587","0.0-1.0-384.0-0.0","0","0","41094","","null","","","null","42","","","","","","","","","","","","","","","",""
"","ITI","","html-keyboard-response","280","282589","0.0-1.0-387.0","0","0","41094","","null","","","null","42","","","","","","","","","","","","","","","NaN",""
"","S1","","html-keyboard-response","281","282841","0.0-1.0-389.0","0","0","41094","","null","","","null","43","","","","","","","","","","","","","","","",""
"","ISI","","html-keyboard-response","282","283843","0.0-1.0-390.0","0","0","41094","","null","","","null","43","NaN","","","","","","","","","","","","","","",""
"","S2","","html-keyboard-response","283","284099","0.0-1.0-391.0","0","0","41094","","null","","","null","43","","NaN","","","","","","","","","","","","","",""
"","response","","html-keyboard-response","284","284633","0.0-1.0-392.0-0.0","0","0","41094","","533","","","75","43","","","1","43","training","adjacent","EF","5","6","N.jpg","Q.jpg","0","1","0","",""
"","feedback","","html-keyboard-response","285","285635","0.0-1.0-393.0-0.0","0","0","41094","","null","","","null","43","","","","","","","","","","","","","","","",""
"","time_out","","html-keyboard-response","286","287638","0.0-1.0-395.0-0.0","0","0","41094","","null","","","null","43","","","","","","","","","","","","","","","",""
"","ITI","","html-keyboard-response","287","288640","0.0-1.0-396.0","0","0","41094","","null","","","null","43","","","","","","","","","","","","","","","NaN",""
"","S1","","html-keyboard-response","288","288892","0.0-1.0-398.0","0","0","41094","","null","","","null","44","","","","","","","","","","","","","","","",""
"","ISI","","html-keyboard-response","289","289894","0.0-1.0-399.0","0","0","41094","","null","","","null","44","NaN","","","","","","","","","","","","","","",""
"","S2","","html-keyboard-response","290","290147","0.0-1.0-400.0","0","0","41094","","null","","","null","44","","NaN","","","","","","","","","","","","","",""
"","response","","html-keyboard-response","291","290609","0.0-1.0-401.0-0.0","0","0","41094","","461","","","68","44","","","1","44","training","adjacent","CB","3","2","L.jpg","R.jpg","1","0","0","",""
"","feedback","","html-keyboard-response","292","291611","0.0-1.0-402.0-0.0","0","0","41094","","null","","","null","44","","","","","","","","","","","","","","","",""
"","time_out","","html-keyboard-response","293","293613","0.0-1.0-404.0-0.0","0","0","41094","","null","","","null","44","","","","","","","","","","","","","","","",""
"","ITI","","html-keyboard-response","294","294616","0.0-1.0-405.0","0","0","41094","","null","","","null","44","","","","","","","","","","","","","","","NaN",""
"","S1","","html-keyboard-response","295","294868","0.0-1.0-407.0","0","0","41094","","null","","","null","45","","","","","","","","","","","","","","","",""
"","ISI","","html-keyboard-response","296","295871","0.0-1.0-408.0","0","0","41094","","null","","","null","45","NaN","","","","","","","","","","","","","","",""
"","S2","","html-keyboard-response","297","296122","0.0-1.0-409.0","0","0","41094","","null","","","null","45","","NaN","","","","","","","","","","","","","",""
"","response","","html-keyboard-response","298","296466","0.0-1.0-410.0-0.0","0","0","41094","","342","","","75","45","","","1","45","training","adjacent","CB","3","2","L.jpg","R.jpg","0","0","1","",""
"","feedback","","html-keyboard-response","299","297468","0.0-1.0-411.0-0.0","0","0","41094","","null","","","null","45","","","","","","","","","","","","","","","",""
"","ITI","","html-keyboard-response","300","298469","0.0-1.0-414.0","0","0","41094","","null","","","null","45","","","","","","","","","","","","","","","NaN",""
"","S1","","html-keyboard-response","301","298722","0.0-1.0-416.0","0","0","41094","","null","","","null","46","","","","","","","","","","","","","","","",""
"","ISI","","html-keyboard-response","302","299724","0.0-1.0-417.0","0","0","41094","","null","","","null","46","NaN","","","","","","","","","","","","","","",""
"","S2","","html-keyboard-response","303","299976","0.0-1.0-418.0","0","0","41094","","null","","","null","46","","NaN","","","","","","","","","","","","","",""
"","response","","html-keyboard-response","304","300561","0.0-1.0-419.0-0.0","0","0","41094","","584","","","75","46","","","1","46","training","adjacent","AB","1","2","P.jpg","R.jpg","0","1","0","",""
"","feedback","","html-keyboard-response","305","301563","0.0-1.0-420.0-0.0","0","0","41094","","null","","","null","46","","","","","","","","","","","","","","","",""
"","time_out","","html-keyboard-response","306","303566","0.0-1.0-422.0-0.0","0","0","41094","","null","","","null","46","","","","","","","","","","","","","","","",""
"","ITI","","html-keyboard-response","307","304568","0.0-1.0-423.0","0","0","41094","","null","","","null","46","","","","","","","","","","","","","","","NaN",""
"","S1","","html-keyboard-response","308","304819","0.0-1.0-425.0","0","0","41094","","null","","","null","47","","","","","","","","","","","","","","","",""
"","ISI","","html-keyboard-response","309","305822","0.0-1.0-426.0","0","0","41094","","null","","","null","47","NaN","","","","","","","","","","","","","","",""
"","S2","","html-keyboard-response","310","306075","0.0-1.0-427.0","0","0","41094","","null","","","null","47","","NaN","","","","","","","","","","","","","",""
"","response","","html-keyboard-response","311","306681","0.0-1.0-428.0-0.0","0","0","41094","","605","","","68","47","","","1","47","training","adjacent","GF","7","6","O.jpg","Q.jpg","1","0","0","",""
"","feedback","","html-keyboard-response","312","307683","0.0-1.0-429.0-0.0","0","0","41094","","null","","","null","47","","","","","","","","","","","","","","","",""
"","time_out","","html-keyboard-response","313","309685","0.0-1.0-431.0-0.0","0","0","41094","","null","","","null","47","","","","","","","","","","","","","","","",""
"","ITI","","html-keyboard-response","314","310687","0.0-1.0-432.0","0","0","41094","","null","","","null","47","","","","","","","","","","","","","","","NaN",""
"","block_over","","html-keyboard-response","315","315242","0.0-1.0-433.0-0.0","0","0","41094","","4555","","","32","47","","","","","","","","","","","","","","","",""
"","S1","","html-keyboard-response","316","315494","0.0-1.0-434.0","0","0","41094","","null","","","null","48","","","","","","","","","","","","","","","",""
"","ISI","","html-keyboard-response","317","316496","0.0-1.0-435.0","0","0","41094","","null","","","null","48","NaN","","","","","","","","","","","","","","",""
"","S2","","html-keyboard-response","318","316749","0.0-1.0-436.0","0","0","41094","","null","","","null","48","","NaN","","","","","","","","","","","","","",""
"","response","","html-keyboard-response","319","317241","0.0-1.0-437.0-0.0","0","0","41094","","491","","","75","48","","","2","48","training","adjacent","DE","4","5","M.jpg","N.jpg","0","1","0","",""
"","feedback","","html-keyboard-response","320","318244","0.0-1.0-438.0-0.0","0","0","41094","","null","","","null","48","","","","","","","","","","","","","","","",""
"","time_out","","html-keyboard-response","321","320246","0.0-1.0-440.0-0.0","0","0","41094","","null","","","null","48","","","","","","","","","","","","","","","",""
"","ITI","","html-keyboard-response","322","321249","0.0-1.0-441.0","0","0","41094","","null","","","null","48","","","","","","","","","","","","","","","NaN",""
"","S1","","html-keyboard-response","323","321501","0.0-1.0-443.0","0","0","41094","","null","","","null","49","","","","","","","","","","","","","","","",""
"","ISI","","html-keyboard-response","324","322503","0.0-1.0-444.0","0","0","41094","","null","","","null","49","NaN","","","","","","","","","","","","","","",""
"","S2","","html-keyboard-response","325","322755","0.0-1.0-445.0","0","0","41094","","null","","","null","49","","NaN","","","","","","","","","","","","","",""
"","response","","html-keyboard-response","326","323097","0.0-1.0-446.0-0.0","0","0","41094","","341","","","68","49","","","2","49","training","adjacent","FE","6","5","Q.jpg","N.jpg","1","0","0","",""
"","feedback","","html-keyboard-response","327","324100","0.0-1.0-447.0-0.0","0","0","41094","","null","","","null","49","","","","","","","","","","","","","","","",""
"","time_out","","html-keyboard-response","328","326102","0.0-1.0-449.0-0.0","0","0","41094","","null","","","null","49","","","","","","","","","","","","","","","",""
"","ITI","","html-keyboard-response","329","327104","0.0-1.0-450.0","0","0","41094","","null","","","null","49","","","","","","","","","","","","","","","NaN",""
"","S1","","html-keyboard-response","330","327356","0.0-1.0-452.0","0","0","41094","","null","","","null","50","","","","","","","","","","","","","","","",""
"","ISI","","html-keyboard-response","331","328359","0.0-1.0-453.0","0","0","41094","","null","","","null","50","NaN","","","","","","","","","","","","","","",""
"","S2","","html-keyboard-response","332","328611","0.0-1.0-454.0","0","0","41094","","null","","","null","50","","NaN","","","","","","","","","","","","","",""
"","response","","html-keyboard-response","333","329185","0.0-1.0-455.0-0.0","0","0","41094","","574","","","68","50","","","2","50","training","adjacent","FE","6","5","Q.jpg","N.jpg","1","0","0","",""
"","feedback","","html-keyboard-response","334","330188","0.0-1.0-456.0-0.0","0","0","41094","","null","","","null","50","","","","","","","","","","","","","","","",""
"","time_out","","html-keyboard-response","335","332191","0.0-1.0-458.0-0.0","0","0","41094","","null","","","null","50","","","","","","","","","","","","","","","",""
"","ITI","","html-keyboard-response","336","333193","0.0-1.0-459.0","0","0","41094","","null","","","null","50","","","","","","","","","","","","","","","NaN",""
"","S1","","html-keyboard-response","337","333445","0.0-1.0-461.0","0","0","41094","","null","","","null","51","","","","","","","","","","","","","","","",""
"","ISI","","html-keyboard-response","338","334447","0.0-1.0-462.0","0","0","41094","","null","","","null","51","NaN","","","","","","","","","","","","","","",""
"","S2","","html-keyboard-response","339","334699","0.0-1.0-463.0","0","0","41094","","null","","","null","51","","NaN","","","","","","","","","","","","","",""
"","response","","html-keyboard-response","340","334745","0.0-1.0-464.0-0.0","0","0","41094","","45","","","68","51","","","2","51","training","adjacent","AB","1","2","P.jpg","R.jpg","1","1","1","",""
"","feedback","","html-keyboard-response","341","335747","0.0-1.0-465.0-0.0","0","0","41094","","null","","","null","51","","","","","","","","","","","","","","","",""
"","ITI","","html-keyboard-response","342","336750","0.0-1.0-468.0","0","0","41094","","null","","","null","51","","","","","","","","","","","","","","","NaN",""
"","S1","","html-keyboard-response","343","337002","0.0-1.0-470.0","0","0","41094","","null","","","null","52","","","","","","","","","","","","","","","",""
"","ISI","","html-keyboard-response","344","338005","0.0-1.0-471.0","0","0","41094","","null","","","null","52","NaN","","","","","","","","","","","","","","",""
"","S2","","html-keyboard-response","345","338257","0.0-1.0-472.0","0","0","41094","","null","","","null","52","","NaN","","","","","","","","","","","","","",""
"","response","","html-keyboard-response","346","338745","0.0-1.0-473.0-0.0","0","0","41094","","487","","","68","52","","","2","52","training","adjacent","FG","6","7","Q.jpg","O.jpg","1","1","1","",""
"","feedback","","html-keyboard-response","347","339748","0.0-1.0-474.0-0.0","0","0","41094","","null","","","null","52","","","","","","","","","","","","","","","",""
"","ITI","","html-keyboard-response","348","340750","0.0-1.0-477.0","0","0","41094","","null","","","null","52","","","","","","","","","","","","","","","NaN",""
"","S1","","html-keyboard-response","349","341002","0.0-1.0-479.0","0","0","41094","","null","","","null","53","","","","","","","","","","","","","","","",""
"","ISI","","html-keyboard-response","350","342004","0.0-1.0-480.0","0","0","41094","","null","","","null","53","NaN","","","","","","","","","","","","","","",""
"","S2","","html-keyboard-response","351","342256","0.0-1.0-481.0","0","0","41094","","null","","","null","53","","NaN","","","","","","","","","","","","","",""
"","response","","html-keyboard-response","352","342697","0.0-1.0-482.0-0.0","0","0","41094","","441","","","75","53","","","2","53","training","adjacent","CB","3","2","L.jpg","R.jpg","0","0","1","",""
"","feedback","","html-keyboard-response","353","343701","0.0-1.0-483.0-0.0","0","0","41094","","null","","","null","53","","","","","","","","","","","","","","","",""
"","ITI","","html-keyboard-response","354","344702","0.0-1.0-486.0","0","0","41094","","null","","","null","53","","","","","","","","","","","","","","","NaN",""
"","S1","","html-keyboard-response","355","344955","0.0-1.0-488.0","0","0","41094","","null","","","null","54","","","","","","","","","","","","","","","",""
"","ISI","","html-keyboard-response","356","345956","0.0-1.0-489.0","0","0","41094","","null","","","null","54","NaN","","","","","","","","","","","","","","",""
"","S2","","html-keyboard-response","357","346209","0.0-1.0-490.0","0","0","41094","","null","","","null","54","","NaN","","","","","","","","","","","","","",""
"","response","","html-keyboard-response","358","346443","0.0-1.0-491.0-0.0","0","0","41094","","234","","","75","54","","","2","54","training","adjacent","AB","1","2","P.jpg","R.jpg","0","1","0","",""
"","feedback","","html-keyboard-response","359","347445","0.0-1.0-492.0-0.0","0","0","41094","","null","","","null","54","","","","","","","","","","","","","","","",""
"","time_out","","html-keyboard-response","360","349446","0.0-1.0-494.0-0.0","0","0","41094","","null","","","null","54","","","","","","","","","","","","","","","",""
"","ITI","","html-keyboard-response","361","350448","0.0-1.0-495.0","0","0","41094","","null","","","null","54","","","","","","","","","","","","","","","NaN",""
"","S1","","html-keyboard-response","362","350701","0.0-1.0-497.0","0","0","41094","","null","","","null","55","","","","","","","","","","","","","","","",""
"","ISI","","html-keyboard-response","363","351703","0.0-1.0-498.0","0","0","41094","","null","","","null","55","NaN","","","","","","","","","","","","","","",""
"","S2","","html-keyboard-response","364","351955","0.0-1.0-499.0","0","0","41094","","null","","","null","55","","NaN","","","","","","","","","","","","","",""
"","response","","html-keyboard-response","365","352170","0.0-1.0-500.0-0.0","0","0","41094","","214","","","68","55","","","2","55","training","adjacent","BC","2","3","R.jpg","L.jpg","1","1","1","",""
"","feedback","","html-keyboard-response","366","353172","0.0-1.0-501.0-0.0","0","0","41094","","null","","","null","55","","","","","","","","","","","","","","","",""
"","ITI","","html-keyboard-response","367","354173","0.0-1.0-504.0","0","0","41094","","null","","","null","55","","","","","","","","","","","","","","","NaN",""
"","S1","","html-keyboard-response","368","354425","0.0-1.0-506.0","0","0","41094","","null","","","null","56","","","","","","","","","","","","","","","",""
"","ISI","","html-keyboard-response","369","355428","0.0-1.0-507.0","0","0","41094","","null","","","null","56","NaN","","","","","","","","","","","","","","",""
"","S2","","html-keyboard-response","370","355680","0.0-1.0-508.0","0","0","41094","","null","","","null","56","","NaN","","","","","","","","","","","","","",""
"","response","","html-keyboard-response","371","356154","0.0-1.0-509.0-0.0","0","0","41094","","473","","","75","56","","","2","56","training","adjacent","ED","5","4","N.jpg","M.jpg","0","0","1","",""
"","feedback","","html-keyboard-response","372","357156","0.0-1.0-510.0-0.0","0","0","41094","","null","","","null","56","","","","","","","","","","","","","","","",""
"","ITI","","html-keyboard-response","373","358159","0.0-1.0-513.0","0","0","41094","","null","","","null","56","","","","","","","","","","","","","","","NaN",""
"","S1","","html-keyboard-response","374","358411","0.0-1.0-515.0","0","0","41094","","null","","","null","57","","","","","","","","","","","","","","","",""
"","ISI","","html-keyboard-response","375","359413","0.0-1.0-516.0","0","0","41094","","null","","","null","57","NaN","","","","","","","","","","","","","","",""
"","S2","","html-keyboard-response","376","359665","0.0-1.0-517.0","0","0","41094","","null","","","null","57","","NaN","","","","","","","","","","","","","",""
"","response","","html-keyboard-response","377","360130","0.0-1.0-518.0-0.0","0","0","41094","","464","","","75","57","","","2","57","training","adjacent","CB","3","2","L.jpg","R.jpg","0","0","1","",""
"","feedback","","html-keyboard-response","378","361132","0.0-1.0-519.0-0.0","0","0","41094","","null","","","null","57","","","","","","","","","","","","","","","",""
"","ITI","","html-keyboard-response","379","362134","0.0-1.0-522.0","0","0","41094","","null","","","null","57","","","","","","","","","","","","","","","NaN",""
"","S1","","html-keyboard-response","380","362385","0.0-1.0-524.0","0","0","41094","","null","","","null","58","","","","","","","","","","","","","","","",""
"","ISI","","html-keyboard-response","381","363387","0.0-1.0-525.0","0","0","41094","","null","","","null","58","NaN","","","","","","","","","","","","","","",""
"","S2","","html-keyboard-response","382","363639","0.0-1.0-526.0","0","0","41094","","null","","","null","58","","NaN","","","","","","","","","","","","","",""
"","response","","html-keyboard-response","383","363986","0.0-1.0-527.0-0.0","0","0","41094","","346","","","75","58","","","2","58","training","adjacent","DE","4","5","M.jpg","N.jpg","0","1","0","",""
"","feedback","","html-keyboard-response","384","364988","0.0-1.0-528.0-0.0","0","0","41094","","null","","","null","58","","","","","","","","","","","","","","","",""
"","time_out","","html-keyboard-response","385","366990","0.0-1.0-530.0-0.0","0","0","41094","","null","","","null","58","","","","","","","","","","","","","","","",""
"","ITI","","html-keyboard-response","386","367993","0.0-1.0-531.0","0","0","41094","","null","","","null","58","","","","","","","","","","","","","","","NaN",""
"","S1","","html-keyboard-response","387","368246","0.0-1.0-533.0","0","0","41094","","null","","","null","59","","","","","","","","","","","","","","","",""
"","ISI","","html-keyboard-response","388","369248","0.0-1.0-534.0","0","0","41094","","null","","","null","59","NaN","","","","","","","","","","","","","","",""
"","S2","","html-keyboard-response","389","369500","0.0-1.0-535.0","0","0","41094","","null","","","null","59","","NaN","","","","","","","","","","","","","",""
"","response","","html-keyboard-response","390","369580","0.0-1.0-536.0-0.0","0","0","41094","","79","","","68","59","","","2","59","training","adjacent","FG","6","7","Q.jpg","O.jpg","1","1","1","",""
"","feedback","","html-keyboard-response","391","370582","0.0-1.0-537.0-0.0","0","0","41094","","null","","","null","59","","","","","","","","","","","","","","","",""
"","ITI","","html-keyboard-response","392","371584","0.0-1.0-540.0","0","0","41094","","null","","","null","59","","","","","","","","","","","","","","","NaN",""
"","S1","","html-keyboard-response","393","371836","0.0-1.0-542.0","0","0","41094","","null","","","null","60","","","","","","","","","","","","","","","",""
"","ISI","","html-keyboard-response","394","372838","0.0-1.0-543.0","0","0","41094","","null","","","null","60","NaN","","","","","","","","","","","","","","",""
"","S2","","html-keyboard-response","395","373090","0.0-1.0-544.0","0","0","41094","","null","","","null","60","","NaN","","","","","","","","","","","","","",""
"","response","","html-keyboard-response","396","373418","0.0-1.0-545.0-0.0","0","0","41094","","327","","","75","60","","","2","60","training","adjacent","AB","1","2","P.jpg","R.jpg","0","1","0","",""
"","feedback","","html-keyboard-response","397","374420","0.0-1.0-546.0-0.0","0","0","41094","","null","","","null","60","","","","","","","","","","","","","","","",""
"","time_out","","html-keyboard-response","398","376422","0.0-1.0-548.0-0.0","0","0","41094","","null","","","null","60","","","","","","","","","","","","","","","",""
"","ITI","","html-keyboard-response","399","377425","0.0-1.0-549.0","0","0","41094","","null","","","null","60","","","","","","","","","","","","","","","NaN",""
"","S1","","html-keyboard-response","400","377678","0.0-1.0-551.0","0","0","41094","","null","","","null","61","","","","","","","","","","","","","","","",""
"","ISI","","html-keyboard-response","401","378679","0.0-1.0-552.0","0","0","41094","","null","","","null","61","NaN","","","","","","","","","","","","","","",""
"","S2","","html-keyboard-response","402","378932","0.0-1.0-553.0","0","0","41094","","null","","","null","61","","NaN","","","","","","","","","","","","","",""
"","response","","html-keyboard-response","403","379034","0.0-1.0-554.0-0.0","0","0","41094","","101","","","68","61","","","2","61","training","adjacent","DE","4","5","M.jpg","N.jpg","1","1","1","",""
"","feedback","","html-keyboard-response","404","380036","0.0-1.0-555.0-0.0","0","0","41094","","null","","","null","61","","","","","","","","","","","","","","","",""
"","ITI","","html-keyboard-response","405","381038","0.0-1.0-558.0","0","0","41094","","null","","","null","61","","","","","","","","","","","","","","","NaN",""
"","S1","","html-keyboard-response","406","381292","0.0-1.0-560.0","0","0","41094","","null","","","null","62","","","","","","","","","","","","","","","",""
"","ISI","","html-keyboard-response","407","382293","0.0-1.0-561.0","0","0","41094","","null","","","null","62","NaN","","","","","","","","","","","","","","",""
"","S2","","html-keyboard-response","408","382545","0.0-1.0-562.0","0","0","41094","","null","","","null","62","","NaN","","","","","","","","","","","","","",""
"","response","","html-keyboard-response","409","383362","0.0-1.0-563.0-0.0","0","0","41094","","815","","","68","62","","","2","62","training","adjacent","GF","7","6","O.jpg","Q.jpg","1","0","0","",""
"","feedback","","html-keyboard-response","410","384364","0.0-1.0-564.0-0.0","0","0","41094","","null","","","null","62","","","","","","","","","","","","","","","",""
"","time_out","","html-keyboard-response","411","386366","0.0-1.0-566.0-0.0","0","0","41094","","null","","","null","62","","","","","","","","","","","","","","","",""
"","ITI","","html-keyboard-response","412","387368","0.0-1.0-567.0","0","0","41094","","null","","","null","62","","","","","","","","","","","","","","","NaN",""
"","S1","","html-keyboard-response","413","387621","0.0-1.0-569.0","0","0","41094","","null","","","null","63","","","","","","","","","","","","","","","",""
"","ISI","","html-keyboard-response","414","388623","0.0-1.0-570.0","0","0","41094","","null","","","null","63","NaN","","","","","","","","","","","","","","",""
"","S2","","html-keyboard-response","415","388876","0.0-1.0-571.0","0","0","41094","","null","","","null","63","","NaN","","","","","","","","","","","","","",""
"","response","","html-keyboard-response","416","389379","0.0-1.0-572.0-0.0","0","0","41094","","502","","","75","63","","","2","63","training","adjacent","AB","1","2","P.jpg","R.jpg","0","1","0","",""
"","feedback","","html-keyboard-response","417","390380","0.0-1.0-573.0-0.0","0","0","41094","","null","","","null","63","","","","","","","","","","","","","","","",""
"","time_out","","html-keyboard-response","418","392382","0.0-1.0-575.0-0.0","0","0","41094","","null","","","null","63","","","","","","","","","","","","","","","",""
"","ITI","","html-keyboard-response","419","393384","0.0-1.0-576.0","0","0","41094","","null","","","null","63","","","","","","","","","","","","","","","NaN",""
"","S1","","html-keyboard-response","420","393636","0.0-1.0-578.0","0","0","41094","","null","","","null","64","","","","","","","","","","","","","","","",""
"","ISI","","html-keyboard-response","421","394637","0.0-1.0-579.0","0","0","41094","","null","","","null","64","NaN","","","","","","","","","","","","","","",""
"","S2","","html-keyboard-response","422","394889","0.0-1.0-580.0","0","0","41094","","null","","","null","64","","NaN","","","","","","","","","","","","","",""
"","response","","html-keyboard-response","423","395090","0.0-1.0-581.0-0.0","0","0","41094","","200","","","75","64","","","2","64","training","adjacent","DC","4","3","M.jpg","L.jpg","0","0","1","",""
"","feedback","","html-keyboard-response","424","396092","0.0-1.0-582.0-0.0","0","0","41094","","null","","","null","64","","","","","","","","","","","","","","","",""
"","ITI","","html-keyboard-response","425","397095","0.0-1.0-585.0","0","0","41094","","null","","","null","64","","","","","","","","","","","","","","","NaN",""
"","S1","","html-keyboard-response","426","397347","0.0-1.0-587.0","0","0","41094","","null","","","null","65","","","","","","","","","","","","","","","",""
"","ISI","","html-keyboard-response","427","398349","0.0-1.0-588.0","0","0","41094","","null","","","null","65","NaN","","","","","","","","","","","","","","",""
"","S2","","html-keyboard-response","428","398602","0.0-1.0-589.0","0","0","41094","","null","","","null","65","","NaN","","","","","","","","","","","","","",""
"","response","","html-keyboard-response","429","399138","0.0-1.0-590.0-0.0","0","0","41094","","535","","","75","65","","","2","65","training","adjacent","DC","4","3","M.jpg","L.jpg","0","0","1","",""
"","feedback","","html-keyboard-response","430","400140","0.0-1.0-591.0-0.0","0","0","41094","","null","","","null","65","","","","","","","","","","","","","","","",""
"","ITI","","html-keyboard-response","431","401142","0.0-1.0-594.0","0","0","41094","","null","","","null","65","","","","","","","","","","","","","","","NaN",""
"","S1","","html-keyboard-response","432","401393","0.0-1.0-596.0","0","0","41094","","null","","","null","66","","","","","","","","","","","","","","","",""
"","ISI","","html-keyboard-response","433","402395","0.0-1.0-597.0","0","0","41094","","null","","","null","66","NaN","","","","","","","","","","","","","","",""
"","S2","","html-keyboard-response","434","402647","0.0-1.0-598.0","0","0","41094","","null","","","null","66","","NaN","","","","","","","","","","","","","",""
"","response","","html-keyboard-response","435","402947","0.0-1.0-599.0-0.0","0","0","41094","","298","","","68","66","","","2","66","training","adjacent","BA","2","1","R.jpg","P.jpg","1","0","0","",""
"","feedback","","html-keyboard-response","436","403949","0.0-1.0-600.0-0.0","0","0","41094","","null","","","null","66","","","","","","","","","","","","","","","",""
"","time_out","","html-keyboard-response","437","405951","0.0-1.0-602.0-0.0","0","0","41094","","null","","","null","66","","","","","","","","","","","","","","","",""
"","ITI","","html-keyboard-response","438","406953","0.0-1.0-603.0","0","0","41094","","null","","","null","66","","","","","","","","","","","","","","","NaN",""
"","S1","","html-keyboard-response","439","407205","0.0-1.0-605.0","0","0","41094","","null","","","null","67","","","","","","","","","","","","","","","",""
"","ISI","","html-keyboard-response","440","408207","0.0-1.0-606.0","0","0","41094","","null","","","null","67","NaN","","","","","","","","","","","","","","",""
"","S2","","html-keyboard-response","441","408458","0.0-1.0-607.0","0","0","41094","","null","","","null","67","","NaN","","","","","","","","","","","","","",""
"","response","","html-keyboard-response","442","408674","0.0-1.0-608.0-0.0","0","0","41094","","215","","","75","67","","","2","67","training","adjacent","ED","5","4","N.jpg","M.jpg","0","0","1","",""
"","feedback","","html-keyboard-response","443","409677","0.0-1.0-609.0-0.0","0","0","41094","","null","","","null","67","","","","","","","","","","","","","","","",""
"","ITI","","html-keyboard-response","444","410679","0.0-1.0-612.0","0","0","41094","","null","","","null","67","","","","","","","","","","","","","","","NaN",""
"","S1","","html-keyboard-response","445","410931","0.0-1.0-614.0","0","0","41094","","null","","","null","68","","","","","","","","","","","","","","","",""
"","ISI","","html-keyboard-response","446","411933","0.0-1.0-615.0","0","0","41094","","null","","","null","68","NaN","","","","","","","","","","","","","","",""
"","S2","","html-keyboard-response","447","412186","0.0-1.0-616.0","0","0","41094","","null","","","null","68","","NaN","","","","","","","","","","","","","",""
"","response","","html-keyboard-response","448","412578","0.0-1.0-617.0-0.0","0","0","41094","","391","","","75","68","","","2","68","training","adjacent","ED","5","4","N.jpg","M.jpg","0","0","1","",""
"","feedback","","html-keyboard-response","449","413581","0.0-1.0-618.0-0.0","0","0","41094","","null","","","null","68","","","","","","","","","","","","","","","",""
"","ITI","","html-keyboard-response","450","414584","0.0-1.0-621.0","0","0","41094","","null","","","null","68","","","","","","","","","","","","","","","NaN",""
"","S1","","html-keyboard-response","451","414836","0.0-1.0-623.0","0","0","41094","","null","","","null","69","","","","","","","","","","","","","","","",""
"","ISI","","html-keyboard-response","452","415838","0.0-1.0-624.0","0","0","41094","","null","","","null","69","NaN","","","","","","","","","","","","","","",""
"","S2","","html-keyboard-response","453","416104","0.0-1.0-625.0","0","0","41094","","null","","","null","69","","NaN","","","","","","","","","","","","","",""
"","response","","html-keyboard-response","454","416210","0.0-1.0-626.0-0.0","0","0","41094","","105","","","75","69","","","2","69","training","adjacent","ED","5","4","N.jpg","M.jpg","0","0","1","",""
"","feedback","","html-keyboard-response","455","417212","0.0-1.0-627.0-0.0","0","0","41094","","null","","","null","69","","","","","","","","","","","","","","","",""
"","ITI","","html-keyboard-response","456","418215","0.0-1.0-630.0","0","0","41094","","null","","","null","69","","","","","","","","","","","","","","","NaN",""
"","S1","","html-keyboard-response","457","418467","0.0-1.0-632.0","0","0","41094","","null","","","null","70","","","","","","","","","","","","","","","",""
"","ISI","","html-keyboard-response","458","419469","0.0-1.0-633.0","0","0","41094","","null","","","null","70","NaN","","","","","","","","","","","","","","",""
"","S2","","html-keyboard-response","459","419722","0.0-1.0-634.0","0","0","41094","","null","","","null","70","","NaN","","","","","","","","","","","","","",""
"","response","","html-keyboard-response","460","420139","0.0-1.0-635.0-0.0","0","0","41094","","416","","","68","70","","","2","70","training","adjacent","FE","6","5","Q.jpg","N.jpg","1","0","0","",""
"","feedback","","html-keyboard-response","461","421141","0.0-1.0-636.0-0.0","0","0","41094","","null","","","null","70","","","","","","","","","","","","","","","",""
"","time_out","","html-keyboard-response","462","423144","0.0-1.0-638.0-0.0","0","0","41094","","null","","","null","70","","","","","","","","","","","","","","","",""
"","ITI","","html-keyboard-response","463","424145","0.0-1.0-639.0","0","0","41094","","null","","","null","70","","","","","","","","","","","","","","","NaN",""
"","S1","","html-keyboard-response","464","424397","0.0-1.0-641.0","0","0","41094","","null","","","null","71","","","","","","","","","","","","","","","",""
"","ISI","","html-keyboard-response","465","425399","0.0-1.0-642.0","0","0","41094","","null","","","null","71","NaN","","","","","","","","","","","","","","",""
"","S2","","html-keyboard-response","466","425650","0.0-1.0-643.0","0","0","41094","","null","","","null","71","","NaN","","","","","","","","","","","","","",""
"","response","","html-keyboard-response","467","426034","0.0-1.0-644.0-0.0","0","0","41094","","383","","","75","71","","","2","71","training","adjacent","CD","3","4","L.jpg","M.jpg","0","1","0","",""
"","feedback","","html-keyboard-response","468","427036","0.0-1.0-645.0-0.0","0","0","41094","","null","","","null","71","","","","","","","","","","","","","","","",""
"","time_out","","html-keyboard-response","469","429038","0.0-1.0-647.0-0.0","0","0","41094","","null","","","null","71","","","","","","","","","","","","","","","",""
"","ITI","","html-keyboard-response","470","430041","0.0-1.0-648.0","0","0","41094","","null","","","null","71","","","","","","","","","","","","","","","NaN",""
"","S1","","html-keyboard-response","471","430294","0.0-1.0-650.0","0","0","41094","","null","","","null","72","","","","","","","","","","","","","","","",""
"","ISI","","html-keyboard-response","472","431296","0.0-1.0-651.0","0","0","41094","","null","","","null","72","NaN","","","","","","","","","","","","","","",""
"","S2","","html-keyboard-response","473","431548","0.0-1.0-652.0","0","0","41094","","null","","","null","72","","NaN","","","","","","","","","","","","","",""
"","response","","html-keyboard-response","474","431891","0.0-1.0-653.0-0.0","0","0","41094","","343","","","75","72","","","2","72","training","adjacent","CD","3","4","L.jpg","M.jpg","0","1","0","",""
"","feedback","","html-keyboard-response","475","432894","0.0-1.0-654.0-0.0","0","0","41094","","null","","","null","72","","","","","","","","","","","","","","","",""
"","time_out","","html-keyboard-response","476","434896","0.0-1.0-656.0-0.0","0","0","41094","","null","","","null","72","","","","","","","","","","","","","","","",""
"","ITI","","html-keyboard-response","477","435899","0.0-1.0-657.0","0","0","41094","","null","","","null","72","","","","","","","","","","","","","","","NaN",""
"","S1","","html-keyboard-response","478","436150","0.0-1.0-659.0","0","0","41094","","null","","","null","73","","","","","","","","","","","","","","","",""
"","ISI","","html-keyboard-response","479","437153","0.0-1.0-660.0","0","0","41094","","547","","","68","73","d","","","","","","","","","","","","","","",""
"","S2","","html-keyboard-response","480","437331","0.0-1.0-661.0","0","0","41094","","177","","","68","73","","d","2","73","training","adjacent","DC","4","3","M.jpg","L.jpg","1","0","0","",""
"","feedback","","html-keyboard-response","481","438334","0.0-1.0-663.0-0.0","0","0","41094","","null","","","null","73","","","","","","","","","","","","","","","",""
"","time_out","","html-keyboard-response","482","440336","0.0-1.0-665.0-0.0","0","0","41094","","null","","","null","73","","","","","","","","","","","","","","","",""
"","ITI","","html-keyboard-response","483","441339","0.0-1.0-666.0","0","0","41094","","null","","","null","73","","","","","","","","","","","","","","","NaN",""
"","S1","","html-keyboard-response","484","441591","0.0-1.0-668.0","0","0","41094","","null","","","null","74","","","","","","","","","","","","","","","",""
"","ISI","","html-keyboard-response","485","442592","0.0-1.0-669.0","0","0","41094","","null","","","null","74","NaN","","","","","","","","","","","","","","",""
"","S2","","html-keyboard-response","486","442844","0.0-1.0-670.0","0","0","41094","","null","","","null","74","","NaN","","","","","","","","","","","","","",""
"","response","","html-keyboard-response","487","442939","0.0-1.0-671.0-0.0","0","0","41094","","94","","","68","74","","","2","74","training","adjacent","BA","2","1","R.jpg","P.jpg","1","0","0","",""
"","feedback","","html-keyboard-response","488","443941","0.0-1.0-672.0-0.0","0","0","41094","","null","","","null","74","","","","","","","","","","","","","","","",""
"","time_out","","html-keyboard-response","489","445943","0.0-1.0-674.0-0.0","0","0","41094","","null","","","null","74","","","","","","","","","","","","","","","",""
"","ITI","","html-keyboard-response","490","446946","0.0-1.0-675.0","0","0","41094","","null","","","null","74","","","","","","","","","","","","","","","NaN",""
"","S1","","html-keyboard-response","491","447198","0.0-1.0-677.0","0","0","41094","","null","","","null","75","","","","","","","","","","","","","","","",""
"","ISI","","html-keyboard-response","492","448201","0.0-1.0-678.0","0","0","41094","","null","","","null","75","NaN","","","","","","","","","","","","","","",""
"","S2","","html-keyboard-response","493","448454","0.0-1.0-679.0","0","0","41094","","null","","","null","75","","NaN","","","","","","","","","","","","","",""
"","response","","html-keyboard-response","494","448507","0.0-1.0-680.0-0.0","0","0","41094","","52","","","68","75","","","2","75","training","adjacent","BC","2","3","R.jpg","L.jpg","1","1","1","",""
"","feedback","","html-keyboard-response","495","449509","0.0-1.0-681.0-0.0","0","0","41094","","null","","","null","75","","","","","","","","","","","","","","","",""
"","ITI","","html-keyboard-response","496","450511","0.0-1.0-684.0","0","0","41094","","null","","","null","75","","","","","","","","","","","","","","","NaN",""
"","S1","","html-keyboard-response","497","450763","0.0-1.0-686.0","0","0","41094","","null","","","null","76","","","","","","","","","","","","","","","",""
"","ISI","","html-keyboard-response","498","451766","0.0-1.0-687.0","0","0","41094","","null","","","null","76","NaN","","","","","","","","","","","","","","",""
"","S2","","html-keyboard-response","499","452018","0.0-1.0-688.0","0","0","41094","","null","","","null","76","","NaN","","","","","","","","","","","","","",""
"","response","","html-keyboard-response","500","452171","0.0-1.0-689.0-0.0","0","0","41094","","151","","","75","76","","","2","76","training","adjacent","EF","5","6","N.jpg","Q.jpg","0","1","0","",""
"","feedback","","html-keyboard-response","501","453172","0.0-1.0-690.0-0.0","0","0","41094","","null","","","null","76","","","","","","","","","","","","","","","",""
"","time_out","","html-keyboard-response","502","455175","0.0-1.0-692.0-0.0","0","0","41094","","null","","","null","76","","","","","","","","","","","","","","","",""
"","ITI","","html-keyboard-response","503","456177","0.0-1.0-693.0","0","0","41094","","null","","","null","76","","","","","","","","","","","","","","","NaN",""
"","S1","","html-keyboard-response","504","456429","0.0-1.0-695.0","0","0","41094","","null","","","null","77","","","","","","","","","","","","","","","",""
"","ISI","","html-keyboard-response","505","457431","0.0-1.0-696.0","0","0","41094","","null","","","null","77","NaN","","","","","","","","","","","","","","",""
"","S2","","html-keyboard-response","506","457683","0.0-1.0-697.0","0","0","41094","","null","","","null","77","","NaN","","","","","","","","","","","","","",""
"","response","","html-keyboard-response","507","457747","0.0-1.0-698.0-0.0","0","0","41094","","63","","","68","77","","","2","77","training","adjacent","CB","3","2","L.jpg","R.jpg","1","0","0","",""
"","feedback","","html-keyboard-response","508","458749","0.0-1.0-699.0-0.0","0","0","41094","","null","","","null","77","","","","","","","","","","","","","","","",""
"","time_out","","html-keyboard-response","509","460751","0.0-1.0-701.0-0.0","0","0","41094","","null","","","null","77","","","","","","","","","","","","","","","",""
"","ITI","","html-keyboard-response","510","461753","0.0-1.0-702.0","0","0","41094","","null","","","null","77","","","","","","","","","","","","","","","NaN",""
"","S1","","html-keyboard-response","511","462004","0.0-1.0-704.0","0","0","41094","","null","","","null","78","","","","","","","","","","","","","","","",""
"","ISI","","html-keyboard-response","512","463006","0.0-1.0-705.0","0","0","41094","","422","","","68","78","d","","","","","","","","","","","","","","",""
"","S2","","html-keyboard-response","513","463259","0.0-1.0-706.0","0","0","41094","","null","","","null","78","","NaN","","","","","","","","","","","","","",""
"","response","","html-keyboard-response","514","463892","0.0-1.0-707.0-0.0","0","0","41094","","632","","","68","78","","","2","78","training","adjacent","FG","6","7","Q.jpg","O.jpg","1","1","1","",""
"","feedback","","html-keyboard-response","515","464894","0.0-1.0-708.0-0.0","0","0","41094","","null","","","null","78","","","","","","","","","","","","","","","",""
"","ITI","","html-keyboard-response","516","465896","0.0-1.0-711.0","0","0","41094","","null","","","null","78","","","","","","","","","","","","","","","NaN",""
"","S1","","html-keyboard-response","517","466148","0.0-1.0-713.0","0","0","41094","","null","","","null","79","","","","","","","","","","","","","","","",""
"","ISI","","html-keyboard-response","518","467150","0.0-1.0-714.0","0","0","41094","","null","","","null","79","NaN","","","","","","","","","","","","","","",""
"","S2","","html-keyboard-response","519","467403","0.0-1.0-715.0","0","0","41094","","null","","","null","79","","NaN","","","","","","","","","","","","","",""
"","response","","html-keyboard-response","520","468051","0.0-1.0-716.0-0.0","0","0","41094","","647","","","75","79","","","2","79","training","adjacent","EF","5","6","N.jpg","Q.jpg","0","1","0","",""
"","feedback","","html-keyboard-response","521","469053","0.0-1.0-717.0-0.0","0","0","41094","","null","","","null","79","","","","","","","","","","","","","","","",""
"","time_out","","html-keyboard-response","522","471055","0.0-1.0-719.0-0.0","0","0","41094","","null","","","null","79","","","","","","","","","","","","","","","",""
"","ITI","","html-keyboard-response","523","472058","0.0-1.0-720.0","0","0","41094","","null","","","null","79","","","","","","","","","","","","","","","NaN",""
"","S1","","html-keyboard-response","524","472310","0.0-1.0-722.0","0","0","41094","","null","","","null","80","","","","","","","","","","","","","","","",""
"","ISI","","html-keyboard-response","525","473313","0.0-1.0-723.0","0","0","41094","","null","","","null","80","NaN","","","","","","","","","","","","","","",""
"","S2","","html-keyboard-response","526","473565","0.0-1.0-724.0","0","0","41094","","null","","","null","80","","NaN","","","","","","","","","","","","","",""
"","response","","html-keyboard-response","527","473758","0.0-1.0-725.0-0.0","0","0","41094","","192","","","68","80","","","2","80","training","adjacent","BA","2","1","R.jpg","P.jpg","1","0","0","",""
"","feedback","","html-keyboard-response","528","474760","0.0-1.0-726.0-0.0","0","0","41094","","null","","","null","80","","","","","","","","","","","","","","","",""
"","time_out","","html-keyboard-response","529","476763","0.0-1.0-728.0-0.0","0","0","41094","","null","","","null","80","","","","","","","","","","","","","","","",""
"","ITI","","html-keyboard-response","530","477764","0.0-1.0-729.0","0","0","41094","","null","","","null","80","","","","","","","","","","","","","","","NaN",""
"","S1","","html-keyboard-response","531","478017","0.0-1.0-731.0","0","0","41094","","null","","","null","81","","","","","","","","","","","","","","","",""
"","ISI","","html-keyboard-response","532","479019","0.0-1.0-732.0","0","0","41094","","null","","","null","81","NaN","","","","","","","","","","","","","","",""
"","S2","","html-keyboard-response","533","479272","0.0-1.0-733.0","0","0","41094","","null","","","null","81","","NaN","","","","","","","","","","","","","",""
"","response","","html-keyboard-response","534","480059","0.0-1.0-734.0-0.0","0","0","41094","","786","","","75","81","","","2","81","training","adjacent","FE","6","5","Q.jpg","N.jpg","0","0","1","",""
"","feedback","","html-keyboard-response","535","481061","0.0-1.0-735.0-0.0","0","0","41094","","null","","","null","81","","","","","","","","","","","","","","","",""
"","ITI","","html-keyboard-response","536","482063","0.0-1.0-738.0","0","0","41094","","null","","","null","81","","","","","","","","","","","","","","","NaN",""
"","S1","","html-keyboard-response","537","482315","0.0-1.0-740.0","0","0","41094","","null","","","null","82","","","","","","","","","","","","","","","",""
"","ISI","","html-keyboard-response","538","483317","0.0-1.0-741.0","0","0","41094","","null","","","null","82","NaN","","","","","","","","","","","","","","",""
"","S2","","html-keyboard-response","539","483569","0.0-1.0-742.0","0","0","41094","","null","","","null","82","","NaN","","","","","","","","","","","","","",""
"","response","","html-keyboard-response","540","484267","0.0-1.0-743.0-0.0","0","0","41094","","696","","","68","82","","","2","82","training","adjacent","EF","5","6","N.jpg","Q.jpg","1","1","1","",""
"","feedback","","html-keyboard-response","541","485270","0.0-1.0-744.0-0.0","0","0","41094","","null","","","null","82","","","","","","","","","","","","","","","",""
"","ITI","","html-keyboard-response","542","486271","0.0-1.0-747.0","0","0","41094","","null","","","null","82","","","","","","","","","","","","","","","NaN",""
"","S1","","html-keyboard-response","543","486530","0.0-1.0-749.0","0","0","41094","","null","","","null","83","","","","","","","","","","","","","","","",""
"","ISI","","html-keyboard-response","544","487532","0.0-1.0-750.0","0","0","41094","","null","","","null","83","NaN","","","","","","","","","","","","","","",""
"","S2","","html-keyboard-response","545","487784","0.0-1.0-751.0","0","0","41094","","null","","","null","83","","NaN","","","","","","","","","","","","","",""
"","response","","html-keyboard-response","546","488259","0.0-1.0-752.0-0.0","0","0","41094","","474","","","68","83","","","2","83","training","adjacent","EF","5","6","N.jpg","Q.jpg","1","1","1","",""
"","feedback","","html-keyboard-response","547","489260","0.0-1.0-753.0-0.0","0","0","41094","","null","","","null","83","","","","","","","","","","","","","","","",""
"","ITI","","html-keyboard-response","548","490263","0.0-1.0-756.0","0","0","41094","","null","","","null","83","","","","","","","","","","","","","","","NaN",""
"","S1","","html-keyboard-response","549","490516","0.0-1.0-758.0","0","0","41094","","null","","","null","84","","","","","","","","","","","","","","","",""
"","ISI","","html-keyboard-response","550","491518","0.0-1.0-759.0","0","0","41094","","null","","","null","84","NaN","","","","","","","","","","","","","","",""
"","S2","","html-keyboard-response","551","491771","0.0-1.0-760.0","0","0","41094","","null","","","null","84","","NaN","","","","","","","","","","","","","",""
"","response","","html-keyboard-response","552","492283","0.0-1.0-761.0-0.0","0","0","41094","","511","","","68","84","","","2","84","training","adjacent","DE","4","5","M.jpg","N.jpg","1","1","1","",""
"","feedback","","html-keyboard-response","553","493285","0.0-1.0-762.0-0.0","0","0","41094","","null","","","null","84","","","","","","","","","","","","","","","",""
"","ITI","","html-keyboard-response","554","494287","0.0-1.0-765.0","0","0","41094","","null","","","null","84","","","","","","","","","","","","","","","NaN",""
"","S1","","html-keyboard-response","555","494539","0.0-1.0-767.0","0","0","41094","","null","","","null","85","","","","","","","","","","","","","","","",""
"","ISI","","html-keyboard-response","556","495540","0.0-1.0-768.0","0","0","41094","","null","","","null","85","NaN","","","","","","","","","","","","","","",""
"","S2","","html-keyboard-response","557","495793","0.0-1.0-769.0","0","0","41094","","null","","","null","85","","NaN","","","","","","","","","","","","","",""
"","response","","html-keyboard-response","558","496308","0.0-1.0-770.0-0.0","0","0","41094","","514","","","68","85","","","2","85","training","adjacent","BC","2","3","R.jpg","L.jpg","1","1","1","",""
"","feedback","","html-keyboard-response","559","497310","0.0-1.0-771.0-0.0","0","0","41094","","null","","","null","85","","","","","","","","","","","","","","","",""
"","ITI","","html-keyboard-response","560","498312","0.0-1.0-774.0","0","0","41094","","null","","","null","85","","","","","","","","","","","","","","","NaN",""
"","S1","","html-keyboard-response","561","498565","0.0-1.0-776.0","0","0","41094","","null","","","null","86","","","","","","","","","","","","","","","",""
"","ISI","","html-keyboard-response","562","499567","0.0-1.0-777.0","0","0","41094","","null","","","null","86","NaN","","","","","","","","","","","","","","",""
"","S2","","html-keyboard-response","563","499819","0.0-1.0-778.0","0","0","41094","","null","","","null","86","","NaN","","","","","","","","","","","","","",""
"","response","","html-keyboard-response","564","500388","0.0-1.0-779.0-0.0","0","0","41094","","567","","","75","86","","","2","86","training","adjacent","GF","7","6","O.jpg","Q.jpg","0","0","1","",""
"","feedback","","html-keyboard-response","565","501390","0.0-1.0-780.0-0.0","0","0","41094","","null","","","null","86","","","","","","","","","","","","","","","",""
"","ITI","","html-keyboard-response","566","502392","0.0-1.0-783.0","0","0","41094","","null","","","null","86","","","","","","","","","","","","","","","NaN",""
"","S1","","html-keyboard-response","567","502658","0.0-1.0-785.0","0","0","41094","","null","","","null","87","","","","","","","","","","","","","","","",""
"","ISI","","html-keyboard-response","568","503660","0.0-1.0-786.0","0","0","41094","","null","","","null","87","NaN","","","","","","","","","","","","","","",""
"","S2","","html-keyboard-response","569","503912","0.0-1.0-787.0","0","0","41094","","null","","","null","87","","NaN","","","","","","","","","","","","","",""
"","response","","html-keyboard-response","570","504420","0.0-1.0-788.0-0.0","0","0","41094","","506","","","75","87","","","2","87","training","adjacent","CD","3","4","L.jpg","M.jpg","0","1","0","",""
"","feedback","","html-keyboard-response","571","505423","0.0-1.0-789.0-0.0","0","0","41094","","null","","","null","87","","","","","","","","","","","","","","","",""
"","time_out","","html-keyboard-response","572","507425","0.0-1.0-791.0-0.0","0","0","41094","","null","","","null","87","","","","","","","","","","","","","","","",""
"","ITI","","html-keyboard-response","573","508427","0.0-1.0-792.0","0","0","41094","","null","","","null","87","","","","","","","","","","","","","","","NaN",""
"","S1","","html-keyboard-response","574","508678","0.0-1.0-794.0","0","0","41094","","null","","","null","88","","","","","","","","","","","","","","","",""
"","ISI","","html-keyboard-response","575","509680","0.0-1.0-795.0","0","0","41094","","null","","","null","88","NaN","","","","","","","","","","","","","","",""
"","S2","","html-keyboard-response","576","509932","0.0-1.0-796.0","0","0","41094","","null","","","null","88","","NaN","","","","","","","","","","","","","",""
"","response","","html-keyboard-response","577","510475","0.0-1.0-797.0-0.0","0","0","41094","","542","","","75","88","","","2","88","training","adjacent","BC","2","3","R.jpg","L.jpg","0","1","0","",""
"","feedback","","html-keyboard-response","578","511478","0.0-1.0-798.0-0.0","0","0","41094","","null","","","null","88","","","","","","","","","","","","","","","",""
"","time_out","","html-keyboard-response","579","513481","0.0-1.0-800.0-0.0","0","0","41094","","null","","","null","88","","","","","","","","","","","","","","","",""
"","ITI","","html-keyboard-response","580","514483","0.0-1.0-801.0","0","0","41094","","null","","","null","88","","","","","","","","","","","","","","","NaN",""
"","S1","","html-keyboard-response","581","514735","0.0-1.0-803.0","0","0","41094","","null","","","null","89","","","","","","","","","","","","","","","",""
"","ISI","","html-keyboard-response","582","515736","0.0-1.0-804.0","0","0","41094","","null","","","null","89","NaN","","","","","","","","","","","","","","",""
"","S2","","html-keyboard-response","583","515988","0.0-1.0-805.0","0","0","41094","","null","","","null","89","","NaN","","","","","","","","","","","","","",""
