"success","ttype","start_time","trial_type","trial_index","time_elapsed","internal_node_id","warning","missed_checkup","PID","view_history","rt","responses","repeat_instructions","key_press","index","keypress_isi","keypress_S2","block","trial_num","phase","group_type","pair_type","S1_stim","S2_stim","S1_img","S2_img","S1_chosen","S1_higher","accuracy","keypress_iti","total_bonus_tally"
"true","full_screen","d03082023hr1840","fullscreen","0","3922","0.0-0.0","0","0","45398","","","","","","","","","","","","","","","","","","","","","",""
"","instructions","","instructions","1","27274","0.0-1.0-0.0-0.0","0","0","45398","[{""page_index"":0,""viewing_time"":6981},{""page_index"":1,""viewing_time"":13300},{""page_index"":2,""viewing_time"":2891},{""page_index"":3,""viewing_time"":171}]","23346","","","","","","","","","","","","","","","","","","","",""
"","comprehension_check","","survey-multi-choice","2","58526","0.0-1.0-0.0-1.0","0","0","45398","","31239","{""Q0"":""True"",""Q1"":""D"",""Q2"":""Once the second image appears and while the screen 'MAKE A CHOICE' is shown"",""Q3"":""Green mark"",""Q4"":""either D or K""}","0","","","","","","","","","","","","","","","","","",""
"","start_exp","","html-keyboard-response","3","71112","0.0-1.0-1.0","0","0","45398","","12579","","","32","","","","","","","","","","","","","","","","",""
"","S1","","html-keyboard-response","4","71376","0.0-1.0-2.0","0","0","45398","","null","","","null","0","","","","","","","","","","","","","","","",""
"","ISI","","html-keyboard-response","5","71536","0.0-1.0-3.0","0","0","45398","","null","","","null","0","NaN","","","","","","","","","","","","","","",""
"","S2","","html-keyboard-response","6","71799","0.0-1.0-4.0","0","0","45398","","null","","","null","0","","NaN","","","","","","","","","","","","","",""
"","response","","html-keyboard-response","7","73560","0.0-1.0-5.0-0.0","0","0","45398","","null","","","null","0","","","1","0","training","adjacent","BA","2","1","O.jpg","P.jpg","NaN","0","0","",""
"","too_slow_prompt","","html-keyboard-response","8","74568","0.0-1.0-7.0-0.0","1","0","45398","","null","","","null","","","","","","","","","","","","","","","","",""
"","time_out","","html-keyboard-response","9","76583","0.0-1.0-8.0-0.0","0","0","45398","","null","","","null","0","","","","","","","","","","","","","","","",""
"","ITI","","html-keyboard-response","10","77592","0.0-1.0-9.0","0","0","45398","","null","","","null","0","","","","","","","","","","","","","","","NaN",""
"","S1","","html-keyboard-response","11","77856","0.0-1.0-11.0","0","0","45398","","null","","","null","1","","","","","","","","","","","","","","","",""
"","ISI","","html-keyboard-response","12","78016","0.0-1.0-12.0","0","0","45398","","null","","","null","1","NaN","","","","","","","","","","","","","","",""
"","S2","","html-keyboard-response","13","78278","0.0-1.0-13.0","0","0","45398","","null","","","null","1","","NaN","","","","","","","","","","","","","",""
"","response","","html-keyboard-response","14","78786","0.0-1.0-14.0-0.0","0","0","45398","","503","","","68","1","","","1","1","training","adjacent","BC","2","3","O.jpg","L.jpg","1","1","1","",""
"","feedback","","html-keyboard-response","15","79800","0.0-1.0-15.0-0.0","0","0","45398","","null","","","null","1","","","","","","","","","","","","","","","",""
"","ITI","","html-keyboard-response","16","80808","0.0-1.0-18.0","0","0","45398","","null","","","null","1","","","","","","","","","","","","","","","NaN",""
"","S1","","html-keyboard-response","17","81072","0.0-1.0-20.0","0","0","45398","","null","","","null","2","","","","","","","","","","","","","","","",""
"","ISI","","html-keyboard-response","18","81232","0.0-1.0-21.0","0","0","45398","","null","","","null","2","NaN","","","","","","","","","","","","","","",""
"","S2","","html-keyboard-response","19","81496","0.0-1.0-22.0","0","0","45398","","null","","","null","2","","NaN","","","","","","","","","","","","","",""
"","response","","html-keyboard-response","20","82218","0.0-1.0-23.0-0.0","0","0","45398","","716","","","75","2","","","1","2","training","adjacent","CB","3","2","L.jpg","O.jpg","0","0","1","",""
"","feedback","","html-keyboard-response","21","83233","0.0-1.0-24.0-0.0","0","0","45398","","null","","","null","2","","","","","","","","","","","","","","","",""
"","ITI","","html-keyboard-response","22","84239","0.0-1.0-27.0","0","0","45398","","null","","","null","2","","","","","","","","","","","","","","","NaN",""
"","S1","","html-keyboard-response","23","84503","0.0-1.0-29.0","0","0","45398","","null","","","null","3","","","","","","","","","","","","","","","",""
"","ISI","","html-keyboard-response","24","84663","0.0-1.0-30.0","0","0","45398","","null","","","null","3","NaN","","","","","","","","","","","","","","",""
"","S2","","html-keyboard-response","25","84927","0.0-1.0-31.0","0","0","45398","","null","","","null","3","","NaN","","","","","","","","","","","","","",""
"","response","","html-keyboard-response","26","85312","0.0-1.0-32.0-0.0","0","0","45398","","379","","","68","3","","","1","3","training","adjacent","BA","2","1","O.jpg","P.jpg","1","0","0","",""
"","feedback","","html-keyboard-response","27","86327","0.0-1.0-33.0-0.0","0","0","45398","","null","","","null","3","","","","","","","","","","","","","","","",""
"","time_out","","html-keyboard-response","28","88335","0.0-1.0-35.0-0.0","0","0","45398","","null","","","null","3","","","","","","","","","","","","","","","",""
"","ITI","","html-keyboard-response","29","89343","0.0-1.0-36.0","0","0","45398","","null","","","null","3","","","","","","","","","","","","","","","NaN",""
"","S1","","html-keyboard-response","30","89607","0.0-1.0-38.0","0","0","45398","","null","","","null","4","","","","","","","","","","","","","","","",""
"","ISI","","html-keyboard-response","31","89768","0.0-1.0-39.0","0","0","45398","","null","","","null","4","NaN","","","","","","","","","","","","","","",""
"","S2","","html-keyboard-response","32","90031","0.0-1.0-40.0","0","0","45398","","null","","","null","4","","NaN","","","","","","","","","","","","","",""
"","response","","html-keyboard-response","33","90456","0.0-1.0-41.0-0.0","0","0","45398","","419","","","75","4","","","1","4","training","adjacent","BC","2","3","O.jpg","L.jpg","0","1","0","",""
"","feedback","","html-keyboard-response","34","91463","0.0-1.0-42.0-0.0","0","0","45398","","null","","","null","4","","","","","","","","","","","","","","","",""
"","time_out","","html-keyboard-response","35","93470","0.0-1.0-44.0-0.0","0","0","45398","","null","","","null","4","","","","","","","","","","","","","","","",""
"","ITI","","html-keyboard-response","36","94480","0.0-1.0-45.0","0","0","45398","","null","","","null","4","","","","","","","","","","","","","","","NaN",""
"","S1","","html-keyboard-response","37","94744","0.0-1.0-47.0","0","0","45398","","null","","","null","5","","","","","","","","","","","","","","","",""
"","ISI","","html-keyboard-response","38","94903","0.0-1.0-48.0","0","0","45398","","null","","","null","5","NaN","","","","","","","","","","","","","","",""
"","S2","","html-keyboard-response","39","95167","0.0-1.0-49.0","0","0","45398","","null","","","null","5","","NaN","","","","","","","","","","","","","",""
"","response","","html-keyboard-response","40","95485","0.0-1.0-50.0-0.0","0","0","45398","","312","","","68","5","","","1","5","training","adjacent","BC","2","3","O.jpg","L.jpg","1","1","1","",""
"","feedback","","html-keyboard-response","41","96495","0.0-1.0-51.0-0.0","0","0","45398","","null","","","null","5","","","","","","","","","","","","","","","",""
"","ITI","","html-keyboard-response","42","97503","0.0-1.0-54.0","0","0","45398","","null","","","null","5","","","","","","","","","","","","","","","NaN",""
"","S1","","html-keyboard-response","43","97765","0.0-1.0-56.0","0","0","45398","","null","","","null","6","","","","","","","","","","","","","","","",""
"","ISI","","html-keyboard-response","44","97927","0.0-1.0-57.0","0","0","45398","","null","","","null","6","NaN","","","","","","","","","","","","","","",""
"","S2","","html-keyboard-response","45","98181","0.0-1.0-58.0","0","0","45398","","null","","","null","6","","NaN","","","","","","","","","","","","","",""
"","response","","html-keyboard-response","46","98710","0.0-1.0-59.0-0.0","0","0","45398","","523","","","75","6","","","1","6","training","adjacent","GF","7","6","N.jpg","R.jpg","0","0","1","",""
"","feedback","","html-keyboard-response","47","99719","0.0-1.0-60.0-0.0","0","0","45398","","null","","","null","6","","","","","","","","","","","","","","","",""
"","ITI","","html-keyboard-response","48","100727","0.0-1.0-63.0","0","0","45398","","null","","","null","6","","","","","","","","","","","","","","","NaN",""
"","S1","","html-keyboard-response","49","100991","0.0-1.0-65.0","0","0","45398","","null","","","null","7","","","","","","","","","","","","","","","",""
"","ISI","","html-keyboard-response","50","101151","0.0-1.0-66.0","0","0","45398","","null","","","null","7","NaN","","","","","","","","","","","","","","",""
"","S2","","html-keyboard-response","51","101415","0.0-1.0-67.0","0","0","45398","","null","","","null","7","","NaN","","","","","","","","","","","","","",""
"","response","","html-keyboard-response","52","101793","0.0-1.0-68.0-0.0","0","0","45398","","371","","","68","7","","","1","7","training","adjacent","CB","3","2","L.jpg","O.jpg","1","0","0","",""
"","feedback","","html-keyboard-response","53","102809","0.0-1.0-69.0-0.0","0","0","45398","","null","","","null","7","","","","","","","","","","","","","","","",""
"","time_out","","html-keyboard-response","54","104823","0.0-1.0-71.0-0.0","0","0","45398","","null","","","null","7","","","","","","","","","","","","","","","",""
"","ITI","","html-keyboard-response","55","105830","0.0-1.0-72.0","0","0","45398","","null","","","null","7","","","","","","","","","","","","","","","NaN",""
"","S1","","html-keyboard-response","56","106087","0.0-1.0-74.0","0","0","45398","","null","","","null","8","","","","","","","","","","","","","","","",""
"","ISI","","html-keyboard-response","57","106247","0.0-1.0-75.0","0","0","45398","","null","","","null","8","NaN","","","","","","","","","","","","","","",""
"","S2","","html-keyboard-response","58","106510","0.0-1.0-76.0","0","0","45398","","null","","","null","8","","NaN","","","","","","","","","","","","","",""
"","response","","html-keyboard-response","59","106937","0.0-1.0-77.0-0.0","0","0","45398","","422","","","75","8","","","1","8","training","adjacent","CB","3","2","L.jpg","O.jpg","0","0","1","",""
"","feedback","","html-keyboard-response","60","107951","0.0-1.0-78.0-0.0","0","0","45398","","null","","","null","8","","","","","","","","","","","","","","","",""
"","ITI","","html-keyboard-response","61","108960","0.0-1.0-81.0","0","0","45398","","null","","","null","8","","","","","","","","","","","","","","","NaN",""
"","S1","","html-keyboard-response","62","109224","0.0-1.0-83.0","0","0","45398","","null","","","null","9","","","","","","","","","","","","","","","",""
"","ISI","","html-keyboard-response","63","109384","0.0-1.0-84.0","0","0","45398","","null","","","null","9","NaN","","","","","","","","","","","","","","",""
"","S2","","html-keyboard-response","64","109648","0.0-1.0-85.0","0","0","45398","","null","","","null","9","","NaN","","","","","","","","","","","","","",""
"","response","","html-keyboard-response","65","109953","0.0-1.0-86.0-0.0","0","0","45398","","301","","","68","9","","","1","9","training","adjacent","ED","5","4","Q.jpg","M.jpg","1","0","0","",""
"","feedback","","html-keyboard-response","66","110959","0.0-1.0-87.0-0.0","0","0","45398","","null","","","null","9","","","","","","","","","","","","","","","",""
"","time_out","","html-keyboard-response","67","112967","0.0-1.0-89.0-0.0","0","0","45398","","null","","","null","9","","","","","","","","","","","","","","","",""
"","ITI","","html-keyboard-response","68","113975","0.0-1.0-90.0","0","0","45398","","null","","","null","9","","","","","","","","","","","","","","","NaN",""
"","S1","","html-keyboard-response","69","114238","0.0-1.0-92.0","0","0","45398","","null","","","null","10","","","","","","","","","","","","","","","",""
"","ISI","","html-keyboard-response","70","114399","0.0-1.0-93.0","0","0","45398","","null","","","null","10","NaN","","","","","","","","","","","","","","",""
"","S2","","html-keyboard-response","71","114663","0.0-1.0-94.0","0","0","45398","","null","","","null","10","","NaN","","","","","","","","","","","","","",""
"","response","","html-keyboard-response","72","114976","0.0-1.0-95.0-0.0","0","0","45398","","307","","","75","10","","","1","10","training","adjacent","DC","4","3","M.jpg","L.jpg","0","0","1","",""
"","feedback","","html-keyboard-response","73","115981","0.0-1.0-96.0-0.0","0","0","45398","","null","","","null","10","","","","","","","","","","","","","","","",""
"","ITI","","html-keyboard-response","74","116991","0.0-1.0-99.0","0","0","45398","","null","","","null","10","","","","","","","","","","","","","","","NaN",""
"","S1","","html-keyboard-response","75","117255","0.0-1.0-101.0","0","0","45398","","null","","","null","11","","","","","","","","","","","","","","","",""
"","ISI","","html-keyboard-response","76","117415","0.0-1.0-102.0","0","0","45398","","null","","","null","11","NaN","","","","","","","","","","","","","","",""
"","S2","","html-keyboard-response","77","117680","0.0-1.0-103.0","0","0","45398","","null","","","null","11","","NaN","","","","","","","","","","","","","",""
"","response","","html-keyboard-response","78","118062","0.0-1.0-104.0-0.0","0","0","45398","","377","","","68","11","","","1","11","training","adjacent","EF","5","6","Q.jpg","R.jpg","1","1","1","",""
"","feedback","","html-keyboard-response","79","119071","0.0-1.0-105.0-0.0","0","0","45398","","null","","","null","11","","","","","","","","","","","","","","","",""
"","ITI","","html-keyboard-response","80","120079","0.0-1.0-108.0","0","0","45398","","null","","","null","11","","","","","","","","","","","","","","","NaN",""
"","S1","","html-keyboard-response","81","120343","0.0-1.0-110.0","0","0","45398","","null","","","null","12","","","","","","","","","","","","","","","",""
"","ISI","","html-keyboard-response","82","120503","0.0-1.0-111.0","0","0","45398","","null","","","null","12","NaN","","","","","","","","","","","","","","",""
"","S2","","html-keyboard-response","83","120766","0.0-1.0-112.0","0","0","45398","","null","","","null","12","","NaN","","","","","","","","","","","","","",""
"","response","","html-keyboard-response","84","121151","0.0-1.0-113.0-0.0","0","0","45398","","382","","","75","12","","","1","12","training","adjacent","GF","7","6","N.jpg","R.jpg","0","0","1","",""
"","feedback","","html-keyboard-response","85","122159","0.0-1.0-114.0-0.0","0","0","45398","","null","","","null","12","","","","","","","","","","","","","","","",""
"","ITI","","html-keyboard-response","86","123167","0.0-1.0-117.0","0","0","45398","","null","","","null","12","","","","","","","","","","","","","","","NaN",""
"","S1","","html-keyboard-response","87","123433","0.0-1.0-119.0","0","0","45398","","null","","","null","13","","","","","","","","","","","","","","","",""
"","ISI","","html-keyboard-response","88","123592","0.0-1.0-120.0","0","0","45398","","null","","","null","13","NaN","","","","","","","","","","","","","","",""
"","S2","","html-keyboard-response","89","123855","0.0-1.0-121.0","0","0","45398","","null","","","null","13","","NaN","","","","","","","","","","","","","",""
"","response","","html-keyboard-response","90","124287","0.0-1.0-122.0-0.0","0","0","45398","","428","","","68","13","","","1","13","training","adjacent","CD","3","4","L.jpg","M.jpg","1","1","1","",""
"","feedback","","html-keyboard-response","91","125295","0.0-1.0-123.0-0.0","0","0","45398","","null","","","null","13","","","","","","","","","","","","","","","",""
"","ITI","","html-keyboard-response","92","126303","0.0-1.0-126.0","0","0","45398","","null","","","null","13","","","","","","","","","","","","","","","NaN",""
"","S1","","html-keyboard-response","93","126567","0.0-1.0-128.0","0","0","45398","","null","","","null","14","","","","","","","","","","","","","","","",""
"","ISI","","html-keyboard-response","94","126727","0.0-1.0-129.0","0","0","45398","","null","","","null","14","NaN","","","","","","","","","","","","","","",""
"","S2","","html-keyboard-response","95","126991","0.0-1.0-130.0","0","0","45398","","null","","","null","14","","NaN","","","","","","","","","","","","","",""
"","response","","html-keyboard-response","96","127418","0.0-1.0-131.0-0.0","0","0","45398","","423","","","75","14","","","1","14","training","adjacent","AB","1","2","P.jpg","O.jpg","0","1","0","",""
"","feedback","","html-keyboard-response","97","128431","0.0-1.0-132.0-0.0","0","0","45398","","null","","","null","14","","","","","","","","","","","","","","","",""
"","time_out","","html-keyboard-response","98","130439","0.0-1.0-134.0-0.0","0","0","45398","","null","","","null","14","","","","","","","","","","","","","","","",""
"","ITI","","html-keyboard-response","99","131447","0.0-1.0-135.0","0","0","45398","","null","","","null","14","","","","","","","","","","","","","","","NaN",""
"","S1","","html-keyboard-response","100","131711","0.0-1.0-137.0","0","0","45398","","null","","","null","15","","","","","","","","","","","","","","","",""
"","ISI","","html-keyboard-response","101","131873","0.0-1.0-138.0","0","0","45398","","null","","","null","15","NaN","","","","","","","","","","","","","","",""
"","S2","","html-keyboard-response","102","132136","0.0-1.0-139.0","0","0","45398","","null","","","null","15","","NaN","","","","","","","","","","","","","",""
"","response","","html-keyboard-response","103","132274","0.0-1.0-140.0-0.0","0","0","45398","","133","","","68","15","","","1","15","training","adjacent","ED","5","4","Q.jpg","M.jpg","1","0","0","",""
"","feedback","","html-keyboard-response","104","133288","0.0-1.0-141.0-0.0","0","0","45398","","null","","","null","15","","","","","","","","","","","","","","","",""
"","time_out","","html-keyboard-response","105","135296","0.0-1.0-143.0-0.0","0","0","45398","","null","","","null","15","","","","","","","","","","","","","","","",""
"","ITI","","html-keyboard-response","106","136304","0.0-1.0-144.0","0","0","45398","","null","","","null","15","","","","","","","","","","","","","","","NaN",""
"","S1","","html-keyboard-response","107","136567","0.0-1.0-146.0","0","0","45398","","null","","","null","16","","","","","","","","","","","","","","","",""
"","ISI","","html-keyboard-response","108","136728","0.0-1.0-147.0","0","0","45398","","null","","","null","16","NaN","","","","","","","","","","","","","","",""
"","S2","","html-keyboard-response","109","136992","0.0-1.0-148.0","0","0","45398","","null","","","null","16","","NaN","","","","","","","","","","","","","",""
"","response","","html-keyboard-response","110","137259","0.0-1.0-149.0-0.0","0","0","45398","","261","","","68","16","","","1","16","training","adjacent","DC","4","3","M.jpg","L.jpg","1","0","0","",""
"","feedback","","html-keyboard-response","111","138271","0.0-1.0-150.0-0.0","0","0","45398","","null","","","null","16","","","","","","","","","","","","","","","",""
"","time_out","","html-keyboard-response","112","140279","0.0-1.0-152.0-0.0","0","0","45398","","null","","","null","16","","","","","","","","","","","","","","","",""
"","ITI","","html-keyboard-response","113","141285","0.0-1.0-153.0","0","0","45398","","null","","","null","16","","","","","","","","","","","","","","","NaN",""
"","S1","","html-keyboard-response","114","141541","0.0-1.0-155.0","0","0","45398","","null","","","null","17","","","","","","","","","","","","","","","",""
"","ISI","","html-keyboard-response","115","141703","0.0-1.0-156.0","0","0","45398","","null","","","null","17","NaN","","","","","","","","","","","","","","",""
"","S2","","html-keyboard-response","116","141968","0.0-1.0-157.0","0","0","45398","","null","","","null","17","","NaN","","","","","","","","","","","","","",""
"","response","","html-keyboard-response","117","142182","0.0-1.0-158.0-0.0","0","0","45398","","210","","","68","17","","","1","17","training","adjacent","BA","2","1","O.jpg","P.jpg","1","0","0","",""
"","feedback","","html-keyboard-response","118","143191","0.0-1.0-159.0-0.0","0","0","45398","","null","","","null","17","","","","","","","","","","","","","","","",""
"","time_out","","html-keyboard-response","119","145198","0.0-1.0-161.0-0.0","0","0","45398","","null","","","null","17","","","","","","","","","","","","","","","",""
"","ITI","","html-keyboard-response","120","146207","0.0-1.0-162.0","0","0","45398","","null","","","null","17","","","","","","","","","","","","","","","NaN",""
"","S1","","html-keyboard-response","121","146470","0.0-1.0-164.0","0","0","45398","","null","","","null","18","","","","","","","","","","","","","","","",""
"","ISI","","html-keyboard-response","122","146630","0.0-1.0-165.0","0","0","45398","","null","","","null","18","NaN","","","","","","","","","","","","","","",""
"","S2","","html-keyboard-response","123","146895","0.0-1.0-166.0","0","0","45398","","null","","","null","18","","NaN","","","","","","","","","","","","","",""
"","response","","html-keyboard-response","124","147258","0.0-1.0-167.0-0.0","0","0","45398","","358","","","75","18","","","1","18","training","adjacent","DE","4","5","M.jpg","Q.jpg","0","1","0","",""
"","feedback","","html-keyboard-response","125","148270","0.0-1.0-168.0-0.0","0","0","45398","","null","","","null","18","","","","","","","","","","","","","","","",""
"","time_out","","html-keyboard-response","126","150279","0.0-1.0-170.0-0.0","0","0","45398","","null","","","null","18","","","","","","","","","","","","","","","",""
"","ITI","","html-keyboard-response","127","151287","0.0-1.0-171.0","0","0","45398","","null","","","null","18","","","","","","","","","","","","","","","NaN",""
"","S1","","html-keyboard-response","128","151549","0.0-1.0-173.0","0","0","45398","","null","","","null","19","","","","","","","","","","","","","","","",""
"","ISI","","html-keyboard-response","129","151711","0.0-1.0-174.0","0","0","45398","","null","","","null","19","NaN","","","","","","","","","","","","","","",""
"","S2","","html-keyboard-response","130","151974","0.0-1.0-175.0","0","0","45398","","null","","","null","19","","NaN","","","","","","","","","","","","","",""
"","response","","html-keyboard-response","131","152185","0.0-1.0-176.0-0.0","0","0","45398","","206","","","68","19","","","1","19","training","adjacent","BA","2","1","O.jpg","P.jpg","1","0","0","",""
"","feedback","","html-keyboard-response","132","153198","0.0-1.0-177.0-0.0","0","0","45398","","null","","","null","19","","","","","","","","","","","","","","","",""
"","time_out","","html-keyboard-response","133","155206","0.0-1.0-179.0-0.0","0","0","45398","","null","","","null","19","","","","","","","","","","","","","","","",""
"","ITI","","html-keyboard-response","134","156215","0.0-1.0-180.0","0","0","45398","","null","","","null","19","","","","","","","","","","","","","","","NaN",""
"","S1","","html-keyboard-response","135","156478","0.0-1.0-182.0","0","0","45398","","null","","","null","20","","","","","","","","","","","","","","","",""
"","ISI","","html-keyboard-response","136","156639","0.0-1.0-183.0","0","0","45398","","null","","","null","20","NaN","","","","","","","","","","","","","","",""
"","S2","","html-keyboard-response","137","156902","0.0-1.0-184.0","0","0","45398","","null","","","null","20","","NaN","","","","","","","","","","","","","",""
"","response","","html-keyboard-response","138","157091","0.0-1.0-185.0-0.0","0","0","45398","","183","","","75","20","","","1","20","training","adjacent","CD","3","4","L.jpg","M.jpg","0","1","0","",""
"","feedback","","html-keyboard-response","139","158102","0.0-1.0-186.0-0.0","0","0","45398","","null","","","null","20","","","","","","","","","","","","","","","",""
"","time_out","","html-keyboard-response","140","160111","0.0-1.0-188.0-0.0","0","0","45398","","null","","","null","20","","","","","","","","","","","","","","","",""
"","ITI","","html-keyboard-response","141","161119","0.0-1.0-189.0","0","0","45398","","null","","","null","20","","","","","","","","","","","","","","","NaN",""
"","S1","","html-keyboard-response","142","161382","0.0-1.0-191.0","0","0","45398","","null","","","null","21","","","","","","","","","","","","","","","",""
"","ISI","","html-keyboard-response","143","161544","0.0-1.0-192.0","0","0","45398","","null","","","null","21","NaN","","","","","","","","","","","","","","",""
"","S2","","html-keyboard-response","144","161807","0.0-1.0-193.0","0","0","45398","","null","","","null","21","","NaN","","","","","","","","","","","","","",""
"","response","","html-keyboard-response","145","161909","0.0-1.0-194.0-0.0","0","0","45398","","96","","","68","21","","","1","21","training","adjacent","FE","6","5","R.jpg","Q.jpg","1","0","0","",""
"","feedback","","html-keyboard-response","146","162928","0.0-1.0-195.0-0.0","0","0","45398","","null","","","null","21","","","","","","","","","","","","","","","",""
"","time_out","","html-keyboard-response","147","164936","0.0-1.0-197.0-0.0","0","0","45398","","null","","","null","21","","","","","","","","","","","","","","","",""
"","ITI","","html-keyboard-response","148","165943","0.0-1.0-198.0","0","0","45398","","null","","","null","21","","","","","","","","","","","","","","","NaN",""
"","S1","","html-keyboard-response","149","166206","0.0-1.0-200.0","0","0","45398","","null","","","null","22","","","","","","","","","","","","","","","",""
"","ISI","","html-keyboard-response","150","166366","0.0-1.0-201.0","0","0","45398","","null","","","null","22","NaN","","","","","","","","","","","","","","",""
"","S2","","html-keyboard-response","151","166631","0.0-1.0-202.0","0","0","45398","","null","","","null","22","","NaN","","","","","","","","","","","","","",""
"","response","","html-keyboard-response","152","167027","0.0-1.0-203.0-0.0","0","0","45398","","392","","","75","22","","","1","22","training","adjacent","FG","6","7","R.jpg","N.jpg","0","1","0","",""
"","feedback","","html-keyboard-response","153","168038","0.0-1.0-204.0-0.0","0","0","45398","","null","","","null","22","","","","","","","","","","","","","","","",""
"","time_out","","html-keyboard-response","154","170045","0.0-1.0-206.0-0.0","0","0","45398","","null","","","null","22","","","","","","","","","","","","","","","",""
"","ITI","","html-keyboard-response","155","171054","0.0-1.0-207.0","0","0","45398","","null","","","null","22","","","","","","","","","","","","","","","NaN",""
"","S1","","html-keyboard-response","156","171318","0.0-1.0-209.0","0","0","45398","","null","","","null","23","","","","","","","","","","","","","","","",""
"","ISI","","html-keyboard-response","157","171479","0.0-1.0-210.0","0","0","45398","","null","","","null","23","NaN","","","","","","","","","","","","","","",""
"","S2","","html-keyboard-response","158","171742","0.0-1.0-211.0","0","0","45398","","null","","","null","23","","NaN","","","","","","","","","","","","","",""
"","response","","html-keyboard-response","159","172152","0.0-1.0-212.0-0.0","0","0","45398","","404","","","75","23","","","1","23","training","adjacent","EF","5","6","Q.jpg","R.jpg","0","1","0","",""
"","feedback","","html-keyboard-response","160","173166","0.0-1.0-213.0-0.0","0","0","45398","","null","","","null","23","","","","","","","","","","","","","","","",""
"","time_out","","html-keyboard-response","161","175175","0.0-1.0-215.0-0.0","0","0","45398","","null","","","null","23","","","","","","","","","","","","","","","",""
"","ITI","","html-keyboard-response","162","176182","0.0-1.0-216.0","0","0","45398","","null","","","null","23","","","","","","","","","","","","","","","NaN",""
"","S1","","html-keyboard-response","163","176447","0.0-1.0-218.0","0","0","45398","","null","","","null","24","","","","","","","","","","","","","","","",""
"","ISI","","html-keyboard-response","164","176607","0.0-1.0-219.0","0","0","45398","","null","","","null","24","NaN","","","","","","","","","","","","","","",""
"","S2","","html-keyboard-response","165","176871","0.0-1.0-220.0","0","0","45398","","null","","","null","24","","NaN","","","","","","","","","","","","","",""
"","response","","html-keyboard-response","166","177065","0.0-1.0-221.0-0.0","0","0","45398","","188","","","75","24","","","1","24","training","adjacent","AB","1","2","P.jpg","O.jpg","0","1","0","",""
"","feedback","","html-keyboard-response","167","178079","0.0-1.0-222.0-0.0","0","0","45398","","null","","","null","24","","","","","","","","","","","","","","","",""
"","time_out","","html-keyboard-response","168","180084","0.0-1.0-224.0-0.0","0","0","45398","","null","","","null","24","","","","","","","","","","","","","","","",""
"","ITI","","html-keyboard-response","169","181094","0.0-1.0-225.0","0","0","45398","","null","","","null","24","","","","","","","","","","","","","","","NaN",""
"","S1","","html-keyboard-response","170","181358","0.0-1.0-227.0","0","0","45398","","null","","","null","25","","","","","","","","","","","","","","","",""
"","ISI","","html-keyboard-response","171","181518","0.0-1.0-228.0","0","0","45398","","null","","","null","25","NaN","","","","","","","","","","","","","","",""
"","S2","","html-keyboard-response","172","181782","0.0-1.0-229.0","0","0","45398","","null","","","null","25","","NaN","","","","","","","","","","","","","",""
"","response","","html-keyboard-response","173","181967","0.0-1.0-230.0-0.0","0","0","45398","","178","","","68","25","","","1","25","training","adjacent","CB","3","2","L.jpg","O.jpg","1","0","0","",""
"","feedback","","html-keyboard-response","174","182974","0.0-1.0-231.0-0.0","0","0","45398","","null","","","null","25","","","","","","","","","","","","","","","",""
"","time_out","","html-keyboard-response","175","184985","0.0-1.0-233.0-0.0","0","0","45398","","null","","","null","25","","","","","","","","","","","","","","","",""
"","ITI","","html-keyboard-response","176","185998","0.0-1.0-234.0","0","0","45398","","null","","","null","25","","","","","","","","","","","","","","","NaN",""
"","S1","","html-keyboard-response","177","186262","0.0-1.0-236.0","0","0","45398","","null","","","null","26","","","","","","","","","","","","","","","",""
"","ISI","","html-keyboard-response","178","186421","0.0-1.0-237.0","0","0","45398","","null","","","null","26","NaN","","","","","","","","","","","","","","",""
"","S2","","html-keyboard-response","179","186677","0.0-1.0-238.0","0","0","45398","","null","","","null","26","","NaN","","","","","","","","","","","","","",""
"","response","","html-keyboard-response","180","186861","0.0-1.0-239.0-0.0","0","0","45398","","181","","","75","26","","","1","26","training","adjacent","EF","5","6","Q.jpg","R.jpg","0","1","0","",""
"","feedback","","html-keyboard-response","181","187870","0.0-1.0-240.0-0.0","0","0","45398","","null","","","null","26","","","","","","","","","","","","","","","",""
"","time_out","","html-keyboard-response","182","189879","0.0-1.0-242.0-0.0","0","0","45398","","null","","","null","26","","","","","","","","","","","","","","","",""
"","ITI","","html-keyboard-response","183","190887","0.0-1.0-243.0","0","0","45398","","null","","","null","26","","","","","","","","","","","","","","","NaN",""
"","S1","","html-keyboard-response","184","191151","0.0-1.0-245.0","0","0","45398","","null","","","null","27","","","","","","","","","","","","","","","",""
"","ISI","","html-keyboard-response","185","191311","0.0-1.0-246.0","0","0","45398","","null","","","null","27","NaN","","","","","","","","","","","","","","",""
"","S2","","html-keyboard-response","186","191575","0.0-1.0-247.0","0","0","45398","","null","","","null","27","","NaN","","","","","","","","","","","","","",""
"","response","","html-keyboard-response","187","191777","0.0-1.0-248.0-0.0","0","0","45398","","197","","","68","27","","","1","27","training","adjacent","FE","6","5","R.jpg","Q.jpg","1","0","0","",""
"","feedback","","html-keyboard-response","188","192791","0.0-1.0-249.0-0.0","0","0","45398","","null","","","null","27","","","","","","","","","","","","","","","",""
"","time_out","","html-keyboard-response","189","194798","0.0-1.0-251.0-0.0","0","0","45398","","null","","","null","27","","","","","","","","","","","","","","","",""
"","ITI","","html-keyboard-response","190","195807","0.0-1.0-252.0","0","0","45398","","null","","","null","27","","","","","","","","","","","","","","","NaN",""
"","S1","","html-keyboard-response","191","196069","0.0-1.0-254.0","0","0","45398","","null","","","null","28","","","","","","","","","","","","","","","",""
"","ISI","","html-keyboard-response","192","196230","0.0-1.0-255.0","0","0","45398","","null","","","null","28","NaN","","","","","","","","","","","","","","",""
"","S2","","html-keyboard-response","193","196487","0.0-1.0-256.0","0","0","45398","","null","","","null","28","","NaN","","","","","","","","","","","","","",""
"","response","","html-keyboard-response","194","196730","0.0-1.0-257.0-0.0","0","0","45398","","237","","","68","28","","","1","28","training","adjacent","DE","4","5","M.jpg","Q.jpg","1","1","1","",""
"","feedback","","html-keyboard-response","195","197740","0.0-1.0-258.0-0.0","0","0","45398","","null","","","null","28","","","","","","","","","","","","","","","",""
"","ITI","","html-keyboard-response","196","198750","0.0-1.0-261.0","0","0","45398","","null","","","null","28","","","","","","","","","","","","","","","NaN",""
"","S1","","html-keyboard-response","197","199014","0.0-1.0-263.0","0","0","45398","","null","","","null","29","","","","","","","","","","","","","","","",""
"","ISI","","html-keyboard-response","198","199175","0.0-1.0-264.0","0","0","45398","","null","","","null","29","NaN","","","","","","","","","","","","","","",""
"","S2","","html-keyboard-response","199","199440","0.0-1.0-265.0","0","0","45398","","null","","","null","29","","NaN","","","","","","","","","","","","","",""
"","response","","html-keyboard-response","200","199803","0.0-1.0-266.0-0.0","0","0","45398","","357","","","68","29","","","1","29","training","adjacent","FE","6","5","R.jpg","Q.jpg","1","0","0","",""
"","feedback","","html-keyboard-response","201","200814","0.0-1.0-267.0-0.0","0","0","45398","","null","","","null","29","","","","","","","","","","","","","","","",""
"","time_out","","html-keyboard-response","202","202821","0.0-1.0-269.0-0.0","0","0","45398","","null","","","null","29","","","","","","","","","","","","","","","",""
"","ITI","","html-keyboard-response","203","203831","0.0-1.0-270.0","0","0","45398","","null","","","null","29","","","","","","","","","","","","","","","NaN",""
"","S1","","html-keyboard-response","204","204095","0.0-1.0-272.0","0","0","45398","","null","","","null","30","","","","","","","","","","","","","","","",""
"","ISI","","html-keyboard-response","205","204255","0.0-1.0-273.0","0","0","45398","","null","","","null","30","NaN","","","","","","","","","","","","","","",""
"","S2","","html-keyboard-response","206","204519","0.0-1.0-274.0","0","0","45398","","null","","","null","30","","NaN","","","","","","","","","","","","","",""
"","response","","html-keyboard-response","207","204826","0.0-1.0-275.0-0.0","0","0","45398","","301","","","68","30","","","1","30","training","adjacent","DC","4","3","M.jpg","L.jpg","1","0","0","",""
"","feedback","","html-keyboard-response","208","205836","0.0-1.0-276.0-0.0","0","0","45398","","null","","","null","30","","","","","","","","","","","","","","","",""
"","time_out","","html-keyboard-response","209","207844","0.0-1.0-278.0-0.0","0","0","45398","","null","","","null","30","","","","","","","","","","","","","","","",""
"","ITI","","html-keyboard-response","210","208851","0.0-1.0-279.0","0","0","45398","","null","","","null","30","","","","","","","","","","","","","","","NaN",""
"","S1","","html-keyboard-response","211","209107","0.0-1.0-281.0","0","0","45398","","null","","","null","31","","","","","","","","","","","","","","","",""
"","ISI","","html-keyboard-response","212","209267","0.0-1.0-282.0","0","0","45398","","null","","","null","31","NaN","","","","","","","","","","","","","","",""
"","S2","","html-keyboard-response","213","209525","0.0-1.0-283.0","0","0","45398","","null","","","null","31","","NaN","","","","","","","","","","","","","",""
"","response","","html-keyboard-response","214","209976","0.0-1.0-284.0-0.0","0","0","45398","","447","","","75","31","","","1","31","training","adjacent","DC","4","3","M.jpg","L.jpg","0","0","1","",""
"","feedback","","html-keyboard-response","215","210989","0.0-1.0-285.0-0.0","0","0","45398","","null","","","null","31","","","","","","","","","","","","","","","",""
"","ITI","","html-keyboard-response","216","211997","0.0-1.0-288.0","0","0","45398","","null","","","null","31","","","","","","","","","","","","","","","NaN",""
"","S1","","html-keyboard-response","217","212261","0.0-1.0-290.0","0","0","45398","","null","","","null","32","","","","","","","","","","","","","","","",""
"","ISI","","html-keyboard-response","218","212422","0.0-1.0-291.0","0","0","45398","","null","","","null","32","NaN","","","","","","","","","","","","","","",""
"","S2","","html-keyboard-response","219","212685","0.0-1.0-292.0","0","0","45398","","null","","","null","32","","NaN","","","","","","","","","","","","","",""
"","response","","html-keyboard-response","220","213103","0.0-1.0-293.0-0.0","0","0","45398","","410","","","68","32","","","1","32","training","adjacent","GF","7","6","N.jpg","R.jpg","1","0","0","",""
"","feedback","","html-keyboard-response","221","214115","0.0-1.0-294.0-0.0","0","0","45398","","null","","","null","32","","","","","","","","","","","","","","","",""
"","time_out","","html-keyboard-response","222","216127","0.0-1.0-296.0-0.0","0","0","45398","","null","","","null","32","","","","","","","","","","","","","","","",""
"","ITI","","html-keyboard-response","223","217134","0.0-1.0-297.0","0","0","45398","","null","","","null","32","","","","","","","","","","","","","","","NaN",""
"","S1","","html-keyboard-response","224","217397","0.0-1.0-299.0","0","0","45398","","null","","","null","33","","","","","","","","","","","","","","","",""
"","ISI","","html-keyboard-response","225","217557","0.0-1.0-300.0","0","0","45398","","null","","","null","33","NaN","","","","","","","","","","","","","","",""
"","S2","","html-keyboard-response","226","217822","0.0-1.0-301.0","0","0","45398","","null","","","null","33","","NaN","","","","","","","","","","","","","",""
"","response","","html-keyboard-response","227","218052","0.0-1.0-302.0-0.0","0","0","45398","","223","","","75","33","","","1","33","training","adjacent","ED","5","4","Q.jpg","M.jpg","0","0","1","",""
"","feedback","","html-keyboard-response","228","219062","0.0-1.0-303.0-0.0","0","0","45398","","null","","","null","33","","","","","","","","","","","","","","","",""
"","ITI","","html-keyboard-response","229","220069","0.0-1.0-306.0","0","0","45398","","null","","","null","33","","","","","","","","","","","","","","","NaN",""
"","S1","","html-keyboard-response","230","220325","0.0-1.0-308.0","0","0","45398","","null","","","null","34","","","","","","","","","","","","","","","",""
"","ISI","","html-keyboard-response","231","220486","0.0-1.0-309.0","0","0","45398","","null","","","null","34","NaN","","","","","","","","","","","","","","",""
"","S2","","html-keyboard-response","232","220750","0.0-1.0-310.0","0","0","45398","","null","","","null","34","","NaN","","","","","","","","","","","","","",""
"","response","","html-keyboard-response","233","221223","0.0-1.0-311.0-0.0","0","0","45398","","468","","","75","34","","","1","34","training","adjacent","BC","2","3","O.jpg","L.jpg","0","1","0","",""
"","feedback","","html-keyboard-response","234","222237","0.0-1.0-312.0-0.0","0","0","45398","","null","","","null","34","","","","","","","","","","","","","","","",""
"","time_out","","html-keyboard-response","235","224245","0.0-1.0-314.0-0.0","0","0","45398","","null","","","null","34","","","","","","","","","","","","","","","",""
"","ITI","","html-keyboard-response","236","225253","0.0-1.0-315.0","0","0","45398","","null","","","null","34","","","","","","","","","","","","","","","NaN",""
"","S1","","html-keyboard-response","237","225517","0.0-1.0-317.0","0","0","45398","","null","","","null","35","","","","","","","","","","","","","","","",""
"","ISI","","html-keyboard-response","238","225677","0.0-1.0-318.0","0","0","45398","","null","","","null","35","NaN","","","","","","","","","","","","","","",""
"","S2","","html-keyboard-response","239","225941","0.0-1.0-319.0","0","0","45398","","null","","","null","35","","NaN","","","","","","","","","","","","","",""
"","response","","html-keyboard-response","240","226114","0.0-1.0-320.0-0.0","0","0","45398","","168","","","68","35","","","1","35","training","adjacent","CD","3","4","L.jpg","M.jpg","1","1","1","",""
"","feedback","","html-keyboard-response","241","227126","0.0-1.0-321.0-0.0","0","0","45398","","null","","","null","35","","","","","","","","","","","","","","","",""
"","ITI","","html-keyboard-response","242","228134","0.0-1.0-324.0","0","0","45398","","null","","","null","35","","","","","","","","","","","","","","","NaN",""
"","S1","","html-keyboard-response","243","228397","0.0-1.0-326.0","0","0","45398","","null","","","null","36","","","","","","","","","","","","","","","",""
"","ISI","","html-keyboard-response","244","228557","0.0-1.0-327.0","0","0","45398","","null","","","null","36","NaN","","","","","","","","","","","","","","",""
"","S2","","html-keyboard-response","245","228821","0.0-1.0-328.0","0","0","45398","","null","","","null","36","","NaN","","","","","","","","","","","","","",""
"","response","","html-keyboard-response","246","229306","0.0-1.0-329.0-0.0","0","0","45398","","479","","","75","36","","","1","36","training","adjacent","ED","5","4","Q.jpg","M.jpg","0","0","1","",""
"","feedback","","html-keyboard-response","247","230317","0.0-1.0-330.0-0.0","0","0","45398","","null","","","null","36","","","","","","","","","","","","","","","",""
"","ITI","","html-keyboard-response","248","231324","0.0-1.0-333.0","0","0","45398","","null","","","null","36","","","","","","","","","","","","","","","NaN",""
"","S1","","html-keyboard-response","249","231580","0.0-1.0-335.0","0","0","45398","","null","","","null","37","","","","","","","","","","","","","","","",""
"","ISI","","html-keyboard-response","250","231742","0.0-1.0-336.0","0","0","45398","","null","","","null","37","NaN","","","","","","","","","","","","","","",""
"","S2","","html-keyboard-response","251","232006","0.0-1.0-337.0","0","0","45398","","null","","","null","37","","NaN","","","","","","","","","","","","","",""
"","response","","html-keyboard-response","252","232309","0.0-1.0-338.0-0.0","0","0","45398","","297","","","68","37","","","1","37","training","adjacent","FG","6","7","R.jpg","N.jpg","1","1","1","",""
"","feedback","","html-keyboard-response","253","233318","0.0-1.0-339.0-0.0","0","0","45398","","null","","","null","37","","","","","","","","","","","","","","","",""
"","ITI","","html-keyboard-response","254","234326","0.0-1.0-342.0","0","0","45398","","null","","","null","37","","","","","","","","","","","","","","","NaN",""
"","S1","","html-keyboard-response","255","234591","0.0-1.0-344.0","0","0","45398","","null","","","null","38","","","","","","","","","","","","","","","",""
"","ISI","","html-keyboard-response","256","234750","0.0-1.0-345.0","0","0","45398","","null","","","null","38","NaN","","","","","","","","","","","","","","",""
"","S2","","html-keyboard-response","257","235014","0.0-1.0-346.0","0","0","45398","","null","","","null","38","","NaN","","","","","","","","","","","","","",""
"","response","","html-keyboard-response","258","235269","0.0-1.0-347.0-0.0","0","0","45398","","249","","","75","38","","","1","38","training","adjacent","AB","1","2","P.jpg","O.jpg","0","1","0","",""
"","feedback","","html-keyboard-response","259","236275","0.0-1.0-348.0-0.0","0","0","45398","","null","","","null","38","","","","","","","","","","","","","","","",""
"","time_out","","html-keyboard-response","260","238285","0.0-1.0-350.0-0.0","0","0","45398","","null","","","null","38","","","","","","","","","","","","","","","",""
"","ITI","","html-keyboard-response","261","239293","0.0-1.0-351.0","0","0","45398","","null","","","null","38","","","","","","","","","","","","","","","NaN",""
"","S1","","html-keyboard-response","262","239557","0.0-1.0-353.0","0","0","45398","","null","","","null","39","","","","","","","","","","","","","","","",""
"","ISI","","html-keyboard-response","263","239717","0.0-1.0-354.0","0","0","45398","","null","","","null","39","NaN","","","","","","","","","","","","","","",""
"","S2","","html-keyboard-response","264","239982","0.0-1.0-355.0","0","0","45398","","null","","","null","39","","NaN","","","","","","","","","","","","","",""
"","response","","html-keyboard-response","265","240344","0.0-1.0-356.0-0.0","0","0","45398","","357","","","68","39","","","1","39","training","adjacent","FE","6","5","R.jpg","Q.jpg","1","0","0","",""
"","feedback","","html-keyboard-response","266","241356","0.0-1.0-357.0-0.0","0","0","45398","","null","","","null","39","","","","","","","","","","","","","","","",""
"","time_out","","html-keyboard-response","267","243365","0.0-1.0-359.0-0.0","0","0","45398","","null","","","null","39","","","","","","","","","","","","","","","",""
"","ITI","","html-keyboard-response","268","244373","0.0-1.0-360.0","0","0","45398","","null","","","null","39","","","","","","","","","","","","","","","NaN",""
"","S1","","html-keyboard-response","269","244637","0.0-1.0-362.0","0","0","45398","","null","","","null","40","","","","","","","","","","","","","","","",""
"","ISI","","html-keyboard-response","270","244797","0.0-1.0-363.0","0","0","45398","","null","","","null","40","NaN","","","","","","","","","","","","","","",""
"","S2","","html-keyboard-response","271","245062","0.0-1.0-364.0","0","0","45398","","null","","","null","40","","NaN","","","","","","","","","","","","","",""
"","response","","html-keyboard-response","272","245175","0.0-1.0-365.0-0.0","0","0","45398","","107","","","75","40","","","1","40","training","adjacent","AB","1","2","P.jpg","O.jpg","0","1","0","",""
"","feedback","","html-keyboard-response","273","246188","0.0-1.0-366.0-0.0","0","0","45398","","null","","","null","40","","","","","","","","","","","","","","","",""
"","time_out","","html-keyboard-response","274","248198","0.0-1.0-368.0-0.0","0","0","45398","","null","","","null","40","","","","","","","","","","","","","","","",""
"","ITI","","html-keyboard-response","275","249205","0.0-1.0-369.0","0","0","45398","","null","","","null","40","","","","","","","","","","","","","","","NaN",""
"","S1","","html-keyboard-response","276","249470","0.0-1.0-371.0","0","0","45398","","null","","","null","41","","","","","","","","","","","","","","","",""
"","ISI","","html-keyboard-response","277","249629","0.0-1.0-372.0","0","0","45398","","null","","","null","41","NaN","","","","","","","","","","","","","","",""
"","S2","","html-keyboard-response","278","249893","0.0-1.0-373.0","0","0","45398","","null","","","null","41","","NaN","","","","","","","","","","","","","",""
"","response","","html-keyboard-response","279","250060","0.0-1.0-374.0-0.0","0","0","45398","","161","","","68","41","","","1","41","training","adjacent","GF","7","6","N.jpg","R.jpg","1","0","0","",""
"","feedback","","html-keyboard-response","280","251069","0.0-1.0-375.0-0.0","0","0","45398","","null","","","null","41","","","","","","","","","","","","","","","",""
"","time_out","","html-keyboard-response","281","253077","0.0-1.0-377.0-0.0","0","0","45398","","null","","","null","41","","","","","","","","","","","","","","","",""
"","ITI","","html-keyboard-response","282","254085","0.0-1.0-378.0","0","0","45398","","null","","","null","41","","","","","","","","","","","","","","","NaN",""
"","S1","","html-keyboard-response","283","254349","0.0-1.0-380.0","0","0","45398","","null","","","null","42","","","","","","","","","","","","","","","",""
"","ISI","","html-keyboard-response","284","254509","0.0-1.0-381.0","0","0","45398","","null","","","null","42","NaN","","","","","","","","","","","","","","",""
"","S2","","html-keyboard-response","285","254773","0.0-1.0-382.0","0","0","45398","","null","","","null","42","","NaN","","","","","","","","","","","","","",""
"","response","","html-keyboard-response","286","255156","0.0-1.0-383.0-0.0","0","0","45398","","376","","","75","42","","","1","42","training","adjacent","DE","4","5","M.jpg","Q.jpg","0","1","0","",""
"","feedback","","html-keyboard-response","287","256166","0.0-1.0-384.0-0.0","0","0","45398","","null","","","null","42","","","","","","","","","","","","","","","",""
"","time_out","","html-keyboard-response","288","258174","0.0-1.0-386.0-0.0","0","0","45398","","null","","","null","42","","","","","","","","","","","","","","","",""
"","ITI","","html-keyboard-response","289","259181","0.0-1.0-387.0","0","0","45398","","null","","","null","42","","","","","","","","","","","","","","","NaN",""
"","S1","","html-keyboard-response","290","259453","0.0-1.0-389.0","0","0","45398","","null","","","null","43","","","","","","","","","","","","","","","",""
"","ISI","","html-keyboard-response","291","259612","0.0-1.0-390.0","0","0","45398","","null","","","null","43","NaN","","","","","","","","","","","","","","",""
"","S2","","html-keyboard-response","292","259868","0.0-1.0-391.0","0","0","45398","","null","","","null","43","","NaN","","","","","","","","","","","","","",""
"","response","","html-keyboard-response","293","260767","0.0-1.0-392.0-0.0","0","0","45398","","896","","","68","43","","","1","43","training","adjacent","FG","6","7","R.jpg","N.jpg","1","1","1","",""
"","feedback","","html-keyboard-response","294","261782","0.0-1.0-393.0-0.0","0","0","45398","","null","","","null","43","","","","","","","","","","","","","","","",""
"","ITI","","html-keyboard-response","295","262790","0.0-1.0-396.0","0","0","45398","","null","","","null","43","","","","","","","","","","","","","","","NaN",""
"","S1","","html-keyboard-response","296","263054","0.0-1.0-398.0","0","0","45398","","null","","","null","44","","","","","","","","","","","","","","","",""
"","ISI","","html-keyboard-response","297","263214","0.0-1.0-399.0","0","0","45398","","null","","","null","44","NaN","","","","","","","","","","","","","","",""
"","S2","","html-keyboard-response","298","263479","0.0-1.0-400.0","0","0","45398","","null","","","null","44","","NaN","","","","","","","","","","","","","",""
"","response","","html-keyboard-response","299","263797","0.0-1.0-401.0-0.0","0","0","45398","","311","","","75","44","","","1","44","training","adjacent","FG","6","7","R.jpg","N.jpg","0","1","0","",""
"","feedback","","html-keyboard-response","300","264806","0.0-1.0-402.0-0.0","0","0","45398","","null","","","null","44","","","","","","","","","","","","","","","",""
"","time_out","","html-keyboard-response","301","266812","0.0-1.0-404.0-0.0","0","0","45398","","null","","","null","44","","","","","","","","","","","","","","","",""
"","ITI","","html-keyboard-response","302","267820","0.0-1.0-405.0","0","0","45398","","null","","","null","44","","","","","","","","","","","","","","","NaN",""
"","S1","","html-keyboard-response","303","268084","0.0-1.0-407.0","0","0","45398","","null","","","null","45","","","","","","","","","","","","","","","",""
"","ISI","","html-keyboard-response","304","268242","0.0-1.0-408.0","0","0","45398","","null","","","null","45","NaN","","","","","","","","","","","","","","",""
"","S2","","html-keyboard-response","305","268498","0.0-1.0-409.0","0","0","45398","","null","","","null","45","","NaN","","","","","","","","","","","","","",""
"","response","","html-keyboard-response","306","269140","0.0-1.0-410.0-0.0","0","0","45398","","637","","","75","45","","","1","45","training","adjacent","DE","4","5","M.jpg","Q.jpg","0","1","0","",""
"","feedback","","html-keyboard-response","307","270148","0.0-1.0-411.0-0.0","0","0","45398","","null","","","null","45","","","","","","","","","","","","","","","",""
"","time_out","","html-keyboard-response","308","272154","0.0-1.0-413.0-0.0","0","0","45398","","null","","","null","45","","","","","","","","","","","","","","","",""
"","ITI","","html-keyboard-response","309","273165","0.0-1.0-414.0","0","0","45398","","null","","","null","45","","","","","","","","","","","","","","","NaN",""
"","S1","","html-keyboard-response","310","273428","0.0-1.0-416.0","0","0","45398","","null","","","null","46","","","","","","","","","","","","","","","",""
"","ISI","","html-keyboard-response","311","273589","0.0-1.0-417.0","0","0","45398","","null","","","null","46","NaN","","","","","","","","","","","","","","",""
"","S2","","html-keyboard-response","312","273852","0.0-1.0-418.0","0","0","45398","","null","","","null","46","","NaN","","","","","","","","","","","","","",""
"","response","","html-keyboard-response","313","274161","0.0-1.0-419.0-0.0","0","0","45398","","303","","","68","46","","","1","46","training","adjacent","EF","5","6","Q.jpg","R.jpg","1","1","1","",""
"","feedback","","html-keyboard-response","314","275170","0.0-1.0-420.0-0.0","0","0","45398","","null","","","null","46","","","","","","","","","","","","","","","",""
"","ITI","","html-keyboard-response","315","276181","0.0-1.0-423.0","0","0","45398","","null","","","null","46","","","","","","","","","","","","","","","NaN",""
"","S1","","html-keyboard-response","316","276445","0.0-1.0-425.0","0","0","45398","","null","","","null","47","","","","","","","","","","","","","","","",""
"","ISI","","html-keyboard-response","317","276605","0.0-1.0-426.0","0","0","45398","","null","","","null","47","NaN","","","","","","","","","","","","","","",""
"","S2","","html-keyboard-response","318","276869","0.0-1.0-427.0","0","0","45398","","null","","","null","47","","NaN","","","","","","","","","","","","","",""
"","response","","html-keyboard-response","319","277242","0.0-1.0-428.0-0.0","0","0","45398","","368","","","75","47","","","1","47","training","adjacent","CD","3","4","L.jpg","M.jpg","0","1","0","",""
"","feedback","","html-keyboard-response","320","278253","0.0-1.0-429.0-0.0","0","0","45398","","null","","","null","47","","","","","","","","","","","","","","","",""
"","time_out","","html-keyboard-response","321","280260","0.0-1.0-431.0-0.0","0","0","45398","","null","","","null","47","","","","","","","","","","","","","","","",""
"","ITI","","html-keyboard-response","322","281266","0.0-1.0-432.0","0","0","45398","","null","","","null","47","","","","","","","","","","","","","","","NaN",""
"","block_over","","html-keyboard-response","323","288723","0.0-1.0-433.0-0.0","0","0","45398","","7448","","","32","47","","","","","","","","","","","","","","","",""
"","S1","","html-keyboard-response","324","288981","0.0-1.0-434.0","0","0","45398","","null","","","null","48","","","","","","","","","","","","","","","",""
"","ISI","","html-keyboard-response","325","289140","0.0-1.0-435.0","0","0","45398","","null","","","null","48","NaN","","","","","","","","","","","","","","",""
"","S2","","html-keyboard-response","326","289406","0.0-1.0-436.0","0","0","45398","","null","","","null","48","","NaN","","","","","","","","","","","","","",""
"","response","","html-keyboard-response","327","289643","0.0-1.0-437.0-0.0","0","0","45398","","232","","","75","48","","","2","48","training","adjacent","DC","4","3","M.jpg","L.jpg","0","0","1","",""
"","feedback","","html-keyboard-response","328","290653","0.0-1.0-438.0-0.0","0","0","45398","","null","","","null","48","","","","","","","","","","","","","","","",""
"","ITI","","html-keyboard-response","329","291661","0.0-1.0-441.0","0","0","45398","","null","","","null","48","","","","","","","","","","","","","","","NaN",""
"","S1","","html-keyboard-response","330","291924","0.0-1.0-443.0","0","0","45398","","null","","","null","49","","","","","","","","","","","","","","","",""
"","ISI","","html-keyboard-response","331","292085","0.0-1.0-444.0","0","0","45398","","null","","","null","49","NaN","","","","","","","","","","","","","","",""
"","S2","","html-keyboard-response","332","292349","0.0-1.0-445.0","0","0","45398","","null","","","null","49","","NaN","","","","","","","","","","","","","",""
"","response","","html-keyboard-response","333","292575","0.0-1.0-446.0-0.0","0","0","45398","","220","","","75","49","","","2","49","training","adjacent","ED","5","4","Q.jpg","M.jpg","0","0","1","",""
"","feedback","","html-keyboard-response","334","293588","0.0-1.0-447.0-0.0","0","0","45398","","null","","","null","49","","","","","","","","","","","","","","","",""
"","ITI","","html-keyboard-response","335","294596","0.0-1.0-450.0","0","0","45398","","null","","","null","49","","","","","","","","","","","","","","","NaN",""
"","S1","","html-keyboard-response","336","294860","0.0-1.0-452.0","0","0","45398","","null","","","null","50","","","","","","","","","","","","","","","",""
"","ISI","","html-keyboard-response","337","295032","0.0-1.0-453.0","0","0","45398","","null","","","null","50","NaN","","","","","","","","","","","","","","",""
"","S2","","html-keyboard-response","338","295290","0.0-1.0-454.0","0","0","45398","","null","","","null","50","","NaN","","","","","","","","","","","","","",""
"","response","","html-keyboard-response","339","295519","0.0-1.0-455.0-0.0","0","0","45398","","225","","","75","50","","","2","50","training","adjacent","AB","1","2","P.jpg","O.jpg","0","1","0","",""
"","feedback","","html-keyboard-response","340","296532","0.0-1.0-456.0-0.0","0","0","45398","","null","","","null","50","","","","","","","","","","","","","","","",""
"","time_out","","html-keyboard-response","341","298540","0.0-1.0-458.0-0.0","0","0","45398","","null","","","null","50","","","","","","","","","","","","","","","",""
"","ITI","","html-keyboard-response","342","299549","0.0-1.0-459.0","0","0","45398","","null","","","null","50","","","","","","","","","","","","","","","NaN",""
"","S1","","html-keyboard-response","343","299812","0.0-1.0-461.0","0","0","45398","","null","","","null","51","","","","","","","","","","","","","","","",""
"","ISI","","html-keyboard-response","344","299972","0.0-1.0-462.0","0","0","45398","","null","","","null","51","NaN","","","","","","","","","","","","","","",""
"","S2","","html-keyboard-response","345","300234","0.0-1.0-463.0","0","0","45398","","null","","","null","51","","NaN","","","","","","","","","","","","","",""
"","response","","html-keyboard-response","346","300355","0.0-1.0-464.0-0.0","0","0","45398","","117","","","68","51","","","2","51","training","adjacent","BA","2","1","O.jpg","P.jpg","1","0","0","",""
"","feedback","","html-keyboard-response","347","301364","0.0-1.0-465.0-0.0","0","0","45398","","null","","","null","51","","","","","","","","","","","","","","","",""
"","time_out","","html-keyboard-response","348","303372","0.0-1.0-467.0-0.0","0","0","45398","","null","","","null","51","","","","","","","","","","","","","","","",""
"","ITI","","html-keyboard-response","349","304381","0.0-1.0-468.0","0","0","45398","","null","","","null","51","","","","","","","","","","","","","","","NaN",""
"","S1","","html-keyboard-response","350","304645","0.0-1.0-470.0","0","0","45398","","null","","","null","52","","","","","","","","","","","","","","","",""
"","ISI","","html-keyboard-response","351","304807","0.0-1.0-471.0","0","0","45398","","null","","","null","52","NaN","","","","","","","","","","","","","","",""
"","S2","","html-keyboard-response","352","305069","0.0-1.0-472.0","0","0","45398","","null","","","null","52","","NaN","","","","","","","","","","","","","",""
"","response","","html-keyboard-response","353","305466","0.0-1.0-473.0-0.0","0","0","45398","","392","","","75","52","","","2","52","training","adjacent","EF","5","6","Q.jpg","R.jpg","0","1","0","",""
"","feedback","","html-keyboard-response","354","306477","0.0-1.0-474.0-0.0","0","0","45398","","null","","","null","52","","","","","","","","","","","","","","","",""
"","time_out","","html-keyboard-response","355","308485","0.0-1.0-476.0-0.0","0","0","45398","","null","","","null","52","","","","","","","","","","","","","","","",""
"","ITI","","html-keyboard-response","356","309494","0.0-1.0-477.0","0","0","45398","","null","","","null","52","","","","","","","","","","","","","","","NaN",""
"","S1","","html-keyboard-response","357","309756","0.0-1.0-479.0","0","0","45398","","null","","","null","53","","","","","","","","","","","","","","","",""
"","ISI","","html-keyboard-response","358","309914","0.0-1.0-480.0","0","0","45398","","null","","","null","53","NaN","","","","","","","","","","","","","","",""
"","S2","","html-keyboard-response","359","310171","0.0-1.0-481.0","0","0","45398","","null","","","null","53","","NaN","","","","","","","","","","","","","",""
"","response","","html-keyboard-response","360","310337","0.0-1.0-482.0-0.0","0","0","45398","","162","","","68","53","","","2","53","training","adjacent","ED","5","4","Q.jpg","M.jpg","1","0","0","",""
"","feedback","","html-keyboard-response","361","311347","0.0-1.0-483.0-0.0","0","0","45398","","null","","","null","53","","","","","","","","","","","","","","","",""
"","time_out","","html-keyboard-response","362","313356","0.0-1.0-485.0-0.0","0","0","45398","","null","","","null","53","","","","","","","","","","","","","","","",""
"","ITI","","html-keyboard-response","363","314364","0.0-1.0-486.0","0","0","45398","","null","","","null","53","","","","","","","","","","","","","","","NaN",""
"","S1","","html-keyboard-response","364","314628","0.0-1.0-488.0","0","0","45398","","null","","","null","54","","","","","","","","","","","","","","","",""
"","ISI","","html-keyboard-response","365","314789","0.0-1.0-489.0","0","0","45398","","null","","","null","54","NaN","","","","","","","","","","","","","","",""
"","S2","","html-keyboard-response","366","315052","0.0-1.0-490.0","0","0","45398","","null","","","null","54","","NaN","","","","","","","","","","","","","",""
"","response","","html-keyboard-response","367","315302","0.0-1.0-491.0-0.0","0","0","45398","","243","","","75","54","","","2","54","training","adjacent","BC","2","3","O.jpg","L.jpg","0","1","0","",""
"","feedback","","html-keyboard-response","368","316317","0.0-1.0-492.0-0.0","0","0","45398","","null","","","null","54","","","","","","","","","","","","","","","",""
"","time_out","","html-keyboard-response","369","318323","0.0-1.0-494.0-0.0","0","0","45398","","null","","","null","54","","","","","","","","","","","","","","","",""
"","ITI","","html-keyboard-response","370","319333","0.0-1.0-495.0","0","0","45398","","null","","","null","54","","","","","","","","","","","","","","","NaN",""
"","S1","","html-keyboard-response","371","319597","0.0-1.0-497.0","0","0","45398","","null","","","null","55","","","","","","","","","","","","","","","",""
"","ISI","","html-keyboard-response","372","319757","0.0-1.0-498.0","0","0","45398","","null","","","null","55","NaN","","","","","","","","","","","","","","",""
"","S2","","html-keyboard-response","373","320020","0.0-1.0-499.0","0","0","45398","","null","","","null","55","","NaN","","","","","","","","","","","","","",""
"","response","","html-keyboard-response","374","320101","0.0-1.0-500.0-0.0","0","0","45398","","76","","","68","55","","","2","55","training","adjacent","DE","4","5","M.jpg","Q.jpg","1","1","1","",""
"","feedback","","html-keyboard-response","375","321116","0.0-1.0-501.0-0.0","0","0","45398","","null","","","null","55","","","","","","","","","","","","","","","",""
"","ITI","","html-keyboard-response","376","322122","0.0-1.0-504.0","0","0","45398","","null","","","null","55","","","","","","","","","","","","","","","NaN",""
"","S1","","html-keyboard-response","377","322380","0.0-1.0-506.0","0","0","45398","","null","","","null","56","","","","","","","","","","","","","","","",""
"","ISI","","html-keyboard-response","378","322540","0.0-1.0-507.0","0","0","45398","","null","","","null","56","NaN","","","","","","","","","","","","","","",""
"","S2","","html-keyboard-response","379","322803","0.0-1.0-508.0","0","0","45398","","null","","","null","56","","NaN","","","","","","","","","","","","","",""
"","response","","html-keyboard-response","380","323013","0.0-1.0-509.0-0.0","0","0","45398","","207","","","68","56","","","2","56","training","adjacent","FE","6","5","R.jpg","Q.jpg","1","0","0","",""
"","feedback","","html-keyboard-response","381","324019","0.0-1.0-510.0-0.0","0","0","45398","","null","","","null","56","","","","","","","","","","","","","","","",""
"","time_out","","html-keyboard-response","382","326027","0.0-1.0-512.0-0.0","0","0","45398","","null","","","null","56","","","","","","","","","","","","","","","",""
"","ITI","","html-keyboard-response","383","327034","0.0-1.0-513.0","0","0","45398","","null","","","null","56","","","","","","","","","","","","","","","NaN",""
"","S1","","html-keyboard-response","384","327290","0.0-1.0-515.0","0","0","45398","","null","","","null","57","","","","","","","","","","","","","","","",""
"","ISI","","html-keyboard-response","385","327451","0.0-1.0-516.0","0","0","45398","","null","","","null","57","NaN","","","","","","","","","","","","","","",""
"","S2","","html-keyboard-response","386","327716","0.0-1.0-517.0","0","0","45398","","null","","","null","57","","NaN","","","","","","","","","","","","","",""
"","response","","html-keyboard-response","387","327994","0.0-1.0-518.0-0.0","0","0","45398","","272","","","68","57","","","2","57","training","adjacent","CD","3","4","L.jpg","M.jpg","1","1","1","",""
"","feedback","","html-keyboard-response","388","329004","0.0-1.0-519.0-0.0","0","0","45398","","null","","","null","57","","","","","","","","","","","","","","","",""
"","ITI","","html-keyboard-response","389","330012","0.0-1.0-522.0","0","0","45398","","null","","","null","57","","","","","","","","","","","","","","","NaN",""
"","S1","","html-keyboard-response","390","330274","0.0-1.0-524.0","0","0","45398","","null","","","null","58","","","","","","","","","","","","","","","",""
"","ISI","","html-keyboard-response","391","330436","0.0-1.0-525.0","0","0","45398","","null","","","null","58","NaN","","","","","","","","","","","","","","",""
"","S2","","html-keyboard-response","392","330700","0.0-1.0-526.0","0","0","45398","","null","","","null","58","","NaN","","","","","","","","","","","","","",""
"","response","","html-keyboard-response","393","331071","0.0-1.0-527.0-0.0","0","0","45398","","365","","","75","58","","","2","58","training","adjacent","GF","7","6","N.jpg","R.jpg","0","0","1","",""
"","feedback","","html-keyboard-response","394","332082","0.0-1.0-528.0-0.0","0","0","45398","","null","","","null","58","","","","","","","","","","","","","","","",""
"","ITI","","html-keyboard-response","395","333090","0.0-1.0-531.0","0","0","45398","","null","","","null","58","","","","","","","","","","","","","","","NaN",""
"","S1","","html-keyboard-response","396","333346","0.0-1.0-533.0","0","0","45398","","null","","","null","59","","","","","","","","","","","","","","","",""
"","ISI","","html-keyboard-response","397","333508","0.0-1.0-534.0","0","0","45398","","null","","","null","59","NaN","","","","","","","","","","","","","","",""
"","S2","","html-keyboard-response","398","333772","0.0-1.0-535.0","0","0","45398","","null","","","null","59","","NaN","","","","","","","","","","","","","",""
"","response","","html-keyboard-response","399","334003","0.0-1.0-536.0-0.0","0","0","45398","","224","","","68","59","","","2","59","training","adjacent","CB","3","2","L.jpg","O.jpg","1","0","0","",""
"","feedback","","html-keyboard-response","400","335011","0.0-1.0-537.0-0.0","0","0","45398","","null","","","null","59","","","","","","","","","","","","","","","",""
"","time_out","","html-keyboard-response","401","337019","0.0-1.0-539.0-0.0","0","0","45398","","null","","","null","59","","","","","","","","","","","","","","","",""
"","ITI","","html-keyboard-response","402","338027","0.0-1.0-540.0","0","0","45398","","null","","","null","59","","","","","","","","","","","","","","","NaN",""
"","S1","","html-keyboard-response","403","338292","0.0-1.0-542.0","0","0","45398","","null","","","null","60","","","","","","","","","","","","","","","",""
"","ISI","","html-keyboard-response","404","338451","0.0-1.0-543.0","0","0","45398","","null","","","null","60","NaN","","","","","","","","","","","","","","",""
"","S2","","html-keyboard-response","405","338715","0.0-1.0-544.0","0","0","45398","","null","","","null","60","","NaN","","","","","","","","","","","","","",""
"","response","","html-keyboard-response","406","338821","0.0-1.0-545.0-0.0","0","0","45398","","100","","","75","60","","","2","60","training","adjacent","FG","6","7","R.jpg","N.jpg","0","1","0","",""
"","feedback","","html-keyboard-response","407","339834","0.0-1.0-546.0-0.0","0","0","45398","","null","","","null","60","","","","","","","","","","","","","","","",""
"","time_out","","html-keyboard-response","408","341844","0.0-1.0-548.0-0.0","0","0","45398","","null","","","null","60","","","","","","","","","","","","","","","",""
"","ITI","","html-keyboard-response","409","342850","0.0-1.0-549.0","0","0","45398","","null","","","null","60","","","","","","","","","","","","","","","NaN",""
"","S1","","html-keyboard-response","410","343106","0.0-1.0-551.0","0","0","45398","","null","","","null","61","","","","","","","","","","","","","","","",""
"","ISI","","html-keyboard-response","411","343266","0.0-1.0-552.0","0","0","45398","","null","","","null","61","NaN","","","","","","","","","","","","","","",""
"","S2","","html-keyboard-response","412","343524","0.0-1.0-553.0","0","0","45398","","null","","","null","61","","NaN","","","","","","","","","","","","","",""
"","response","","html-keyboard-response","413","343748","0.0-1.0-554.0-0.0","0","0","45398","","217","","","68","61","","","2","61","training","adjacent","BA","2","1","O.jpg","P.jpg","1","0","0","",""
"","feedback","","html-keyboard-response","414","344762","0.0-1.0-555.0-0.0","0","0","45398","","null","","","null","61","","","","","","","","","","","","","","","",""
"","time_out","","html-keyboard-response","415","346772","0.0-1.0-557.0-0.0","0","0","45398","","null","","","null","61","","","","","","","","","","","","","","","",""
"","ITI","","html-keyboard-response","416","347780","0.0-1.0-558.0","0","0","45398","","null","","","null","61","","","","","","","","","","","","","","","NaN",""
"","S1","","html-keyboard-response","417","348044","0.0-1.0-560.0","0","0","45398","","null","","","null","62","","","","","","","","","","","","","","","",""
"","ISI","","html-keyboard-response","418","348204","0.0-1.0-561.0","0","0","45398","","null","","","null","62","NaN","","","","","","","","","","","","","","",""
"","S2","","html-keyboard-response","419","348466","0.0-1.0-562.0","0","0","45398","","null","","","null","62","","NaN","","","","","","","","","","","","","",""
"","response","","html-keyboard-response","420","348791","0.0-1.0-563.0-0.0","0","0","45398","","319","","","68","62","","","2","62","training","adjacent","FG","6","7","R.jpg","N.jpg","1","1","1","",""
"","feedback","","html-keyboard-response","421","349806","0.0-1.0-564.0-0.0","0","0","45398","","null","","","null","62","","","","","","","","","","","","","","","",""
"","ITI","","html-keyboard-response","422","350820","0.0-1.0-567.0","0","0","45398","","null","","","null","62","","","","","","","","","","","","","","","NaN",""
"","S1","","html-keyboard-response","423","351084","0.0-1.0-569.0","0","0","45398","","null","","","null","63","","","","","","","","","","","","","","","",""
"","ISI","","html-keyboard-response","424","351244","0.0-1.0-570.0","0","0","45398","","null","","","null","63","NaN","","","","","","","","","","","","","","",""
"","S2","","html-keyboard-response","425","351508","0.0-1.0-571.0","0","0","45398","","null","","","null","63","","NaN","","","","","","","","","","","","","",""
"","response","","html-keyboard-response","426","351943","0.0-1.0-572.0-0.0","0","0","45398","","429","","","75","63","","","2","63","training","adjacent","EF","5","6","Q.jpg","R.jpg","0","1","0","",""
"","feedback","","html-keyboard-response","427","352956","0.0-1.0-573.0-0.0","0","0","45398","","null","","","null","63","","","","","","","","","","","","","","","",""
"","time_out","","html-keyboard-response","428","354970","0.0-1.0-575.0-0.0","0","0","45398","","null","","","null","63","","","","","","","","","","","","","","","",""
"","ITI","","html-keyboard-response","429","355980","0.0-1.0-576.0","0","0","45398","","null","","","null","63","","","","","","","","","","","","","","","NaN",""
"","S1","","html-keyboard-response","430","356242","0.0-1.0-578.0","0","0","45398","","null","","","null","64","","","","","","","","","","","","","","","",""
"","ISI","","html-keyboard-response","431","356402","0.0-1.0-579.0","0","0","45398","","null","","","null","64","NaN","","","","","","","","","","","","","","",""
"","S2","","html-keyboard-response","432","356658","0.0-1.0-580.0","0","0","45398","","null","","","null","64","","NaN","","","","","","","","","","","","","",""
"","response","","html-keyboard-response","433","357118","0.0-1.0-581.0-0.0","0","0","45398","","455","","","75","64","","","2","64","training","adjacent","FE","6","5","R.jpg","Q.jpg","0","0","1","",""
"","feedback","","html-keyboard-response","434","358131","0.0-1.0-582.0-0.0","0","0","45398","","null","","","null","64","","","","","","","","","","","","","","","",""
"","ITI","","html-keyboard-response","435","359140","0.0-1.0-585.0","0","0","45398","","null","","","null","64","","","","","","","","","","","","","","","NaN",""
"","S1","","html-keyboard-response","436","359403","0.0-1.0-587.0","0","0","45398","","null","","","null","65","","","","","","","","","","","","","","","",""
"","ISI","","html-keyboard-response","437","359563","0.0-1.0-588.0","0","0","45398","","null","","","null","65","NaN","","","","","","","","","","","","","","",""
"","S2","","html-keyboard-response","438","359820","0.0-1.0-589.0","0","0","45398","","null","","","null","65","","NaN","","","","","","","","","","","","","",""
"","response","","html-keyboard-response","439","360414","0.0-1.0-590.0-0.0","0","0","45398","","588","","","75","65","","","2","65","training","adjacent","AB","1","2","P.jpg","O.jpg","0","1","0","",""
"","feedback","","html-keyboard-response","440","361428","0.0-1.0-591.0-0.0","0","0","45398","","null","","","null","65","","","","","","","","","","","","","","","",""
"","time_out","","html-keyboard-response","441","363437","0.0-1.0-593.0-0.0","0","0","45398","","null","","","null","65","","","","","","","","","","","","","","","",""
"","ITI","","html-keyboard-response","442","364451","0.0-1.0-594.0","0","0","45398","","null","","","null","65","","","","","","","","","","","","","","","NaN",""
"","S1","","html-keyboard-response","443","364708","0.0-1.0-596.0","0","0","45398","","null","","","null","66","","","","","","","","","","","","","","","",""
"","ISI","","html-keyboard-response","444","364866","0.0-1.0-597.0","0","0","45398","","null","","","null","66","NaN","","","","","","","","","","","","","","",""
"","S2","","html-keyboard-response","445","365124","0.0-1.0-598.0","0","0","45398","","null","","","null","66","","NaN","","","","","","","","","","","","","",""
"","response","","html-keyboard-response","446","365360","0.0-1.0-599.0-0.0","0","0","45398","","230","","","75","66","","","2","66","training","adjacent","BC","2","3","O.jpg","L.jpg","0","1","0","",""
"","feedback","","html-keyboard-response","447","366372","0.0-1.0-600.0-0.0","0","0","45398","","null","","","null","66","","","","","","","","","","","","","","","",""
"","time_out","","html-keyboard-response","448","368381","0.0-1.0-602.0-0.0","0","0","45398","","null","","","null","66","","","","","","","","","","","","","","","",""
"","ITI","","html-keyboard-response","449","369387","0.0-1.0-603.0","0","0","45398","","null","","","null","66","","","","","","","","","","","","","","","NaN",""
"","S1","","html-keyboard-response","450","369650","0.0-1.0-605.0","0","0","45398","","null","","","null","67","","","","","","","","","","","","","","","",""
"","ISI","","html-keyboard-response","451","369810","0.0-1.0-606.0","0","0","45398","","null","","","null","67","NaN","","","","","","","","","","","","","","",""
"","S2","","html-keyboard-response","452","370076","0.0-1.0-607.0","0","0","45398","","null","","","null","67","","NaN","","","","","","","","","","","","","",""
"","response","","html-keyboard-response","453","370503","0.0-1.0-608.0-0.0","0","0","45398","","422","","","75","67","","","2","67","training","adjacent","BA","2","1","O.jpg","P.jpg","0","0","1","",""
"","feedback","","html-keyboard-response","454","371514","0.0-1.0-609.0-0.0","0","0","45398","","null","","","null","67","","","","","","","","","","","","","","","",""
"","ITI","","html-keyboard-response","455","372524","0.0-1.0-612.0","0","0","45398","","null","","","null","67","","","","","","","","","","","","","","","NaN",""
"","S1","","html-keyboard-response","456","372787","0.0-1.0-614.0","0","0","45398","","null","","","null","68","","","","","","","","","","","","","","","",""
"","ISI","","html-keyboard-response","457","372948","0.0-1.0-615.0","0","0","45398","","null","","","null","68","NaN","","","","","","","","","","","","","","",""
"","S2","","html-keyboard-response","458","373212","0.0-1.0-616.0","0","0","45398","","null","","","null","68","","NaN","","","","","","","","","","","","","",""
"","response","","html-keyboard-response","459","373442","0.0-1.0-617.0-0.0","0","0","45398","","224","","","68","68","","","2","68","training","adjacent","FE","6","5","R.jpg","Q.jpg","1","0","0","",""
"","feedback","","html-keyboard-response","460","374450","0.0-1.0-618.0-0.0","0","0","45398","","null","","","null","68","","","","","","","","","","","","","","","",""
"","time_out","","html-keyboard-response","461","376458","0.0-1.0-620.0-0.0","0","0","45398","","null","","","null","68","","","","","","","","","","","","","","","",""
"","ITI","","html-keyboard-response","462","377467","0.0-1.0-621.0","0","0","45398","","null","","","null","68","","","","","","","","","","","","","","","NaN",""
"","S1","","html-keyboard-response","463","377724","0.0-1.0-623.0","0","0","45398","","null","","","null","69","","","","","","","","","","","","","","","",""
"","ISI","","html-keyboard-response","464","377882","0.0-1.0-624.0","0","0","45398","","null","","","null","69","NaN","","","","","","","","","","","","","","",""
"","S2","","html-keyboard-response","465","377896","0.0-1.0-625.0","0","0","45398","","11","","","75","69","","k","2","69","training","adjacent","DC","4","3","M.jpg","L.jpg","0","0","1","",""
"","feedback","","html-keyboard-response","466","378908","0.0-1.0-627.0-0.0","0","0","45398","","null","","","null","69","","","","","","","","","","","","","","","",""
"","ITI","","html-keyboard-response","467","379916","0.0-1.0-630.0","0","0","45398","","null","","","null","69","","","","","","","","","","","","","","","NaN",""
"","S1","","html-keyboard-response","468","380180","0.0-1.0-632.0","0","0","45398","","null","","","null","70","","","","","","","","","","","","","","","",""
"","ISI","","html-keyboard-response","469","380340","0.0-1.0-633.0","0","0","45398","","null","","","null","70","NaN","","","","","","","","","","","","","","",""
"","S2","","html-keyboard-response","470","380477","0.0-1.0-634.0","0","0","45398","","131","","","75","70","","k","2","70","training","adjacent","CD","3","4","L.jpg","M.jpg","0","1","0","",""
"","feedback","","html-keyboard-response","471","381493","0.0-1.0-636.0-0.0","0","0","45398","","null","","","null","70","","","","","","","","","","","","","","","",""
"","time_out","","html-keyboard-response","472","383505","0.0-1.0-638.0-0.0","0","0","45398","","null","","","null","70","","","","","","","","","","","","","","","",""
"","ITI","","html-keyboard-response","473","384516","0.0-1.0-639.0","0","0","45398","","943","","","68","70","","","","","","","","","","","","","","","d",""
"","S1","","html-keyboard-response","474","384779","0.0-1.0-641.0","0","0","45398","","null","","","null","71","","","","","","","","","","","","","","","",""
"","ISI","","html-keyboard-response","475","384940","0.0-1.0-642.0","0","0","45398","","null","","","null","71","NaN","","","","","","","","","","","","","","",""
"","S2","","html-keyboard-response","476","385127","0.0-1.0-643.0","0","0","45398","","181","","","68","71","","d","2","71","training","adjacent","DE","4","5","M.jpg","Q.jpg","1","1","1","",""
"","feedback","","html-keyboard-response","477","386139","0.0-1.0-645.0-0.0","0","0","45398","","null","","","null","71","","","","","","","","","","","","","","","",""
"","ITI","","html-keyboard-response","478","387148","0.0-1.0-648.0","0","0","45398","","null","","","null","71","","","","","","","","","","","","","","","NaN",""
"","S1","","html-keyboard-response","479","387410","0.0-1.0-650.0","0","0","45398","","null","","","null","72","","","","","","","","","","","","","","","",""
"","ISI","","html-keyboard-response","480","387570","0.0-1.0-651.0","0","0","45398","","null","","","null","72","NaN","","","","","","","","","","","","","","",""
"","S2","","html-keyboard-response","481","387581","0.0-1.0-652.0","0","0","45398","","4","","","68","72","","d","2","72","training","adjacent","EF","5","6","Q.jpg","R.jpg","1","1","1","",""
"","feedback","","html-keyboard-response","482","388595","0.0-1.0-654.0-0.0","0","0","45398","","null","","","null","72","","","","","","","","","","","","","","","",""
"","ITI","","html-keyboard-response","483","389602","0.0-1.0-657.0","0","0","45398","","839","","","68","72","","","","","","","","","","","","","","","d",""
"","S1","","html-keyboard-response","484","389859","0.0-1.0-659.0","0","0","45398","","null","","","null","73","","","","","","","","","","","","","","","",""
"","ISI","","html-keyboard-response","485","390019","0.0-1.0-660.0","0","0","45398","","null","","","null","73","NaN","","","","","","","","","","","","","","",""
"","S2","","html-keyboard-response","486","390283","0.0-1.0-661.0","0","0","45398","","null","","","null","73","","NaN","","","","","","","","","","","","","",""
"","response","","html-keyboard-response","487","390777","0.0-1.0-662.0-0.0","0","0","45398","","489","","","68","73","","","2","73","training","adjacent","BC","2","3","O.jpg","L.jpg","1","1","1","",""
"","feedback","","html-keyboard-response","488","391785","0.0-1.0-663.0-0.0","0","0","45398","","null","","","null","73","","","","","","","","","","","","","","","",""
"","ITI","","html-keyboard-response","489","392795","0.0-1.0-666.0","0","0","45398","","null","","","null","73","","","","","","","","","","","","","","","NaN",""
"","S1","","html-keyboard-response","490","393059","0.0-1.0-668.0","0","0","45398","","null","","","null","74","","","","","","","","","","","","","","","",""
"","ISI","","html-keyboard-response","491","393219","0.0-1.0-669.0","0","0","45398","","null","","","null","74","NaN","","","","","","","","","","","","","","",""
"","S2","","html-keyboard-response","492","393317","0.0-1.0-670.0","0","0","45398","","92","","","68","74","","d","2","74","training","adjacent","CB","3","2","L.jpg","O.jpg","1","0","0","",""
"","feedback","","html-keyboard-response","493","394331","0.0-1.0-672.0-0.0","0","0","45398","","null","","","null","74","","","","","","","","","","","","","","","",""
"","time_out","","html-keyboard-response","494","396338","0.0-1.0-674.0-0.0","0","0","45398","","null","","","null","74","","","","","","","","","","","","","","","",""
"","ITI","","html-keyboard-response","495","397347","0.0-1.0-675.0","0","0","45398","","null","","","null","74","","","","","","","","","","","","","","","NaN",""
"","S1","","html-keyboard-response","496","397609","0.0-1.0-677.0","0","0","45398","","null","","","null","75","","","","","","","","","","","","","","","",""
"","ISI","","html-keyboard-response","497","397769","0.0-1.0-678.0","0","0","45398","","null","","","null","75","NaN","","","","","","","","","","","","","","",""
"","S2","","html-keyboard-response","498","398024","0.0-1.0-679.0","0","0","45398","","null","","","null","75","","NaN","","","","","","","","","","","","","",""
"","response","","html-keyboard-response","499","398041","0.0-1.0-680.0-0.0","0","0","45398","","14","","","75","75","","","2","75","training","adjacent","CB","3","2","L.jpg","O.jpg","0","0","1","",""
"","feedback","","html-keyboard-response","500","399049","0.0-1.0-681.0-0.0","0","0","45398","","null","","","null","75","","","","","","","","","","","","","","","",""
"","ITI","","html-keyboard-response","501","400057","0.0-1.0-684.0","0","0","45398","","null","","","null","75","","","","","","","","","","","","","","","NaN",""
"","S1","","html-keyboard-response","502","400313","0.0-1.0-686.0","0","0","45398","","null","","","null","76","","","","","","","","","","","","","","","",""
"","ISI","","html-keyboard-response","503","400474","0.0-1.0-687.0","0","0","45398","","null","","","null","76","NaN","","","","","","","","","","","","","","",""
"","S2","","html-keyboard-response","504","400739","0.0-1.0-688.0","0","0","45398","","null","","","null","76","","NaN","","","","","","","","","","","","","",""
"","response","","html-keyboard-response","505","401147","0.0-1.0-689.0-0.0","0","0","45398","","402","","","75","76","","","2","76","training","adjacent","AB","1","2","P.jpg","O.jpg","0","1","0","",""
"","feedback","","html-keyboard-response","506","402163","0.0-1.0-690.0-0.0","0","0","45398","","null","","","null","76","","","","","","","","","","","","","","","",""
"","time_out","","html-keyboard-response","507","404171","0.0-1.0-692.0-0.0","0","0","45398","","null","","","null","76","","","","","","","","","","","","","","","",""
"","ITI","","html-keyboard-response","508","405179","0.0-1.0-693.0","0","0","45398","","329","","","68","76","","","","","","","","","","","","","","","d",""
"","S1","","html-keyboard-response","509","405443","0.0-1.0-695.0","0","0","45398","","null","","","null","77","","","","","","","","","","","","","","","",""
"","ISI","","html-keyboard-response","510","405605","0.0-1.0-696.0","0","0","45398","","null","","","null","77","NaN","","","","","","","","","","","","","","",""
"","S2","","html-keyboard-response","511","405764","0.0-1.0-697.0","0","0","45398","","153","","","68","77","","d","2","77","training","adjacent","BA","2","1","O.jpg","P.jpg","1","0","0","",""
"","feedback","","html-keyboard-response","512","406771","0.0-1.0-699.0-0.0","0","0","45398","","null","","","null","77","","","","","","","","","","","","","","","",""
"","time_out","","html-keyboard-response","513","408779","0.0-1.0-701.0-0.0","0","0","45398","","null","","","null","77","","","","","","","","","","","","","","","",""
"","ITI","","html-keyboard-response","514","409786","0.0-1.0-702.0","0","0","45398","","730","","","75","77","","","","","","","","","","","","","","","k",""
"","S1","","html-keyboard-response","515","410043","0.0-1.0-704.0","0","0","45398","","null","","","null","78","","","","","","","","","","","","","","","",""
"","ISI","","html-keyboard-response","516","410203","0.0-1.0-705.0","0","0","45398","","null","","","null","78","NaN","","","","","","","","","","","","","","",""
"","S2","","html-keyboard-response","517","410467","0.0-1.0-706.0","0","0","45398","","null","","","null","78","","NaN","","","","","","","","","","","","","",""
"","response","","html-keyboard-response","518","411274","0.0-1.0-707.0-0.0","0","0","45398","","802","","","68","78","","","2","78","training","adjacent","GF","7","6","N.jpg","R.jpg","1","0","0","",""
"","feedback","","html-keyboard-response","519","412282","0.0-1.0-708.0-0.0","0","0","45398","","null","","","null","78","","","","","","","","","","","","","","","",""
"","time_out","","html-keyboard-response","520","414290","0.0-1.0-710.0-0.0","0","0","45398","","null","","","null","78","","","","","","","","","","","","","","","",""
"","ITI","","html-keyboard-response","521","415297","0.0-1.0-711.0","0","0","45398","","null","","","null","78","","","","","","","","","","","","","","","NaN",""
"","S1","","html-keyboard-response","522","415555","0.0-1.0-713.0","0","0","45398","","null","","","null","79","","","","","","","","","","","","","","","",""
"","ISI","","html-keyboard-response","523","415714","0.0-1.0-714.0","0","0","45398","","null","","","null","79","NaN","","","","","","","","","","","","","","",""
"","S2","","html-keyboard-response","524","415980","0.0-1.0-715.0","0","0","45398","","null","","","null","79","","NaN","","","","","","","","","","","","","",""
"","response","","html-keyboard-response","525","416396","0.0-1.0-716.0-0.0","0","0","45398","","411","","","75","79","","","2","79","training","adjacent","GF","7","6","N.jpg","R.jpg","0","0","1","",""
"","feedback","","html-keyboard-response","526","417411","0.0-1.0-717.0-0.0","0","0","45398","","null","","","null","79","","","","","","","","","","","","","","","",""
"","ITI","","html-keyboard-response","527","418419","0.0-1.0-720.0","0","0","45398","","null","","","null","79","","","","","","","","","","","","","","","NaN",""
"","S1","","html-keyboard-response","528","418683","0.0-1.0-722.0","0","0","45398","","null","","","null","80","","","","","","","","","","","","","","","",""
"","ISI","","html-keyboard-response","529","418843","0.0-1.0-723.0","0","0","45398","","null","","","null","80","NaN","","","","","","","","","","","","","","",""
"","S2","","html-keyboard-response","530","419106","0.0-1.0-724.0","0","0","45398","","null","","","null","80","","NaN","","","","","","","","","","","","","",""
"","response","","html-keyboard-response","531","419596","0.0-1.0-725.0-0.0","0","0","45398","","484","","","68","80","","","2","80","training","adjacent","FE","6","5","R.jpg","Q.jpg","1","0","0","",""
"","feedback","","html-keyboard-response","532","420611","0.0-1.0-726.0-0.0","0","0","45398","","null","","","null","80","","","","","","","","","","","","","","","",""
"","time_out","","html-keyboard-response","533","422617","0.0-1.0-728.0-0.0","0","0","45398","","null","","","null","80","","","","","","","","","","","","","","","",""
"","ITI","","html-keyboard-response","534","423627","0.0-1.0-729.0","0","0","45398","","null","","","null","80","","","","","","","","","","","","","","","NaN",""
"","S1","","html-keyboard-response","535","423890","0.0-1.0-731.0","0","0","45398","","null","","","null","81","","","","","","","","","","","","","","","",""
"","ISI","","html-keyboard-response","536","424049","0.0-1.0-732.0","0","0","45398","","null","","","null","81","NaN","","","","","","","","","","","","","","",""
"","S2","","html-keyboard-response","537","424306","0.0-1.0-733.0","0","0","45398","","null","","","null","81","","NaN","","","","","","","","","","","","","",""
"","response","","html-keyboard-response","538","424402","0.0-1.0-734.0-0.0","0","0","45398","","94","","","75","81","","","2","81","training","adjacent","ED","5","4","Q.jpg","M.jpg","0","0","1","",""
"","feedback","","html-keyboard-response","539","425411","0.0-1.0-735.0-0.0","0","0","45398","","null","","","null","81","","","","","","","","","","","","","","","",""
"","ITI","","html-keyboard-response","540","426418","0.0-1.0-738.0","0","0","45398","","null","","","null","81","","","","","","","","","","","","","","","NaN",""
"","S1","","html-keyboard-response","541","426681","0.0-1.0-740.0","0","0","45398","","null","","","null","82","","","","","","","","","","","","","","","",""
"","ISI","","html-keyboard-response","542","426841","0.0-1.0-741.0","0","0","45398","","null","","","null","82","NaN","","","","","","","","","","","","","","",""
"","S2","","html-keyboard-response","543","427097","0.0-1.0-742.0","0","0","45398","","null","","","null","82","","NaN","","","","","","","","","","","","","",""
"","response","","html-keyboard-response","544","427398","0.0-1.0-743.0-0.0","0","0","45398","","295","","","68","82","","","2","82","training","adjacent","BC","2","3","O.jpg","L.jpg","1","1","1","",""
"","feedback","","html-keyboard-response","545","428409","0.0-1.0-744.0-0.0","0","0","45398","","null","","","null","82","","","","","","","","","","","","","","","",""
"","ITI","","html-keyboard-response","546","429419","0.0-1.0-747.0","0","0","45398","","null","","","null","82","","","","","","","","","","","","","","","NaN",""
"","S1","","html-keyboard-response","547","429682","0.0-1.0-749.0","0","0","45398","","null","","","null","83","","","","","","","","","","","","","","","",""
"","ISI","","html-keyboard-response","548","429843","0.0-1.0-750.0","0","0","45398","","null","","","null","83","NaN","","","","","","","","","","","","","","",""
"","S2","","html-keyboard-response","549","430106","0.0-1.0-751.0","0","0","45398","","null","","","null","83","","NaN","","","","","","","","","","","","","",""
"","response","","html-keyboard-response","550","430507","0.0-1.0-752.0-0.0","0","0","45398","","395","","","75","83","","","2","83","training","adjacent","CB","3","2","L.jpg","O.jpg","0","0","1","",""
"","feedback","","html-keyboard-response","551","431523","0.0-1.0-753.0-0.0","0","0","45398","","null","","","null","83","","","","","","","","","","","","","","","",""
"","ITI","","html-keyboard-response","552","432531","0.0-1.0-756.0","0","0","45398","","null","","","null","83","","","","","","","","","","","","","","","NaN",""
"","S1","","html-keyboard-response","553","432795","0.0-1.0-758.0","0","0","45398","","null","","","null","84","","","","","","","","","","","","","","","",""
"","ISI","","html-keyboard-response","554","432955","0.0-1.0-759.0","0","0","45398","","null","","","null","84","NaN","","","","","","","","","","","","","","",""
"","S2","","html-keyboard-response","555","433219","0.0-1.0-760.0","0","0","45398","","null","","","null","84","","NaN","","","","","","","","","","","","","",""
"","response","","html-keyboard-response","556","433664","0.0-1.0-761.0-0.0","0","0","45398","","439","","","75","84","","","2","84","training","adjacent","EF","5","6","Q.jpg","R.jpg","0","1","0","",""
"","feedback","","html-keyboard-response","557","434673","0.0-1.0-762.0-0.0","0","0","45398","","null","","","null","84","","","","","","","","","","","","","","","",""
"","time_out","","html-keyboard-response","558","436681","0.0-1.0-764.0-0.0","0","0","45398","","null","","","null","84","","","","","","","","","","","","","","","",""
"","ITI","","html-keyboard-response","559","437689","0.0-1.0-765.0","0","0","45398","","null","","","null","84","","","","","","","","","","","","","","","NaN",""
"","S1","","html-keyboard-response","560","437947","0.0-1.0-767.0","0","0","45398","","null","","","null","85","","","","","","","","","","","","","","","",""
"","ISI","","html-keyboard-response","561","438107","0.0-1.0-768.0","0","0","45398","","null","","","null","85","NaN","","","","","","","","","","","","","","",""
"","S2","","html-keyboard-response","562","438371","0.0-1.0-769.0","0","0","45398","","null","","","null","85","","NaN","","","","","","","","","","","","","",""
"","response","","html-keyboard-response","563","438427","0.0-1.0-770.0-0.0","0","0","45398","","50","","","68","85","","","2","85","training","adjacent","DC","4","3","M.jpg","L.jpg","1","0","0","",""
"","feedback","","html-keyboard-response","564","439443","0.0-1.0-771.0-0.0","0","0","45398","","null","","","null","85","","","","","","","","","","","","","","","",""
"","time_out","","html-keyboard-response","565","441450","0.0-1.0-773.0-0.0","0","0","45398","","null","","","null","85","","","","","","","","","","","","","","","",""
"","ITI","","html-keyboard-response","566","442458","0.0-1.0-774.0","0","0","45398","","null","","","null","85","","","","","","","","","","","","","","","NaN",""
"","S1","","html-keyboard-response","567","442723","0.0-1.0-776.0","0","0","45398","","null","","","null","86","","","","","","","","","","","","","","","",""
"","ISI","","html-keyboard-response","568","442882","0.0-1.0-777.0","0","0","45398","","53","","","68","86","d","","","","","","","","","","","","","","",""
"","S2","","html-keyboard-response","569","443147","0.0-1.0-778.0","0","0","45398","","null","","","null","86","","NaN","","","","","","","","","","","","","",""
"","response","","html-keyboard-response","570","443606","0.0-1.0-779.0-0.0","0","0","45398","","453","","","68","86","","","2","86","training","adjacent","AB","1","2","P.jpg","O.jpg","1","1","1","",""
"","feedback","","html-keyboard-response","571","444618","0.0-1.0-780.0-0.0","0","0","45398","","null","","","null","86","","","","","","","","","","","","","","","",""
"","ITI","","html-keyboard-response","572","445627","0.0-1.0-783.0","0","0","45398","","null","","","null","86","","","","","","","","","","","","","","","NaN",""
"","S1","","html-keyboard-response","573","445890","0.0-1.0-785.0","0","0","45398","","null","","","null","87","","","","","","","","","","","","","","","",""
"","ISI","","html-keyboard-response","574","446051","0.0-1.0-786.0","0","0","45398","","null","","","null","87","NaN","","","","","","","","","","","","","","",""
"","S2","","html-keyboard-response","575","446313","0.0-1.0-787.0","0","0","45398","","null","","","null","87","","NaN","","","","","","","","","","","","","",""
"","response","","html-keyboard-response","576","446485","0.0-1.0-788.0-0.0","0","0","45398","","169","","","75","87","","","2","87","training","adjacent","ED","5","4","Q.jpg","M.jpg","0","0","1","",""
"","feedback","","html-keyboard-response","577","447499","0.0-1.0-789.0-0.0","0","0","45398","","null","","","null","87","","","","","","","","","","","","","","","",""
"","ITI","","html-keyboard-response","578","448507","0.0-1.0-792.0","0","0","45398","","null","","","null","87","","","","","","","","","","","","","","","NaN",""
"","S1","","html-keyboard-response","579","448771","0.0-1.0-794.0","0","0","45398","","null","","","null","88","","","","","","","","","","","","","","","",""
"","ISI","","html-keyboard-response","580","448931","0.0-1.0-795.0","0","0","45398","","null","","","null","88","NaN","","","","","","","","","","","","","","",""
"","S2","","html-keyboard-response","581","449195","0.0-1.0-796.0","0","0","45398","","null","","","null","88","","NaN","","","","","","","","","","","","","",""
"","response","","html-keyboard-response","582","449382","0.0-1.0-797.0-0.0","0","0","45398","","180","","","75","88","","","2","88","training","adjacent","DC","4","3","M.jpg","L.jpg","0","0","1","",""
"","feedback","","html-keyboard-response","583","450393","0.0-1.0-798.0-0.0","0","0","45398","","null","","","null","88","","","","","","","","","","","","","","","",""
