"success","ttype","start_time","trial_type","trial_index","time_elapsed","internal_node_id","warning","missed_checkup","PID","view_history","rt","responses","repeat_instructions","key_press","index","keypress_isi","keypress_S2","block","trial_num","phase","group_type","pair_type","S1_stim","S2_stim","S1_img","S2_img","S1_chosen","S1_higher","accuracy","keypress_iti","total_bonus_tally"
"true","full_screen","d03082023hr1808","fullscreen","0","11718","0.0-0.0","0","0","59068","","","","","","","","","","","","","","","","","","","","","",""
"","instructions","","instructions","1","45531","0.0-1.0-0.0-0.0","0","0","59068","[{""page_index"":0,""viewing_time"":3628},{""page_index"":1,""viewing_time"":22461},{""page_index"":2,""viewing_time"":6046},{""page_index"":3,""viewing_time"":1676}]","33811","","","","","","","","","","","","","","","","","","","",""
"","comprehension_check","","survey-multi-choice","2","75543","0.0-1.0-0.0-1.0","0","0","59068","","30006","{""Q0"":""True"",""Q1"":""D"",""Q2"":""Once the second image appears and while the screen 'MAKE A CHOICE' is shown"",""Q3"":""Green mark"",""Q4"":""either D or K""}","0","","","","","","","","","","","","","","","","","",""
"","start_exp","","html-keyboard-response","3","77488","0.0-1.0-1.0","0","0","59068","","1941","","","32","","","","","","","","","","","","","","","","",""
"","S1","","html-keyboard-response","4","77749","0.0-1.0-2.0","0","0","59068","","null","","","null","0","","","","","","","","","","","","","","","",""
"","ISI","","html-keyboard-response","5","77906","0.0-1.0-3.0","0","0","59068","","null","","","null","0","NaN","","","","","","","","","","","","","","",""
"","S2","","html-keyboard-response","6","78161","0.0-1.0-4.0","0","0","59068","","null","","","null","0","","NaN","","","","","","","","","","","","","",""
"","response","","html-keyboard-response","7","79783","0.0-1.0-5.0-0.0","0","0","59068","","1620","","","75","0","","","1","0","training","adjacent","EF","5","6","N.jpg","R.jpg","0","1","0","",""
"","feedback","","html-keyboard-response","8","80797","0.0-1.0-6.0-0.0","0","0","59068","","null","","","null","0","","","","","","","","","","","","","","","",""
"","time_out","","html-keyboard-response","9","82805","0.0-1.0-8.0-0.0","0","0","59068","","null","","","null","0","","","","","","","","","","","","","","","",""
"","ITI","","html-keyboard-response","10","83810","0.0-1.0-9.0","0","0","59068","","136","","","32","0","","","","","","","","","","","","","","","space",""
"","S1","","html-keyboard-response","11","84065","0.0-1.0-11.0","0","0","59068","","null","","","null","1","","","","","","","","","","","","","","","",""
"","ISI","","html-keyboard-response","12","84227","0.0-1.0-12.0","0","0","59068","","null","","","null","1","NaN","","","","","","","","","","","","","","",""
"","S2","","html-keyboard-response","13","84483","0.0-1.0-13.0","0","0","59068","","null","","","null","1","","NaN","","","","","","","","","","","","","",""
"","response","","html-keyboard-response","14","86087","0.0-1.0-14.0-0.0","0","0","59068","","1603","","","68","1","","","1","1","training","adjacent","CB","3","2","O.jpg","M.jpg","1","0","0","",""
"","feedback","","html-keyboard-response","15","87101","0.0-1.0-15.0-0.0","0","0","59068","","null","","","null","1","","","","","","","","","","","","","","","",""
"","time_out","","html-keyboard-response","16","89108","0.0-1.0-17.0-0.0","0","0","59068","","null","","","null","1","","","","","","","","","","","","","","","",""
"","ITI","","html-keyboard-response","17","90114","0.0-1.0-18.0","0","0","59068","","null","","","null","1","","","","","","","","","","","","","","","NaN",""
"","S1","","html-keyboard-response","18","90369","0.0-1.0-20.0","0","0","59068","","null","","","null","2","","","","","","","","","","","","","","","",""
"","ISI","","html-keyboard-response","19","90531","0.0-1.0-21.0","0","0","59068","","null","","","null","2","NaN","","","","","","","","","","","","","","",""
"","S2","","html-keyboard-response","20","90787","0.0-1.0-22.0","0","0","59068","","null","","","null","2","","NaN","","","","","","","","","","","","","",""
"","response","","html-keyboard-response","21","91503","0.0-1.0-23.0-0.0","0","0","59068","","715","","","68","2","","","1","2","training","adjacent","CD","3","4","O.jpg","L.jpg","1","1","1","",""
"","feedback","","html-keyboard-response","22","92517","0.0-1.0-24.0-0.0","0","0","59068","","null","","","null","2","","","","","","","","","","","","","","","",""
"","ITI","","html-keyboard-response","23","93521","0.0-1.0-27.0","0","0","59068","","null","","","null","2","","","","","","","","","","","","","","","NaN",""
"","S1","","html-keyboard-response","24","93776","0.0-1.0-29.0","0","0","59068","","null","","","null","3","","","","","","","","","","","","","","","",""
"","ISI","","html-keyboard-response","25","93939","0.0-1.0-30.0","0","0","59068","","null","","","null","3","NaN","","","","","","","","","","","","","","",""
"","S2","","html-keyboard-response","26","94194","0.0-1.0-31.0","0","0","59068","","null","","","null","3","","NaN","","","","","","","","","","","","","",""
"","response","","html-keyboard-response","27","94898","0.0-1.0-32.0-0.0","0","0","59068","","702","","","68","3","","","1","3","training","adjacent","FE","6","5","R.jpg","N.jpg","1","0","0","",""
"","feedback","","html-keyboard-response","28","95907","0.0-1.0-33.0-0.0","0","0","59068","","null","","","null","3","","","","","","","","","","","","","","","",""
"","time_out","","html-keyboard-response","29","97915","0.0-1.0-35.0-0.0","0","0","59068","","null","","","null","3","","","","","","","","","","","","","","","",""
"","ITI","","html-keyboard-response","30","98923","0.0-1.0-36.0","0","0","59068","","null","","","null","3","","","","","","","","","","","","","","","NaN",""
"","S1","","html-keyboard-response","31","99181","0.0-1.0-38.0","0","0","59068","","null","","","null","4","","","","","","","","","","","","","","","",""
"","ISI","","html-keyboard-response","32","99338","0.0-1.0-39.0","0","0","59068","","null","","","null","4","NaN","","","","","","","","","","","","","","",""
"","S2","","html-keyboard-response","33","99593","0.0-1.0-40.0","0","0","59068","","null","","","null","4","","NaN","","","","","","","","","","","","","",""
"","response","","html-keyboard-response","34","100282","0.0-1.0-41.0-0.0","0","0","59068","","687","","","75","4","","","1","4","training","adjacent","AB","1","2","Q.jpg","M.jpg","0","1","0","",""
"","feedback","","html-keyboard-response","35","101288","0.0-1.0-42.0-0.0","0","0","59068","","null","","","null","4","","","","","","","","","","","","","","","",""
"","time_out","","html-keyboard-response","36","103297","0.0-1.0-44.0-0.0","0","0","59068","","null","","","null","4","","","","","","","","","","","","","","","",""
"","ITI","","html-keyboard-response","37","104306","0.0-1.0-45.0","0","0","59068","","null","","","null","4","","","","","","","","","","","","","","","NaN",""
"","S1","","html-keyboard-response","38","104562","0.0-1.0-47.0","0","0","59068","","null","","","null","5","","","","","","","","","","","","","","","",""
"","ISI","","html-keyboard-response","39","104724","0.0-1.0-48.0","0","0","59068","","null","","","null","5","NaN","","","","","","","","","","","","","","",""
"","S2","","html-keyboard-response","40","104986","0.0-1.0-49.0","0","0","59068","","null","","","null","5","","NaN","","","","","","","","","","","","","",""
"","response","","html-keyboard-response","41","105839","0.0-1.0-50.0-0.0","0","0","59068","","852","","","75","5","","","1","5","training","adjacent","EF","5","6","N.jpg","R.jpg","0","1","0","",""
"","feedback","","html-keyboard-response","42","106849","0.0-1.0-51.0-0.0","0","0","59068","","null","","","null","5","","","","","","","","","","","","","","","",""
"","time_out","","html-keyboard-response","43","108857","0.0-1.0-53.0-0.0","0","0","59068","","null","","","null","5","","","","","","","","","","","","","","","",""
"","ITI","","html-keyboard-response","44","109867","0.0-1.0-54.0","0","0","59068","","null","","","null","5","","","","","","","","","","","","","","","NaN",""
"","S1","","html-keyboard-response","45","110123","0.0-1.0-56.0","0","0","59068","","null","","","null","6","","","","","","","","","","","","","","","",""
"","ISI","","html-keyboard-response","46","110280","0.0-1.0-57.0","0","0","59068","","null","","","null","6","NaN","","","","","","","","","","","","","","",""
"","S2","","html-keyboard-response","47","110541","0.0-1.0-58.0","0","0","59068","","null","","","null","6","","NaN","","","","","","","","","","","","","",""
"","response","","html-keyboard-response","48","111015","0.0-1.0-59.0-0.0","0","0","59068","","473","","","75","6","","","1","6","training","adjacent","DE","4","5","L.jpg","N.jpg","0","1","0","",""
"","feedback","","html-keyboard-response","49","112027","0.0-1.0-60.0-0.0","0","0","59068","","null","","","null","6","","","","","","","","","","","","","","","",""
"","time_out","","html-keyboard-response","50","114035","0.0-1.0-62.0-0.0","0","0","59068","","null","","","null","6","","","","","","","","","","","","","","","",""
"","ITI","","html-keyboard-response","51","115040","0.0-1.0-63.0","0","0","59068","","null","","","null","6","","","","","","","","","","","","","","","NaN",""
"","S1","","html-keyboard-response","52","115300","0.0-1.0-65.0","0","0","59068","","null","","","null","7","","","","","","","","","","","","","","","",""
"","ISI","","html-keyboard-response","53","115458","0.0-1.0-66.0","0","0","59068","","null","","","null","7","NaN","","","","","","","","","","","","","","",""
"","S2","","html-keyboard-response","54","115713","0.0-1.0-67.0","0","0","59068","","null","","","null","7","","NaN","","","","","","","","","","","","","",""
"","response","","html-keyboard-response","55","116295","0.0-1.0-68.0-0.0","0","0","59068","","581","","","75","7","","","1","7","training","adjacent","FG","6","7","R.jpg","P.jpg","0","1","0","",""
"","feedback","","html-keyboard-response","56","117303","0.0-1.0-69.0-0.0","0","0","59068","","null","","","null","7","","","","","","","","","","","","","","","",""
"","time_out","","html-keyboard-response","57","119312","0.0-1.0-71.0-0.0","0","0","59068","","null","","","null","7","","","","","","","","","","","","","","","",""
"","ITI","","html-keyboard-response","58","120322","0.0-1.0-72.0","0","0","59068","","null","","","null","7","","","","","","","","","","","","","","","NaN",""
"","S1","","html-keyboard-response","59","120577","0.0-1.0-74.0","0","0","59068","","null","","","null","8","","","","","","","","","","","","","","","",""
"","ISI","","html-keyboard-response","60","120740","0.0-1.0-75.0","0","0","59068","","null","","","null","8","NaN","","","","","","","","","","","","","","",""
"","S2","","html-keyboard-response","61","121001","0.0-1.0-76.0","0","0","59068","","null","","","null","8","","NaN","","","","","","","","","","","","","",""
"","response","","html-keyboard-response","62","122327","0.0-1.0-77.0-0.0","0","0","59068","","1324","","","75","8","","","1","8","training","adjacent","ED","5","4","N.jpg","L.jpg","0","0","1","",""
"","feedback","","html-keyboard-response","63","123336","0.0-1.0-78.0-0.0","0","0","59068","","null","","","null","8","","","","","","","","","","","","","","","",""
"","ITI","","html-keyboard-response","64","124348","0.0-1.0-81.0","0","0","59068","","null","","","null","8","","","","","","","","","","","","","","","NaN",""
"","S1","","html-keyboard-response","65","124612","0.0-1.0-83.0","0","0","59068","","null","","","null","9","","","","","","","","","","","","","","","",""
"","ISI","","html-keyboard-response","66","124769","0.0-1.0-84.0","0","0","59068","","null","","","null","9","NaN","","","","","","","","","","","","","","",""
"","S2","","html-keyboard-response","67","125024","0.0-1.0-85.0","0","0","59068","","null","","","null","9","","NaN","","","","","","","","","","","","","",""
"","response","","html-keyboard-response","68","125398","0.0-1.0-86.0-0.0","0","0","59068","","372","","","68","9","","","1","9","training","adjacent","CB","3","2","O.jpg","M.jpg","1","0","0","",""
"","feedback","","html-keyboard-response","69","126411","0.0-1.0-87.0-0.0","0","0","59068","","null","","","null","9","","","","","","","","","","","","","","","",""
"","time_out","","html-keyboard-response","70","128420","0.0-1.0-89.0-0.0","0","0","59068","","null","","","null","9","","","","","","","","","","","","","","","",""
"","ITI","","html-keyboard-response","71","129424","0.0-1.0-90.0","0","0","59068","","null","","","null","9","","","","","","","","","","","","","","","NaN",""
"","S1","","html-keyboard-response","72","129680","0.0-1.0-92.0","0","0","59068","","null","","","null","10","","","","","","","","","","","","","","","",""
"","ISI","","html-keyboard-response","73","129842","0.0-1.0-93.0","0","0","59068","","null","","","null","10","NaN","","","","","","","","","","","","","","",""
"","S2","","html-keyboard-response","74","130098","0.0-1.0-94.0","0","0","59068","","null","","","null","10","","NaN","","","","","","","","","","","","","",""
"","response","","html-keyboard-response","75","130601","0.0-1.0-95.0-0.0","0","0","59068","","502","","","75","10","","","1","10","training","adjacent","FG","6","7","R.jpg","P.jpg","0","1","0","",""
"","feedback","","html-keyboard-response","76","131610","0.0-1.0-96.0-0.0","0","0","59068","","null","","","null","10","","","","","","","","","","","","","","","",""
"","time_out","","html-keyboard-response","77","133615","0.0-1.0-98.0-0.0","0","0","59068","","null","","","null","10","","","","","","","","","","","","","","","",""
"","ITI","","html-keyboard-response","78","134625","0.0-1.0-99.0","0","0","59068","","null","","","null","10","","","","","","","","","","","","","","","NaN",""
"","S1","","html-keyboard-response","79","134881","0.0-1.0-101.0","0","0","59068","","null","","","null","11","","","","","","","","","","","","","","","",""
"","ISI","","html-keyboard-response","80","135043","0.0-1.0-102.0","0","0","59068","","null","","","null","11","NaN","","","","","","","","","","","","","","",""
"","S2","","html-keyboard-response","81","135304","0.0-1.0-103.0","0","0","59068","","null","","","null","11","","NaN","","","","","","","","","","","","","",""
"","response","","html-keyboard-response","82","137063","0.0-1.0-104.0-0.0","0","0","59068","","null","","","null","11","","","1","11","training","adjacent","CB","3","2","O.jpg","M.jpg","NaN","0","0","",""
"","too_slow_prompt","","html-keyboard-response","83","138073","0.0-1.0-106.0-0.0","1","0","59068","","null","","","null","","","","","","","","","","","","","","","","",""
"","time_out","","html-keyboard-response","84","140082","0.0-1.0-107.0-0.0","0","0","59068","","null","","","null","11","","","","","","","","","","","","","","","",""
"","ITI","","html-keyboard-response","85","141092","0.0-1.0-108.0","0","0","59068","","null","","","null","11","","","","","","","","","","","","","","","NaN",""
"","S1","","html-keyboard-response","86","141353","0.0-1.0-110.0","0","0","59068","","null","","","null","12","","","","","","","","","","","","","","","",""
"","ISI","","html-keyboard-response","87","141516","0.0-1.0-111.0","0","0","59068","","null","","","null","12","NaN","","","","","","","","","","","","","","",""
"","S2","","html-keyboard-response","88","141777","0.0-1.0-112.0","0","0","59068","","null","","","null","12","","NaN","","","","","","","","","","","","","",""
"","response","","html-keyboard-response","89","142118","0.0-1.0-113.0-0.0","0","0","59068","","340","","","68","12","","","1","12","training","adjacent","GF","7","6","P.jpg","R.jpg","1","0","0","",""
"","feedback","","html-keyboard-response","90","143129","0.0-1.0-114.0-0.0","0","0","59068","","null","","","null","12","","","","","","","","","","","","","","","",""
"","time_out","","html-keyboard-response","91","145132","0.0-1.0-116.0-0.0","0","0","59068","","null","","","null","12","","","","","","","","","","","","","","","",""
"","ITI","","html-keyboard-response","92","146136","0.0-1.0-117.0","0","0","59068","","null","","","null","12","","","","","","","","","","","","","","","NaN",""
"","S1","","html-keyboard-response","93","146392","0.0-1.0-119.0","0","0","59068","","null","","","null","13","","","","","","","","","","","","","","","",""
"","ISI","","html-keyboard-response","94","146554","0.0-1.0-120.0","0","0","59068","","null","","","null","13","NaN","","","","","","","","","","","","","","",""
"","S2","","html-keyboard-response","95","146810","0.0-1.0-121.0","0","0","59068","","null","","","null","13","","NaN","","","","","","","","","","","","","",""
"","response","","html-keyboard-response","96","147070","0.0-1.0-122.0-0.0","0","0","59068","","259","","","68","13","","","1","13","training","adjacent","DE","4","5","L.jpg","N.jpg","1","1","1","",""
"","feedback","","html-keyboard-response","97","148081","0.0-1.0-123.0-0.0","0","0","59068","","null","","","null","13","","","","","","","","","","","","","","","",""
"","ITI","","html-keyboard-response","98","149091","0.0-1.0-126.0","0","0","59068","","null","","","null","13","","","","","","","","","","","","","","","NaN",""
"","S1","","html-keyboard-response","99","149352","0.0-1.0-128.0","0","0","59068","","null","","","null","14","","","","","","","","","","","","","","","",""
"","ISI","","html-keyboard-response","100","149515","0.0-1.0-129.0","0","0","59068","","null","","","null","14","NaN","","","","","","","","","","","","","","",""
"","S2","","html-keyboard-response","101","149770","0.0-1.0-130.0","0","0","59068","","null","","","null","14","","NaN","","","","","","","","","","","","","",""
"","response","","html-keyboard-response","102","150216","0.0-1.0-131.0-0.0","0","0","59068","","444","","","68","14","","","1","14","training","adjacent","FE","6","5","R.jpg","N.jpg","1","0","0","",""
"","feedback","","html-keyboard-response","103","151227","0.0-1.0-132.0-0.0","0","0","59068","","null","","","null","14","","","","","","","","","","","","","","","",""
"","time_out","","html-keyboard-response","104","153236","0.0-1.0-134.0-0.0","0","0","59068","","null","","","null","14","","","","","","","","","","","","","","","",""
"","ITI","","html-keyboard-response","105","154240","0.0-1.0-135.0","0","0","59068","","null","","","null","14","","","","","","","","","","","","","","","NaN",""
"","S1","","html-keyboard-response","106","154495","0.0-1.0-137.0","0","0","59068","","null","","","null","15","","","","","","","","","","","","","","","",""
"","ISI","","html-keyboard-response","107","154652","0.0-1.0-138.0","0","0","59068","","null","","","null","15","NaN","","","","","","","","","","","","","","",""
"","S2","","html-keyboard-response","108","154913","0.0-1.0-139.0","0","0","59068","","null","","","null","15","","NaN","","","","","","","","","","","","","",""
"","response","","html-keyboard-response","109","155320","0.0-1.0-140.0-0.0","0","0","59068","","405","","","75","15","","","1","15","training","adjacent","EF","5","6","N.jpg","R.jpg","0","1","0","",""
"","feedback","","html-keyboard-response","110","156330","0.0-1.0-141.0-0.0","0","0","59068","","null","","","null","15","","","","","","","","","","","","","","","",""
"","time_out","","html-keyboard-response","111","158338","0.0-1.0-143.0-0.0","0","0","59068","","null","","","null","15","","","","","","","","","","","","","","","",""
"","ITI","","html-keyboard-response","112","159346","0.0-1.0-144.0","0","0","59068","","null","","","null","15","","","","","","","","","","","","","","","NaN",""
"","S1","","html-keyboard-response","113","159604","0.0-1.0-146.0","0","0","59068","","null","","","null","16","","","","","","","","","","","","","","","",""
"","ISI","","html-keyboard-response","114","159760","0.0-1.0-147.0","0","0","59068","","null","","","null","16","NaN","","","","","","","","","","","","","","",""
"","S2","","html-keyboard-response","115","160016","0.0-1.0-148.0","0","0","59068","","null","","","null","16","","NaN","","","","","","","","","","","","","",""
"","response","","html-keyboard-response","116","161568","0.0-1.0-149.0-0.0","0","0","59068","","1551","","","75","16","","","1","16","training","adjacent","GF","7","6","P.jpg","R.jpg","0","0","1","",""
"","feedback","","html-keyboard-response","117","162576","0.0-1.0-150.0-0.0","0","0","59068","","null","","","null","16","","","","","","","","","","","","","","","",""
"","ITI","","html-keyboard-response","118","163586","0.0-1.0-153.0","0","0","59068","","null","","","null","16","","","","","","","","","","","","","","","NaN",""
"","S1","","html-keyboard-response","119","163841","0.0-1.0-155.0","0","0","59068","","null","","","null","17","","","","","","","","","","","","","","","",""
"","ISI","","html-keyboard-response","120","164003","0.0-1.0-156.0","0","0","59068","","null","","","null","17","NaN","","","","","","","","","","","","","","",""
"","S2","","html-keyboard-response","121","164265","0.0-1.0-157.0","0","0","59068","","null","","","null","17","","NaN","","","","","","","","","","","","","",""
"","response","","html-keyboard-response","122","164966","0.0-1.0-158.0-0.0","0","0","59068","","699","","","75","17","","","1","17","training","adjacent","BC","2","3","M.jpg","O.jpg","0","1","0","",""
"","feedback","","html-keyboard-response","123","165977","0.0-1.0-159.0-0.0","0","0","59068","","null","","","null","17","","","","","","","","","","","","","","","",""
"","time_out","","html-keyboard-response","124","167986","0.0-1.0-161.0-0.0","0","0","59068","","null","","","null","17","","","","","","","","","","","","","","","",""
"","ITI","","html-keyboard-response","125","168994","0.0-1.0-162.0","0","0","59068","","null","","","null","17","","","","","","","","","","","","","","","NaN",""
"","S1","","html-keyboard-response","126","169251","0.0-1.0-164.0","0","0","59068","","null","","","null","18","","","","","","","","","","","","","","","",""
"","ISI","","html-keyboard-response","127","169408","0.0-1.0-165.0","0","0","59068","","null","","","null","18","NaN","","","","","","","","","","","","","","",""
"","S2","","html-keyboard-response","128","169663","0.0-1.0-166.0","0","0","59068","","null","","","null","18","","NaN","","","","","","","","","","","","","",""
"","response","","html-keyboard-response","129","170006","0.0-1.0-167.0-0.0","0","0","59068","","341","","","68","18","","","1","18","training","adjacent","DE","4","5","L.jpg","N.jpg","1","1","1","",""
"","feedback","","html-keyboard-response","130","171010","0.0-1.0-168.0-0.0","0","0","59068","","null","","","null","18","","","","","","","","","","","","","","","",""
"","ITI","","html-keyboard-response","131","172015","0.0-1.0-171.0","0","0","59068","","null","","","null","18","","","","","","","","","","","","","","","NaN",""
"","S1","","html-keyboard-response","132","172271","0.0-1.0-173.0","0","0","59068","","null","","","null","19","","","","","","","","","","","","","","","",""
"","ISI","","html-keyboard-response","133","172432","0.0-1.0-174.0","0","0","59068","","null","","","null","19","NaN","","","","","","","","","","","","","","",""
"","S2","","html-keyboard-response","134","172688","0.0-1.0-175.0","0","0","59068","","null","","","null","19","","NaN","","","","","","","","","","","","","",""
"","response","","html-keyboard-response","135","173144","0.0-1.0-176.0-0.0","0","0","59068","","454","","","68","19","","","1","19","training","adjacent","FE","6","5","R.jpg","N.jpg","1","0","0","",""
"","feedback","","html-keyboard-response","136","174151","0.0-1.0-177.0-0.0","0","0","59068","","null","","","null","19","","","","","","","","","","","","","","","",""
"","time_out","","html-keyboard-response","137","176159","0.0-1.0-179.0-0.0","0","0","59068","","null","","","null","19","","","","","","","","","","","","","","","",""
"","ITI","","html-keyboard-response","138","177169","0.0-1.0-180.0","0","0","59068","","null","","","null","19","","","","","","","","","","","","","","","NaN",""
"","S1","","html-keyboard-response","139","177425","0.0-1.0-182.0","0","0","59068","","null","","","null","20","","","","","","","","","","","","","","","",""
"","ISI","","html-keyboard-response","140","177587","0.0-1.0-183.0","0","0","59068","","null","","","null","20","NaN","","","","","","","","","","","","","","",""
"","S2","","html-keyboard-response","141","177848","0.0-1.0-184.0","0","0","59068","","null","","","null","20","","NaN","","","","","","","","","","","","","",""
"","response","","html-keyboard-response","142","178344","0.0-1.0-185.0-0.0","0","0","59068","","494","","","75","20","","","1","20","training","adjacent","BC","2","3","M.jpg","O.jpg","0","1","0","",""
"","feedback","","html-keyboard-response","143","179352","0.0-1.0-186.0-0.0","0","0","59068","","null","","","null","20","","","","","","","","","","","","","","","",""
"","time_out","","html-keyboard-response","144","181360","0.0-1.0-188.0-0.0","0","0","59068","","null","","","null","20","","","","","","","","","","","","","","","",""
"","ITI","","html-keyboard-response","145","182370","0.0-1.0-189.0","0","0","59068","","null","","","null","20","","","","","","","","","","","","","","","NaN",""
"","S1","","html-keyboard-response","146","182632","0.0-1.0-191.0","0","0","59068","","null","","","null","21","","","","","","","","","","","","","","","",""
"","ISI","","html-keyboard-response","147","182794","0.0-1.0-192.0","0","0","59068","","null","","","null","21","NaN","","","","","","","","","","","","","","",""
"","S2","","html-keyboard-response","148","183049","0.0-1.0-193.0","0","0","59068","","null","","","null","21","","NaN","","","","","","","","","","","","","",""
"","response","","html-keyboard-response","149","183648","0.0-1.0-194.0-0.0","0","0","59068","","597","","","75","21","","","1","21","training","adjacent","CD","3","4","O.jpg","L.jpg","0","1","0","",""
"","feedback","","html-keyboard-response","150","184657","0.0-1.0-195.0-0.0","0","0","59068","","null","","","null","21","","","","","","","","","","","","","","","",""
"","time_out","","html-keyboard-response","151","186666","0.0-1.0-197.0-0.0","0","0","59068","","null","","","null","21","","","","","","","","","","","","","","","",""
"","ITI","","html-keyboard-response","152","187670","0.0-1.0-198.0","0","0","59068","","null","","","null","21","","","","","","","","","","","","","","","NaN",""
"","S1","","html-keyboard-response","153","187931","0.0-1.0-200.0","0","0","59068","","null","","","null","22","","","","","","","","","","","","","","","",""
"","ISI","","html-keyboard-response","154","188088","0.0-1.0-201.0","0","0","59068","","null","","","null","22","NaN","","","","","","","","","","","","","","",""
"","S2","","html-keyboard-response","155","188344","0.0-1.0-202.0","0","0","59068","","null","","","null","22","","NaN","","","","","","","","","","","","","",""
"","response","","html-keyboard-response","156","189869","0.0-1.0-203.0-0.0","0","0","59068","","1524","","","75","22","","","1","22","training","adjacent","ED","5","4","N.jpg","L.jpg","0","0","1","",""
"","feedback","","html-keyboard-response","157","190880","0.0-1.0-204.0-0.0","0","0","59068","","null","","","null","22","","","","","","","","","","","","","","","",""
"","ITI","","html-keyboard-response","158","191890","0.0-1.0-207.0","0","0","59068","","null","","","null","22","","","","","","","","","","","","","","","NaN",""
"","S1","","html-keyboard-response","159","192151","0.0-1.0-209.0","0","0","59068","","null","","","null","23","","","","","","","","","","","","","","","",""
"","ISI","","html-keyboard-response","160","192314","0.0-1.0-210.0","0","0","59068","","null","","","null","23","NaN","","","","","","","","","","","","","","",""
"","S2","","html-keyboard-response","161","192575","0.0-1.0-211.0","0","0","59068","","null","","","null","23","","NaN","","","","","","","","","","","","","",""
"","response","","html-keyboard-response","162","194334","0.0-1.0-212.0-0.0","0","0","59068","","null","","","null","23","","","1","23","training","adjacent","FG","6","7","R.jpg","P.jpg","NaN","1","0","",""
"","too_slow_prompt","","html-keyboard-response","163","195344","0.0-1.0-214.0-0.0","1","0","59068","","null","","","null","","","","","","","","","","","","","","","","",""
"","time_out","","html-keyboard-response","164","197353","0.0-1.0-215.0-0.0","0","0","59068","","null","","","null","23","","","","","","","","","","","","","","","",""
"","ITI","","html-keyboard-response","165","198363","0.0-1.0-216.0","0","0","59068","","null","","","null","23","","","","","","","","","","","","","","","NaN",""
"","S1","","html-keyboard-response","166","198624","0.0-1.0-218.0","0","0","59068","","null","","","null","24","","","","","","","","","","","","","","","",""
"","ISI","","html-keyboard-response","167","198787","0.0-1.0-219.0","0","0","59068","","null","","","null","24","NaN","","","","","","","","","","","","","","",""
"","S2","","html-keyboard-response","168","199048","0.0-1.0-220.0","0","0","59068","","null","","","null","24","","NaN","","","","","","","","","","","","","",""
"","response","","html-keyboard-response","169","199437","0.0-1.0-221.0-0.0","0","0","59068","","388","","","68","24","","","1","24","training","adjacent","CD","3","4","O.jpg","L.jpg","1","1","1","",""
"","feedback","","html-keyboard-response","170","200446","0.0-1.0-222.0-0.0","0","0","59068","","null","","","null","24","","","","","","","","","","","","","","","",""
"","ITI","","html-keyboard-response","171","201457","0.0-1.0-225.0","0","0","59068","","null","","","null","24","","","","","","","","","","","","","","","NaN",""
"","S1","","html-keyboard-response","172","201712","0.0-1.0-227.0","0","0","59068","","null","","","null","25","","","","","","","","","","","","","","","",""
"","ISI","","html-keyboard-response","173","201875","0.0-1.0-228.0","0","0","59068","","null","","","null","25","NaN","","","","","","","","","","","","","","",""
"","S2","","html-keyboard-response","174","202136","0.0-1.0-229.0","0","0","59068","","null","","","null","25","","NaN","","","","","","","","","","","","","",""
"","response","","html-keyboard-response","175","202797","0.0-1.0-230.0-0.0","0","0","59068","","660","","","75","25","","","1","25","training","adjacent","BA","2","1","M.jpg","Q.jpg","0","0","1","",""
"","feedback","","html-keyboard-response","176","203808","0.0-1.0-231.0-0.0","0","0","59068","","null","","","null","25","","","","","","","","","","","","","","","",""
"","ITI","","html-keyboard-response","177","204818","0.0-1.0-234.0","0","0","59068","","null","","","null","25","","","","","","","","","","","","","","","NaN",""
"","S1","","html-keyboard-response","178","205079","0.0-1.0-236.0","0","0","59068","","null","","","null","26","","","","","","","","","","","","","","","",""
"","ISI","","html-keyboard-response","179","205241","0.0-1.0-237.0","0","0","59068","","null","","","null","26","NaN","","","","","","","","","","","","","","",""
"","S2","","html-keyboard-response","180","205497","0.0-1.0-238.0","0","0","59068","","null","","","null","26","","NaN","","","","","","","","","","","","","",""
"","response","","html-keyboard-response","181","205917","0.0-1.0-239.0-0.0","0","0","59068","","418","","","68","26","","","1","26","training","adjacent","ED","5","4","N.jpg","L.jpg","1","0","0","",""
"","feedback","","html-keyboard-response","182","206931","0.0-1.0-240.0-0.0","0","0","59068","","null","","","null","26","","","","","","","","","","","","","","","",""
"","time_out","","html-keyboard-response","183","208936","0.0-1.0-242.0-0.0","0","0","59068","","null","","","null","26","","","","","","","","","","","","","","","",""
"","ITI","","html-keyboard-response","184","209943","0.0-1.0-243.0","0","0","59068","","null","","","null","26","","","","","","","","","","","","","","","NaN",""
"","S1","","html-keyboard-response","185","210199","0.0-1.0-245.0","0","0","59068","","null","","","null","27","","","","","","","","","","","","","","","",""
"","ISI","","html-keyboard-response","186","210361","0.0-1.0-246.0","0","0","59068","","null","","","null","27","NaN","","","","","","","","","","","","","","",""
"","S2","","html-keyboard-response","187","210617","0.0-1.0-247.0","0","0","59068","","null","","","null","27","","NaN","","","","","","","","","","","","","",""
"","response","","html-keyboard-response","188","210877","0.0-1.0-248.0-0.0","0","0","59068","","259","","","68","27","","","1","27","training","adjacent","DC","4","3","L.jpg","O.jpg","1","0","0","",""
"","feedback","","html-keyboard-response","189","211888","0.0-1.0-249.0-0.0","0","0","59068","","null","","","null","27","","","","","","","","","","","","","","","",""
"","time_out","","html-keyboard-response","190","213897","0.0-1.0-251.0-0.0","0","0","59068","","null","","","null","27","","","","","","","","","","","","","","","",""
"","ITI","","html-keyboard-response","191","214904","0.0-1.0-252.0","0","0","59068","","null","","","null","27","","","","","","","","","","","","","","","NaN",""
"","S1","","html-keyboard-response","192","215162","0.0-1.0-254.0","0","0","59068","","null","","","null","28","","","","","","","","","","","","","","","",""
"","ISI","","html-keyboard-response","193","215319","0.0-1.0-255.0","0","0","59068","","null","","","null","28","NaN","","","","","","","","","","","","","","",""
"","S2","","html-keyboard-response","194","215574","0.0-1.0-256.0","0","0","59068","","null","","","null","28","","NaN","","","","","","","","","","","","","",""
"","response","","html-keyboard-response","195","216261","0.0-1.0-257.0-0.0","0","0","59068","","686","","","75","28","","","1","28","training","adjacent","CD","3","4","O.jpg","L.jpg","0","1","0","",""
"","feedback","","html-keyboard-response","196","217273","0.0-1.0-258.0-0.0","0","0","59068","","null","","","null","28","","","","","","","","","","","","","","","",""
"","time_out","","html-keyboard-response","197","219278","0.0-1.0-260.0-0.0","0","0","59068","","null","","","null","28","","","","","","","","","","","","","","","",""
"","ITI","","html-keyboard-response","198","220288","0.0-1.0-261.0","0","0","59068","","null","","","null","28","","","","","","","","","","","","","","","NaN",""
"","S1","","html-keyboard-response","199","220543","0.0-1.0-263.0","0","0","59068","","null","","","null","29","","","","","","","","","","","","","","","",""
"","ISI","","html-keyboard-response","200","220706","0.0-1.0-264.0","0","0","59068","","null","","","null","29","NaN","","","","","","","","","","","","","","",""
"","S2","","html-keyboard-response","201","220967","0.0-1.0-265.0","0","0","59068","","null","","","null","29","","NaN","","","","","","","","","","","","","",""
"","response","","html-keyboard-response","202","221535","0.0-1.0-266.0-0.0","0","0","59068","","567","","","75","29","","","1","29","training","adjacent","ED","5","4","N.jpg","L.jpg","0","0","1","",""
"","feedback","","html-keyboard-response","203","222546","0.0-1.0-267.0-0.0","0","0","59068","","null","","","null","29","","","","","","","","","","","","","","","",""
"","ITI","","html-keyboard-response","204","223550","0.0-1.0-270.0","0","0","59068","","null","","","null","29","","","","","","","","","","","","","","","NaN",""
"","S1","","html-keyboard-response","205","223805","0.0-1.0-272.0","0","0","59068","","null","","","null","30","","","","","","","","","","","","","","","",""
"","ISI","","html-keyboard-response","206","223962","0.0-1.0-273.0","0","0","59068","","null","","","null","30","NaN","","","","","","","","","","","","","","",""
"","S2","","html-keyboard-response","207","224223","0.0-1.0-274.0","0","0","59068","","null","","","null","30","","NaN","","","","","","","","","","","","","",""
"","response","","html-keyboard-response","208","224709","0.0-1.0-275.0-0.0","0","0","59068","","483","","","75","30","","","1","30","training","adjacent","DC","4","3","L.jpg","O.jpg","0","0","1","",""
"","feedback","","html-keyboard-response","209","225721","0.0-1.0-276.0-0.0","0","0","59068","","null","","","null","30","","","","","","","","","","","","","","","",""
"","ITI","","html-keyboard-response","210","226727","0.0-1.0-279.0","0","0","59068","","null","","","null","30","","","","","","","","","","","","","","","NaN",""
"","S1","","html-keyboard-response","211","226982","0.0-1.0-281.0","0","0","59068","","null","","","null","31","","","","","","","","","","","","","","","",""
"","ISI","","html-keyboard-response","212","227143","0.0-1.0-282.0","0","0","59068","","null","","","null","31","NaN","","","","","","","","","","","","","","",""
"","S2","","html-keyboard-response","213","227399","0.0-1.0-283.0","0","0","59068","","null","","","null","31","","NaN","","","","","","","","","","","","","",""
"","response","","html-keyboard-response","214","227767","0.0-1.0-284.0-0.0","0","0","59068","","367","","","75","31","","","1","31","training","adjacent","BA","2","1","M.jpg","Q.jpg","0","0","1","",""
"","feedback","","html-keyboard-response","215","228774","0.0-1.0-285.0-0.0","0","0","59068","","null","","","null","31","","","","","","","","","","","","","","","",""
"","ITI","","html-keyboard-response","216","229785","0.0-1.0-288.0","0","0","59068","","null","","","null","31","","","","","","","","","","","","","","","NaN",""
"","S1","","html-keyboard-response","217","230040","0.0-1.0-290.0","0","0","59068","","null","","","null","32","","","","","","","","","","","","","","","",""
"","ISI","","html-keyboard-response","218","230202","0.0-1.0-291.0","0","0","59068","","null","","","null","32","NaN","","","","","","","","","","","","","","",""
"","S2","","html-keyboard-response","219","230464","0.0-1.0-292.0","0","0","59068","","null","","","null","32","","NaN","","","","","","","","","","","","","",""
"","response","","html-keyboard-response","220","231036","0.0-1.0-293.0-0.0","0","0","59068","","571","","","68","32","","","1","32","training","adjacent","BC","2","3","M.jpg","O.jpg","1","1","1","",""
"","feedback","","html-keyboard-response","221","232048","0.0-1.0-294.0-0.0","0","0","59068","","null","","","null","32","","","","","","","","","","","","","","","",""
"","ITI","","html-keyboard-response","222","233056","0.0-1.0-297.0","0","0","59068","","null","","","null","32","","","","","","","","","","","","","","","NaN",""
"","S1","","html-keyboard-response","223","233314","0.0-1.0-299.0","0","0","59068","","null","","","null","33","","","","","","","","","","","","","","","",""
"","ISI","","html-keyboard-response","224","233471","0.0-1.0-300.0","0","0","59068","","null","","","null","33","NaN","","","","","","","","","","","","","","",""
"","S2","","html-keyboard-response","225","233726","0.0-1.0-301.0","0","0","59068","","null","","","null","33","","NaN","","","","","","","","","","","","","",""
"","response","","html-keyboard-response","226","234007","0.0-1.0-302.0-0.0","0","0","59068","","279","","","68","33","","","1","33","training","adjacent","AB","1","2","Q.jpg","M.jpg","1","1","1","",""
"","feedback","","html-keyboard-response","227","235015","0.0-1.0-303.0-0.0","0","0","59068","","null","","","null","33","","","","","","","","","","","","","","","",""
"","ITI","","html-keyboard-response","228","236025","0.0-1.0-306.0","0","0","59068","","null","","","null","33","","","","","","","","","","","","","","","NaN",""
"","S1","","html-keyboard-response","229","236280","0.0-1.0-308.0","0","0","59068","","null","","","null","34","","","","","","","","","","","","","","","",""
"","ISI","","html-keyboard-response","230","236442","0.0-1.0-309.0","0","0","59068","","null","","","null","34","NaN","","","","","","","","","","","","","","",""
"","S2","","html-keyboard-response","231","236704","0.0-1.0-310.0","0","0","59068","","null","","","null","34","","NaN","","","","","","","","","","","","","",""
"","response","","html-keyboard-response","232","237100","0.0-1.0-311.0-0.0","0","0","59068","","395","","","75","34","","","1","34","training","adjacent","EF","5","6","N.jpg","R.jpg","0","1","0","",""
"","feedback","","html-keyboard-response","233","238110","0.0-1.0-312.0-0.0","0","0","59068","","null","","","null","34","","","","","","","","","","","","","","","",""
"","time_out","","html-keyboard-response","234","240117","0.0-1.0-314.0-0.0","0","0","59068","","null","","","null","34","","","","","","","","","","","","","","","",""
"","ITI","","html-keyboard-response","235","241127","0.0-1.0-315.0","0","0","59068","","null","","","null","34","","","","","","","","","","","","","","","NaN",""
"","S1","","html-keyboard-response","236","241383","0.0-1.0-317.0","0","0","59068","","null","","","null","35","","","","","","","","","","","","","","","",""
"","ISI","","html-keyboard-response","237","241545","0.0-1.0-318.0","0","0","59068","","null","","","null","35","NaN","","","","","","","","","","","","","","",""
"","S2","","html-keyboard-response","238","241806","0.0-1.0-319.0","0","0","59068","","null","","","null","35","","NaN","","","","","","","","","","","","","",""
"","response","","html-keyboard-response","239","242487","0.0-1.0-320.0-0.0","0","0","59068","","679","","","75","35","","","1","35","training","adjacent","FE","6","5","R.jpg","N.jpg","0","0","1","",""
"","feedback","","html-keyboard-response","240","243495","0.0-1.0-321.0-0.0","0","0","59068","","null","","","null","35","","","","","","","","","","","","","","","",""
"","ITI","","html-keyboard-response","241","244506","0.0-1.0-324.0","0","0","59068","","null","","","null","35","","","","","","","","","","","","","","","NaN",""
"","S1","","html-keyboard-response","242","244769","0.0-1.0-326.0","0","0","59068","","null","","","null","36","","","","","","","","","","","","","","","",""
"","ISI","","html-keyboard-response","243","244929","0.0-1.0-327.0","0","0","59068","","null","","","null","36","NaN","","","","","","","","","","","","","","",""
"","S2","","html-keyboard-response","244","245190","0.0-1.0-328.0","0","0","59068","","null","","","null","36","","NaN","","","","","","","","","","","","","",""
"","response","","html-keyboard-response","245","245683","0.0-1.0-329.0-0.0","0","0","59068","","491","","","68","36","","","1","36","training","adjacent","BC","2","3","M.jpg","O.jpg","1","1","1","",""
"","feedback","","html-keyboard-response","246","246694","0.0-1.0-330.0-0.0","0","0","59068","","null","","","null","36","","","","","","","","","","","","","","","",""
"","ITI","","html-keyboard-response","247","247704","0.0-1.0-333.0","0","0","59068","","null","","","null","36","","","","","","","","","","","","","","","NaN",""
"","S1","","html-keyboard-response","248","247959","0.0-1.0-335.0","0","0","59068","","null","","","null","37","","","","","","","","","","","","","","","",""
"","ISI","","html-keyboard-response","249","248117","0.0-1.0-336.0","0","0","59068","","null","","","null","37","NaN","","","","","","","","","","","","","","",""
"","S2","","html-keyboard-response","250","248377","0.0-1.0-337.0","0","0","59068","","null","","","null","37","","NaN","","","","","","","","","","","","","",""
"","response","","html-keyboard-response","251","249163","0.0-1.0-338.0-0.0","0","0","59068","","785","","","75","37","","","1","37","training","adjacent","GF","7","6","P.jpg","R.jpg","0","0","1","",""
"","feedback","","html-keyboard-response","252","250176","0.0-1.0-339.0-0.0","0","0","59068","","null","","","null","37","","","","","","","","","","","","","","","",""
"","ITI","","html-keyboard-response","253","251181","0.0-1.0-342.0","0","0","59068","","null","","","null","37","","","","","","","","","","","","","","","NaN",""
"","S1","","html-keyboard-response","254","251437","0.0-1.0-344.0","0","0","59068","","null","","","null","38","","","","","","","","","","","","","","","",""
"","ISI","","html-keyboard-response","255","251593","0.0-1.0-345.0","0","0","59068","","null","","","null","38","NaN","","","","","","","","","","","","","","",""
"","S2","","html-keyboard-response","256","251848","0.0-1.0-346.0","0","0","59068","","null","","","null","38","","NaN","","","","","","","","","","","","","",""
"","response","","html-keyboard-response","257","252829","0.0-1.0-347.0-0.0","0","0","59068","","979","","","75","38","","","1","38","training","adjacent","FG","6","7","R.jpg","P.jpg","0","1","0","",""
"","feedback","","html-keyboard-response","258","253840","0.0-1.0-348.0-0.0","0","0","59068","","null","","","null","38","","","","","","","","","","","","","","","",""
"","time_out","","html-keyboard-response","259","255848","0.0-1.0-350.0-0.0","0","0","59068","","null","","","null","38","","","","","","","","","","","","","","","",""
"","ITI","","html-keyboard-response","260","256853","0.0-1.0-351.0","0","0","59068","","null","","","null","38","","","","","","","","","","","","","","","NaN",""
"","S1","","html-keyboard-response","261","257110","0.0-1.0-353.0","0","0","59068","","null","","","null","39","","","","","","","","","","","","","","","",""
"","ISI","","html-keyboard-response","262","257270","0.0-1.0-354.0","0","0","59068","","null","","","null","39","NaN","","","","","","","","","","","","","","",""
"","S2","","html-keyboard-response","263","257526","0.0-1.0-355.0","0","0","59068","","null","","","null","39","","NaN","","","","","","","","","","","","","",""
"","response","","html-keyboard-response","264","257836","0.0-1.0-356.0-0.0","0","0","59068","","308","","","68","39","","","1","39","training","adjacent","DE","4","5","L.jpg","N.jpg","1","1","1","",""
"","feedback","","html-keyboard-response","265","258850","0.0-1.0-357.0-0.0","0","0","59068","","null","","","null","39","","","","","","","","","","","","","","","",""
"","ITI","","html-keyboard-response","266","259854","0.0-1.0-360.0","0","0","59068","","null","","","null","39","","","","","","","","","","","","","","","NaN",""
"","S1","","html-keyboard-response","267","260109","0.0-1.0-362.0","0","0","59068","","null","","","null","40","","","","","","","","","","","","","","","",""
"","ISI","","html-keyboard-response","268","260272","0.0-1.0-363.0","0","0","59068","","null","","","null","40","NaN","","","","","","","","","","","","","","",""
"","S2","","html-keyboard-response","269","260527","0.0-1.0-364.0","0","0","59068","","null","","","null","40","","NaN","","","","","","","","","","","","","",""
"","response","","html-keyboard-response","270","260998","0.0-1.0-365.0-0.0","0","0","59068","","469","","","68","40","","","1","40","training","adjacent","DC","4","3","L.jpg","O.jpg","1","0","0","",""
"","feedback","","html-keyboard-response","271","262007","0.0-1.0-366.0-0.0","0","0","59068","","null","","","null","40","","","","","","","","","","","","","","","",""
"","time_out","","html-keyboard-response","272","264016","0.0-1.0-368.0-0.0","0","0","59068","","null","","","null","40","","","","","","","","","","","","","","","",""
"","ITI","","html-keyboard-response","273","265024","0.0-1.0-369.0","0","0","59068","","null","","","null","40","","","","","","","","","","","","","","","NaN",""
"","S1","","html-keyboard-response","274","265281","0.0-1.0-371.0","0","0","59068","","null","","","null","41","","","","","","","","","","","","","","","",""
"","ISI","","html-keyboard-response","275","265438","0.0-1.0-372.0","0","0","59068","","null","","","null","41","NaN","","","","","","","","","","","","","","",""
"","S2","","html-keyboard-response","276","265694","0.0-1.0-373.0","0","0","59068","","null","","","null","41","","NaN","","","","","","","","","","","","","",""
"","response","","html-keyboard-response","277","265932","0.0-1.0-374.0-0.0","0","0","59068","","237","","","68","41","","","1","41","training","adjacent","AB","1","2","Q.jpg","M.jpg","1","1","1","",""
"","feedback","","html-keyboard-response","278","266942","0.0-1.0-375.0-0.0","0","0","59068","","null","","","null","41","","","","","","","","","","","","","","","",""
"","ITI","","html-keyboard-response","279","267951","0.0-1.0-378.0","0","0","59068","","null","","","null","41","","","","","","","","","","","","","","","NaN",""
"","S1","","html-keyboard-response","280","268207","0.0-1.0-380.0","0","0","59068","","null","","","null","42","","","","","","","","","","","","","","","",""
"","ISI","","html-keyboard-response","281","268369","0.0-1.0-381.0","0","0","59068","","null","","","null","42","NaN","","","","","","","","","","","","","","",""
"","S2","","html-keyboard-response","282","268631","0.0-1.0-382.0","0","0","59068","","null","","","null","42","","NaN","","","","","","","","","","","","","",""
"","response","","html-keyboard-response","283","269101","0.0-1.0-383.0-0.0","0","0","59068","","469","","","68","42","","","1","42","training","adjacent","DC","4","3","L.jpg","O.jpg","1","0","0","",""
"","feedback","","html-keyboard-response","284","270111","0.0-1.0-384.0-0.0","0","0","59068","","null","","","null","42","","","","","","","","","","","","","","","",""
"","time_out","","html-keyboard-response","285","272119","0.0-1.0-386.0-0.0","0","0","59068","","null","","","null","42","","","","","","","","","","","","","","","",""
"","ITI","","html-keyboard-response","286","273127","0.0-1.0-387.0","0","0","59068","","null","","","null","42","","","","","","","","","","","","","","","NaN",""
"","S1","","html-keyboard-response","287","273385","0.0-1.0-389.0","0","0","59068","","null","","","null","43","","","","","","","","","","","","","","","",""
"","ISI","","html-keyboard-response","288","273541","0.0-1.0-390.0","0","0","59068","","null","","","null","43","NaN","","","","","","","","","","","","","","",""
"","S2","","html-keyboard-response","289","273797","0.0-1.0-391.0","0","0","59068","","null","","","null","43","","NaN","","","","","","","","","","","","","",""
"","response","","html-keyboard-response","290","274244","0.0-1.0-392.0-0.0","0","0","59068","","444","","","75","43","","","1","43","training","adjacent","BA","2","1","M.jpg","Q.jpg","0","0","1","",""
"","feedback","","html-keyboard-response","291","275254","0.0-1.0-393.0-0.0","0","0","59068","","null","","","null","43","","","","","","","","","","","","","","","",""
"","ITI","","html-keyboard-response","292","276264","0.0-1.0-396.0","0","0","59068","","null","","","null","43","","","","","","","","","","","","","","","NaN",""
"","S1","","html-keyboard-response","293","276520","0.0-1.0-398.0","0","0","59068","","null","","","null","44","","","","","","","","","","","","","","","",""
"","ISI","","html-keyboard-response","294","276676","0.0-1.0-399.0","0","0","59068","","null","","","null","44","NaN","","","","","","","","","","","","","","",""
"","S2","","html-keyboard-response","295","276937","0.0-1.0-400.0","0","0","59068","","null","","","null","44","","NaN","","","","","","","","","","","","","",""
"","response","","html-keyboard-response","296","277438","0.0-1.0-401.0-0.0","0","0","59068","","499","","","75","44","","","1","44","training","adjacent","GF","7","6","P.jpg","R.jpg","0","0","1","",""
"","feedback","","html-keyboard-response","297","278446","0.0-1.0-402.0-0.0","0","0","59068","","null","","","null","44","","","","","","","","","","","","","","","",""
"","ITI","","html-keyboard-response","298","279457","0.0-1.0-405.0","0","0","59068","","null","","","null","44","","","","","","","","","","","","","","","NaN",""
"","S1","","html-keyboard-response","299","279718","0.0-1.0-407.0","0","0","59068","","null","","","null","45","","","","","","","","","","","","","","","",""
"","ISI","","html-keyboard-response","300","279880","0.0-1.0-408.0","0","0","59068","","null","","","null","45","NaN","","","","","","","","","","","","","","",""
"","S2","","html-keyboard-response","301","280142","0.0-1.0-409.0","0","0","59068","","null","","","null","45","","NaN","","","","","","","","","","","","","",""
"","response","","html-keyboard-response","302","280691","0.0-1.0-410.0-0.0","0","0","59068","","548","","","68","45","","","1","45","training","adjacent","CB","3","2","O.jpg","M.jpg","1","0","0","",""
"","feedback","","html-keyboard-response","303","281703","0.0-1.0-411.0-0.0","0","0","59068","","null","","","null","45","","","","","","","","","","","","","","","",""
"","time_out","","html-keyboard-response","304","283712","0.0-1.0-413.0-0.0","0","0","59068","","null","","","null","45","","","","","","","","","","","","","","","",""
"","ITI","","html-keyboard-response","305","284716","0.0-1.0-414.0","0","0","59068","","null","","","null","45","","","","","","","","","","","","","","","NaN",""
"","S1","","html-keyboard-response","306","284977","0.0-1.0-416.0","0","0","59068","","null","","","null","46","","","","","","","","","","","","","","","",""
"","ISI","","html-keyboard-response","307","285134","0.0-1.0-417.0","0","0","59068","","null","","","null","46","NaN","","","","","","","","","","","","","","",""
"","S2","","html-keyboard-response","308","285389","0.0-1.0-418.0","0","0","59068","","null","","","null","46","","NaN","","","","","","","","","","","","","",""
"","response","","html-keyboard-response","309","285427","0.0-1.0-419.0-0.0","0","0","59068","","36","","","68","46","","","1","46","training","adjacent","AB","1","2","Q.jpg","M.jpg","1","1","1","",""
"","feedback","","html-keyboard-response","310","286440","0.0-1.0-420.0-0.0","0","0","59068","","null","","","null","46","","","","","","","","","","","","","","","",""
"","ITI","","html-keyboard-response","311","287444","0.0-1.0-423.0","0","0","59068","","null","","","null","46","","","","","","","","","","","","","","","NaN",""
"","S1","","html-keyboard-response","312","287705","0.0-1.0-425.0","0","0","59068","","null","","","null","47","","","","","","","","","","","","","","","",""
"","ISI","","html-keyboard-response","313","287862","0.0-1.0-426.0","0","0","59068","","null","","","null","47","NaN","","","","","","","","","","","","","","",""
"","S2","","html-keyboard-response","314","288118","0.0-1.0-427.0","0","0","59068","","null","","","null","47","","NaN","","","","","","","","","","","","","",""
"","response","","html-keyboard-response","315","288499","0.0-1.0-428.0-0.0","0","0","59068","","380","","","75","47","","","1","47","training","adjacent","BA","2","1","M.jpg","Q.jpg","0","0","1","",""
"","feedback","","html-keyboard-response","316","289511","0.0-1.0-429.0-0.0","0","0","59068","","null","","","null","47","","","","","","","","","","","","","","","",""
"","ITI","","html-keyboard-response","317","290521","0.0-1.0-432.0","0","0","59068","","null","","","null","47","","","","","","","","","","","","","","","NaN",""
"","block_over","","html-keyboard-response","318","297171","0.0-1.0-433.0-0.0","0","0","59068","","6648","","","32","47","","","","","","","","","","","","","","","",""
"","S1","","html-keyboard-response","319","297429","0.0-1.0-434.0","0","0","59068","","null","","","null","48","","","","","","","","","","","","","","","",""
"","ISI","","html-keyboard-response","320","297591","0.0-1.0-435.0","0","0","59068","","null","","","null","48","NaN","","","","","","","","","","","","","","",""
"","S2","","html-keyboard-response","321","297847","0.0-1.0-436.0","0","0","59068","","null","","","null","48","","NaN","","","","","","","","","","","","","",""
"","response","","html-keyboard-response","322","298851","0.0-1.0-437.0-0.0","0","0","59068","","1003","","","75","48","","","2","48","training","adjacent","CB","3","2","O.jpg","M.jpg","0","0","1","",""
"","feedback","","html-keyboard-response","323","299861","0.0-1.0-438.0-0.0","0","0","59068","","null","","","null","48","","","","","","","","","","","","","","","",""
"","ITI","","html-keyboard-response","324","300871","0.0-1.0-441.0","0","0","59068","","null","","","null","48","","","","","","","","","","","","","","","NaN",""
"","S1","","html-keyboard-response","325","301127","0.0-1.0-443.0","0","0","59068","","null","","","null","49","","","","","","","","","","","","","","","",""
"","ISI","","html-keyboard-response","326","301289","0.0-1.0-444.0","0","0","59068","","null","","","null","49","NaN","","","","","","","","","","","","","","",""
"","S2","","html-keyboard-response","327","301549","0.0-1.0-445.0","0","0","59068","","null","","","null","49","","NaN","","","","","","","","","","","","","",""
"","response","","html-keyboard-response","328","302083","0.0-1.0-446.0-0.0","0","0","59068","","532","","","68","49","","","2","49","training","adjacent","DE","4","5","L.jpg","N.jpg","1","1","1","",""
"","feedback","","html-keyboard-response","329","303094","0.0-1.0-447.0-0.0","0","0","59068","","null","","","null","49","","","","","","","","","","","","","","","",""
"","ITI","","html-keyboard-response","330","304104","0.0-1.0-450.0","0","0","59068","","null","","","null","49","","","","","","","","","","","","","","","NaN",""
"","S1","","html-keyboard-response","331","304365","0.0-1.0-452.0","0","0","59068","","null","","","null","50","","","","","","","","","","","","","","","",""
"","ISI","","html-keyboard-response","332","304528","0.0-1.0-453.0","0","0","59068","","null","","","null","50","NaN","","","","","","","","","","","","","","",""
"","S2","","html-keyboard-response","333","304789","0.0-1.0-454.0","0","0","59068","","null","","","null","50","","NaN","","","","","","","","","","","","","",""
"","response","","html-keyboard-response","334","305291","0.0-1.0-455.0-0.0","0","0","59068","","500","","","75","50","","","2","50","training","adjacent","CD","3","4","O.jpg","L.jpg","0","1","0","",""
"","feedback","","html-keyboard-response","335","306304","0.0-1.0-456.0-0.0","0","0","59068","","null","","","null","50","","","","","","","","","","","","","","","",""
"","time_out","","html-keyboard-response","336","308313","0.0-1.0-458.0-0.0","0","0","59068","","null","","","null","50","","","","","","","","","","","","","","","",""
"","ITI","","html-keyboard-response","337","309317","0.0-1.0-459.0","0","0","59068","","null","","","null","50","","","","","","","","","","","","","","","NaN",""
"","S1","","html-keyboard-response","338","309572","0.0-1.0-461.0","0","0","59068","","null","","","null","51","","","","","","","","","","","","","","","",""
"","ISI","","html-keyboard-response","339","309735","0.0-1.0-462.0","0","0","59068","","null","","","null","51","NaN","","","","","","","","","","","","","","",""
"","S2","","html-keyboard-response","340","309990","0.0-1.0-463.0","0","0","59068","","null","","","null","51","","NaN","","","","","","","","","","","","","",""
"","response","","html-keyboard-response","341","310971","0.0-1.0-464.0-0.0","0","0","59068","","979","","","68","51","","","2","51","training","adjacent","ED","5","4","N.jpg","L.jpg","1","0","0","",""
"","feedback","","html-keyboard-response","342","311981","0.0-1.0-465.0-0.0","0","0","59068","","null","","","null","51","","","","","","","","","","","","","","","",""
"","time_out","","html-keyboard-response","343","313990","0.0-1.0-467.0-0.0","0","0","59068","","null","","","null","51","","","","","","","","","","","","","","","",""
"","ITI","","html-keyboard-response","344","315000","0.0-1.0-468.0","0","0","59068","","null","","","null","51","","","","","","","","","","","","","","","NaN",""
"","S1","","html-keyboard-response","345","315261","0.0-1.0-470.0","0","0","59068","","null","","","null","52","","","","","","","","","","","","","","","",""
"","ISI","","html-keyboard-response","346","315424","0.0-1.0-471.0","0","0","59068","","null","","","null","52","NaN","","","","","","","","","","","","","","",""
"","S2","","html-keyboard-response","347","315685","0.0-1.0-472.0","0","0","59068","","null","","","null","52","","NaN","","","","","","","","","","","","","",""
"","response","","html-keyboard-response","348","316109","0.0-1.0-473.0-0.0","0","0","59068","","422","","","75","52","","","2","52","training","adjacent","FG","6","7","R.jpg","P.jpg","0","1","0","",""
"","feedback","","html-keyboard-response","349","317119","0.0-1.0-474.0-0.0","0","0","59068","","null","","","null","52","","","","","","","","","","","","","","","",""
"","time_out","","html-keyboard-response","350","319127","0.0-1.0-476.0-0.0","0","0","59068","","null","","","null","52","","","","","","","","","","","","","","","",""
"","ITI","","html-keyboard-response","351","320132","0.0-1.0-477.0","0","0","59068","","null","","","null","52","","","","","","","","","","","","","","","NaN",""
"","S1","","html-keyboard-response","352","320392","0.0-1.0-479.0","0","0","59068","","null","","","null","53","","","","","","","","","","","","","","","",""
"","ISI","","html-keyboard-response","353","320549","0.0-1.0-480.0","0","0","59068","","null","","","null","53","NaN","","","","","","","","","","","","","","",""
"","S2","","html-keyboard-response","354","320805","0.0-1.0-481.0","0","0","59068","","null","","","null","53","","NaN","","","","","","","","","","","","","",""
"","response","","html-keyboard-response","355","321827","0.0-1.0-482.0-0.0","0","0","59068","","1021","","","75","53","","","2","53","training","adjacent","FE","6","5","R.jpg","N.jpg","0","0","1","",""
"","feedback","","html-keyboard-response","356","322836","0.0-1.0-483.0-0.0","0","0","59068","","null","","","null","53","","","","","","","","","","","","","","","",""
"","ITI","","html-keyboard-response","357","323847","0.0-1.0-486.0","0","0","59068","","null","","","null","53","","","","","","","","","","","","","","","NaN",""
"","S1","","html-keyboard-response","358","324102","0.0-1.0-488.0","0","0","59068","","null","","","null","54","","","","","","","","","","","","","","","",""
"","ISI","","html-keyboard-response","359","324260","0.0-1.0-489.0","0","0","59068","","null","","","null","54","NaN","","","","","","","","","","","","","","",""
"","S2","","html-keyboard-response","360","324519","0.0-1.0-490.0","0","0","59068","","null","","","null","54","","NaN","","","","","","","","","","","","","",""
"","response","","html-keyboard-response","361","325186","0.0-1.0-491.0-0.0","0","0","59068","","665","","","68","54","","","2","54","training","adjacent","ED","5","4","N.jpg","L.jpg","1","0","0","",""
"","feedback","","html-keyboard-response","362","326198","0.0-1.0-492.0-0.0","0","0","59068","","null","","","null","54","","","","","","","","","","","","","","","",""
"","time_out","","html-keyboard-response","363","328204","0.0-1.0-494.0-0.0","0","0","59068","","null","","","null","54","","","","","","","","","","","","","","","",""
"","ITI","","html-keyboard-response","364","329216","0.0-1.0-495.0","0","0","59068","","null","","","null","54","","","","","","","","","","","","","","","NaN",""
"","S1","","html-keyboard-response","365","329477","0.0-1.0-497.0","0","0","59068","","null","","","null","55","","","","","","","","","","","","","","","",""
"","ISI","","html-keyboard-response","366","329640","0.0-1.0-498.0","0","0","59068","","null","","","null","55","NaN","","","","","","","","","","","","","","",""
"","S2","","html-keyboard-response","367","329901","0.0-1.0-499.0","0","0","59068","","null","","","null","55","","NaN","","","","","","","","","","","","","",""
"","response","","html-keyboard-response","368","330293","0.0-1.0-500.0-0.0","0","0","59068","","390","","","75","55","","","2","55","training","adjacent","GF","7","6","P.jpg","R.jpg","0","0","1","",""
"","feedback","","html-keyboard-response","369","331300","0.0-1.0-501.0-0.0","0","0","59068","","null","","","null","55","","","","","","","","","","","","","","","",""
"","ITI","","html-keyboard-response","370","332310","0.0-1.0-504.0","0","0","59068","","null","","","null","55","","","","","","","","","","","","","","","NaN",""
"","S1","","html-keyboard-response","371","332565","0.0-1.0-506.0","0","0","59068","","null","","","null","56","","","","","","","","","","","","","","","",""
"","ISI","","html-keyboard-response","372","332728","0.0-1.0-507.0","0","0","59068","","null","","","null","56","NaN","","","","","","","","","","","","","","",""
"","S2","","html-keyboard-response","373","332989","0.0-1.0-508.0","0","0","59068","","null","","","null","56","","NaN","","","","","","","","","","","","","",""
"","response","","html-keyboard-response","374","333610","0.0-1.0-509.0-0.0","0","0","59068","","619","","","75","56","","","2","56","training","adjacent","CD","3","4","O.jpg","L.jpg","0","1","0","",""
"","feedback","","html-keyboard-response","375","334620","0.0-1.0-510.0-0.0","0","0","59068","","null","","","null","56","","","","","","","","","","","","","","","",""
"","time_out","","html-keyboard-response","376","336629","0.0-1.0-512.0-0.0","0","0","59068","","null","","","null","56","","","","","","","","","","","","","","","",""
"","ITI","","html-keyboard-response","377","337639","0.0-1.0-513.0","0","0","59068","","null","","","null","56","","","","","","","","","","","","","","","NaN",""
"","S1","","html-keyboard-response","378","337894","0.0-1.0-515.0","0","0","59068","","null","","","null","57","","","","","","","","","","","","","","","",""
"","ISI","","html-keyboard-response","379","338053","0.0-1.0-516.0","0","0","59068","","null","","","null","57","NaN","","","","","","","","","","","","","","",""
"","S2","","html-keyboard-response","380","338312","0.0-1.0-517.0","0","0","59068","","null","","","null","57","","NaN","","","","","","","","","","","","","",""
"","response","","html-keyboard-response","381","338578","0.0-1.0-518.0-0.0","0","0","59068","","264","","","75","57","","","2","57","training","adjacent","BA","2","1","M.jpg","Q.jpg","0","0","1","",""
"","feedback","","html-keyboard-response","382","339589","0.0-1.0-519.0-0.0","0","0","59068","","null","","","null","57","","","","","","","","","","","","","","","",""
"","ITI","","html-keyboard-response","383","340597","0.0-1.0-522.0","0","0","59068","","null","","","null","57","","","","","","","","","","","","","","","NaN",""
"","S1","","html-keyboard-response","384","340855","0.0-1.0-524.0","0","0","59068","","null","","","null","58","","","","","","","","","","","","","","","",""
"","ISI","","html-keyboard-response","385","341012","0.0-1.0-525.0","0","0","59068","","null","","","null","58","NaN","","","","","","","","","","","","","","",""
"","S2","","html-keyboard-response","386","341132","0.0-1.0-526.0","0","0","59068","","118","","","75","58","","k","2","58","training","adjacent","AB","1","2","Q.jpg","M.jpg","0","1","0","",""
"","feedback","","html-keyboard-response","387","342143","0.0-1.0-528.0-0.0","0","0","59068","","null","","","null","58","","","","","","","","","","","","","","","",""
"","time_out","","html-keyboard-response","388","344151","0.0-1.0-530.0-0.0","0","0","59068","","null","","","null","58","","","","","","","","","","","","","","","",""
"","ITI","","html-keyboard-response","389","345156","0.0-1.0-531.0","0","0","59068","","null","","","null","58","","","","","","","","","","","","","","","NaN",""
"","S1","","html-keyboard-response","390","345412","0.0-1.0-533.0","0","0","59068","","null","","","null","59","","","","","","","","","","","","","","","",""
"","ISI","","html-keyboard-response","391","345574","0.0-1.0-534.0","0","0","59068","","null","","","null","59","NaN","","","","","","","","","","","","","","",""
"","S2","","html-keyboard-response","392","345830","0.0-1.0-535.0","0","0","59068","","null","","","null","59","","NaN","","","","","","","","","","","","","",""
"","response","","html-keyboard-response","393","345882","0.0-1.0-536.0-0.0","0","0","59068","","51","","","75","59","","","2","59","training","adjacent","AB","1","2","Q.jpg","M.jpg","0","1","0","",""
"","feedback","","html-keyboard-response","394","346892","0.0-1.0-537.0-0.0","0","0","59068","","null","","","null","59","","","","","","","","","","","","","","","",""
"","time_out","","html-keyboard-response","395","348900","0.0-1.0-539.0-0.0","0","0","59068","","null","","","null","59","","","","","","","","","","","","","","","",""
"","ITI","","html-keyboard-response","396","349910","0.0-1.0-540.0","0","0","59068","","null","","","null","59","","","","","","","","","","","","","","","NaN",""
"","S1","","html-keyboard-response","397","350166","0.0-1.0-542.0","0","0","59068","","null","","","null","60","","","","","","","","","","","","","","","",""
"","ISI","","html-keyboard-response","398","350323","0.0-1.0-543.0","0","0","59068","","null","","","null","60","NaN","","","","","","","","","","","","","","",""
"","S2","","html-keyboard-response","399","350579","0.0-1.0-544.0","0","0","59068","","null","","","null","60","","NaN","","","","","","","","","","","","","",""
"","response","","html-keyboard-response","400","351045","0.0-1.0-545.0-0.0","0","0","59068","","464","","","75","60","","","2","60","training","adjacent","BA","2","1","M.jpg","Q.jpg","0","0","1","",""
"","feedback","","html-keyboard-response","401","352052","0.0-1.0-546.0-0.0","0","0","59068","","null","","","null","60","","","","","","","","","","","","","","","",""
"","ITI","","html-keyboard-response","402","353063","0.0-1.0-549.0","0","0","59068","","null","","","null","60","","","","","","","","","","","","","","","NaN",""
"","S1","","html-keyboard-response","403","353318","0.0-1.0-551.0","0","0","59068","","null","","","null","61","","","","","","","","","","","","","","","",""
"","ISI","","html-keyboard-response","404","353475","0.0-1.0-552.0","0","0","59068","","null","","","null","61","NaN","","","","","","","","","","","","","","",""
"","S2","","html-keyboard-response","405","353736","0.0-1.0-553.0","0","0","59068","","null","","","null","61","","NaN","","","","","","","","","","","","","",""
"","response","","html-keyboard-response","406","354338","0.0-1.0-554.0-0.0","0","0","59068","","601","","","68","61","","","2","61","training","adjacent","DC","4","3","L.jpg","O.jpg","1","0","0","",""
"","feedback","","html-keyboard-response","407","355350","0.0-1.0-555.0-0.0","0","0","59068","","null","","","null","61","","","","","","","","","","","","","","","",""
"","time_out","","html-keyboard-response","408","357358","0.0-1.0-557.0-0.0","0","0","59068","","null","","","null","61","","","","","","","","","","","","","","","",""
"","ITI","","html-keyboard-response","409","358366","0.0-1.0-558.0","0","0","59068","","null","","","null","61","","","","","","","","","","","","","","","NaN",""
"","S1","","html-keyboard-response","410","358624","0.0-1.0-560.0","0","0","59068","","null","","","null","62","","","","","","","","","","","","","","","",""
"","ISI","","html-keyboard-response","411","358780","0.0-1.0-561.0","0","0","59068","","null","","","null","62","NaN","","","","","","","","","","","","","","",""
"","S2","","html-keyboard-response","412","359036","0.0-1.0-562.0","0","0","59068","","null","","","null","62","","NaN","","","","","","","","","","","","","",""
"","response","","html-keyboard-response","413","360795","0.0-1.0-563.0-0.0","0","0","59068","","null","","","null","62","","","2","62","training","adjacent","DC","4","3","L.jpg","O.jpg","NaN","0","0","",""
"","too_slow_prompt","","html-keyboard-response","414","361805","0.0-1.0-565.0-0.0","1","0","59068","","null","","","null","","","","","","","","","","","","","","","","",""
"","time_out","","html-keyboard-response","415","363813","0.0-1.0-566.0-0.0","0","0","59068","","null","","","null","62","","","","","","","","","","","","","","","",""
"","ITI","","html-keyboard-response","416","364823","0.0-1.0-567.0","0","0","59068","","null","","","null","62","","","","","","","","","","","","","","","NaN",""
"","S1","","html-keyboard-response","417","365084","0.0-1.0-569.0","0","0","59068","","null","","","null","63","","","","","","","","","","","","","","","",""
"","ISI","","html-keyboard-response","418","365247","0.0-1.0-570.0","0","0","59068","","null","","","null","63","NaN","","","","","","","","","","","","","","",""
"","S2","","html-keyboard-response","419","365508","0.0-1.0-571.0","0","0","59068","","null","","","null","63","","NaN","","","","","","","","","","","","","",""
"","response","","html-keyboard-response","420","365980","0.0-1.0-572.0-0.0","0","0","59068","","470","","","75","63","","","2","63","training","adjacent","GF","7","6","P.jpg","R.jpg","0","0","1","",""
"","feedback","","html-keyboard-response","421","366989","0.0-1.0-573.0-0.0","0","0","59068","","null","","","null","63","","","","","","","","","","","","","","","",""
"","ITI","","html-keyboard-response","422","367998","0.0-1.0-576.0","0","0","59068","","null","","","null","63","","","","","","","","","","","","","","","NaN",""
"","S1","","html-keyboard-response","423","368260","0.0-1.0-578.0","0","0","59068","","null","","","null","64","","","","","","","","","","","","","","","",""
"","ISI","","html-keyboard-response","424","368422","0.0-1.0-579.0","0","0","59068","","null","","","null","64","NaN","","","","","","","","","","","","","","",""
"","S2","","html-keyboard-response","425","368678","0.0-1.0-580.0","0","0","59068","","null","","","null","64","","NaN","","","","","","","","","","","","","",""
"","response","","html-keyboard-response","426","368882","0.0-1.0-581.0-0.0","0","0","59068","","202","","","68","64","","","2","64","training","adjacent","FG","6","7","R.jpg","P.jpg","1","1","1","",""
"","feedback","","html-keyboard-response","427","369891","0.0-1.0-582.0-0.0","0","0","59068","","null","","","null","64","","","","","","","","","","","","","","","",""
"","ITI","","html-keyboard-response","428","370901","0.0-1.0-585.0","0","0","59068","","null","","","null","64","","","","","","","","","","","","","","","NaN",""
"","S1","","html-keyboard-response","429","371156","0.0-1.0-587.0","0","0","59068","","null","","","null","65","","","","","","","","","","","","","","","",""
"","ISI","","html-keyboard-response","430","371319","0.0-1.0-588.0","0","0","59068","","null","","","null","65","NaN","","","","","","","","","","","","","","",""
"","S2","","html-keyboard-response","431","371580","0.0-1.0-589.0","0","0","59068","","null","","","null","65","","NaN","","","","","","","","","","","","","",""
"","response","","html-keyboard-response","432","372068","0.0-1.0-590.0-0.0","0","0","59068","","486","","","68","65","","","2","65","training","adjacent","ED","5","4","N.jpg","L.jpg","1","0","0","",""
"","feedback","","html-keyboard-response","433","373078","0.0-1.0-591.0-0.0","0","0","59068","","null","","","null","65","","","","","","","","","","","","","","","",""
"","time_out","","html-keyboard-response","434","375086","0.0-1.0-593.0-0.0","0","0","59068","","null","","","null","65","","","","","","","","","","","","","","","",""
"","ITI","","html-keyboard-response","435","376091","0.0-1.0-594.0","0","0","59068","","null","","","null","65","","","","","","","","","","","","","","","NaN",""
"","S1","","html-keyboard-response","436","376348","0.0-1.0-596.0","0","0","59068","","null","","","null","66","","","","","","","","","","","","","","","",""
"","ISI","","html-keyboard-response","437","376508","0.0-1.0-597.0","0","0","59068","","null","","","null","66","NaN","","","","","","","","","","","","","","",""
"","S2","","html-keyboard-response","438","376764","0.0-1.0-598.0","0","0","59068","","null","","","null","66","","NaN","","","","","","","","","","","","","",""
"","response","","html-keyboard-response","439","376961","0.0-1.0-599.0-0.0","0","0","59068","","195","","","75","66","","","2","66","training","adjacent","CB","3","2","O.jpg","M.jpg","0","0","1","",""
"","feedback","","html-keyboard-response","440","377971","0.0-1.0-600.0-0.0","0","0","59068","","null","","","null","66","","","","","","","","","","","","","","","",""
"","ITI","","html-keyboard-response","441","378981","0.0-1.0-603.0","0","0","59068","","null","","","null","66","","","","","","","","","","","","","","","NaN",""
"","S1","","html-keyboard-response","442","379237","0.0-1.0-605.0","0","0","59068","","null","","","null","67","","","","","","","","","","","","","","","",""
"","ISI","","html-keyboard-response","443","379399","0.0-1.0-606.0","0","0","59068","","null","","","null","67","NaN","","","","","","","","","","","","","","",""
"","S2","","html-keyboard-response","444","379661","0.0-1.0-607.0","0","0","59068","","null","","","null","67","","NaN","","","","","","","","","","","","","",""
"","response","","html-keyboard-response","445","379924","0.0-1.0-608.0-0.0","0","0","59068","","262","","","75","67","","","2","67","training","adjacent","BA","2","1","M.jpg","Q.jpg","0","0","1","",""
"","feedback","","html-keyboard-response","446","380932","0.0-1.0-609.0-0.0","0","0","59068","","null","","","null","67","","","","","","","","","","","","","","","",""
"","ITI","","html-keyboard-response","447","381942","0.0-1.0-612.0","0","0","59068","","null","","","null","67","","","","","","","","","","","","","","","NaN",""
"","S1","","html-keyboard-response","448","382197","0.0-1.0-614.0","0","0","59068","","null","","","null","68","","","","","","","","","","","","","","","",""
"","ISI","","html-keyboard-response","449","382354","0.0-1.0-615.0","0","0","59068","","null","","","null","68","NaN","","","","","","","","","","","","","","",""
"","S2","","html-keyboard-response","450","382612","0.0-1.0-616.0","0","0","59068","","null","","","null","68","","NaN","","","","","","","","","","","","","",""
"","response","","html-keyboard-response","451","382993","0.0-1.0-617.0-0.0","0","0","59068","","379","","","68","68","","","2","68","training","adjacent","EF","5","6","N.jpg","R.jpg","1","1","1","",""
"","feedback","","html-keyboard-response","452","384002","0.0-1.0-618.0-0.0","0","0","59068","","null","","","null","68","","","","","","","","","","","","","","","",""
"","ITI","","html-keyboard-response","453","385013","0.0-1.0-621.0","0","0","59068","","null","","","null","68","","","","","","","","","","","","","","","NaN",""
"","S1","","html-keyboard-response","454","385268","0.0-1.0-623.0","0","0","59068","","null","","","null","69","","","","","","","","","","","","","","","",""
"","ISI","","html-keyboard-response","455","385430","0.0-1.0-624.0","0","0","59068","","null","","","null","69","NaN","","","","","","","","","","","","","","",""
"","S2","","html-keyboard-response","456","385692","0.0-1.0-625.0","0","0","59068","","null","","","null","69","","NaN","","","","","","","","","","","","","",""
"","response","","html-keyboard-response","457","386353","0.0-1.0-626.0-0.0","0","0","59068","","659","","","75","69","","","2","69","training","adjacent","CB","3","2","O.jpg","M.jpg","0","0","1","",""
"","feedback","","html-keyboard-response","458","387364","0.0-1.0-627.0-0.0","0","0","59068","","null","","","null","69","","","","","","","","","","","","","","","",""
"","ITI","","html-keyboard-response","459","388374","0.0-1.0-630.0","0","0","59068","","null","","","null","69","","","","","","","","","","","","","","","NaN",""
"","S1","","html-keyboard-response","460","388629","0.0-1.0-632.0","0","0","59068","","null","","","null","70","","","","","","","","","","","","","","","",""
"","ISI","","html-keyboard-response","461","388788","0.0-1.0-633.0","0","0","59068","","null","","","null","70","NaN","","","","","","","","","","","","","","",""
"","S2","","html-keyboard-response","462","389047","0.0-1.0-634.0","0","0","59068","","null","","","null","70","","NaN","","","","","","","","","","","","","",""
"","response","","html-keyboard-response","463","389395","0.0-1.0-635.0-0.0","0","0","59068","","346","","","75","70","","","2","70","training","adjacent","CD","3","4","O.jpg","L.jpg","0","1","0","",""
"","feedback","","html-keyboard-response","464","390405","0.0-1.0-636.0-0.0","0","0","59068","","null","","","null","70","","","","","","","","","","","","","","","",""
"","time_out","","html-keyboard-response","465","392414","0.0-1.0-638.0-0.0","0","0","59068","","null","","","null","70","","","","","","","","","","","","","","","",""
"","ITI","","html-keyboard-response","466","393418","0.0-1.0-639.0","0","0","59068","","null","","","null","70","","","","","","","","","","","","","","","NaN",""
"","S1","","html-keyboard-response","467","393679","0.0-1.0-641.0","0","0","59068","","null","","","null","71","","","","","","","","","","","","","","","",""
"","ISI","","html-keyboard-response","468","393836","0.0-1.0-642.0","0","0","59068","","null","","","null","71","NaN","","","","","","","","","","","","","","",""
"","S2","","html-keyboard-response","469","394073","0.0-1.0-643.0","0","0","59068","","235","","","75","71","","k","2","71","training","adjacent","AB","1","2","Q.jpg","M.jpg","0","1","0","",""
"","feedback","","html-keyboard-response","470","395084","0.0-1.0-645.0-0.0","0","0","59068","","null","","","null","71","","","","","","","","","","","","","","","",""
"","time_out","","html-keyboard-response","471","397092","0.0-1.0-647.0-0.0","0","0","59068","","null","","","null","71","","","","","","","","","","","","","","","",""
"","ITI","","html-keyboard-response","472","398103","0.0-1.0-648.0","0","0","59068","","null","","","null","71","","","","","","","","","","","","","","","NaN",""
"","S1","","html-keyboard-response","473","398364","0.0-1.0-650.0","0","0","59068","","null","","","null","72","","","","","","","","","","","","","","","",""
"","ISI","","html-keyboard-response","474","398526","0.0-1.0-651.0","0","0","59068","","null","","","null","72","NaN","","","","","","","","","","","","","","",""
"","S2","","html-keyboard-response","475","398787","0.0-1.0-652.0","0","0","59068","","null","","","null","72","","NaN","","","","","","","","","","","","","",""
"","response","","html-keyboard-response","476","399803","0.0-1.0-653.0-0.0","0","0","59068","","1014","","","75","72","","","2","72","training","adjacent","FE","6","5","R.jpg","N.jpg","0","0","1","",""
"","feedback","","html-keyboard-response","477","400813","0.0-1.0-654.0-0.0","0","0","59068","","null","","","null","72","","","","","","","","","","","","","","","",""
"","ITI","","html-keyboard-response","478","401818","0.0-1.0-657.0","0","0","59068","","null","","","null","72","","","","","","","","","","","","","","","NaN",""
"","S1","","html-keyboard-response","479","402075","0.0-1.0-659.0","0","0","59068","","null","","","null","73","","","","","","","","","","","","","","","",""
"","ISI","","html-keyboard-response","480","402236","0.0-1.0-660.0","0","0","59068","","null","","","null","73","NaN","","","","","","","","","","","","","","",""
"","S2","","html-keyboard-response","481","402491","0.0-1.0-661.0","0","0","59068","","null","","","null","73","","NaN","","","","","","","","","","","","","",""
"","response","","html-keyboard-response","482","403001","0.0-1.0-662.0-0.0","0","0","59068","","508","","","75","73","","","2","73","training","adjacent","FE","6","5","R.jpg","N.jpg","0","0","1","",""
"","feedback","","html-keyboard-response","483","404012","0.0-1.0-663.0-0.0","0","0","59068","","null","","","null","73","","","","","","","","","","","","","","","",""
"","ITI","","html-keyboard-response","484","405022","0.0-1.0-666.0","0","0","59068","","null","","","null","73","","","","","","","","","","","","","","","NaN",""
"","S1","","html-keyboard-response","485","405283","0.0-1.0-668.0","0","0","59068","","null","","","null","74","","","","","","","","","","","","","","","",""
"","ISI","","html-keyboard-response","486","405446","0.0-1.0-669.0","0","0","59068","","null","","","null","74","NaN","","","","","","","","","","","","","","",""
"","S2","","html-keyboard-response","487","405707","0.0-1.0-670.0","0","0","59068","","null","","","null","74","","NaN","","","","","","","","","","","","","",""
"","response","","html-keyboard-response","488","406177","0.0-1.0-671.0-0.0","0","0","59068","","468","","","68","74","","","2","74","training","adjacent","FG","6","7","R.jpg","P.jpg","1","1","1","",""
"","feedback","","html-keyboard-response","489","407181","0.0-1.0-672.0-0.0","0","0","59068","","null","","","null","74","","","","","","","","","","","","","","","",""
"","ITI","","html-keyboard-response","490","408186","0.0-1.0-675.0","0","0","59068","","null","","","null","74","","","","","","","","","","","","","","","NaN",""
"","S1","","html-keyboard-response","491","408441","0.0-1.0-677.0","0","0","59068","","null","","","null","75","","","","","","","","","","","","","","","",""
"","ISI","","html-keyboard-response","492","408598","0.0-1.0-678.0","0","0","59068","","null","","","null","75","NaN","","","","","","","","","","","","","","",""
"","S2","","html-keyboard-response","493","408859","0.0-1.0-679.0","0","0","59068","","null","","","null","75","","NaN","","","","","","","","","","","","","",""
"","response","","html-keyboard-response","494","409265","0.0-1.0-680.0-0.0","0","0","59068","","403","","","75","75","","","2","75","training","adjacent","FE","6","5","R.jpg","N.jpg","0","0","1","",""
"","feedback","","html-keyboard-response","495","410276","0.0-1.0-681.0-0.0","0","0","59068","","null","","","null","75","","","","","","","","","","","","","","","",""
"","ITI","","html-keyboard-response","496","411285","0.0-1.0-684.0","0","0","59068","","null","","","null","75","","","","","","","","","","","","","","","NaN",""
"","S1","","html-keyboard-response","497","411541","0.0-1.0-686.0","0","0","59068","","null","","","null","76","","","","","","","","","","","","","","","",""
"","ISI","","html-keyboard-response","498","411698","0.0-1.0-687.0","0","0","59068","","null","","","null","76","NaN","","","","","","","","","","","","","","",""
"","S2","","html-keyboard-response","499","411959","0.0-1.0-688.0","0","0","59068","","null","","","null","76","","NaN","","","","","","","","","","","","","",""
"","response","","html-keyboard-response","500","412097","0.0-1.0-689.0-0.0","0","0","59068","","136","","","68","76","","","2","76","training","adjacent","EF","5","6","N.jpg","R.jpg","1","1","1","",""
"","feedback","","html-keyboard-response","501","413108","0.0-1.0-690.0-0.0","0","0","59068","","null","","","null","76","","","","","","","","","","","","","","","",""
"","ITI","","html-keyboard-response","502","414118","0.0-1.0-693.0","0","0","59068","","null","","","null","76","","","","","","","","","","","","","","","NaN",""
"","S1","","html-keyboard-response","503","414379","0.0-1.0-695.0","0","0","59068","","null","","","null","77","","","","","","","","","","","","","","","",""
"","ISI","","html-keyboard-response","504","414542","0.0-1.0-696.0","0","0","59068","","null","","","null","77","NaN","","","","","","","","","","","","","","",""
"","S2","","html-keyboard-response","505","414803","0.0-1.0-697.0","0","0","59068","","null","","","null","77","","NaN","","","","","","","","","","","","","",""
"","response","","html-keyboard-response","506","415627","0.0-1.0-698.0-0.0","0","0","59068","","822","","","68","77","","","2","77","training","adjacent","DE","4","5","L.jpg","N.jpg","1","1","1","",""
"","feedback","","html-keyboard-response","507","416638","0.0-1.0-699.0-0.0","0","0","59068","","null","","","null","77","","","","","","","","","","","","","","","",""
"","ITI","","html-keyboard-response","508","417642","0.0-1.0-702.0","0","0","59068","","null","","","null","77","","","","","","","","","","","","","","","NaN",""
"","S1","","html-keyboard-response","509","417897","0.0-1.0-704.0","0","0","59068","","null","","","null","78","","","","","","","","","","","","","","","",""
"","ISI","","html-keyboard-response","510","418054","0.0-1.0-705.0","0","0","59068","","null","","","null","78","NaN","","","","","","","","","","","","","","",""
"","S2","","html-keyboard-response","511","418315","0.0-1.0-706.0","0","0","59068","","null","","","null","78","","NaN","","","","","","","","","","","","","",""
"","response","","html-keyboard-response","512","419553","0.0-1.0-707.0-0.0","0","0","59068","","1237","","","75","78","","","2","78","training","adjacent","BC","2","3","M.jpg","O.jpg","0","1","0","",""
"","feedback","","html-keyboard-response","513","420561","0.0-1.0-708.0-0.0","0","0","59068","","null","","","null","78","","","","","","","","","","","","","","","",""
"","time_out","","html-keyboard-response","514","422570","0.0-1.0-710.0-0.0","0","0","59068","","null","","","null","78","","","","","","","","","","","","","","","",""
"","ITI","","html-keyboard-response","515","423580","0.0-1.0-711.0","0","0","59068","","null","","","null","78","","","","","","","","","","","","","","","NaN",""
"","S1","","html-keyboard-response","516","423836","0.0-1.0-713.0","0","0","59068","","null","","","null","79","","","","","","","","","","","","","","","",""
"","ISI","","html-keyboard-response","517","423998","0.0-1.0-714.0","0","0","59068","","null","","","null","79","NaN","","","","","","","","","","","","","","",""
"","S2","","html-keyboard-response","518","424259","0.0-1.0-715.0","0","0","59068","","null","","","null","79","","NaN","","","","","","","","","","","","","",""
"","response","","html-keyboard-response","519","425811","0.0-1.0-716.0-0.0","0","0","59068","","1550","","","75","79","","","2","79","training","adjacent","GF","7","6","P.jpg","R.jpg","0","0","1","",""
"","feedback","","html-keyboard-response","520","426819","0.0-1.0-717.0-0.0","0","0","59068","","null","","","null","79","","","","","","","","","","","","","","","",""
"","ITI","","html-keyboard-response","521","427829","0.0-1.0-720.0","0","0","59068","","null","","","null","79","","","","","","","","","","","","","","","NaN",""
"","S1","","html-keyboard-response","522","428090","0.0-1.0-722.0","0","0","59068","","null","","","null","80","","","","","","","","","","","","","","","",""
"","ISI","","html-keyboard-response","523","428253","0.0-1.0-723.0","0","0","59068","","null","","","null","80","NaN","","","","","","","","","","","","","","",""
"","S2","","html-keyboard-response","524","428432","0.0-1.0-724.0","0","0","59068","","177","","","68","80","","d","2","80","training","adjacent","AB","1","2","Q.jpg","M.jpg","1","1","1","",""
"","feedback","","html-keyboard-response","525","429443","0.0-1.0-726.0-0.0","0","0","59068","","null","","","null","80","","","","","","","","","","","","","","","",""
"","ITI","","html-keyboard-response","526","430453","0.0-1.0-729.0","0","0","59068","","null","","","null","80","","","","","","","","","","","","","","","NaN",""
"","S1","","html-keyboard-response","527","430708","0.0-1.0-731.0","0","0","59068","","null","","","null","81","","","","","","","","","","","","","","","",""
"","ISI","","html-keyboard-response","528","430865","0.0-1.0-732.0","0","0","59068","","null","","","null","81","NaN","","","","","","","","","","","","","","",""
"","S2","","html-keyboard-response","529","431126","0.0-1.0-733.0","0","0","59068","","null","","","null","81","","NaN","","","","","","","","","","","","","",""
"","response","","html-keyboard-response","530","432768","0.0-1.0-734.0-0.0","0","0","59068","","1640","","","75","81","","","2","81","training","adjacent","DC","4","3","L.jpg","O.jpg","0","0","1","",""
"","feedback","","html-keyboard-response","531","433779","0.0-1.0-735.0-0.0","0","0","59068","","null","","","null","81","","","","","","","","","","","","","","","",""
"","ITI","","html-keyboard-response","532","434789","0.0-1.0-738.0","0","0","59068","","null","","","null","81","","","","","","","","","","","","","","","NaN",""
"","S1","","html-keyboard-response","533","435050","0.0-1.0-740.0","0","0","59068","","null","","","null","82","","","","","","","","","","","","","","","",""
"","ISI","","html-keyboard-response","534","435213","0.0-1.0-741.0","0","0","59068","","null","","","null","82","NaN","","","","","","","","","","","","","","",""
"","S2","","html-keyboard-response","535","435474","0.0-1.0-742.0","0","0","59068","","null","","","null","82","","NaN","","","","","","","","","","","","","",""
"","response","","html-keyboard-response","536","437032","0.0-1.0-743.0-0.0","0","0","59068","","1556","","","68","82","","","2","82","training","adjacent","CB","3","2","O.jpg","M.jpg","1","0","0","",""
"","feedback","","html-keyboard-response","537","438046","0.0-1.0-744.0-0.0","0","0","59068","","null","","","null","82","","","","","","","","","","","","","","","",""
"","time_out","","html-keyboard-response","538","440054","0.0-1.0-746.0-0.0","0","0","59068","","null","","","null","82","","","","","","","","","","","","","","","",""
"","ITI","","html-keyboard-response","539","441059","0.0-1.0-747.0","0","0","59068","","null","","","null","82","","","","","","","","","","","","","","","NaN",""
"","S1","","html-keyboard-response","540","441314","0.0-1.0-749.0","0","0","59068","","null","","","null","83","","","","","","","","","","","","","","","",""
"","ISI","","html-keyboard-response","541","441476","0.0-1.0-750.0","0","0","59068","","null","","","null","83","NaN","","","","","","","","","","","","","","",""
"","S2","","html-keyboard-response","542","441732","0.0-1.0-751.0","0","0","59068","","null","","","null","83","","NaN","","","","","","","","","","","","","",""
"","response","","html-keyboard-response","543","442074","0.0-1.0-752.0-0.0","0","0","59068","","340","","","68","83","","","2","83","training","adjacent","EF","5","6","N.jpg","R.jpg","1","1","1","",""
"","feedback","","html-keyboard-response","544","443084","0.0-1.0-753.0-0.0","0","0","59068","","null","","","null","83","","","","","","","","","","","","","","","",""
"","ITI","","html-keyboard-response","545","444092","0.0-1.0-756.0","0","0","59068","","null","","","null","83","","","","","","","","","","","","","","","NaN",""
"","S1","","html-keyboard-response","546","444350","0.0-1.0-758.0","0","0","59068","","null","","","null","84","","","","","","","","","","","","","","","",""
"","ISI","","html-keyboard-response","547","444507","0.0-1.0-759.0","0","0","59068","","null","","","null","84","NaN","","","","","","","","","","","","","","",""
"","S2","","html-keyboard-response","548","444762","0.0-1.0-760.0","0","0","59068","","null","","","null","84","","NaN","","","","","","","","","","","","","",""
"","response","","html-keyboard-response","549","445536","0.0-1.0-761.0-0.0","0","0","59068","","772","","","68","84","","","2","84","training","adjacent","FG","6","7","R.jpg","P.jpg","1","1","1","",""
"","feedback","","html-keyboard-response","550","446546","0.0-1.0-762.0-0.0","0","0","59068","","null","","","null","84","","","","","","","","","","","","","","","",""
"","ITI","","html-keyboard-response","551","447554","0.0-1.0-765.0","0","0","59068","","null","","","null","84","","","","","","","","","","","","","","","NaN",""
"","S1","","html-keyboard-response","552","447810","0.0-1.0-767.0","0","0","59068","","null","","","null","85","","","","","","","","","","","","","","","",""
"","ISI","","html-keyboard-response","553","447972","0.0-1.0-768.0","0","0","59068","","null","","","null","85","NaN","","","","","","","","","","","","","","",""
"","S2","","html-keyboard-response","554","448228","0.0-1.0-769.0","0","0","59068","","null","","","null","85","","NaN","","","","","","","","","","","","","",""
"","response","","html-keyboard-response","555","448800","0.0-1.0-770.0-0.0","0","0","59068","","570","","","75","85","","","2","85","training","adjacent","DE","4","5","L.jpg","N.jpg","0","1","0","",""
"","feedback","","html-keyboard-response","556","449812","0.0-1.0-771.0-0.0","0","0","59068","","null","","","null","85","","","","","","","","","","","","","","","",""
"","time_out","","html-keyboard-response","557","451821","0.0-1.0-773.0-0.0","0","0","59068","","null","","","null","85","","","","","","","","","","","","","","","",""
"","ITI","","html-keyboard-response","558","452825","0.0-1.0-774.0","0","0","59068","","null","","","null","85","","","","","","","","","","","","","","","NaN",""
"","S1","","html-keyboard-response","559","453080","0.0-1.0-776.0","0","0","59068","","null","","","null","86","","","","","","","","","","","","","","","",""
"","ISI","","html-keyboard-response","560","453237","0.0-1.0-777.0","0","0","59068","","null","","","null","86","NaN","","","","","","","","","","","","","","",""
"","S2","","html-keyboard-response","561","453498","0.0-1.0-778.0","0","0","59068","","null","","","null","86","","NaN","","","","","","","","","","","","","",""
"","response","","html-keyboard-response","562","454906","0.0-1.0-779.0-0.0","0","0","59068","","1406","","","75","86","","","2","86","training","adjacent","DC","4","3","L.jpg","O.jpg","0","0","1","",""
"","feedback","","html-keyboard-response","563","455913","0.0-1.0-780.0-0.0","0","0","59068","","null","","","null","86","","","","","","","","","","","","","","","",""
"","ITI","","html-keyboard-response","564","456923","0.0-1.0-783.0","0","0","59068","","null","","","null","86","","","","","","","","","","","","","","","NaN",""
"","S1","","html-keyboard-response","565","457179","0.0-1.0-785.0","0","0","59068","","null","","","null","87","","","","","","","","","","","","","","","",""
"","ISI","","html-keyboard-response","566","457341","0.0-1.0-786.0","0","0","59068","","null","","","null","87","NaN","","","","","","","","","","","","","","",""
"","S2","","html-keyboard-response","567","457603","0.0-1.0-787.0","0","0","59068","","null","","","null","87","","NaN","","","","","","","","","","","","","",""
"","response","","html-keyboard-response","568","458088","0.0-1.0-788.0-0.0","0","0","59068","","484","","","68","87","","","2","87","training","adjacent","EF","5","6","N.jpg","R.jpg","1","1","1","",""
"","feedback","","html-keyboard-response","569","459100","0.0-1.0-789.0-0.0","0","0","59068","","null","","","null","87","","","","","","","","","","","","","","","",""
"","ITI","","html-keyboard-response","570","460108","0.0-1.0-792.0","0","0","59068","","null","","","null","87","","","","","","","","","","","","","","","NaN",""
"","S1","","html-keyboard-response","571","460365","0.0-1.0-794.0","0","0","59068","","null","","","null","88","","","","","","","","","","","","","","","",""
"","ISI","","html-keyboard-response","572","460522","0.0-1.0-795.0","0","0","59068","","null","","","null","88","NaN","","","","","","","","","","","","","","",""
"","S2","","html-keyboard-response","573","460778","0.0-1.0-796.0","0","0","59068","","null","","","null","88","","NaN","","","","","","","","","","","","","",""
"","response","","html-keyboard-response","574","461744","0.0-1.0-797.0-0.0","0","0","59068","","965","","","75","88","","","2","88","training","adjacent","CD","3","4","O.jpg","L.jpg","0","1","0","",""
"","feedback","","html-keyboard-response","575","462757","0.0-1.0-798.0-0.0","0","0","59068","","null","","","null","88","","","","","","","","","","","","","","","",""
"","time_out","","html-keyboard-response","576","464764","0.0-1.0-800.0-0.0","0","0","59068","","null","","","null","88","","","","","","","","","","","","","","","",""
"","ITI","","html-keyboard-response","577","465770","0.0-1.0-801.0","0","0","59068","","null","","","null","88","","","","","","","","","","","","","","","NaN",""
"","S1","","html-keyboard-response","578","466025","0.0-1.0-803.0","0","0","59068","","null","","","null","89","","","","","","","","","","","","","","","",""
"","ISI","","html-keyboard-response","579","466188","0.0-1.0-804.0","0","0","59068","","null","","","null","89","NaN","","","","","","","","","","","","","","",""
"","S2","","html-keyboard-response","580","466443","0.0-1.0-805.0","0","0","59068","","null","","","null","89","","NaN","","","","","","","","","","","","","",""
"","response","","html-keyboard-response","581","467784","0.0-1.0-806.0-0.0","0","0","59068","","1338","","","68","89","","","2","89","training","adjacent","DE","4","5","L.jpg","N.jpg","1","1","1","",""
"","feedback","","html-keyboard-response","582","468794","0.0-1.0-807.0-0.0","0","0","59068","","null","","","null","89","","","","","","","","","","","","","","","",""
