"success","ttype","start_time","trial_type","trial_index","time_elapsed","internal_node_id","warning","missed_checkup","PID","view_history","rt","responses","repeat_instructions","key_press","index","keypress_isi","keypress_S2","block","trial_num","phase","group_type","pair_type","S1_stim","S2_stim","S1_img","S2_img","S1_chosen","S1_higher","accuracy","keypress_iti","total_bonus_tally"
"true","full_screen","d03072023hr2008","fullscreen","0","50151","0.0-0.0","0","0","35209","","","","","","","","","","","","","","","","","","","","","",""
"","instructions","","instructions","1","70818","0.0-1.0-0.0-0.0","0","0","35209","[{""page_index"":0,""viewing_time"":3230},{""page_index"":1,""viewing_time"":10599},{""page_index"":2,""viewing_time"":4994},{""page_index"":3,""viewing_time"":1838}]","20662","","","","","","","","","","","","","","","","","","","",""
"","comprehension_check","","survey-multi-choice","2","89495","0.0-1.0-0.0-1.0","0","0","35209","","18668","{""Q0"":""True"",""Q1"":""D"",""Q2"":""Only when the screen 'MAKE A CHOICE' is shown"",""Q3"":""Green mark"",""Q4"":""either D or K""}","1","","","","","","","","","","","","","","","","","",""
"","missed_instruction_checkup","","html-keyboard-response","3","91193","0.0-1.0-0.0-2.0-0.0","0","1","35209","","1691","","","32","","","","","","","","","","","","","","","","",""
"","instructions","","instructions","4","105418","0.0-1.0-0.1-0.1","0","0","35209","[{""page_index"":0,""viewing_time"":1783},{""page_index"":1,""viewing_time"":10639},{""page_index"":2,""viewing_time"":869},{""page_index"":3,""viewing_time"":929}]","14221","","","","","","","","","","","","","","","","","","","",""
"","comprehension_check","","survey-multi-choice","5","124356","0.0-1.0-0.1-1.1","0","0","35209","","18929","{""Q0"":""True"",""Q1"":""D"",""Q2"":""Once the second image appears and while the screen 'MAKE A CHOICE' is shown"",""Q3"":""Green mark"",""Q4"":""either D or K""}","1","","","","","","","","","","","","","","","","","",""
"","missed_instruction_checkup","","html-keyboard-response","6","125623","0.0-1.0-0.1-2.1-0.1","0","1","35209","","1262","","","32","","","","","","","","","","","","","","","","",""
"","instructions","","instructions","7","153218","0.0-1.0-0.2-0.2","0","0","35209","[{""page_index"":0,""viewing_time"":8774},{""page_index"":1,""viewing_time"":17413},{""page_index"":2,""viewing_time"":375},{""page_index"":3,""viewing_time"":1030}]","27592","","","","","","","","","","","","","","","","","","","",""
"","comprehension_check","","survey-multi-choice","8","162044","0.0-1.0-0.2-1.2","0","0","35209","","8816","{""Q0"":""True"",""Q1"":""K"",""Q2"":""Once the second image appears and while the screen 'MAKE A CHOICE' is shown"",""Q3"":""Green mark"",""Q4"":""either D or K""}","0","","","","","","","","","","","","","","","","","",""
"","start_exp","","html-keyboard-response","9","465514","0.0-1.0-1.0","0","0","35209","","303464","","","32","","","","","","","","","","","","","","","","",""
"","S1","","html-keyboard-response","10","465776","0.0-1.0-2.0","0","0","35209","","null","","","null","0","","","","","","","","","","","","","","","",""
"","ISI","","html-keyboard-response","11","466783","0.0-1.0-3.0","0","0","35209","","null","","","null","0","NaN","","","","","","","","","","","","","","",""
"","S2","","html-keyboard-response","12","467040","0.0-1.0-4.0","0","0","35209","","null","","","null","0","","NaN","","","","","","","","","","","","","",""
"","response","","html-keyboard-response","13","467548","0.0-1.0-5.0-0.0","0","0","35209","","504","","","75","0","","","1","0","training","adjacent","ED","5","4","O.jpg","L.jpg","1","0","0","",""
"","feedback","","html-keyboard-response","14","468560","0.0-1.0-6.0-0.0","0","0","35209","","null","","","null","0","","","","","","","","","","","","","","","",""
"","time_out","","html-keyboard-response","15","470567","0.0-1.0-8.0-0.0","0","0","35209","","null","","","null","0","","","","","","","","","","","","","","","",""
"","ITI","","html-keyboard-response","16","471575","0.0-1.0-9.0","0","0","35209","","null","","","null","0","","","","","","","","","","","","","","","NaN",""
"","S1","","html-keyboard-response","17","471831","0.0-1.0-11.0","0","0","35209","","null","","","null","1","","","","","","","","","","","","","","","",""
"","ISI","","html-keyboard-response","18","472839","0.0-1.0-12.0","0","0","35209","","null","","","null","1","NaN","","","","","","","","","","","","","","",""
"","S2","","html-keyboard-response","19","473095","0.0-1.0-13.0","0","0","35209","","null","","","null","1","","NaN","","","","","","","","","","","","","",""
"","response","","html-keyboard-response","20","473820","0.0-1.0-14.0-0.0","0","0","35209","","719","","","68","1","","","1","1","training","adjacent","FE","6","5","P.jpg","O.jpg","0","0","1","",""
"","feedback","","html-keyboard-response","21","474831","0.0-1.0-15.0-0.0","0","0","35209","","null","","","null","1","","","","","","","","","","","","","","","",""
"","ITI","","html-keyboard-response","22","475839","0.0-1.0-18.0","0","0","35209","","null","","","null","1","","","","","","","","","","","","","","","NaN",""
"","S1","","html-keyboard-response","23","476095","0.0-1.0-20.0","0","0","35209","","null","","","null","2","","","","","","","","","","","","","","","",""
"","ISI","","html-keyboard-response","24","477104","0.0-1.0-21.0","0","0","35209","","null","","","null","2","NaN","","","","","","","","","","","","","","",""
"","S2","","html-keyboard-response","25","477360","0.0-1.0-22.0","0","0","35209","","null","","","null","2","","NaN","","","","","","","","","","","","","",""
"","response","","html-keyboard-response","26","477833","0.0-1.0-23.0-0.0","0","0","35209","","470","","","68","2","","","1","2","training","adjacent","CD","3","4","Q.jpg","L.jpg","0","1","0","",""
"","feedback","","html-keyboard-response","27","478839","0.0-1.0-24.0-0.0","0","0","35209","","null","","","null","2","","","","","","","","","","","","","","","",""
"","time_out","","html-keyboard-response","28","480847","0.0-1.0-26.0-0.0","0","0","35209","","null","","","null","2","","","","","","","","","","","","","","","",""
"","ITI","","html-keyboard-response","29","481855","0.0-1.0-27.0","0","0","35209","","null","","","null","2","","","","","","","","","","","","","","","NaN",""
"","S1","","html-keyboard-response","30","482111","0.0-1.0-29.0","0","0","35209","","null","","","null","3","","","","","","","","","","","","","","","",""
"","ISI","","html-keyboard-response","31","483120","0.0-1.0-30.0","0","0","35209","","null","","","null","3","NaN","","","","","","","","","","","","","","",""
"","S2","","html-keyboard-response","32","483377","0.0-1.0-31.0","0","0","35209","","null","","","null","3","","NaN","","","","","","","","","","","","","",""
"","response","","html-keyboard-response","33","483753","0.0-1.0-32.0-0.0","0","0","35209","","370","","","75","3","","","1","3","training","adjacent","DC","4","3","L.jpg","Q.jpg","1","0","0","",""
"","feedback","","html-keyboard-response","34","484760","0.0-1.0-33.0-0.0","0","0","35209","","null","","","null","3","","","","","","","","","","","","","","","",""
"","time_out","","html-keyboard-response","35","486768","0.0-1.0-35.0-0.0","0","0","35209","","null","","","null","3","","","","","","","","","","","","","","","",""
"","ITI","","html-keyboard-response","36","487775","0.0-1.0-36.0","0","0","35209","","null","","","null","3","","","","","","","","","","","","","","","NaN",""
"","S1","","html-keyboard-response","37","488031","0.0-1.0-38.0","0","0","35209","","null","","","null","4","","","","","","","","","","","","","","","",""
"","ISI","","html-keyboard-response","38","489040","0.0-1.0-39.0","0","0","35209","","null","","","null","4","NaN","","","","","","","","","","","","","","",""
"","S2","","html-keyboard-response","39","489296","0.0-1.0-40.0","0","0","35209","","null","","","null","4","","NaN","","","","","","","","","","","","","",""
"","response","","html-keyboard-response","40","489711","0.0-1.0-41.0-0.0","0","0","35209","","409","","","75","4","","","1","4","training","adjacent","BC","2","3","R.jpg","Q.jpg","1","1","1","",""
"","feedback","","html-keyboard-response","41","490720","0.0-1.0-42.0-0.0","0","0","35209","","null","","","null","4","","","","","","","","","","","","","","","",""
"","ITI","","html-keyboard-response","42","491728","0.0-1.0-45.0","0","0","35209","","null","","","null","4","","","","","","","","","","","","","","","NaN",""
"","S1","","html-keyboard-response","43","491984","0.0-1.0-47.0","0","0","35209","","null","","","null","5","","","","","","","","","","","","","","","",""
"","ISI","","html-keyboard-response","44","492991","0.0-1.0-48.0","0","0","35209","","null","","","null","5","NaN","","","","","","","","","","","","","","",""
"","S2","","html-keyboard-response","45","493247","0.0-1.0-49.0","0","0","35209","","null","","","null","5","","NaN","","","","","","","","","","","","","",""
"","response","","html-keyboard-response","46","493615","0.0-1.0-50.0-0.0","0","0","35209","","363","","","68","5","","","1","5","training","adjacent","ED","5","4","O.jpg","L.jpg","0","0","1","",""
"","feedback","","html-keyboard-response","47","494623","0.0-1.0-51.0-0.0","0","0","35209","","null","","","null","5","","","","","","","","","","","","","","","",""
"","ITI","","html-keyboard-response","48","495632","0.0-1.0-54.0","0","0","35209","","null","","","null","5","","","","","","","","","","","","","","","NaN",""
"","S1","","html-keyboard-response","49","495891","0.0-1.0-56.0","0","0","35209","","null","","","null","6","","","","","","","","","","","","","","","",""
"","ISI","","html-keyboard-response","50","496903","0.0-1.0-57.0","0","0","35209","","null","","","null","6","NaN","","","","","","","","","","","","","","",""
"","S2","","html-keyboard-response","51","497165","0.0-1.0-58.0","0","0","35209","","null","","","null","6","","NaN","","","","","","","","","","","","","",""
"","response","","html-keyboard-response","52","497225","0.0-1.0-59.0-0.0","0","0","35209","","54","","","75","6","","","1","6","training","adjacent","CB","3","2","Q.jpg","R.jpg","1","0","0","",""
"","feedback","","html-keyboard-response","53","498231","0.0-1.0-60.0-0.0","0","0","35209","","null","","","null","6","","","","","","","","","","","","","","","",""
"","time_out","","html-keyboard-response","54","500239","0.0-1.0-62.0-0.0","0","0","35209","","null","","","null","6","","","","","","","","","","","","","","","",""
"","ITI","","html-keyboard-response","55","501247","0.0-1.0-63.0","0","0","35209","","null","","","null","6","","","","","","","","","","","","","","","NaN",""
"","S1","","html-keyboard-response","56","501503","0.0-1.0-65.0","0","0","35209","","null","","","null","7","","","","","","","","","","","","","","","",""
"","ISI","","html-keyboard-response","57","502512","0.0-1.0-66.0","0","0","35209","","193","","","68","7","d","","","","","","","","","","","","","","",""
"","S2","","html-keyboard-response","58","502775","0.0-1.0-67.0","0","0","35209","","null","","","null","7","","NaN","","","","","","","","","","","","","",""
"","response","","html-keyboard-response","59","503088","0.0-1.0-68.0-0.0","0","0","35209","","309","","","68","7","","","1","7","training","adjacent","EF","5","6","O.jpg","P.jpg","0","1","0","",""
"","feedback","","html-keyboard-response","60","504095","0.0-1.0-69.0-0.0","0","0","35209","","null","","","null","7","","","","","","","","","","","","","","","",""
"","time_out","","html-keyboard-response","61","506103","0.0-1.0-71.0-0.0","0","0","35209","","null","","","null","7","","","","","","","","","","","","","","","",""
"","ITI","","html-keyboard-response","62","507112","0.0-1.0-72.0","0","0","35209","","null","","","null","7","","","","","","","","","","","","","","","NaN",""
"","S1","","html-keyboard-response","63","507367","0.0-1.0-74.0","0","0","35209","","null","","","null","8","","","","","","","","","","","","","","","",""
"","ISI","","html-keyboard-response","64","508375","0.0-1.0-75.0","0","0","35209","","194","","","68","8","d","","","","","","","","","","","","","","",""
"","S2","","html-keyboard-response","65","508632","0.0-1.0-76.0","0","0","35209","","null","","","null","8","","NaN","","","","","","","","","","","","","",""
"","response","","html-keyboard-response","66","509275","0.0-1.0-77.0-0.0","0","0","35209","","637","","","68","8","","","1","8","training","adjacent","GF","7","6","N.jpg","P.jpg","0","0","1","",""
"","feedback","","html-keyboard-response","67","510287","0.0-1.0-78.0-0.0","0","0","35209","","null","","","null","8","","","","","","","","","","","","","","","",""
"","ITI","","html-keyboard-response","68","511295","0.0-1.0-81.0","0","0","35209","","null","","","null","8","","","","","","","","","","","","","","","NaN",""
"","S1","","html-keyboard-response","69","511552","0.0-1.0-83.0","0","0","35209","","null","","","null","9","","","","","","","","","","","","","","","",""
"","ISI","","html-keyboard-response","70","512560","0.0-1.0-84.0","0","0","35209","","null","","","null","9","NaN","","","","","","","","","","","","","","",""
"","S2","","html-keyboard-response","71","512816","0.0-1.0-85.0","0","0","35209","","null","","","null","9","","NaN","","","","","","","","","","","","","",""
"","response","","html-keyboard-response","72","513197","0.0-1.0-86.0-0.0","0","0","35209","","377","","","75","9","","","1","9","training","adjacent","BA","2","1","R.jpg","M.jpg","1","0","0","",""
"","feedback","","html-keyboard-response","73","514207","0.0-1.0-87.0-0.0","0","0","35209","","null","","","null","9","","","","","","","","","","","","","","","",""
"","time_out","","html-keyboard-response","74","516215","0.0-1.0-89.0-0.0","0","0","35209","","null","","","null","9","","","","","","","","","","","","","","","",""
"","ITI","","html-keyboard-response","75","517224","0.0-1.0-90.0","0","0","35209","","null","","","null","9","","","","","","","","","","","","","","","NaN",""
"","S1","","html-keyboard-response","76","517479","0.0-1.0-92.0","0","0","35209","","null","","","null","10","","","","","","","","","","","","","","","",""
"","ISI","","html-keyboard-response","77","518487","0.0-1.0-93.0","0","0","35209","","null","","","null","10","NaN","","","","","","","","","","","","","","",""
"","S2","","html-keyboard-response","78","518743","0.0-1.0-94.0","0","0","35209","","null","","","null","10","","NaN","","","","","","","","","","","","","",""
"","response","","html-keyboard-response","79","519625","0.0-1.0-95.0-0.0","0","0","35209","","878","","","68","10","","","1","10","training","adjacent","BC","2","3","R.jpg","Q.jpg","0","1","0","",""
"","feedback","","html-keyboard-response","80","520632","0.0-1.0-96.0-0.0","0","0","35209","","null","","","null","10","","","","","","","","","","","","","","","",""
"","time_out","","html-keyboard-response","81","522640","0.0-1.0-98.0-0.0","0","0","35209","","null","","","null","10","","","","","","","","","","","","","","","",""
"","ITI","","html-keyboard-response","82","523647","0.0-1.0-99.0","0","0","35209","","null","","","null","10","","","","","","","","","","","","","","","NaN",""
"","S1","","html-keyboard-response","83","523903","0.0-1.0-101.0","0","0","35209","","null","","","null","11","","","","","","","","","","","","","","","",""
"","ISI","","html-keyboard-response","84","524912","0.0-1.0-102.0","0","0","35209","","null","","","null","11","NaN","","","","","","","","","","","","","","",""
"","S2","","html-keyboard-response","85","525168","0.0-1.0-103.0","0","0","35209","","null","","","null","11","","NaN","","","","","","","","","","","","","",""
"","response","","html-keyboard-response","86","525661","0.0-1.0-104.0-0.0","0","0","35209","","489","","","75","11","","","1","11","training","adjacent","FG","6","7","P.jpg","N.jpg","1","1","1","",""
"","feedback","","html-keyboard-response","87","526671","0.0-1.0-105.0-0.0","0","0","35209","","null","","","null","11","","","","","","","","","","","","","","","",""
"","ITI","","html-keyboard-response","88","527680","0.0-1.0-108.0","0","0","35209","","null","","","null","11","","","","","","","","","","","","","","","NaN",""
"","S1","","html-keyboard-response","89","527935","0.0-1.0-110.0","0","0","35209","","null","","","null","12","","","","","","","","","","","","","","","",""
"","ISI","","html-keyboard-response","90","528944","0.0-1.0-111.0","0","0","35209","","null","","","null","12","NaN","","","","","","","","","","","","","","",""
"","S2","","html-keyboard-response","91","529200","0.0-1.0-112.0","0","0","35209","","null","","","null","12","","NaN","","","","","","","","","","","","","",""
"","response","","html-keyboard-response","92","530373","0.0-1.0-113.0-0.0","0","0","35209","","1169","","","68","12","","","1","12","training","adjacent","CD","3","4","Q.jpg","L.jpg","0","1","0","",""
"","feedback","","html-keyboard-response","93","531383","0.0-1.0-114.0-0.0","0","0","35209","","null","","","null","12","","","","","","","","","","","","","","","",""
"","time_out","","html-keyboard-response","94","533392","0.0-1.0-116.0-0.0","0","0","35209","","null","","","null","12","","","","","","","","","","","","","","","",""
"","ITI","","html-keyboard-response","95","534400","0.0-1.0-117.0","0","0","35209","","null","","","null","12","","","","","","","","","","","","","","","NaN",""
"","S1","","html-keyboard-response","96","534655","0.0-1.0-119.0","0","0","35209","","null","","","null","13","","","","","","","","","","","","","","","",""
"","ISI","","html-keyboard-response","97","535664","0.0-1.0-120.0","0","0","35209","","null","","","null","13","NaN","","","","","","","","","","","","","","",""
"","S2","","html-keyboard-response","98","535919","0.0-1.0-121.0","0","0","35209","","null","","","null","13","","NaN","","","","","","","","","","","","","",""
"","response","","html-keyboard-response","99","536806","0.0-1.0-122.0-0.0","0","0","35209","","882","","","75","13","","","1","13","training","adjacent","EF","5","6","O.jpg","P.jpg","1","1","1","",""
"","feedback","","html-keyboard-response","100","537815","0.0-1.0-123.0-0.0","0","0","35209","","null","","","null","13","","","","","","","","","","","","","","","",""
"","ITI","","html-keyboard-response","101","538823","0.0-1.0-126.0","0","0","35209","","null","","","null","13","","","","","","","","","","","","","","","NaN",""
"","S1","","html-keyboard-response","102","539080","0.0-1.0-128.0","0","0","35209","","null","","","null","14","","","","","","","","","","","","","","","",""
"","ISI","","html-keyboard-response","103","540087","0.0-1.0-129.0","0","0","35209","","null","","","null","14","NaN","","","","","","","","","","","","","","",""
"","S2","","html-keyboard-response","104","540343","0.0-1.0-130.0","0","0","35209","","null","","","null","14","","NaN","","","","","","","","","","","","","",""
"","response","","html-keyboard-response","105","541167","0.0-1.0-131.0-0.0","0","0","35209","","819","","","68","14","","","1","14","training","adjacent","EF","5","6","O.jpg","P.jpg","0","1","0","",""
"","feedback","","html-keyboard-response","106","542175","0.0-1.0-132.0-0.0","0","0","35209","","null","","","null","14","","","","","","","","","","","","","","","",""
"","time_out","","html-keyboard-response","107","544185","0.0-1.0-134.0-0.0","0","0","35209","","null","","","null","14","","","","","","","","","","","","","","","",""
"","ITI","","html-keyboard-response","108","545192","0.0-1.0-135.0","0","0","35209","","null","","","null","14","","","","","","","","","","","","","","","NaN",""
"","S1","","html-keyboard-response","109","545450","0.0-1.0-137.0","0","0","35209","","null","","","null","15","","","","","","","","","","","","","","","",""
"","ISI","","html-keyboard-response","110","546455","0.0-1.0-138.0","0","0","35209","","null","","","null","15","NaN","","","","","","","","","","","","","","",""
"","S2","","html-keyboard-response","111","546711","0.0-1.0-139.0","0","0","35209","","null","","","null","15","","NaN","","","","","","","","","","","","","",""
"","response","","html-keyboard-response","112","547065","0.0-1.0-140.0-0.0","0","0","35209","","350","","","75","15","","","1","15","training","adjacent","GF","7","6","N.jpg","P.jpg","1","0","0","",""
"","feedback","","html-keyboard-response","113","548071","0.0-1.0-141.0-0.0","0","0","35209","","null","","","null","15","","","","","","","","","","","","","","","",""
"","time_out","","html-keyboard-response","114","550080","0.0-1.0-143.0-0.0","0","0","35209","","null","","","null","15","","","","","","","","","","","","","","","",""
"","ITI","","html-keyboard-response","115","551087","0.0-1.0-144.0","0","0","35209","","null","","","null","15","","","","","","","","","","","","","","","NaN",""
"","S1","","html-keyboard-response","116","551344","0.0-1.0-146.0","0","0","35209","","null","","","null","16","","","","","","","","","","","","","","","",""
"","ISI","","html-keyboard-response","117","552351","0.0-1.0-147.0","0","0","35209","","null","","","null","16","NaN","","","","","","","","","","","","","","",""
"","S2","","html-keyboard-response","118","552581","0.0-1.0-148.0","0","0","35209","","225","","","68","16","","d","1","16","training","adjacent","CD","3","4","Q.jpg","L.jpg","0","1","0","",""
"","feedback","","html-keyboard-response","119","553591","0.0-1.0-150.0-0.0","0","0","35209","","null","","","null","16","","","","","","","","","","","","","","","",""
"","time_out","","html-keyboard-response","120","555600","0.0-1.0-152.0-0.0","0","0","35209","","null","","","null","16","","","","","","","","","","","","","","","",""
"","ITI","","html-keyboard-response","121","556607","0.0-1.0-153.0","0","0","35209","","null","","","null","16","","","","","","","","","","","","","","","NaN",""
"","S1","","html-keyboard-response","122","556863","0.0-1.0-155.0","0","0","35209","","null","","","null","17","","","","","","","","","","","","","","","",""
"","ISI","","html-keyboard-response","123","557872","0.0-1.0-156.0","0","0","35209","","null","","","null","17","NaN","","","","","","","","","","","","","","",""
"","S2","","html-keyboard-response","124","558127","0.0-1.0-157.0","0","0","35209","","null","","","null","17","","NaN","","","","","","","","","","","","","",""
"","response","","html-keyboard-response","125","558382","0.0-1.0-158.0-0.0","0","0","35209","","249","","","68","17","","","1","17","training","adjacent","DC","4","3","L.jpg","Q.jpg","0","0","1","",""
"","feedback","","html-keyboard-response","126","559391","0.0-1.0-159.0-0.0","0","0","35209","","null","","","null","17","","","","","","","","","","","","","","","",""
"","ITI","","html-keyboard-response","127","560400","0.0-1.0-162.0","0","0","35209","","null","","","null","17","","","","","","","","","","","","","","","NaN",""
"","S1","","html-keyboard-response","128","560656","0.0-1.0-164.0","0","0","35209","","null","","","null","18","","","","","","","","","","","","","","","",""
"","ISI","","html-keyboard-response","129","561663","0.0-1.0-165.0","0","0","35209","","null","","","null","18","NaN","","","","","","","","","","","","","","",""
"","S2","","html-keyboard-response","130","561916","0.0-1.0-166.0","0","0","35209","","250","","","75","18","","k","1","18","training","adjacent","CB","3","2","Q.jpg","R.jpg","1","0","0","",""
"","feedback","","html-keyboard-response","131","562928","0.0-1.0-168.0-0.0","0","0","35209","","null","","","null","18","","","","","","","","","","","","","","","",""
"","time_out","","html-keyboard-response","132","564935","0.0-1.0-170.0-0.0","0","0","35209","","null","","","null","18","","","","","","","","","","","","","","","",""
"","ITI","","html-keyboard-response","133","565943","0.0-1.0-171.0","0","0","35209","","null","","","null","18","","","","","","","","","","","","","","","NaN",""
"","S1","","html-keyboard-response","134","566199","0.0-1.0-173.0","0","0","35209","","null","","","null","19","","","","","","","","","","","","","","","",""
"","ISI","","html-keyboard-response","135","567207","0.0-1.0-174.0","0","0","35209","","null","","","null","19","NaN","","","","","","","","","","","","","","",""
"","S2","","html-keyboard-response","136","567463","0.0-1.0-175.0","0","0","35209","","250","","","75","19","","k","1","19","training","adjacent","EF","5","6","O.jpg","P.jpg","1","1","1","",""
"","feedback","","html-keyboard-response","137","568471","0.0-1.0-177.0-0.0","0","0","35209","","null","","","null","19","","","","","","","","","","","","","","","",""
"","ITI","","html-keyboard-response","138","569479","0.0-1.0-180.0","0","0","35209","","null","","","null","19","","","","","","","","","","","","","","","NaN",""
"","S1","","html-keyboard-response","139","569736","0.0-1.0-182.0","0","0","35209","","null","","","null","20","","","","","","","","","","","","","","","",""
"","ISI","","html-keyboard-response","140","570745","0.0-1.0-183.0","0","0","35209","","null","","","null","20","NaN","","","","","","","","","","","","","","",""
"","S2","","html-keyboard-response","141","571008","0.0-1.0-184.0","0","0","35209","","null","","","null","20","","NaN","","","","","","","","","","","","","",""
"","response","","html-keyboard-response","142","571076","0.0-1.0-185.0-0.0","0","0","35209","","64","","","75","20","","","1","20","training","adjacent","FG","6","7","P.jpg","N.jpg","1","1","1","",""
"","feedback","","html-keyboard-response","143","572087","0.0-1.0-186.0-0.0","0","0","35209","","null","","","null","20","","","","","","","","","","","","","","","",""
"","ITI","","html-keyboard-response","144","573097","0.0-1.0-189.0","0","0","35209","","null","","","null","20","","","","","","","","","","","","","","","NaN",""
"","S1","","html-keyboard-response","145","573359","0.0-1.0-191.0","0","0","35209","","null","","","null","21","","","","","","","","","","","","","","","",""
"","ISI","","html-keyboard-response","146","574367","0.0-1.0-192.0","0","0","35209","","886","","","68","21","d","","","","","","","","","","","","","","",""
"","S2","","html-keyboard-response","147","574623","0.0-1.0-193.0","0","0","35209","","null","","","null","21","","NaN","","","","","","","","","","","","","",""
"","response","","html-keyboard-response","148","574631","0.0-1.0-194.0-0.0","0","0","35209","","4","","","68","21","","","1","21","training","adjacent","CD","3","4","Q.jpg","L.jpg","0","1","0","",""
"","feedback","","html-keyboard-response","149","575640","0.0-1.0-195.0-0.0","0","0","35209","","null","","","null","21","","","","","","","","","","","","","","","",""
"","time_out","","html-keyboard-response","150","577648","0.0-1.0-197.0-0.0","0","0","35209","","null","","","null","21","","","","","","","","","","","","","","","",""
"","ITI","","html-keyboard-response","151","578655","0.0-1.0-198.0","0","0","35209","","null","","","null","21","","","","","","","","","","","","","","","NaN",""
"","S1","","html-keyboard-response","152","578911","0.0-1.0-200.0","0","0","35209","","null","","","null","22","","","","","","","","","","","","","","","",""
"","ISI","","html-keyboard-response","153","579920","0.0-1.0-201.0","0","0","35209","","938","","","75","22","k","","","","","","","","","","","","","","",""
"","S2","","html-keyboard-response","154","580176","0.0-1.0-202.0","0","0","35209","","null","","","null","22","","NaN","","","","","","","","","","","","","",""
"","response","","html-keyboard-response","155","581036","0.0-1.0-203.0-0.0","0","0","35209","","856","","","75","22","","","1","22","training","adjacent","DE","4","5","L.jpg","O.jpg","1","1","1","",""
"","feedback","","html-keyboard-response","156","582047","0.0-1.0-204.0-0.0","0","0","35209","","null","","","null","22","","","","","","","","","","","","","","","",""
"","ITI","","html-keyboard-response","157","583055","0.0-1.0-207.0","0","0","35209","","null","","","null","22","","","","","","","","","","","","","","","NaN",""
"","S1","","html-keyboard-response","158","583311","0.0-1.0-209.0","0","0","35209","","null","","","null","23","","","","","","","","","","","","","","","",""
"","ISI","","html-keyboard-response","159","584320","0.0-1.0-210.0","0","0","35209","","null","","","null","23","NaN","","","","","","","","","","","","","","",""
"","S2","","html-keyboard-response","160","584412","0.0-1.0-211.0","0","0","35209","","88","","","68","23","","d","1","23","training","adjacent","AB","1","2","M.jpg","R.jpg","0","1","0","",""
"","feedback","","html-keyboard-response","161","585423","0.0-1.0-213.0-0.0","0","0","35209","","null","","","null","23","","","","","","","","","","","","","","","",""
"","time_out","","html-keyboard-response","162","587431","0.0-1.0-215.0-0.0","0","0","35209","","null","","","null","23","","","","","","","","","","","","","","","",""
"","ITI","","html-keyboard-response","163","588440","0.0-1.0-216.0","0","0","35209","","null","","","null","23","","","","","","","","","","","","","","","NaN",""
"","S1","","html-keyboard-response","164","588695","0.0-1.0-218.0","0","0","35209","","null","","","null","24","","","","","","","","","","","","","","","",""
"","ISI","","html-keyboard-response","165","589703","0.0-1.0-219.0","0","0","35209","","null","","","null","24","NaN","","","","","","","","","","","","","","",""
"","S2","","html-keyboard-response","166","589936","0.0-1.0-220.0","0","0","35209","","228","","","68","24","","d","1","24","training","adjacent","FG","6","7","P.jpg","N.jpg","0","1","0","",""
"","feedback","","html-keyboard-response","167","590943","0.0-1.0-222.0-0.0","0","0","35209","","null","","","null","24","","","","","","","","","","","","","","","",""
"","time_out","","html-keyboard-response","168","592951","0.0-1.0-224.0-0.0","0","0","35209","","null","","","null","24","","","","","","","","","","","","","","","",""
"","ITI","","html-keyboard-response","169","593960","0.0-1.0-225.0","0","0","35209","","null","","","null","24","","","","","","","","","","","","","","","NaN",""
"","S1","","html-keyboard-response","170","594215","0.0-1.0-227.0","0","0","35209","","null","","","null","25","","","","","","","","","","","","","","","",""
"","ISI","","html-keyboard-response","171","595223","0.0-1.0-228.0","0","0","35209","","null","","","null","25","NaN","","","","","","","","","","","","","","",""
"","S2","","html-keyboard-response","172","595364","0.0-1.0-229.0","0","0","35209","","136","","","68","25","","d","1","25","training","adjacent","DE","4","5","L.jpg","O.jpg","0","1","0","",""
"","feedback","","html-keyboard-response","173","596376","0.0-1.0-231.0-0.0","0","0","35209","","null","","","null","25","","","","","","","","","","","","","","","",""
"","time_out","","html-keyboard-response","174","598383","0.0-1.0-233.0-0.0","0","0","35209","","null","","","null","25","","","","","","","","","","","","","","","",""
"","ITI","","html-keyboard-response","175","599391","0.0-1.0-234.0","0","0","35209","","null","","","null","25","","","","","","","","","","","","","","","NaN",""
"","S1","","html-keyboard-response","176","599647","0.0-1.0-236.0","0","0","35209","","null","","","null","26","","","","","","","","","","","","","","","",""
"","ISI","","html-keyboard-response","177","600655","0.0-1.0-237.0","0","0","35209","","null","","","null","26","NaN","","","","","","","","","","","","","","",""
"","S2","","html-keyboard-response","178","600911","0.0-1.0-238.0","0","0","35209","","null","","","null","26","","NaN","","","","","","","","","","","","","",""
"","response","","html-keyboard-response","179","601656","0.0-1.0-239.0-0.0","0","0","35209","","740","","","68","26","","","1","26","training","adjacent","ED","5","4","O.jpg","L.jpg","0","0","1","",""
"","feedback","","html-keyboard-response","180","602663","0.0-1.0-240.0-0.0","0","0","35209","","null","","","null","26","","","","","","","","","","","","","","","",""
"","ITI","","html-keyboard-response","181","603672","0.0-1.0-243.0","0","0","35209","","null","","","null","26","","","","","","","","","","","","","","","NaN",""
"","S1","","html-keyboard-response","182","603927","0.0-1.0-245.0","0","0","35209","","null","","","null","27","","","","","","","","","","","","","","","",""
"","ISI","","html-keyboard-response","183","604935","0.0-1.0-246.0","0","0","35209","","null","","","null","27","NaN","","","","","","","","","","","","","","",""
"","S2","","html-keyboard-response","184","605191","0.0-1.0-247.0","0","0","35209","","null","","","null","27","","NaN","","","","","","","","","","","","","",""
"","response","","html-keyboard-response","185","605810","0.0-1.0-248.0-0.0","0","0","35209","","615","","","75","27","","","1","27","training","adjacent","CB","3","2","Q.jpg","R.jpg","1","0","0","",""
"","feedback","","html-keyboard-response","186","606815","0.0-1.0-249.0-0.0","0","0","35209","","null","","","null","27","","","","","","","","","","","","","","","",""
"","time_out","","html-keyboard-response","187","608823","0.0-1.0-251.0-0.0","0","0","35209","","null","","","null","27","","","","","","","","","","","","","","","",""
"","ITI","","html-keyboard-response","188","609831","0.0-1.0-252.0","0","0","35209","","null","","","null","27","","","","","","","","","","","","","","","NaN",""
"","S1","","html-keyboard-response","189","610087","0.0-1.0-254.0","0","0","35209","","null","","","null","28","","","","","","","","","","","","","","","",""
"","ISI","","html-keyboard-response","190","611095","0.0-1.0-255.0","0","0","35209","","null","","","null","28","NaN","","","","","","","","","","","","","","",""
"","S2","","html-keyboard-response","191","611351","0.0-1.0-256.0","0","0","35209","","null","","","null","28","","NaN","","","","","","","","","","","","","",""
"","response","","html-keyboard-response","192","611819","0.0-1.0-257.0-0.0","0","0","35209","","463","","","68","28","","","1","28","training","adjacent","GF","7","6","N.jpg","P.jpg","0","0","1","",""
"","feedback","","html-keyboard-response","193","612831","0.0-1.0-258.0-0.0","0","0","35209","","null","","","null","28","","","","","","","","","","","","","","","",""
"","ITI","","html-keyboard-response","194","613840","0.0-1.0-261.0","0","0","35209","","null","","","null","28","","","","","","","","","","","","","","","NaN",""
"","S1","","html-keyboard-response","195","614095","0.0-1.0-263.0","0","0","35209","","null","","","null","29","","","","","","","","","","","","","","","",""
"","ISI","","html-keyboard-response","196","615103","0.0-1.0-264.0","0","0","35209","","null","","","null","29","NaN","","","","","","","","","","","","","","",""
"","S2","","html-keyboard-response","197","615359","0.0-1.0-265.0","0","0","35209","","null","","","null","29","","NaN","","","","","","","","","","","","","",""
"","response","","html-keyboard-response","198","615643","0.0-1.0-266.0-0.0","0","0","35209","","280","","","75","29","","","1","29","training","adjacent","AB","1","2","M.jpg","R.jpg","1","1","1","",""
"","feedback","","html-keyboard-response","199","616655","0.0-1.0-267.0-0.0","0","0","35209","","null","","","null","29","","","","","","","","","","","","","","","",""
"","ITI","","html-keyboard-response","200","617663","0.0-1.0-270.0","0","0","35209","","null","","","null","29","","","","","","","","","","","","","","","NaN",""
"","S1","","html-keyboard-response","201","617920","0.0-1.0-272.0","0","0","35209","","null","","","null","30","","","","","","","","","","","","","","","",""
"","ISI","","html-keyboard-response","202","618928","0.0-1.0-273.0","0","0","35209","","null","","","null","30","NaN","","","","","","","","","","","","","","",""
"","S2","","html-keyboard-response","203","619184","0.0-1.0-274.0","0","0","35209","","null","","","null","30","","NaN","","","","","","","","","","","","","",""
"","response","","html-keyboard-response","204","620285","0.0-1.0-275.0-0.0","0","0","35209","","1095","","","68","30","","","1","30","training","adjacent","BA","2","1","R.jpg","M.jpg","0","0","1","",""
"","feedback","","html-keyboard-response","205","621295","0.0-1.0-276.0-0.0","0","0","35209","","null","","","null","30","","","","","","","","","","","","","","","",""
"","ITI","","html-keyboard-response","206","622303","0.0-1.0-279.0","0","0","35209","","null","","","null","30","","","","","","","","","","","","","","","NaN",""
"","S1","","html-keyboard-response","207","622560","0.0-1.0-281.0","0","0","35209","","null","","","null","31","","","","","","","","","","","","","","","",""
"","ISI","","html-keyboard-response","208","623568","0.0-1.0-282.0","0","0","35209","","null","","","null","31","NaN","","","","","","","","","","","","","","",""
"","S2","","html-keyboard-response","209","623823","0.0-1.0-283.0","0","0","35209","","null","","","null","31","","NaN","","","","","","","","","","","","","",""
"","response","","html-keyboard-response","210","623843","0.0-1.0-284.0-0.0","0","0","35209","","16","","","75","31","","","1","31","training","adjacent","DE","4","5","L.jpg","O.jpg","1","1","1","",""
"","feedback","","html-keyboard-response","211","624855","0.0-1.0-285.0-0.0","0","0","35209","","null","","","null","31","","","","","","","","","","","","","","","",""
"","ITI","","html-keyboard-response","212","625863","0.0-1.0-288.0","0","0","35209","","null","","","null","31","","","","","","","","","","","","","","","NaN",""
"","S1","","html-keyboard-response","213","626119","0.0-1.0-290.0","0","0","35209","","null","","","null","32","","","","","","","","","","","","","","","",""
"","ISI","","html-keyboard-response","214","627127","0.0-1.0-291.0","0","0","35209","","null","","","null","32","NaN","","","","","","","","","","","","","","",""
"","S2","","html-keyboard-response","215","627354","0.0-1.0-292.0","0","0","35209","","222","","","68","32","","d","1","32","training","adjacent","DE","4","5","L.jpg","O.jpg","0","1","0","",""
"","feedback","","html-keyboard-response","216","628368","0.0-1.0-294.0-0.0","0","0","35209","","null","","","null","32","","","","","","","","","","","","","","","",""
"","time_out","","html-keyboard-response","217","630375","0.0-1.0-296.0-0.0","0","0","35209","","null","","","null","32","","","","","","","","","","","","","","","",""
"","ITI","","html-keyboard-response","218","631386","0.0-1.0-297.0","0","0","35209","","null","","","null","32","","","","","","","","","","","","","","","NaN",""
"","S1","","html-keyboard-response","219","631647","0.0-1.0-299.0","0","0","35209","","null","","","null","33","","","","","","","","","","","","","","","",""
"","ISI","","html-keyboard-response","220","632655","0.0-1.0-300.0","0","0","35209","","null","","","null","33","NaN","","","","","","","","","","","","","","",""
"","S2","","html-keyboard-response","221","632912","0.0-1.0-301.0","0","0","35209","","null","","","null","33","","NaN","","","","","","","","","","","","","",""
"","response","","html-keyboard-response","222","633001","0.0-1.0-302.0-0.0","0","0","35209","","83","","","75","33","","","1","33","training","adjacent","FE","6","5","P.jpg","O.jpg","1","0","0","",""
"","feedback","","html-keyboard-response","223","634015","0.0-1.0-303.0-0.0","0","0","35209","","null","","","null","33","","","","","","","","","","","","","","","",""
"","time_out","","html-keyboard-response","224","636023","0.0-1.0-305.0-0.0","0","0","35209","","null","","","null","33","","","","","","","","","","","","","","","",""
"","ITI","","html-keyboard-response","225","637032","0.0-1.0-306.0","0","0","35209","","null","","","null","33","","","","","","","","","","","","","","","NaN",""
"","S1","","html-keyboard-response","226","637287","0.0-1.0-308.0","0","0","35209","","null","","","null","34","","","","","","","","","","","","","","","",""
"","ISI","","html-keyboard-response","227","638295","0.0-1.0-309.0","0","0","35209","","98","","","68","34","d","","","","","","","","","","","","","","",""
"","S2","","html-keyboard-response","228","638552","0.0-1.0-310.0","0","0","35209","","null","","","null","34","","NaN","","","","","","","","","","","","","",""
"","response","","html-keyboard-response","229","638638","0.0-1.0-311.0-0.0","0","0","35209","","81","","","68","34","","","1","34","training","adjacent","FG","6","7","P.jpg","N.jpg","0","1","0","",""
"","feedback","","html-keyboard-response","230","639648","0.0-1.0-312.0-0.0","0","0","35209","","null","","","null","34","","","","","","","","","","","","","","","",""
"","time_out","","html-keyboard-response","231","641655","0.0-1.0-314.0-0.0","0","0","35209","","null","","","null","34","","","","","","","","","","","","","","","",""
"","ITI","","html-keyboard-response","232","642663","0.0-1.0-315.0","0","0","35209","","222","","","75","34","","","","","","","","","","","","","","","k",""
"","S1","","html-keyboard-response","233","642920","0.0-1.0-317.0","0","0","35209","","null","","","null","35","","","","","","","","","","","","","","","",""
"","ISI","","html-keyboard-response","234","643927","0.0-1.0-318.0","0","0","35209","","165","","","75","35","k","","","","","","","","","","","","","","",""
"","S2","","html-keyboard-response","235","644184","0.0-1.0-319.0","0","0","35209","","null","","","null","35","","NaN","","","","","","","","","","","","","",""
"","response","","html-keyboard-response","236","644501","0.0-1.0-320.0-0.0","0","0","35209","","312","","","68","35","","","1","35","training","adjacent","BA","2","1","R.jpg","M.jpg","0","0","1","",""
"","feedback","","html-keyboard-response","237","645511","0.0-1.0-321.0-0.0","0","0","35209","","null","","","null","35","","","","","","","","","","","","","","","",""
"","ITI","","html-keyboard-response","238","646521","0.0-1.0-324.0","0","0","35209","","null","","","null","35","","","","","","","","","","","","","","","NaN",""
"","S1","","html-keyboard-response","239","646783","0.0-1.0-326.0","0","0","35209","","null","","","null","36","","","","","","","","","","","","","","","",""
"","ISI","","html-keyboard-response","240","647793","0.0-1.0-327.0","0","0","35209","","null","","","null","36","NaN","","","","","","","","","","","","","","",""
"","S2","","html-keyboard-response","241","647920","0.0-1.0-328.0","0","0","35209","","122","","","75","36","","k","1","36","training","adjacent","BA","2","1","R.jpg","M.jpg","1","0","0","",""
"","feedback","","html-keyboard-response","242","648927","0.0-1.0-330.0-0.0","0","0","35209","","null","","","null","36","","","","","","","","","","","","","","","",""
"","time_out","","html-keyboard-response","243","650935","0.0-1.0-332.0-0.0","0","0","35209","","null","","","null","36","","","","","","","","","","","","","","","",""
"","ITI","","html-keyboard-response","244","651943","0.0-1.0-333.0","0","0","35209","","null","","","null","36","","","","","","","","","","","","","","","NaN",""
"","S1","","html-keyboard-response","245","652199","0.0-1.0-335.0","0","0","35209","","null","","","null","37","","","","","","","","","","","","","","","",""
"","ISI","","html-keyboard-response","246","653207","0.0-1.0-336.0","0","0","35209","","null","","","null","37","NaN","","","","","","","","","","","","","","",""
"","S2","","html-keyboard-response","247","653464","0.0-1.0-337.0","0","0","35209","","null","","","null","37","","NaN","","","","","","","","","","","","","",""
"","response","","html-keyboard-response","248","654493","0.0-1.0-338.0-0.0","0","0","35209","","1025","","","68","37","","","1","37","training","adjacent","ED","5","4","O.jpg","L.jpg","0","0","1","",""
"","feedback","","html-keyboard-response","249","655503","0.0-1.0-339.0-0.0","0","0","35209","","null","","","null","37","","","","","","","","","","","","","","","",""
"","ITI","","html-keyboard-response","250","656511","0.0-1.0-342.0","0","0","35209","","null","","","null","37","","","","","","","","","","","","","","","NaN",""
"","S1","","html-keyboard-response","251","656769","0.0-1.0-344.0","0","0","35209","","null","","","null","38","","","","","","","","","","","","","","","",""
"","ISI","","html-keyboard-response","252","657780","0.0-1.0-345.0","0","0","35209","","null","","","null","38","NaN","","","","","","","","","","","","","","",""
"","S2","","html-keyboard-response","253","658047","0.0-1.0-346.0","0","0","35209","","null","","","null","38","","NaN","","","","","","","","","","","","","",""
"","response","","html-keyboard-response","254","658727","0.0-1.0-347.0-0.0","0","0","35209","","677","","","68","38","","","1","38","training","adjacent","DC","4","3","L.jpg","Q.jpg","0","0","1","",""
"","feedback","","html-keyboard-response","255","659735","0.0-1.0-348.0-0.0","0","0","35209","","null","","","null","38","","","","","","","","","","","","","","","",""
"","ITI","","html-keyboard-response","256","660743","0.0-1.0-351.0","0","0","35209","","null","","","null","38","","","","","","","","","","","","","","","NaN",""
"","S1","","html-keyboard-response","257","661000","0.0-1.0-353.0","0","0","35209","","null","","","null","39","","","","","","","","","","","","","","","",""
"","ISI","","html-keyboard-response","258","662007","0.0-1.0-354.0","0","0","35209","","null","","","null","39","NaN","","","","","","","","","","","","","","",""
"","S2","","html-keyboard-response","259","662263","0.0-1.0-355.0","0","0","35209","","null","","","null","39","","NaN","","","","","","","","","","","","","",""
"","response","","html-keyboard-response","260","662460","0.0-1.0-356.0-0.0","0","0","35209","","191","","","75","39","","","1","39","training","adjacent","BC","2","3","R.jpg","Q.jpg","1","1","1","",""
"","feedback","","html-keyboard-response","261","663472","0.0-1.0-357.0-0.0","0","0","35209","","null","","","null","39","","","","","","","","","","","","","","","",""
"","ITI","","html-keyboard-response","262","664480","0.0-1.0-360.0","0","0","35209","","null","","","null","39","","","","","","","","","","","","","","","NaN",""
"","S1","","html-keyboard-response","263","664735","0.0-1.0-362.0","0","0","35209","","null","","","null","40","","","","","","","","","","","","","","","",""
"","ISI","","html-keyboard-response","264","665743","0.0-1.0-363.0","0","0","35209","","null","","","null","40","NaN","","","","","","","","","","","","","","",""
"","S2","","html-keyboard-response","265","666000","0.0-1.0-364.0","0","0","35209","","null","","","null","40","","NaN","","","","","","","","","","","","","",""
"","response","","html-keyboard-response","266","666511","0.0-1.0-365.0-0.0","0","0","35209","","506","","","68","40","","","1","40","training","adjacent","AB","1","2","M.jpg","R.jpg","0","1","0","",""
"","feedback","","html-keyboard-response","267","667520","0.0-1.0-366.0-0.0","0","0","35209","","null","","","null","40","","","","","","","","","","","","","","","",""
"","time_out","","html-keyboard-response","268","669528","0.0-1.0-368.0-0.0","0","0","35209","","null","","","null","40","","","","","","","","","","","","","","","",""
"","ITI","","html-keyboard-response","269","670535","0.0-1.0-369.0","0","0","35209","","null","","","null","40","","","","","","","","","","","","","","","NaN",""
"","S1","","html-keyboard-response","270","670791","0.0-1.0-371.0","0","0","35209","","null","","","null","41","","","","","","","","","","","","","","","",""
"","ISI","","html-keyboard-response","271","671800","0.0-1.0-372.0","0","0","35209","","null","","","null","41","NaN","","","","","","","","","","","","","","",""
"","S2","","html-keyboard-response","272","672055","0.0-1.0-373.0","0","0","35209","","null","","","null","41","","NaN","","","","","","","","","","","","","",""
"","response","","html-keyboard-response","273","672130","0.0-1.0-374.0-0.0","0","0","35209","","71","","","75","41","","","1","41","training","adjacent","FE","6","5","P.jpg","O.jpg","1","0","0","",""
"","feedback","","html-keyboard-response","274","673136","0.0-1.0-375.0-0.0","0","0","35209","","null","","","null","41","","","","","","","","","","","","","","","",""
"","time_out","","html-keyboard-response","275","675143","0.0-1.0-377.0-0.0","0","0","35209","","null","","","null","41","","","","","","","","","","","","","","","",""
"","ITI","","html-keyboard-response","276","676151","0.0-1.0-378.0","0","0","35209","","null","","","null","41","","","","","","","","","","","","","","","NaN",""
"","S1","","html-keyboard-response","277","676407","0.0-1.0-380.0","0","0","35209","","null","","","null","42","","","","","","","","","","","","","","","",""
"","ISI","","html-keyboard-response","278","677415","0.0-1.0-381.0","0","0","35209","","null","","","null","42","NaN","","","","","","","","","","","","","","",""
"","S2","","html-keyboard-response","279","677479","0.0-1.0-382.0","0","0","35209","","59","","","68","42","","d","1","42","training","adjacent","DC","4","3","L.jpg","Q.jpg","0","0","1","",""
"","feedback","","html-keyboard-response","280","678487","0.0-1.0-384.0-0.0","0","0","35209","","null","","","null","42","","","","","","","","","","","","","","","",""
"","ITI","","html-keyboard-response","281","679495","0.0-1.0-387.0","0","0","35209","","null","","","null","42","","","","","","","","","","","","","","","NaN",""
"","S1","","html-keyboard-response","282","679752","0.0-1.0-389.0","0","0","35209","","null","","","null","43","","","","","","","","","","","","","","","",""
"","ISI","","html-keyboard-response","283","680760","0.0-1.0-390.0","0","0","35209","","null","","","null","43","NaN","","","","","","","","","","","","","","",""
"","S2","","html-keyboard-response","284","681015","0.0-1.0-391.0","0","0","35209","","null","","","null","43","","NaN","","","","","","","","","","","","","",""
"","response","","html-keyboard-response","285","681031","0.0-1.0-392.0-0.0","0","0","35209","","12","","","75","43","","","1","43","training","adjacent","BC","2","3","R.jpg","Q.jpg","1","1","1","",""
"","feedback","","html-keyboard-response","286","682039","0.0-1.0-393.0-0.0","0","0","35209","","null","","","null","43","","","","","","","","","","","","","","","",""
"","ITI","","html-keyboard-response","287","683047","0.0-1.0-396.0","0","0","35209","","null","","","null","43","","","","","","","","","","","","","","","NaN",""
"","S1","","html-keyboard-response","288","683303","0.0-1.0-398.0","0","0","35209","","null","","","null","44","","","","","","","","","","","","","","","",""
"","ISI","","html-keyboard-response","289","684311","0.0-1.0-399.0","0","0","35209","","null","","","null","44","NaN","","","","","","","","","","","","","","",""
"","S2","","html-keyboard-response","290","684535","0.0-1.0-400.0","0","0","35209","","220","","","75","44","","k","1","44","training","adjacent","FE","6","5","P.jpg","O.jpg","1","0","0","",""
"","feedback","","html-keyboard-response","291","685543","0.0-1.0-402.0-0.0","0","0","35209","","null","","","null","44","","","","","","","","","","","","","","","",""
"","time_out","","html-keyboard-response","292","687551","0.0-1.0-404.0-0.0","0","0","35209","","null","","","null","44","","","","","","","","","","","","","","","",""
"","ITI","","html-keyboard-response","293","688560","0.0-1.0-405.0","0","0","35209","","null","","","null","44","","","","","","","","","","","","","","","NaN",""
"","S1","","html-keyboard-response","294","688815","0.0-1.0-407.0","0","0","35209","","null","","","null","45","","","","","","","","","","","","","","","",""
"","ISI","","html-keyboard-response","295","689823","0.0-1.0-408.0","0","0","35209","","228","","","68","45","d","","","","","","","","","","","","","","",""
"","S2","","html-keyboard-response","296","689945","0.0-1.0-409.0","0","0","35209","","117","","","68","45","","d","1","45","training","adjacent","AB","1","2","M.jpg","R.jpg","0","1","0","",""
"","feedback","","html-keyboard-response","297","690951","0.0-1.0-411.0-0.0","0","0","35209","","null","","","null","45","","","","","","","","","","","","","","","",""
"","time_out","","html-keyboard-response","298","692960","0.0-1.0-413.0-0.0","0","0","35209","","null","","","null","45","","","","","","","","","","","","","","","",""
"","ITI","","html-keyboard-response","299","693968","0.0-1.0-414.0","0","0","35209","","null","","","null","45","","","","","","","","","","","","","","","NaN",""
"","S1","","html-keyboard-response","300","694224","0.0-1.0-416.0","0","0","35209","","null","","","null","46","","","","","","","","","","","","","","","",""
"","ISI","","html-keyboard-response","301","695231","0.0-1.0-417.0","0","0","35209","","null","","","null","46","NaN","","","","","","","","","","","","","","",""
"","S2","","html-keyboard-response","302","695487","0.0-1.0-418.0","0","0","35209","","null","","","null","46","","NaN","","","","","","","","","","","","","",""
"","response","","html-keyboard-response","303","695960","0.0-1.0-419.0-0.0","0","0","35209","","468","","","68","46","","","1","46","training","adjacent","GF","7","6","N.jpg","P.jpg","0","0","1","",""
"","feedback","","html-keyboard-response","304","696967","0.0-1.0-420.0-0.0","0","0","35209","","null","","","null","46","","","","","","","","","","","","","","","",""
"","ITI","","html-keyboard-response","305","697976","0.0-1.0-423.0","0","0","35209","","null","","","null","46","","","","","","","","","","","","","","","NaN",""
"","S1","","html-keyboard-response","306","698231","0.0-1.0-425.0","0","0","35209","","null","","","null","47","","","","","","","","","","","","","","","",""
"","ISI","","html-keyboard-response","307","699240","0.0-1.0-426.0","0","0","35209","","null","","","null","47","NaN","","","","","","","","","","","","","","",""
"","S2","","html-keyboard-response","308","699495","0.0-1.0-427.0","0","0","35209","","null","","","null","47","","NaN","","","","","","","","","","","","","",""
"","response","","html-keyboard-response","309","699912","0.0-1.0-428.0-0.0","0","0","35209","","414","","","68","47","","","1","47","training","adjacent","CB","3","2","Q.jpg","R.jpg","0","0","1","",""
"","feedback","","html-keyboard-response","310","700920","0.0-1.0-429.0-0.0","0","0","35209","","null","","","null","47","","","","","","","","","","","","","","","",""
"","ITI","","html-keyboard-response","311","701927","0.0-1.0-432.0","0","0","35209","","null","","","null","47","","","","","","","","","","","","","","","NaN",""
"","block_over","","html-keyboard-response","312","705991","0.0-1.0-433.0-0.0","0","0","35209","","4058","","","32","47","","","","","","","","","","","","","","","",""
"","S1","","html-keyboard-response","313","706247","0.0-1.0-434.0","0","0","35209","","null","","","null","48","","","","","","","","","","","","","","","",""
"","ISI","","html-keyboard-response","314","707255","0.0-1.0-435.0","0","0","35209","","null","","","null","48","NaN","","","","","","","","","","","","","","",""
"","S2","","html-keyboard-response","315","707511","0.0-1.0-436.0","0","0","35209","","null","","","null","48","","NaN","","","","","","","","","","","","","",""
"","response","","html-keyboard-response","316","707953","0.0-1.0-437.0-0.0","0","0","35209","","438","","","68","48","","","2","48","training","adjacent","CD","3","4","Q.jpg","L.jpg","0","1","0","",""
"","feedback","","html-keyboard-response","317","708959","0.0-1.0-438.0-0.0","0","0","35209","","null","","","null","48","","","","","","","","","","","","","","","",""
"","time_out","","html-keyboard-response","318","710967","0.0-1.0-440.0-0.0","0","0","35209","","null","","","null","48","","","","","","","","","","","","","","","",""
"","ITI","","html-keyboard-response","319","711975","0.0-1.0-441.0","0","0","35209","","909","","","75","48","","","","","","","","","","","","","","","k",""
"","S1","","html-keyboard-response","320","712231","0.0-1.0-443.0","0","0","35209","","null","","","null","49","","","","","","","","","","","","","","","",""
"","ISI","","html-keyboard-response","321","713240","0.0-1.0-444.0","0","0","35209","","null","","","null","49","NaN","","","","","","","","","","","","","","",""
"","S2","","html-keyboard-response","322","713495","0.0-1.0-445.0","0","0","35209","","null","","","null","49","","NaN","","","","","","","","","","","","","",""
"","response","","html-keyboard-response","323","713787","0.0-1.0-446.0-0.0","0","0","35209","","288","","","75","49","","","2","49","training","adjacent","BC","2","3","R.jpg","Q.jpg","1","1","1","",""
"","feedback","","html-keyboard-response","324","714800","0.0-1.0-447.0-0.0","0","0","35209","","null","","","null","49","","","","","","","","","","","","","","","",""
"","ITI","","html-keyboard-response","325","715807","0.0-1.0-450.0","0","0","35209","","null","","","null","49","","","","","","","","","","","","","","","NaN",""
"","S1","","html-keyboard-response","326","716063","0.0-1.0-452.0","0","0","35209","","null","","","null","50","","","","","","","","","","","","","","","",""
"","ISI","","html-keyboard-response","327","717072","0.0-1.0-453.0","0","0","35209","","null","","","null","50","NaN","","","","","","","","","","","","","","",""
"","S2","","html-keyboard-response","328","717327","0.0-1.0-454.0","0","0","35209","","null","","","null","50","","NaN","","","","","","","","","","","","","",""
"","response","","html-keyboard-response","329","717575","0.0-1.0-455.0-0.0","0","0","35209","","244","","","68","50","","","2","50","training","adjacent","FE","6","5","P.jpg","O.jpg","0","0","1","",""
"","feedback","","html-keyboard-response","330","718588","0.0-1.0-456.0-0.0","0","0","35209","","null","","","null","50","","","","","","","","","","","","","","","",""
"","ITI","","html-keyboard-response","331","719600","0.0-1.0-459.0","0","0","35209","","null","","","null","50","","","","","","","","","","","","","","","NaN",""
"","S1","","html-keyboard-response","332","719855","0.0-1.0-461.0","0","0","35209","","null","","","null","51","","","","","","","","","","","","","","","",""
"","ISI","","html-keyboard-response","333","720863","0.0-1.0-462.0","0","0","35209","","null","","","null","51","NaN","","","","","","","","","","","","","","",""
"","S2","","html-keyboard-response","334","721120","0.0-1.0-463.0","0","0","35209","","null","","","null","51","","NaN","","","","","","","","","","","","","",""
"","response","","html-keyboard-response","335","721401","0.0-1.0-464.0-0.0","0","0","35209","","277","","","68","51","","","2","51","training","adjacent","AB","1","2","M.jpg","R.jpg","0","1","0","",""
"","feedback","","html-keyboard-response","336","722407","0.0-1.0-465.0-0.0","0","0","35209","","null","","","null","51","","","","","","","","","","","","","","","",""
"","time_out","","html-keyboard-response","337","724415","0.0-1.0-467.0-0.0","0","0","35209","","null","","","null","51","","","","","","","","","","","","","","","",""
"","ITI","","html-keyboard-response","338","725424","0.0-1.0-468.0","0","0","35209","","null","","","null","51","","","","","","","","","","","","","","","NaN",""
"","S1","","html-keyboard-response","339","725680","0.0-1.0-470.0","0","0","35209","","null","","","null","52","","","","","","","","","","","","","","","",""
"","ISI","","html-keyboard-response","340","726687","0.0-1.0-471.0","0","0","35209","","441","","","75","52","k","","","","","","","","","","","","","","",""
"","S2","","html-keyboard-response","341","726943","0.0-1.0-472.0","0","0","35209","","null","","","null","52","","NaN","","","","","","","","","","","","","",""
"","response","","html-keyboard-response","342","727375","0.0-1.0-473.0-0.0","0","0","35209","","427","","","75","52","","","2","52","training","adjacent","EF","5","6","O.jpg","P.jpg","1","1","1","",""
"","feedback","","html-keyboard-response","343","728383","0.0-1.0-474.0-0.0","0","0","35209","","null","","","null","52","","","","","","","","","","","","","","","",""
"","ITI","","html-keyboard-response","344","729391","0.0-1.0-477.0","0","0","35209","","null","","","null","52","","","","","","","","","","","","","","","NaN",""
"","S1","","html-keyboard-response","345","729648","0.0-1.0-479.0","0","0","35209","","null","","","null","53","","","","","","","","","","","","","","","",""
"","ISI","","html-keyboard-response","346","730655","0.0-1.0-480.0","0","0","35209","","null","","","null","53","NaN","","","","","","","","","","","","","","",""
"","S2","","html-keyboard-response","347","730911","0.0-1.0-481.0","0","0","35209","","null","","","null","53","","NaN","","","","","","","","","","","","","",""
"","response","","html-keyboard-response","348","730956","0.0-1.0-482.0-0.0","0","0","35209","","41","","","75","53","","","2","53","training","adjacent","DE","4","5","L.jpg","O.jpg","1","1","1","",""
"","feedback","","html-keyboard-response","349","731967","0.0-1.0-483.0-0.0","0","0","35209","","null","","","null","53","","","","","","","","","","","","","","","",""
"","ITI","","html-keyboard-response","350","732975","0.0-1.0-486.0","0","0","35209","","null","","","null","53","","","","","","","","","","","","","","","NaN",""
"","S1","","html-keyboard-response","351","733232","0.0-1.0-488.0","0","0","35209","","null","","","null","54","","","","","","","","","","","","","","","",""
"","ISI","","html-keyboard-response","352","734239","0.0-1.0-489.0","0","0","35209","","null","","","null","54","NaN","","","","","","","","","","","","","","",""
"","S2","","html-keyboard-response","353","734495","0.0-1.0-490.0","0","0","35209","","null","","","null","54","","NaN","","","","","","","","","","","","","",""
"","response","","html-keyboard-response","354","734766","0.0-1.0-491.0-0.0","0","0","35209","","266","","","68","54","","","2","54","training","adjacent","FG","6","7","P.jpg","N.jpg","0","1","0","",""
"","feedback","","html-keyboard-response","355","735775","0.0-1.0-492.0-0.0","0","0","35209","","null","","","null","54","","","","","","","","","","","","","","","",""
"","time_out","","html-keyboard-response","356","737783","0.0-1.0-494.0-0.0","0","0","35209","","null","","","null","54","","","","","","","","","","","","","","","",""
"","ITI","","html-keyboard-response","357","738791","0.0-1.0-495.0","0","0","35209","","null","","","null","54","","","","","","","","","","","","","","","NaN",""
"","S1","","html-keyboard-response","358","739047","0.0-1.0-497.0","0","0","35209","","null","","","null","55","","","","","","","","","","","","","","","",""
"","ISI","","html-keyboard-response","359","740055","0.0-1.0-498.0","0","0","35209","","null","","","null","55","NaN","","","","","","","","","","","","","","",""
"","S2","","html-keyboard-response","360","740311","0.0-1.0-499.0","0","0","35209","","null","","","null","55","","NaN","","","","","","","","","","","","","",""
"","response","","html-keyboard-response","361","740419","0.0-1.0-500.0-0.0","0","0","35209","","103","","","75","55","","","2","55","training","adjacent","BA","2","1","R.jpg","M.jpg","1","0","0","",""
"","feedback","","html-keyboard-response","362","741431","0.0-1.0-501.0-0.0","0","0","35209","","null","","","null","55","","","","","","","","","","","","","","","",""
"","time_out","","html-keyboard-response","363","743439","0.0-1.0-503.0-0.0","0","0","35209","","null","","","null","55","","","","","","","","","","","","","","","",""
"","ITI","","html-keyboard-response","364","744448","0.0-1.0-504.0","0","0","35209","","null","","","null","55","","","","","","","","","","","","","","","NaN",""
"","S1","","html-keyboard-response","365","744703","0.0-1.0-506.0","0","0","35209","","null","","","null","56","","","","","","","","","","","","","","","",""
"","ISI","","html-keyboard-response","366","745711","0.0-1.0-507.0","0","0","35209","","null","","","null","56","NaN","","","","","","","","","","","","","","",""
"","S2","","html-keyboard-response","367","745967","0.0-1.0-508.0","0","0","35209","","null","","","null","56","","NaN","","","","","","","","","","","","","",""
"","response","","html-keyboard-response","368","746586","0.0-1.0-509.0-0.0","0","0","35209","","613","","","75","56","","","2","56","training","adjacent","CB","3","2","Q.jpg","R.jpg","1","0","0","",""
"","feedback","","html-keyboard-response","369","747591","0.0-1.0-510.0-0.0","0","0","35209","","null","","","null","56","","","","","","","","","","","","","","","",""
"","time_out","","html-keyboard-response","370","749599","0.0-1.0-512.0-0.0","0","0","35209","","null","","","null","56","","","","","","","","","","","","","","","",""
"","ITI","","html-keyboard-response","371","750607","0.0-1.0-513.0","0","0","35209","","null","","","null","56","","","","","","","","","","","","","","","NaN",""
"","S1","","html-keyboard-response","372","750864","0.0-1.0-515.0","0","0","35209","","null","","","null","57","","","","","","","","","","","","","","","",""
"","ISI","","html-keyboard-response","373","751871","0.0-1.0-516.0","0","0","35209","","null","","","null","57","NaN","","","","","","","","","","","","","","",""
"","S2","","html-keyboard-response","374","752127","0.0-1.0-517.0","0","0","35209","","null","","","null","57","","NaN","","","","","","","","","","","","","",""
"","response","","html-keyboard-response","375","752611","0.0-1.0-518.0-0.0","0","0","35209","","479","","","68","57","","","2","57","training","adjacent","GF","7","6","N.jpg","P.jpg","0","0","1","",""
"","feedback","","html-keyboard-response","376","753623","0.0-1.0-519.0-0.0","0","0","35209","","null","","","null","57","","","","","","","","","","","","","","","",""
"","ITI","","html-keyboard-response","377","754631","0.0-1.0-522.0","0","0","35209","","null","","","null","57","","","","","","","","","","","","","","","NaN",""
"","S1","","html-keyboard-response","378","754887","0.0-1.0-524.0","0","0","35209","","null","","","null","58","","","","","","","","","","","","","","","",""
"","ISI","","html-keyboard-response","379","755895","0.0-1.0-525.0","0","0","35209","","null","","","null","58","NaN","","","","","","","","","","","","","","",""
"","S2","","html-keyboard-response","380","756151","0.0-1.0-526.0","0","0","35209","","null","","","null","58","","NaN","","","","","","","","","","","","","",""
"","response","","html-keyboard-response","381","756281","0.0-1.0-527.0-0.0","0","0","35209","","125","","","68","58","","","2","58","training","adjacent","CD","3","4","Q.jpg","L.jpg","0","1","0","",""
"","feedback","","html-keyboard-response","382","757287","0.0-1.0-528.0-0.0","0","0","35209","","null","","","null","58","","","","","","","","","","","","","","","",""
"","time_out","","html-keyboard-response","383","759295","0.0-1.0-530.0-0.0","0","0","35209","","null","","","null","58","","","","","","","","","","","","","","","",""
"","ITI","","html-keyboard-response","384","760304","0.0-1.0-531.0","0","0","35209","","null","","","null","58","","","","","","","","","","","","","","","NaN",""
"","S1","","html-keyboard-response","385","760560","0.0-1.0-533.0","0","0","35209","","null","","","null","59","","","","","","","","","","","","","","","",""
"","ISI","","html-keyboard-response","386","761567","0.0-1.0-534.0","0","0","35209","","null","","","null","59","NaN","","","","","","","","","","","","","","",""
"","S2","","html-keyboard-response","387","761792","0.0-1.0-535.0","0","0","35209","","221","","","75","59","","k","2","59","training","adjacent","ED","5","4","O.jpg","L.jpg","1","0","0","",""
"","feedback","","html-keyboard-response","388","762800","0.0-1.0-537.0-0.0","0","0","35209","","null","","","null","59","","","","","","","","","","","","","","","",""
"","time_out","","html-keyboard-response","389","764807","0.0-1.0-539.0-0.0","0","0","35209","","null","","","null","59","","","","","","","","","","","","","","","",""
"","ITI","","html-keyboard-response","390","765813","0.0-1.0-540.0","0","0","35209","","1001","","","68","59","","","","","","","","","","","","","","","d",""
"","S1","","html-keyboard-response","391","766072","0.0-1.0-542.0","0","0","35209","","null","","","null","60","","","","","","","","","","","","","","","",""
"","ISI","","html-keyboard-response","392","767079","0.0-1.0-543.0","0","0","35209","","581","","","68","60","d","","","","","","","","","","","","","","",""
"","S2","","html-keyboard-response","393","767335","0.0-1.0-544.0","0","0","35209","","null","","","null","60","","NaN","","","","","","","","","","","","","",""
"","response","","html-keyboard-response","394","767377","0.0-1.0-545.0-0.0","0","0","35209","","37","","","68","60","","","2","60","training","adjacent","DE","4","5","L.jpg","O.jpg","0","1","0","",""
"","feedback","","html-keyboard-response","395","768383","0.0-1.0-546.0-0.0","0","0","35209","","null","","","null","60","","","","","","","","","","","","","","","",""
"","time_out","","html-keyboard-response","396","770391","0.0-1.0-548.0-0.0","0","0","35209","","null","","","null","60","","","","","","","","","","","","","","","",""
"","ITI","","html-keyboard-response","397","771400","0.0-1.0-549.0","0","0","35209","","null","","","null","60","","","","","","","","","","","","","","","NaN",""
"","S1","","html-keyboard-response","398","771655","0.0-1.0-551.0","0","0","35209","","null","","","null","61","","","","","","","","","","","","","","","",""
"","ISI","","html-keyboard-response","399","772663","0.0-1.0-552.0","0","0","35209","","316","","","75","61","k","","","","","","","","","","","","","","",""
"","S2","","html-keyboard-response","400","772919","0.0-1.0-553.0","0","0","35209","","null","","","null","61","","NaN","","","","","","","","","","","","","",""
"","response","","html-keyboard-response","401","773156","0.0-1.0-554.0-0.0","0","0","35209","","232","","","68","61","","","2","61","training","adjacent","AB","1","2","M.jpg","R.jpg","0","1","0","",""
"","feedback","","html-keyboard-response","402","774167","0.0-1.0-555.0-0.0","0","0","35209","","null","","","null","61","","","","","","","","","","","","","","","",""
"","time_out","","html-keyboard-response","403","776175","0.0-1.0-557.0-0.0","0","0","35209","","null","","","null","61","","","","","","","","","","","","","","","",""
"","ITI","","html-keyboard-response","404","777183","0.0-1.0-558.0","0","0","35209","","143","","","75","61","","","","","","","","","","","","","","","k",""
"","S1","","html-keyboard-response","405","777440","0.0-1.0-560.0","0","0","35209","","null","","","null","62","","","","","","","","","","","","","","","",""
"","ISI","","html-keyboard-response","406","778448","0.0-1.0-561.0","0","0","35209","","216","","","75","62","k","","","","","","","","","","","","","","",""
"","S2","","html-keyboard-response","407","778709","0.0-1.0-562.0","0","0","35209","","null","","","null","62","","NaN","","","","","","","","","","","","","",""
"","response","","html-keyboard-response","408","779099","0.0-1.0-563.0-0.0","0","0","35209","","384","","","75","62","","","2","62","training","adjacent","BC","2","3","R.jpg","Q.jpg","1","1","1","",""
"","feedback","","html-keyboard-response","409","780112","0.0-1.0-564.0-0.0","0","0","35209","","null","","","null","62","","","","","","","","","","","","","","","",""
"","ITI","","html-keyboard-response","410","781120","0.0-1.0-567.0","0","0","35209","","null","","","null","62","","","","","","","","","","","","","","","NaN",""
"","S1","","html-keyboard-response","411","781376","0.0-1.0-569.0","0","0","35209","","null","","","null","63","","","","","","","","","","","","","","","",""
"","ISI","","html-keyboard-response","412","782384","0.0-1.0-570.0","0","0","35209","","null","","","null","63","NaN","","","","","","","","","","","","","","",""
"","S2","","html-keyboard-response","413","782639","0.0-1.0-571.0","0","0","35209","","null","","","null","63","","NaN","","","","","","","","","","","","","",""
"","response","","html-keyboard-response","414","783346","0.0-1.0-572.0-0.0","0","0","35209","","702","","","68","63","","","2","63","training","adjacent","DE","4","5","L.jpg","O.jpg","0","1","0","",""
"","feedback","","html-keyboard-response","415","784359","0.0-1.0-573.0-0.0","0","0","35209","","null","","","null","63","","","","","","","","","","","","","","","",""
"","time_out","","html-keyboard-response","416","786367","0.0-1.0-575.0-0.0","0","0","35209","","null","","","null","63","","","","","","","","","","","","","","","",""
"","ITI","","html-keyboard-response","417","787376","0.0-1.0-576.0","0","0","35209","","null","","","null","63","","","","","","","","","","","","","","","NaN",""
"","S1","","html-keyboard-response","418","787632","0.0-1.0-578.0","0","0","35209","","null","","","null","64","","","","","","","","","","","","","","","",""
"","ISI","","html-keyboard-response","419","788639","0.0-1.0-579.0","0","0","35209","","378","","","75","64","k","","","","","","","","","","","","","","",""
"","S2","","html-keyboard-response","420","788850","0.0-1.0-580.0","0","0","35209","","206","","","68","64","","d","2","64","training","adjacent","DC","4","3","L.jpg","Q.jpg","0","0","1","",""
"","feedback","","html-keyboard-response","421","789855","0.0-1.0-582.0-0.0","0","0","35209","","null","","","null","64","","","","","","","","","","","","","","","",""
"","ITI","","html-keyboard-response","422","790863","0.0-1.0-585.0","0","0","35209","","null","","","null","64","","","","","","","","","","","","","","","NaN",""
"","S1","","html-keyboard-response","423","791120","0.0-1.0-587.0","0","0","35209","","null","","","null","65","","","","","","","","","","","","","","","",""
"","ISI","","html-keyboard-response","424","792127","0.0-1.0-588.0","0","0","35209","","707","","","75","65","k","","","","","","","","","","","","","","",""
"","S2","","html-keyboard-response","425","792352","0.0-1.0-589.0","0","0","35209","","221","","","75","65","","k","2","65","training","adjacent","BC","2","3","R.jpg","Q.jpg","1","1","1","",""
"","feedback","","html-keyboard-response","426","793360","0.0-1.0-591.0-0.0","0","0","35209","","null","","","null","65","","","","","","","","","","","","","","","",""
"","ITI","","html-keyboard-response","427","794367","0.0-1.0-594.0","0","0","35209","","null","","","null","65","","","","","","","","","","","","","","","NaN",""
"","S1","","html-keyboard-response","428","794623","0.0-1.0-596.0","0","0","35209","","null","","","null","66","","","","","","","","","","","","","","","",""
"","ISI","","html-keyboard-response","429","795632","0.0-1.0-597.0","0","0","35209","","null","","","null","66","NaN","","","","","","","","","","","","","","",""
"","S2","","html-keyboard-response","430","795822","0.0-1.0-598.0","0","0","35209","","185","","","68","66","","d","2","66","training","adjacent","FE","6","5","P.jpg","O.jpg","0","0","1","",""
"","feedback","","html-keyboard-response","431","796832","0.0-1.0-600.0-0.0","0","0","35209","","null","","","null","66","","","","","","","","","","","","","","","",""
"","ITI","","html-keyboard-response","432","797840","0.0-1.0-603.0","0","0","35209","","null","","","null","66","","","","","","","","","","","","","","","NaN",""
"","S1","","html-keyboard-response","433","798103","0.0-1.0-605.0","0","0","35209","","null","","","null","67","","","","","","","","","","","","","","","",""
"","ISI","","html-keyboard-response","434","799112","0.0-1.0-606.0","0","0","35209","","null","","","null","67","NaN","","","","","","","","","","","","","","",""
"","S2","","html-keyboard-response","435","799367","0.0-1.0-607.0","0","0","35209","","null","","","null","67","","NaN","","","","","","","","","","","","","",""
"","response","","html-keyboard-response","436","799516","0.0-1.0-608.0-0.0","0","0","35209","","144","","","68","67","","","2","67","training","adjacent","ED","5","4","O.jpg","L.jpg","0","0","1","",""
"","feedback","","html-keyboard-response","437","800528","0.0-1.0-609.0-0.0","0","0","35209","","null","","","null","67","","","","","","","","","","","","","","","",""
"","ITI","","html-keyboard-response","438","801535","0.0-1.0-612.0","0","0","35209","","null","","","null","67","","","","","","","","","","","","","","","NaN",""
"","S1","","html-keyboard-response","439","801791","0.0-1.0-614.0","0","0","35209","","null","","","null","68","","","","","","","","","","","","","","","",""
"","ISI","","html-keyboard-response","440","802800","0.0-1.0-615.0","0","0","35209","","null","","","null","68","NaN","","","","","","","","","","","","","","",""
"","S2","","html-keyboard-response","441","803056","0.0-1.0-616.0","0","0","35209","","null","","","null","68","","NaN","","","","","","","","","","","","","",""
"","response","","html-keyboard-response","442","803130","0.0-1.0-617.0-0.0","0","0","35209","","69","","","75","68","","","2","68","training","adjacent","EF","5","6","O.jpg","P.jpg","1","1","1","",""
"","feedback","","html-keyboard-response","443","804143","0.0-1.0-618.0-0.0","0","0","35209","","null","","","null","68","","","","","","","","","","","","","","","",""
"","ITI","","html-keyboard-response","444","805151","0.0-1.0-621.0","0","0","35209","","null","","","null","68","","","","","","","","","","","","","","","NaN",""
"","S1","","html-keyboard-response","445","805407","0.0-1.0-623.0","0","0","35209","","null","","","null","69","","","","","","","","","","","","","","","",""
"","ISI","","html-keyboard-response","446","806415","0.0-1.0-624.0","0","0","35209","","260","","","75","69","k","","","","","","","","","","","","","","",""
"","S2","","html-keyboard-response","447","806642","0.0-1.0-625.0","0","0","35209","","223","","","68","69","","d","2","69","training","adjacent","EF","5","6","O.jpg","P.jpg","0","1","0","",""
"","feedback","","html-keyboard-response","448","807655","0.0-1.0-627.0-0.0","0","0","35209","","null","","","null","69","","","","","","","","","","","","","","","",""
"","time_out","","html-keyboard-response","449","809663","0.0-1.0-629.0-0.0","0","0","35209","","null","","","null","69","","","","","","","","","","","","","","","",""
"","ITI","","html-keyboard-response","450","810668","0.0-1.0-630.0","0","0","35209","","785","","","68","69","","","","","","","","","","","","","","","d",""
"","S1","","html-keyboard-response","451","810924","0.0-1.0-632.0","0","0","35209","","null","","","null","70","","","","","","","","","","","","","","","",""
"","ISI","","html-keyboard-response","452","811935","0.0-1.0-633.0","0","0","35209","","435","","","68","70","d","","","","","","","","","","","","","","",""
"","S2","","html-keyboard-response","453","812178","0.0-1.0-634.0","0","0","35209","","239","","","68","70","","d","2","70","training","adjacent","FG","6","7","P.jpg","N.jpg","0","1","0","",""
"","feedback","","html-keyboard-response","454","813183","0.0-1.0-636.0-0.0","0","0","35209","","null","","","null","70","","","","","","","","","","","","","","","",""
"","time_out","","html-keyboard-response","455","815191","0.0-1.0-638.0-0.0","0","0","35209","","null","","","null","70","","","","","","","","","","","","","","","",""
"","ITI","","html-keyboard-response","456","816199","0.0-1.0-639.0","0","0","35209","","null","","","null","70","","","","","","","","","","","","","","","NaN",""
"","S1","","html-keyboard-response","457","816455","0.0-1.0-641.0","0","0","35209","","null","","","null","71","","","","","","","","","","","","","","","",""
"","ISI","","html-keyboard-response","458","817463","0.0-1.0-642.0","0","0","35209","","536","","","68","71","d","","","","","","","","","","","","","","",""
"","S2","","html-keyboard-response","459","817720","0.0-1.0-643.0","0","0","35209","","null","","","null","71","","NaN","","","","","","","","","","","","","",""
"","response","","html-keyboard-response","460","818526","0.0-1.0-644.0-0.0","0","0","35209","","801","","","75","71","","","2","71","training","adjacent","CD","3","4","Q.jpg","L.jpg","1","1","1","",""
"","feedback","","html-keyboard-response","461","819535","0.0-1.0-645.0-0.0","0","0","35209","","null","","","null","71","","","","","","","","","","","","","","","",""
"","ITI","","html-keyboard-response","462","820543","0.0-1.0-648.0","0","0","35209","","null","","","null","71","","","","","","","","","","","","","","","NaN",""
"","S1","","html-keyboard-response","463","820799","0.0-1.0-650.0","0","0","35209","","null","","","null","72","","","","","","","","","","","","","","","",""
"","ISI","","html-keyboard-response","464","821808","0.0-1.0-651.0","0","0","35209","","null","","","null","72","NaN","","","","","","","","","","","","","","",""
"","S2","","html-keyboard-response","465","822064","0.0-1.0-652.0","0","0","35209","","null","","","null","72","","NaN","","","","","","","","","","","","","",""
"","response","","html-keyboard-response","466","822461","0.0-1.0-653.0-0.0","0","0","35209","","394","","","68","72","","","2","72","training","adjacent","DE","4","5","L.jpg","O.jpg","0","1","0","",""
"","feedback","","html-keyboard-response","467","823472","0.0-1.0-654.0-0.0","0","0","35209","","null","","","null","72","","","","","","","","","","","","","","","",""
"","time_out","","html-keyboard-response","468","825479","0.0-1.0-656.0-0.0","0","0","35209","","null","","","null","72","","","","","","","","","","","","","","","",""
"","ITI","","html-keyboard-response","469","826487","0.0-1.0-657.0","0","0","35209","","null","","","null","72","","","","","","","","","","","","","","","NaN",""
"","S1","","html-keyboard-response","470","826743","0.0-1.0-659.0","0","0","35209","","null","","","null","73","","","","","","","","","","","","","","","",""
"","ISI","","html-keyboard-response","471","827751","0.0-1.0-660.0","0","0","35209","","null","","","null","73","NaN","","","","","","","","","","","","","","",""
"","S2","","html-keyboard-response","472","828007","0.0-1.0-661.0","0","0","35209","","null","","","null","73","","NaN","","","","","","","","","","","","","",""
"","response","","html-keyboard-response","473","828321","0.0-1.0-662.0-0.0","0","0","35209","","310","","","75","73","","","2","73","training","adjacent","DC","4","3","L.jpg","Q.jpg","1","0","0","",""
"","feedback","","html-keyboard-response","474","829327","0.0-1.0-663.0-0.0","0","0","35209","","null","","","null","73","","","","","","","","","","","","","","","",""
"","time_out","","html-keyboard-response","475","831335","0.0-1.0-665.0-0.0","0","0","35209","","null","","","null","73","","","","","","","","","","","","","","","",""
"","ITI","","html-keyboard-response","476","832343","0.0-1.0-666.0","0","0","35209","","null","","","null","73","","","","","","","","","","","","","","","NaN",""
"","S1","","html-keyboard-response","477","832600","0.0-1.0-668.0","0","0","35209","","null","","","null","74","","","","","","","","","","","","","","","",""
"","ISI","","html-keyboard-response","478","833607","0.0-1.0-669.0","0","0","35209","","null","","","null","74","NaN","","","","","","","","","","","","","","",""
"","S2","","html-keyboard-response","479","833863","0.0-1.0-670.0","0","0","35209","","null","","","null","74","","NaN","","","","","","","","","","","","","",""
"","response","","html-keyboard-response","480","834416","0.0-1.0-671.0-0.0","0","0","35209","","548","","","68","74","","","2","74","training","adjacent","DC","4","3","L.jpg","Q.jpg","0","0","1","",""
"","feedback","","html-keyboard-response","481","835423","0.0-1.0-672.0-0.0","0","0","35209","","null","","","null","74","","","","","","","","","","","","","","","",""
"","ITI","","html-keyboard-response","482","836432","0.0-1.0-675.0","0","0","35209","","null","","","null","74","","","","","","","","","","","","","","","NaN",""
"","S1","","html-keyboard-response","483","836687","0.0-1.0-677.0","0","0","35209","","null","","","null","75","","","","","","","","","","","","","","","",""
"","ISI","","html-keyboard-response","484","837700","0.0-1.0-678.0","0","0","35209","","null","","","null","75","NaN","","","","","","","","","","","","","","",""
"","S2","","html-keyboard-response","485","837969","0.0-1.0-679.0","0","0","35209","","null","","","null","75","","NaN","","","","","","","","","","","","","",""
"","response","","html-keyboard-response","486","838427","0.0-1.0-680.0-0.0","0","0","35209","","442","","","75","75","","","2","75","training","adjacent","DC","4","3","L.jpg","Q.jpg","1","0","0","",""
"","feedback","","html-keyboard-response","487","839447","0.0-1.0-681.0-0.0","0","0","35209","","null","","","null","75","","","","","","","","","","","","","","","",""
"","time_out","","html-keyboard-response","488","841463","0.0-1.0-683.0-0.0","0","0","35209","","null","","","null","75","","","","","","","","","","","","","","","",""
"","ITI","","html-keyboard-response","489","842471","0.0-1.0-684.0","0","0","35209","","null","","","null","75","","","","","","","","","","","","","","","NaN",""
"","S1","","html-keyboard-response","490","842726","0.0-1.0-686.0","0","0","35209","","null","","","null","76","","","","","","","","","","","","","","","",""
"","ISI","","html-keyboard-response","491","843735","0.0-1.0-687.0","0","0","35209","","null","","","null","76","NaN","","","","","","","","","","","","","","",""
"","S2","","html-keyboard-response","492","843991","0.0-1.0-688.0","0","0","35209","","null","","","null","76","","NaN","","","","","","","","","","","","","",""
"","response","","html-keyboard-response","493","844516","0.0-1.0-689.0-0.0","0","0","35209","","520","","","68","76","","","2","76","training","adjacent","BC","2","3","R.jpg","Q.jpg","0","1","0","",""
"","feedback","","html-keyboard-response","494","845527","0.0-1.0-690.0-0.0","0","0","35209","","null","","","null","76","","","","","","","","","","","","","","","",""
"","time_out","","html-keyboard-response","495","847541","0.0-1.0-692.0-0.0","0","0","35209","","null","","","null","76","","","","","","","","","","","","","","","",""
"","ITI","","html-keyboard-response","496","848551","0.0-1.0-693.0","0","0","35209","","null","","","null","76","","","","","","","","","","","","","","","NaN",""
"","S1","","html-keyboard-response","497","848808","0.0-1.0-695.0","0","0","35209","","null","","","null","77","","","","","","","","","","","","","","","",""
"","ISI","","html-keyboard-response","498","849815","0.0-1.0-696.0","0","0","35209","","null","","","null","77","NaN","","","","","","","","","","","","","","",""
"","S2","","html-keyboard-response","499","850072","0.0-1.0-697.0","0","0","35209","","null","","","null","77","","NaN","","","","","","","","","","","","","",""
"","response","","html-keyboard-response","500","850633","0.0-1.0-698.0-0.0","0","0","35209","","557","","","68","77","","","2","77","training","adjacent","BA","2","1","R.jpg","M.jpg","0","0","1","",""
"","feedback","","html-keyboard-response","501","851640","0.0-1.0-699.0-0.0","0","0","35209","","null","","","null","77","","","","","","","","","","","","","","","",""
"","ITI","","html-keyboard-response","502","852647","0.0-1.0-702.0","0","0","35209","","null","","","null","77","","","","","","","","","","","","","","","NaN",""
"","S1","","html-keyboard-response","503","852903","0.0-1.0-704.0","0","0","35209","","null","","","null","78","","","","","","","","","","","","","","","",""
"","ISI","","html-keyboard-response","504","853911","0.0-1.0-705.0","0","0","35209","","646","","","96","78","0numpad","","","","","","","","","","","","","","",""
"","S2","","html-keyboard-response","505","854175","0.0-1.0-706.0","0","0","35209","","null","","","null","78","","NaN","","","","","","","","","","","","","",""
"","response","","html-keyboard-response","506","855148","0.0-1.0-707.0-0.0","0","0","35209","","970","","","75","78","","","2","78","training","adjacent","GF","7","6","N.jpg","P.jpg","1","0","0","",""
"","feedback","","html-keyboard-response","507","856160","0.0-1.0-708.0-0.0","0","0","35209","","null","","","null","78","","","","","","","","","","","","","","","",""
"","time_out","","html-keyboard-response","508","858167","0.0-1.0-710.0-0.0","0","0","35209","","null","","","null","78","","","","","","","","","","","","","","","",""
"","ITI","","html-keyboard-response","509","859175","0.0-1.0-711.0","0","0","35209","","null","","","null","78","","","","","","","","","","","","","","","NaN",""
"","S1","","html-keyboard-response","510","859431","0.0-1.0-713.0","0","0","35209","","null","","","null","79","","","","","","","","","","","","","","","",""
"","ISI","","html-keyboard-response","511","860439","0.0-1.0-714.0","0","0","35209","","null","","","null","79","NaN","","","","","","","","","","","","","","",""
"","S2","","html-keyboard-response","512","860450","0.0-1.0-715.0","0","0","35209","","5","","","68","79","","d","2","79","training","adjacent","CB","3","2","Q.jpg","R.jpg","0","0","1","",""
"","feedback","","html-keyboard-response","513","861463","0.0-1.0-717.0-0.0","0","0","35209","","null","","","null","79","","","","","","","","","","","","","","","",""
"","ITI","","html-keyboard-response","514","862471","0.0-1.0-720.0","0","0","35209","","null","","","null","79","","","","","","","","","","","","","","","NaN",""
"","S1","","html-keyboard-response","515","862727","0.0-1.0-722.0","0","0","35209","","null","","","null","80","","","","","","","","","","","","","","","",""
"","ISI","","html-keyboard-response","516","863735","0.0-1.0-723.0","0","0","35209","","null","","","null","80","NaN","","","","","","","","","","","","","","",""
"","S2","","html-keyboard-response","517","863992","0.0-1.0-724.0","0","0","35209","","null","","","null","80","","NaN","","","","","","","","","","","","","",""
"","response","","html-keyboard-response","518","864244","0.0-1.0-725.0-0.0","0","0","35209","","248","","","75","80","","","2","80","training","adjacent","CB","3","2","Q.jpg","R.jpg","1","0","0","",""
"","feedback","","html-keyboard-response","519","865255","0.0-1.0-726.0-0.0","0","0","35209","","null","","","null","80","","","","","","","","","","","","","","","",""
"","time_out","","html-keyboard-response","520","867263","0.0-1.0-728.0-0.0","0","0","35209","","null","","","null","80","","","","","","","","","","","","","","","",""
"","ITI","","html-keyboard-response","521","868272","0.0-1.0-729.0","0","0","35209","","null","","","null","80","","","","","","","","","","","","","","","NaN",""
"","S1","","html-keyboard-response","522","868527","0.0-1.0-731.0","0","0","35209","","null","","","null","81","","","","","","","","","","","","","","","",""
"","ISI","","html-keyboard-response","523","869535","0.0-1.0-732.0","0","0","35209","","null","","","null","81","NaN","","","","","","","","","","","","","","",""
"","S2","","html-keyboard-response","524","869791","0.0-1.0-733.0","0","0","35209","","null","","","null","81","","NaN","","","","","","","","","","","","","",""
"","response","","html-keyboard-response","525","870256","0.0-1.0-734.0-0.0","0","0","35209","","460","","","68","81","","","2","81","training","adjacent","GF","7","6","N.jpg","P.jpg","0","0","1","",""
"","feedback","","html-keyboard-response","526","871263","0.0-1.0-735.0-0.0","0","0","35209","","null","","","null","81","","","","","","","","","","","","","","","",""
"","ITI","","html-keyboard-response","527","872272","0.0-1.0-738.0","0","0","35209","","null","","","null","81","","","","","","","","","","","","","","","NaN",""
"","S1","","html-keyboard-response","528","872528","0.0-1.0-740.0","0","0","35209","","null","","","null","82","","","","","","","","","","","","","","","",""
"","ISI","","html-keyboard-response","529","873535","0.0-1.0-741.0","0","0","35209","","null","","","null","82","NaN","","","","","","","","","","","","","","",""
"","S2","","html-keyboard-response","530","873791","0.0-1.0-742.0","0","0","35209","","null","","","null","82","","NaN","","","","","","","","","","","","","",""
"","response","","html-keyboard-response","531","874702","0.0-1.0-743.0-0.0","0","0","35209","","907","","","68","82","","","2","82","training","adjacent","CB","3","2","Q.jpg","R.jpg","0","0","1","",""
"","feedback","","html-keyboard-response","532","875711","0.0-1.0-744.0-0.0","0","0","35209","","null","","","null","82","","","","","","","","","","","","","","","",""
"","ITI","","html-keyboard-response","533","876720","0.0-1.0-747.0","0","0","35209","","null","","","null","82","","","","","","","","","","","","","","","NaN",""
"","S1","","html-keyboard-response","534","876976","0.0-1.0-749.0","0","0","35209","","null","","","null","83","","","","","","","","","","","","","","","",""
"","ISI","","html-keyboard-response","535","877983","0.0-1.0-750.0","0","0","35209","","null","","","null","83","NaN","","","","","","","","","","","","","","",""
"","S2","","html-keyboard-response","536","878239","0.0-1.0-751.0","0","0","35209","","null","","","null","83","","NaN","","","","","","","","","","","","","",""
"","response","","html-keyboard-response","537","878630","0.0-1.0-752.0-0.0","0","0","35209","","386","","","75","83","","","2","83","training","adjacent","CD","3","4","Q.jpg","L.jpg","1","1","1","",""
"","feedback","","html-keyboard-response","538","879639","0.0-1.0-753.0-0.0","0","0","35209","","null","","","null","83","","","","","","","","","","","","","","","",""
"","ITI","","html-keyboard-response","539","880647","0.0-1.0-756.0","0","0","35209","","null","","","null","83","","","","","","","","","","","","","","","NaN",""
"","S1","","html-keyboard-response","540","880903","0.0-1.0-758.0","0","0","35209","","null","","","null","84","","","","","","","","","","","","","","","",""
"","ISI","","html-keyboard-response","541","881911","0.0-1.0-759.0","0","0","35209","","null","","","null","84","NaN","","","","","","","","","","","","","","",""
"","S2","","html-keyboard-response","542","882167","0.0-1.0-760.0","0","0","35209","","null","","","null","84","","NaN","","","","","","","","","","","","","",""
"","response","","html-keyboard-response","543","882592","0.0-1.0-761.0-0.0","0","0","35209","","421","","","68","84","","","2","84","training","adjacent","BA","2","1","R.jpg","M.jpg","0","0","1","",""
"","feedback","","html-keyboard-response","544","883600","0.0-1.0-762.0-0.0","0","0","35209","","null","","","null","84","","","","","","","","","","","","","","","",""
"","ITI","","html-keyboard-response","545","884607","0.0-1.0-765.0","0","0","35209","","null","","","null","84","","","","","","","","","","","","","","","NaN",""
"","S1","","html-keyboard-response","546","884863","0.0-1.0-767.0","0","0","35209","","null","","","null","85","","","","","","","","","","","","","","","",""
"","ISI","","html-keyboard-response","547","885871","0.0-1.0-768.0","0","0","35209","","null","","","null","85","NaN","","","","","","","","","","","","","","",""
"","S2","","html-keyboard-response","548","886128","0.0-1.0-769.0","0","0","35209","","null","","","null","85","","NaN","","","","","","","","","","","","","",""
"","response","","html-keyboard-response","549","886704","0.0-1.0-770.0-0.0","0","0","35209","","571","","","68","85","","","2","85","training","adjacent","FG","6","7","P.jpg","N.jpg","0","1","0","",""
"","feedback","","html-keyboard-response","550","887711","0.0-1.0-771.0-0.0","0","0","35209","","null","","","null","85","","","","","","","","","","","","","","","",""
"","time_out","","html-keyboard-response","551","889719","0.0-1.0-773.0-0.0","0","0","35209","","null","","","null","85","","","","","","","","","","","","","","","",""
"","ITI","","html-keyboard-response","552","890727","0.0-1.0-774.0","0","0","35209","","null","","","null","85","","","","","","","","","","","","","","","NaN",""
"","S1","","html-keyboard-response","553","890983","0.0-1.0-776.0","0","0","35209","","null","","","null","86","","","","","","","","","","","","","","","",""
"","ISI","","html-keyboard-response","554","891991","0.0-1.0-777.0","0","0","35209","","null","","","null","86","NaN","","","","","","","","","","","","","","",""
"","S2","","html-keyboard-response","555","892247","0.0-1.0-778.0","0","0","35209","","null","","","null","86","","NaN","","","","","","","","","","","","","",""
"","response","","html-keyboard-response","556","892608","0.0-1.0-779.0-0.0","0","0","35209","","357","","","75","86","","","2","86","training","adjacent","EF","5","6","O.jpg","P.jpg","1","1","1","",""
"","feedback","","html-keyboard-response","557","893616","0.0-1.0-780.0-0.0","0","0","35209","","null","","","null","86","","","","","","","","","","","","","","","",""
"","ITI","","html-keyboard-response","558","894623","0.0-1.0-783.0","0","0","35209","","null","","","null","86","","","","","","","","","","","","","","","NaN",""
"","S1","","html-keyboard-response","559","894879","0.0-1.0-785.0","0","0","35209","","null","","","null","87","","","","","","","","","","","","","","","",""
"","ISI","","html-keyboard-response","560","895888","0.0-1.0-786.0","0","0","35209","","null","","","null","87","NaN","","","","","","","","","","","","","","",""
"","S2","","html-keyboard-response","561","896143","0.0-1.0-787.0","0","0","35209","","null","","","null","87","","NaN","","","","","","","","","","","","","",""
"","response","","html-keyboard-response","562","896706","0.0-1.0-788.0-0.0","0","0","35209","","559","","","68","87","","","2","87","training","adjacent","ED","5","4","O.jpg","L.jpg","0","0","1","",""
"","feedback","","html-keyboard-response","563","897720","0.0-1.0-789.0-0.0","0","0","35209","","null","","","null","87","","","","","","","","","","","","","","","",""
"","ITI","","html-keyboard-response","564","898727","0.0-1.0-792.0","0","0","35209","","null","","","null","87","","","","","","","","","","","","","","","NaN",""
"","S1","","html-keyboard-response","565","898984","0.0-1.0-794.0","0","0","35209","","null","","","null","88","","","","","","","","","","","","","","","",""
"","ISI","","html-keyboard-response","566","899991","0.0-1.0-795.0","0","0","35209","","null","","","null","88","NaN","","","","","","","","","","","","","","",""
"","S2","","html-keyboard-response","567","900247","0.0-1.0-796.0","0","0","35209","","null","","","null","88","","NaN","","","","","","","","","","","","","",""
"","response","","html-keyboard-response","568","900634","0.0-1.0-797.0-0.0","0","0","35209","","381","","","68","88","","","2","88","training","adjacent","FE","6","5","P.jpg","O.jpg","0","0","1","",""
"","feedback","","html-keyboard-response","569","901648","0.0-1.0-798.0-0.0","0","0","35209","","null","","","null","88","","","","","","","","","","","","","","","",""
"","ITI","","html-keyboard-response","570","902655","0.0-1.0-801.0","0","0","35209","","null","","","null","88","","","","","","","","","","","","","","","NaN",""
"","S1","","html-keyboard-response","571","902911","0.0-1.0-803.0","0","0","35209","","null","","","null","89","","","","","","","","","","","","","","","",""
"","ISI","","html-keyboard-response","572","903920","0.0-1.0-804.0","0","0","35209","","null","","","null","89","NaN","","","","","","","","","","","","","","",""
"","S2","","html-keyboard-response","573","904176","0.0-1.0-805.0","0","0","35209","","null","","","null","89","","NaN","","","","","","","","","","","","","",""
"","response","","html-keyboard-response","574","904260","0.0-1.0-806.0-0.0","0","0","35209","","80","","","75","89","","","2","89","training","adjacent","GF","7","6","N.jpg","P.jpg","1","0","0","",""
"","feedback","","html-keyboard-response","575","905271","0.0-1.0-807.0-0.0","0","0","35209","","null","","","null","89","","","","","","","","","","","","","","","",""
"","time_out","","html-keyboard-response","576","907280","0.0-1.0-809.0-0.0","0","0","35209","","null","","","null","89","","","","","","","","","","","","","","","",""
"","ITI","","html-keyboard-response","577","908287","0.0-1.0-810.0","0","0","35209","","null","","","null","89","","","","","","","","","","","","","","","NaN",""
"","S1","","html-keyboard-response","578","908543","0.0-1.0-812.0","0","0","35209","","null","","","null","90","","","","","","","","","","","","","","","",""
"","ISI","","html-keyboard-response","579","909551","0.0-1.0-813.0","0","0","35209","","null","","","null","90","NaN","","","","","","","","","","","","","","",""
