"success","ttype","start_time","trial_type","trial_index","time_elapsed","internal_node_id","warning","missed_checkup","PID","view_history","rt","responses","repeat_instructions","key_press","index","keypress_isi","keypress_S2","block","trial_num","phase","group_type","pair_type","S1_stim","S2_stim","S1_img","S2_img","S1_chosen","S1_higher","accuracy","keypress_iti","total_bonus_tally"
"true","full_screen","d08012022hr1404","fullscreen","0","30438","0.0-0.0","0","0","55562","","","","","","","","","","","","","","","","","","","","","",""
"","instructions","","instructions","1","130182","0.0-1.0-0.0-0.0","0","0","55562","[{""page_index"":0,""viewing_time"":3278},{""page_index"":1,""viewing_time"":77276},{""page_index"":2,""viewing_time"":17567},{""page_index"":3,""viewing_time"":1620}]","99742","","","","","","","","","","","","","","","","","","","",""
"","comprehension_check","","survey-multi-choice","2","144772","0.0-1.0-0.0-1.0","0","0","55562","","14582","{""Q0"":""True"",""Q1"":""D"",""Q2"":""When you see the prompt 'MAKE A CHOICE' after the second image was presented"",""Q3"":""Green mark"",""Q4"":""either D or K""}","0","","","","","","","","","","","","","","","","","",""
"","start_exp","","html-keyboard-response","3","146624","0.0-1.0-1.0","0","0","55562","","1848","","","32","","","","","","","","","","","","","","","","",""
"","S1","","html-keyboard-response","4","146877","0.0-1.0-2.0","0","0","55562","","null","","","null","0","","","","","","","","","","","","","","","",""
"","ISI","","html-keyboard-response","5","148881","0.0-1.0-3.0","0","0","55562","","null","","","null","0","NaN","","","","","","","","","","","","","","",""
"","S2","","html-keyboard-response","6","149134","0.0-1.0-4.0","0","0","55562","","null","","","null","0","","NaN","","","","","","","","","","","","","",""
"","response","","html-keyboard-response","7","150785","0.0-1.0-5.0","0","0","55562","","1649","","","68","0","","","1","0","training","adjacent","DE","4","5","L.jpg","Q.jpg","1","1","1","",""
"","feedback","","html-keyboard-response","8","151789","0.0-1.0-6.0-0.0","0","0","55562","","null","","","null","0","","","","","","","","","","","","","","","",""
"","ITI","","html-keyboard-response","9","152793","0.0-1.0-9.0","0","0","55562","","null","","","null","0","","","","","","","","","","","","","","","NaN",""
"","S1","","html-keyboard-response","10","153046","0.0-1.0-11.0","0","0","55562","","null","","","null","1","","","","","","","","","","","","","","","",""
"","ISI","","html-keyboard-response","11","155048","0.0-1.0-12.0","0","0","55562","","null","","","null","1","NaN","","","","","","","","","","","","","","",""
"","S2","","html-keyboard-response","12","155301","0.0-1.0-13.0","0","0","55562","","null","","","null","1","","NaN","","","","","","","","","","","","","",""
"","response","","html-keyboard-response","13","155698","0.0-1.0-14.0","0","0","55562","","396","","","68","1","","","1","1","training","adjacent","FE","6","5","N.jpg","Q.jpg","1","0","0","",""
"","feedback","","html-keyboard-response","14","156701","0.0-1.0-15.0-0.0","0","0","55562","","null","","","null","1","","","","","","","","","","","","","","","",""
"","time_out","","html-keyboard-response","15","158703","0.0-1.0-17.0-0.0","0","0","55562","","null","","","null","1","","","","","","","","","","","","","","","",""
"","ITI","","html-keyboard-response","16","159705","0.0-1.0-18.0","0","0","55562","","72","","","68","1","","","","","","","","","","","","","","","d",""
"","S1","","html-keyboard-response","17","159958","0.0-1.0-20.0","0","0","55562","","null","","","null","2","","","","","","","","","","","","","","","",""
"","ISI","","html-keyboard-response","18","161961","0.0-1.0-21.0","0","0","55562","","474","","","75","2","k","","","","","","","","","","","","","","",""
"","S2","","html-keyboard-response","19","162215","0.0-1.0-22.0","0","0","55562","","null","","","null","2","","NaN","","","","","","","","","","","","","",""
"","response","","html-keyboard-response","20","162542","0.0-1.0-23.0","0","0","55562","","325","","","75","2","","","1","2","training","adjacent","BA","2","1","O.jpg","M.jpg","0","0","1","",""
"","feedback","","html-keyboard-response","21","163545","0.0-1.0-24.0-0.0","0","0","55562","","null","","","null","2","","","","","","","","","","","","","","","",""
"","ITI","","html-keyboard-response","22","164548","0.0-1.0-27.0","0","0","55562","","null","","","null","2","","","","","","","","","","","","","","","NaN",""
"","S1","","html-keyboard-response","23","164801","0.0-1.0-29.0","0","0","55562","","null","","","null","3","","","","","","","","","","","","","","","",""
"","ISI","","html-keyboard-response","24","166803","0.0-1.0-30.0","0","0","55562","","71","","","68","3","d","","","","","","","","","","","","","","",""
"","S2","","html-keyboard-response","25","167059","0.0-1.0-31.0","0","0","55562","","253","","","68","3","","d","","","","","","","","","","","","","",""
"","response","","html-keyboard-response","26","168514","0.0-1.0-32.0","0","0","55562","","1453","","","68","3","","","1","3","training","adjacent","BC","2","3","O.jpg","P.jpg","1","1","1","",""
"","feedback","","html-keyboard-response","27","169519","0.0-1.0-33.0-0.0","0","0","55562","","null","","","null","3","","","","","","","","","","","","","","","",""
"","ITI","","html-keyboard-response","28","170522","0.0-1.0-36.0","0","0","55562","","491","","","68","3","","","","","","","","","","","","","","","d",""
"","S1","","html-keyboard-response","29","170776","0.0-1.0-38.0","0","0","55562","","null","","","null","4","","","","","","","","","","","","","","","",""
"","ISI","","html-keyboard-response","30","172779","0.0-1.0-39.0","0","0","55562","","40","","","75","4","k","","","","","","","","","","","","","","",""
"","S2","","html-keyboard-response","31","173031","0.0-1.0-40.0","0","0","55562","","null","","","null","4","","NaN","","","","","","","","","","","","","",""
"","response","","html-keyboard-response","32","173053","0.0-1.0-41.0","0","0","55562","","20","","","75","4","","","1","4","training","adjacent","DC","4","3","L.jpg","P.jpg","0","0","1","",""
"","feedback","","html-keyboard-response","33","174056","0.0-1.0-42.0-0.0","0","0","55562","","null","","","null","4","","","","","","","","","","","","","","","",""
"","ITI","","html-keyboard-response","34","175059","0.0-1.0-45.0","0","0","55562","","null","","","null","4","","","","","","","","","","","","","","","NaN",""
"","S1","","html-keyboard-response","35","175313","0.0-1.0-47.0","0","0","55562","","null","","","null","5","","","","","","","","","","","","","","","",""
"","ISI","","html-keyboard-response","36","177315","0.0-1.0-48.0","0","0","55562","","1504","","","68","5","d","","","","","","","","","","","","","","",""
"","S2","","html-keyboard-response","37","177569","0.0-1.0-49.0","0","0","55562","","null","","","null","5","","NaN","","","","","","","","","","","","","",""
"","response","","html-keyboard-response","38","177850","0.0-1.0-50.0","0","0","55562","","280","","","68","5","","","1","5","training","adjacent","DE","4","5","L.jpg","Q.jpg","1","1","1","",""
"","feedback","","html-keyboard-response","39","178853","0.0-1.0-51.0-0.0","0","0","55562","","null","","","null","5","","","","","","","","","","","","","","","",""
"","ITI","","html-keyboard-response","40","179857","0.0-1.0-54.0","0","0","55562","","215","","","68","5","","","","","","","","","","","","","","","d",""
"","S1","","html-keyboard-response","41","180111","0.0-1.0-56.0","0","0","55562","","null","","","null","6","","","","","","","","","","","","","","","",""
"","ISI","","html-keyboard-response","42","182114","0.0-1.0-57.0","0","0","55562","","123","","","68","6","d","","","","","","","","","","","","","","",""
"","S2","","html-keyboard-response","43","182367","0.0-1.0-58.0","0","0","55562","","null","","","null","6","","NaN","","","","","","","","","","","","","",""
"","response","","html-keyboard-response","44","183376","0.0-1.0-59.0","0","0","55562","","1007","","","68","6","","","1","6","training","adjacent","DC","4","3","L.jpg","P.jpg","1","0","0","",""
"","feedback","","html-keyboard-response","45","184379","0.0-1.0-60.0-0.0","0","0","55562","","null","","","null","6","","","","","","","","","","","","","","","",""
"","time_out","","html-keyboard-response","46","186382","0.0-1.0-62.0-0.0","0","0","55562","","null","","","null","6","","","","","","","","","","","","","","","",""
"","ITI","","html-keyboard-response","47","187386","0.0-1.0-63.0","0","0","55562","","123","","","75","6","","","","","","","","","","","","","","","k",""
"","S1","","html-keyboard-response","48","187638","0.0-1.0-65.0","0","0","55562","","null","","","null","7","","","","","","","","","","","","","","","",""
"","ISI","","html-keyboard-response","49","189641","0.0-1.0-66.0","0","0","55562","","1256","","","68","7","d","","","","","","","","","","","","","","",""
"","S2","","html-keyboard-response","50","189893","0.0-1.0-67.0","0","0","55562","","null","","","null","7","","NaN","","","","","","","","","","","","","",""
"","response","","html-keyboard-response","51","190959","0.0-1.0-68.0","0","0","55562","","1064","","","68","7","","","1","7","training","adjacent","BC","2","3","O.jpg","P.jpg","1","1","1","",""
"","feedback","","html-keyboard-response","52","191961","0.0-1.0-69.0-0.0","0","0","55562","","null","","","null","7","","","","","","","","","","","","","","","",""
"","ITI","","html-keyboard-response","53","192965","0.0-1.0-72.0","0","0","55562","","null","","","null","7","","","","","","","","","","","","","","","NaN",""
"","S1","","html-keyboard-response","54","193218","0.0-1.0-74.0","0","0","55562","","null","","","null","8","","","","","","","","","","","","","","","",""
"","ISI","","html-keyboard-response","55","195221","0.0-1.0-75.0","0","0","55562","","104","","","68","8","d","","","","","","","","","","","","","","",""
"","S2","","html-keyboard-response","56","195474","0.0-1.0-76.0","0","0","55562","","null","","","null","8","","NaN","","","","","","","","","","","","","",""
"","response","","html-keyboard-response","57","195796","0.0-1.0-77.0","0","0","55562","","320","","","68","8","","","1","8","training","adjacent","BA","2","1","O.jpg","M.jpg","1","0","0","",""
"","feedback","","html-keyboard-response","58","196800","0.0-1.0-78.0-0.0","0","0","55562","","null","","","null","8","","","","","","","","","","","","","","","",""
"","time_out","","html-keyboard-response","59","198803","0.0-1.0-80.0-0.0","0","0","55562","","null","","","null","8","","","","","","","","","","","","","","","",""
"","ITI","","html-keyboard-response","60","199807","0.0-1.0-81.0","0","0","55562","","338","","","68","8","","","","","","","","","","","","","","","d",""
"","S1","","html-keyboard-response","61","200060","0.0-1.0-83.0","0","0","55562","","null","","","null","9","","","","","","","","","","","","","","","",""
"","ISI","","html-keyboard-response","62","202062","0.0-1.0-84.0","0","0","55562","","652","","","68","9","d","","","","","","","","","","","","","","",""
"","S2","","html-keyboard-response","63","202317","0.0-1.0-85.0","0","0","55562","","null","","","null","9","","NaN","","","","","","","","","","","","","",""
"","response","","html-keyboard-response","64","202596","0.0-1.0-86.0","0","0","55562","","278","","","75","9","","","1","9","training","adjacent","DE","4","5","L.jpg","Q.jpg","0","1","0","",""
"","feedback","","html-keyboard-response","65","203599","0.0-1.0-87.0-0.0","0","0","55562","","null","","","null","9","","","","","","","","","","","","","","","",""
"","time_out","","html-keyboard-response","66","205602","0.0-1.0-89.0-0.0","0","0","55562","","null","","","null","9","","","","","","","","","","","","","","","",""
"","ITI","","html-keyboard-response","67","206605","0.0-1.0-90.0","0","0","55562","","null","","","null","9","","","","","","","","","","","","","","","NaN",""
"","S1","","html-keyboard-response","68","206859","0.0-1.0-92.0","0","0","55562","","null","","","null","10","","","","","","","","","","","","","","","",""
"","ISI","","html-keyboard-response","69","208862","0.0-1.0-93.0","0","0","55562","","null","","","null","10","NaN","","","","","","","","","","","","","","",""
"","S2","","html-keyboard-response","70","209114","0.0-1.0-94.0","0","0","55562","","null","","","null","10","","NaN","","","","","","","","","","","","","",""
"","response","","html-keyboard-response","71","209274","0.0-1.0-95.0","0","0","55562","","159","","","75","10","","","1","10","training","adjacent","FE","6","5","N.jpg","Q.jpg","0","0","1","",""
"","feedback","","html-keyboard-response","72","210277","0.0-1.0-96.0-0.0","0","0","55562","","null","","","null","10","","","","","","","","","","","","","","","",""
"","ITI","","html-keyboard-response","73","211281","0.0-1.0-99.0","0","0","55562","","null","","","null","10","","","","","","","","","","","","","","","NaN",""
"","S1","","html-keyboard-response","74","211535","0.0-1.0-101.0","0","0","55562","","null","","","null","11","","","","","","","","","","","","","","","",""
"","ISI","","html-keyboard-response","75","213538","0.0-1.0-102.0","0","0","55562","","null","","","null","11","NaN","","","","","","","","","","","","","","",""
"","S2","","html-keyboard-response","76","213790","0.0-1.0-103.0","0","0","55562","","null","","","null","11","","NaN","","","","","","","","","","","","","",""
"","response","","html-keyboard-response","77","214011","0.0-1.0-104.0","0","0","55562","","218","","","75","11","","","1","11","training","adjacent","EF","5","6","Q.jpg","N.jpg","0","1","0","",""
"","feedback","","html-keyboard-response","78","215013","0.0-1.0-105.0-0.0","0","0","55562","","null","","","null","11","","","","","","","","","","","","","","","",""
"","time_out","","html-keyboard-response","79","217017","0.0-1.0-107.0-0.0","0","0","55562","","null","","","null","11","","","","","","","","","","","","","","","",""
"","ITI","","html-keyboard-response","80","218020","0.0-1.0-108.0","0","0","55562","","88","","","68","11","","","","","","","","","","","","","","","d",""
"","S1","","html-keyboard-response","81","218273","0.0-1.0-110.0","0","0","55562","","null","","","null","12","","","","","","","","","","","","","","","",""
"","ISI","","html-keyboard-response","82","220276","0.0-1.0-111.0","0","0","55562","","null","","","null","12","NaN","","","","","","","","","","","","","","",""
"","S2","","html-keyboard-response","83","220530","0.0-1.0-112.0","0","0","55562","","null","","","null","12","","NaN","","","","","","","","","","","","","",""
"","response","","html-keyboard-response","84","220596","0.0-1.0-113.0","0","0","55562","","64","","","68","12","","","1","12","training","adjacent","CB","3","2","P.jpg","O.jpg","1","0","0","",""
"","feedback","","html-keyboard-response","85","221599","0.0-1.0-114.0-0.0","0","0","55562","","null","","","null","12","","","","","","","","","","","","","","","",""
"","time_out","","html-keyboard-response","86","223602","0.0-1.0-116.0-0.0","0","0","55562","","null","","","null","12","","","","","","","","","","","","","","","",""
"","ITI","","html-keyboard-response","87","224607","0.0-1.0-117.0","0","0","55562","","null","","","null","12","","","","","","","","","","","","","","","NaN",""
"","S1","","html-keyboard-response","88","224862","0.0-1.0-119.0","0","0","55562","","null","","","null","13","","","","","","","","","","","","","","","",""
"","ISI","","html-keyboard-response","89","226866","0.0-1.0-120.0","0","0","55562","","null","","","null","13","NaN","","","","","","","","","","","","","","",""
"","S2","","html-keyboard-response","90","227119","0.0-1.0-121.0","0","0","55562","","null","","","null","13","","NaN","","","","","","","","","","","","","",""
"","response","","html-keyboard-response","91","227348","0.0-1.0-122.0","0","0","55562","","227","","","68","13","","","1","13","training","adjacent","CB","3","2","P.jpg","O.jpg","1","0","0","",""
"","feedback","","html-keyboard-response","92","228350","0.0-1.0-123.0-0.0","0","0","55562","","null","","","null","13","","","","","","","","","","","","","","","",""
"","time_out","","html-keyboard-response","93","230353","0.0-1.0-125.0-0.0","0","0","55562","","null","","","null","13","","","","","","","","","","","","","","","",""
"","ITI","","html-keyboard-response","94","231356","0.0-1.0-126.0","0","0","55562","","null","","","null","13","","","","","","","","","","","","","","","NaN",""
"","S1","","html-keyboard-response","95","231609","0.0-1.0-128.0","0","0","55562","","null","","","null","14","","","","","","","","","","","","","","","",""
"","ISI","","html-keyboard-response","96","233611","0.0-1.0-129.0","0","0","55562","","380","","","68","14","d","","","","","","","","","","","","","","",""
"","S2","","html-keyboard-response","97","233864","0.0-1.0-130.0","0","0","55562","","null","","","null","14","","NaN","","","","","","","","","","","","","",""
"","response","","html-keyboard-response","98","234424","0.0-1.0-131.0","0","0","55562","","559","","","68","14","","","1","14","training","adjacent","DE","4","5","L.jpg","Q.jpg","1","1","1","",""
"","feedback","","html-keyboard-response","99","235428","0.0-1.0-132.0-0.0","0","0","55562","","null","","","null","14","","","","","","","","","","","","","","","",""
"","ITI","","html-keyboard-response","100","236431","0.0-1.0-135.0","0","0","55562","","null","","","null","14","","","","","","","","","","","","","","","NaN",""
"","S1","","html-keyboard-response","101","236685","0.0-1.0-137.0","0","0","55562","","null","","","null","15","","","","","","","","","","","","","","","",""
"","ISI","","html-keyboard-response","102","238688","0.0-1.0-138.0","0","0","55562","","1393","","","68","15","d","","","","","","","","","","","","","","",""
"","S2","","html-keyboard-response","103","238941","0.0-1.0-139.0","0","0","55562","","null","","","null","15","","NaN","","","","","","","","","","","","","",""
"","response","","html-keyboard-response","104","239844","0.0-1.0-140.0","0","0","55562","","901","","","75","15","","","1","15","training","adjacent","FE","6","5","N.jpg","Q.jpg","0","0","1","",""
"","feedback","","html-keyboard-response","105","240847","0.0-1.0-141.0-0.0","0","0","55562","","null","","","null","15","","","","","","","","","","","","","","","",""
"","ITI","","html-keyboard-response","106","241850","0.0-1.0-144.0","0","0","55562","","null","","","null","15","","","","","","","","","","","","","","","NaN",""
"","S1","","html-keyboard-response","107","242104","0.0-1.0-146.0","0","0","55562","","null","","","null","16","","","","","","","","","","","","","","","",""
"","ISI","","html-keyboard-response","108","244108","0.0-1.0-147.0","0","0","55562","","null","","","null","16","NaN","","","","","","","","","","","","","","",""
"","S2","","html-keyboard-response","109","244361","0.0-1.0-148.0","0","0","55562","","null","","","null","16","","NaN","","","","","","","","","","","","","",""
"","response","","html-keyboard-response","110","246364","0.0-1.0-149.0","0","0","55562","","null","","","null","16","","","1","16","training","adjacent","FG","6","7","N.jpg","R.jpg","NaN","1","0","",""
"","too_slow_prompt","","html-keyboard-response","111","247366","0.0-1.0-151.0-0.0","1","0","55562","","null","","","null","","","","","","","","","","","","","","","","",""
"","time_out","","html-keyboard-response","112","249369","0.0-1.0-152.0-0.0","0","0","55562","","null","","","null","16","","","","","","","","","","","","","","","",""
"","ITI","","html-keyboard-response","113","250372","0.0-1.0-153.0","0","0","55562","","595","","","75","16","","","","","","","","","","","","","","","k",""
"","S1","","html-keyboard-response","114","250626","0.0-1.0-155.0","0","0","55562","","null","","","null","17","","","","","","","","","","","","","","","",""
"","ISI","","html-keyboard-response","115","252629","0.0-1.0-156.0","0","0","55562","","1379","","","75","17","k","","","","","","","","","","","","","","",""
"","S2","","html-keyboard-response","116","252883","0.0-1.0-157.0","0","0","55562","","null","","","null","17","","NaN","","","","","","","","","","","","","",""
"","response","","html-keyboard-response","117","253749","0.0-1.0-158.0","0","0","55562","","864","","","68","17","","","1","17","training","adjacent","AB","1","2","M.jpg","O.jpg","1","1","1","",""
"","feedback","","html-keyboard-response","118","254752","0.0-1.0-159.0-0.0","0","0","55562","","null","","","null","17","","","","","","","","","","","","","","","",""
"","ITI","","html-keyboard-response","119","255755","0.0-1.0-162.0","0","0","55562","","null","","","null","17","","","","","","","","","","","","","","","NaN",""
"","S1","","html-keyboard-response","120","256010","0.0-1.0-164.0","0","0","55562","","null","","","null","18","","","","","","","","","","","","","","","",""
"","ISI","","html-keyboard-response","121","258012","0.0-1.0-165.0","0","0","55562","","303","","","68","18","d","","","","","","","","","","","","","","",""
"","S2","","html-keyboard-response","122","258264","0.0-1.0-166.0","0","0","55562","","null","","","null","18","","NaN","","","","","","","","","","","","","",""
"","response","","html-keyboard-response","123","258369","0.0-1.0-167.0","0","0","55562","","103","","","68","18","","","1","18","training","adjacent","EF","5","6","Q.jpg","N.jpg","1","1","1","",""
"","feedback","","html-keyboard-response","124","259372","0.0-1.0-168.0-0.0","0","0","55562","","null","","","null","18","","","","","","","","","","","","","","","",""
"","ITI","","html-keyboard-response","125","260376","0.0-1.0-171.0","0","0","55562","","null","","","null","18","","","","","","","","","","","","","","","NaN",""
"","S1","","html-keyboard-response","126","260629","0.0-1.0-173.0","0","0","55562","","null","","","null","19","","","","","","","","","","","","","","","",""
"","ISI","","html-keyboard-response","127","262631","0.0-1.0-174.0","0","0","55562","","642","","","68","19","d","","","","","","","","","","","","","","",""
"","S2","","html-keyboard-response","128","262885","0.0-1.0-175.0","0","0","55562","","null","","","null","19","","NaN","","","","","","","","","","","","","",""
"","response","","html-keyboard-response","129","264255","0.0-1.0-176.0","0","0","55562","","1368","","","75","19","","","1","19","training","adjacent","DC","4","3","L.jpg","P.jpg","0","0","1","",""
"","feedback","","html-keyboard-response","130","265257","0.0-1.0-177.0-0.0","0","0","55562","","null","","","null","19","","","","","","","","","","","","","","","",""
"","ITI","","html-keyboard-response","131","266259","0.0-1.0-180.0","0","0","55562","","null","","","null","19","","","","","","","","","","","","","","","NaN",""
"","S1","","html-keyboard-response","132","266513","0.0-1.0-182.0","0","0","55562","","null","","","null","20","","","","","","","","","","","","","","","",""
"","ISI","","html-keyboard-response","133","268515","0.0-1.0-183.0","0","0","55562","","250","","","68","20","d","","","","","","","","","","","","","","",""
"","S2","","html-keyboard-response","134","268768","0.0-1.0-184.0","0","0","55562","","null","","","null","20","","NaN","","","","","","","","","","","","","",""
"","response","","html-keyboard-response","135","269744","0.0-1.0-185.0","0","0","55562","","975","","","68","20","","","1","20","training","adjacent","GF","7","6","R.jpg","N.jpg","1","0","0","",""
"","feedback","","html-keyboard-response","136","270748","0.0-1.0-186.0-0.0","0","0","55562","","null","","","null","20","","","","","","","","","","","","","","","",""
"","time_out","","html-keyboard-response","137","272750","0.0-1.0-188.0-0.0","0","0","55562","","null","","","null","20","","","","","","","","","","","","","","","",""
"","ITI","","html-keyboard-response","138","273753","0.0-1.0-189.0","0","0","55562","","134","","","75","20","","","","","","","","","","","","","","","k",""
"","S1","","html-keyboard-response","139","274005","0.0-1.0-191.0","0","0","55562","","null","","","null","21","","","","","","","","","","","","","","","",""
"","ISI","","html-keyboard-response","140","276008","0.0-1.0-192.0","0","0","55562","","255","","","75","21","k","","","","","","","","","","","","","","",""
"","S2","","html-keyboard-response","141","276261","0.0-1.0-193.0","0","0","55562","","222","","","68","21","","d","","","","","","","","","","","","","",""
"","response","","html-keyboard-response","142","276873","0.0-1.0-194.0","0","0","55562","","610","","","75","21","","","1","21","training","adjacent","BA","2","1","O.jpg","M.jpg","0","0","1","",""
"","feedback","","html-keyboard-response","143","277875","0.0-1.0-195.0-0.0","0","0","55562","","null","","","null","21","","","","","","","","","","","","","","","",""
"","ITI","","html-keyboard-response","144","278878","0.0-1.0-198.0","0","0","55562","","null","","","null","21","","","","","","","","","","","","","","","NaN",""
"","S1","","html-keyboard-response","145","279131","0.0-1.0-200.0","0","0","55562","","null","","","null","22","","","","","","","","","","","","","","","",""
"","ISI","","html-keyboard-response","146","281135","0.0-1.0-201.0","0","0","55562","","123","","","75","22","k","","","","","","","","","","","","","","",""
"","S2","","html-keyboard-response","147","281388","0.0-1.0-202.0","0","0","55562","","null","","","null","22","","NaN","","","","","","","","","","","","","",""
"","response","","html-keyboard-response","148","281749","0.0-1.0-203.0","0","0","55562","","360","","","68","22","","","1","22","training","adjacent","BC","2","3","O.jpg","P.jpg","1","1","1","",""
"","feedback","","html-keyboard-response","149","282753","0.0-1.0-204.0-0.0","0","0","55562","","null","","","null","22","","","","","","","","","","","","","","","",""
"","ITI","","html-keyboard-response","150","283755","0.0-1.0-207.0","0","0","55562","","186","","","75","22","","","","","","","","","","","","","","","k",""
"","S1","","html-keyboard-response","151","284009","0.0-1.0-209.0","0","0","55562","","null","","","null","23","","","","","","","","","","","","","","","",""
"","ISI","","html-keyboard-response","152","286012","0.0-1.0-210.0","0","0","55562","","460","","","75","23","k","","","","","","","","","","","","","","",""
"","S2","","html-keyboard-response","153","286264","0.0-1.0-211.0","0","0","55562","","null","","","null","23","","NaN","","","","","","","","","","","","","",""
"","response","","html-keyboard-response","154","286778","0.0-1.0-212.0","0","0","55562","","513","","","68","23","","","1","23","training","adjacent","CB","3","2","P.jpg","O.jpg","1","0","0","",""
"","feedback","","html-keyboard-response","155","287781","0.0-1.0-213.0-0.0","0","0","55562","","null","","","null","23","","","","","","","","","","","","","","","",""
"","time_out","","html-keyboard-response","156","289783","0.0-1.0-215.0-0.0","0","0","55562","","null","","","null","23","","","","","","","","","","","","","","","",""
"","ITI","","html-keyboard-response","157","290786","0.0-1.0-216.0","0","0","55562","","161","","","75","23","","","","","","","","","","","","","","","k",""
"","S1","","html-keyboard-response","158","291038","0.0-1.0-218.0","0","0","55562","","null","","","null","24","","","","","","","","","","","","","","","",""
"","ISI","","html-keyboard-response","159","293040","0.0-1.0-219.0","0","0","55562","","833","","","75","24","k","","","","","","","","","","","","","","",""
"","S2","","html-keyboard-response","160","293292","0.0-1.0-220.0","0","0","55562","","57","","","75","24","","k","","","","","","","","","","","","","",""
"","response","","html-keyboard-response","161","294064","0.0-1.0-221.0","0","0","55562","","770","","","75","24","","","1","24","training","adjacent","ED","5","4","Q.jpg","L.jpg","0","0","1","",""
"","feedback","","html-keyboard-response","162","295067","0.0-1.0-222.0-0.0","0","0","55562","","null","","","null","24","","","","","","","","","","","","","","","",""
"","ITI","","html-keyboard-response","163","296073","0.0-1.0-225.0","0","0","55562","","627","","","75","24","","","","","","","","","","","","","","","k",""
"","S1","","html-keyboard-response","164","296325","0.0-1.0-227.0","0","0","55562","","null","","","null","25","","","","","","","","","","","","","","","",""
"","ISI","","html-keyboard-response","165","298327","0.0-1.0-228.0","0","0","55562","","158","","","75","25","k","","","","","","","","","","","","","","",""
"","S2","","html-keyboard-response","166","298580","0.0-1.0-229.0","0","0","55562","","null","","","null","25","","NaN","","","","","","","","","","","","","",""
"","response","","html-keyboard-response","167","298748","0.0-1.0-230.0","0","0","55562","","167","","","75","25","","","1","25","training","adjacent","AB","1","2","M.jpg","O.jpg","0","1","0","",""
"","feedback","","html-keyboard-response","168","299751","0.0-1.0-231.0-0.0","0","0","55562","","null","","","null","25","","","","","","","","","","","","","","","",""
"","time_out","","html-keyboard-response","169","301753","0.0-1.0-233.0-0.0","0","0","55562","","null","","","null","25","","","","","","","","","","","","","","","",""
"","ITI","","html-keyboard-response","170","302756","0.0-1.0-234.0","0","0","55562","","249","","","68","25","","","","","","","","","","","","","","","d",""
"","S1","","html-keyboard-response","171","303009","0.0-1.0-236.0","0","0","55562","","null","","","null","26","","","","","","","","","","","","","","","",""
"","ISI","","html-keyboard-response","172","305012","0.0-1.0-237.0","0","0","55562","","106","","","68","26","d","","","","","","","","","","","","","","",""
"","S2","","html-keyboard-response","173","305264","0.0-1.0-238.0","0","0","55562","","null","","","null","26","","NaN","","","","","","","","","","","","","",""
"","response","","html-keyboard-response","174","305485","0.0-1.0-239.0","0","0","55562","","220","","","68","26","","","1","26","training","adjacent","ED","5","4","Q.jpg","L.jpg","1","0","0","",""
"","feedback","","html-keyboard-response","175","306487","0.0-1.0-240.0-0.0","0","0","55562","","null","","","null","26","","","","","","","","","","","","","","","",""
"","time_out","","html-keyboard-response","176","308492","0.0-1.0-242.0-0.0","0","0","55562","","null","","","null","26","","","","","","","","","","","","","","","",""
"","ITI","","html-keyboard-response","177","309494","0.0-1.0-243.0","0","0","55562","","665","","","75","26","","","","","","","","","","","","","","","k",""
"","S1","","html-keyboard-response","178","309746","0.0-1.0-245.0","0","0","55562","","null","","","null","27","","","","","","","","","","","","","","","",""
"","ISI","","html-keyboard-response","179","311748","0.0-1.0-246.0","0","0","55562","","266","","","75","27","k","","","","","","","","","","","","","","",""
"","S2","","html-keyboard-response","180","312001","0.0-1.0-247.0","0","0","55562","","null","","","null","27","","NaN","","","","","","","","","","","","","",""
"","response","","html-keyboard-response","181","312194","0.0-1.0-248.0","0","0","55562","","192","","","75","27","","","1","27","training","adjacent","CD","3","4","P.jpg","L.jpg","0","1","0","",""
"","feedback","","html-keyboard-response","182","313197","0.0-1.0-249.0-0.0","0","0","55562","","null","","","null","27","","","","","","","","","","","","","","","",""
"","time_out","","html-keyboard-response","183","315200","0.0-1.0-251.0-0.0","0","0","55562","","null","","","null","27","","","","","","","","","","","","","","","",""
"","ITI","","html-keyboard-response","184","316202","0.0-1.0-252.0","0","0","55562","","438","","","68","27","","","","","","","","","","","","","","","d",""
"","S1","","html-keyboard-response","185","316456","0.0-1.0-254.0","0","0","55562","","null","","","null","28","","","","","","","","","","","","","","","",""
"","ISI","","html-keyboard-response","186","318459","0.0-1.0-255.0","0","0","55562","","1339","","","68","28","d","","","","","","","","","","","","","","",""
"","S2","","html-keyboard-response","187","318712","0.0-1.0-256.0","0","0","55562","","null","","","null","28","","NaN","","","","","","","","","","","","","",""
"","response","","html-keyboard-response","188","319231","0.0-1.0-257.0","0","0","55562","","517","","","68","28","","","1","28","training","adjacent","FE","6","5","N.jpg","Q.jpg","1","0","0","",""
"","feedback","","html-keyboard-response","189","320234","0.0-1.0-258.0-0.0","0","0","55562","","null","","","null","28","","","","","","","","","","","","","","","",""
"","time_out","","html-keyboard-response","190","322238","0.0-1.0-260.0-0.0","0","0","55562","","null","","","null","28","","","","","","","","","","","","","","","",""
"","ITI","","html-keyboard-response","191","323242","0.0-1.0-261.0","0","0","55562","","510","","","68","28","","","","","","","","","","","","","","","d",""
"","S1","","html-keyboard-response","192","323495","0.0-1.0-263.0","0","0","55562","","null","","","null","29","","","","","","","","","","","","","","","",""
"","ISI","","html-keyboard-response","193","325498","0.0-1.0-264.0","0","0","55562","","508","","","68","29","d","","","","","","","","","","","","","","",""
"","S2","","html-keyboard-response","194","325751","0.0-1.0-265.0","0","0","55562","","112","","","68","29","","d","","","","","","","","","","","","","",""
"","response","","html-keyboard-response","195","326036","0.0-1.0-266.0","0","0","55562","","283","","","68","29","","","1","29","training","adjacent","GF","7","6","R.jpg","N.jpg","1","0","0","",""
"","feedback","","html-keyboard-response","196","327038","0.0-1.0-267.0-0.0","0","0","55562","","null","","","null","29","","","","","","","","","","","","","","","",""
"","time_out","","html-keyboard-response","197","329041","0.0-1.0-269.0-0.0","0","0","55562","","null","","","null","29","","","","","","","","","","","","","","","",""
"","ITI","","html-keyboard-response","198","330044","0.0-1.0-270.0","0","0","55562","","null","","","null","29","","","","","","","","","","","","","","","NaN",""
"","S1","","html-keyboard-response","199","330297","0.0-1.0-272.0","0","0","55562","","null","","","null","30","","","","","","","","","","","","","","","",""
"","ISI","","html-keyboard-response","200","332300","0.0-1.0-273.0","0","0","55562","","311","","","68","30","d","","","","","","","","","","","","","","",""
"","S2","","html-keyboard-response","201","332553","0.0-1.0-274.0","0","0","55562","","null","","","null","30","","NaN","","","","","","","","","","","","","",""
"","response","","html-keyboard-response","202","332735","0.0-1.0-275.0","0","0","55562","","180","","","68","30","","","1","30","training","adjacent","AB","1","2","M.jpg","O.jpg","1","1","1","",""
"","feedback","","html-keyboard-response","203","333738","0.0-1.0-276.0-0.0","0","0","55562","","null","","","null","30","","","","","","","","","","","","","","","",""
"","ITI","","html-keyboard-response","204","334741","0.0-1.0-279.0","0","0","55562","","null","","","null","30","","","","","","","","","","","","","","","NaN",""
"","S1","","html-keyboard-response","205","334994","0.0-1.0-281.0","0","0","55562","","null","","","null","31","","","","","","","","","","","","","","","",""
"","ISI","","html-keyboard-response","206","336997","0.0-1.0-282.0","0","0","55562","","82","","","68","31","d","","","","","","","","","","","","","","",""
"","S2","","html-keyboard-response","207","337250","0.0-1.0-283.0","0","0","55562","","null","","","null","31","","NaN","","","","","","","","","","","","","",""
"","response","","html-keyboard-response","208","337779","0.0-1.0-284.0","0","0","55562","","527","","","68","31","","","1","31","training","adjacent","BC","2","3","O.jpg","P.jpg","1","1","1","",""
"","feedback","","html-keyboard-response","209","338782","0.0-1.0-285.0-0.0","0","0","55562","","null","","","null","31","","","","","","","","","","","","","","","",""
"","ITI","","html-keyboard-response","210","339784","0.0-1.0-288.0","0","0","55562","","207","","","68","31","","","","","","","","","","","","","","","d",""
"","S1","","html-keyboard-response","211","340038","0.0-1.0-290.0","0","0","55562","","null","","","null","32","","","","","","","","","","","","","","","",""
"","ISI","","html-keyboard-response","212","342040","0.0-1.0-291.0","0","0","55562","","null","","","null","32","NaN","","","","","","","","","","","","","","",""
"","S2","","html-keyboard-response","213","342292","0.0-1.0-292.0","0","0","55562","","129","","","68","32","","d","","","","","","","","","","","","","",""
"","response","","html-keyboard-response","214","343944","0.0-1.0-293.0","0","0","55562","","1650","","","68","32","","","1","32","training","adjacent","DC","4","3","L.jpg","P.jpg","1","0","0","",""
"","feedback","","html-keyboard-response","215","344947","0.0-1.0-294.0-0.0","0","0","55562","","null","","","null","32","","","","","","","","","","","","","","","",""
"","time_out","","html-keyboard-response","216","346950","0.0-1.0-296.0-0.0","0","0","55562","","null","","","null","32","","","","","","","","","","","","","","","",""
"","ITI","","html-keyboard-response","217","347955","0.0-1.0-297.0","0","0","55562","","198","","","68","32","","","","","","","","","","","","","","","d",""
"","S1","","html-keyboard-response","218","348208","0.0-1.0-299.0","0","0","55562","","null","","","null","33","","","","","","","","","","","","","","","",""
"","ISI","","html-keyboard-response","219","350211","0.0-1.0-300.0","0","0","55562","","153","","","68","33","d","","","","","","","","","","","","","","",""
"","S2","","html-keyboard-response","220","350464","0.0-1.0-301.0","0","0","55562","","null","","","null","33","","NaN","","","","","","","","","","","","","",""
"","response","","html-keyboard-response","221","350491","0.0-1.0-302.0","0","0","55562","","25","","","68","33","","","1","33","training","adjacent","GF","7","6","R.jpg","N.jpg","1","0","0","",""
"","feedback","","html-keyboard-response","222","351494","0.0-1.0-303.0-0.0","0","0","55562","","null","","","null","33","","","","","","","","","","","","","","","",""
"","time_out","","html-keyboard-response","223","353497","0.0-1.0-305.0-0.0","0","0","55562","","null","","","null","33","","","","","","","","","","","","","","","",""
"","ITI","","html-keyboard-response","224","354500","0.0-1.0-306.0","0","0","55562","","null","","","null","33","","","","","","","","","","","","","","","NaN",""
"","S1","","html-keyboard-response","225","354752","0.0-1.0-308.0","0","0","55562","","null","","","null","34","","","","","","","","","","","","","","","",""
"","ISI","","html-keyboard-response","226","356754","0.0-1.0-309.0","0","0","55562","","771","","","75","34","k","","","","","","","","","","","","","","",""
"","S2","","html-keyboard-response","227","357007","0.0-1.0-310.0","0","0","55562","","null","","","null","34","","NaN","","","","","","","","","","","","","",""
"","response","","html-keyboard-response","228","357333","0.0-1.0-311.0","0","0","55562","","325","","","75","34","","","1","34","training","adjacent","CD","3","4","P.jpg","L.jpg","0","1","0","",""
"","feedback","","html-keyboard-response","229","358337","0.0-1.0-312.0-0.0","0","0","55562","","null","","","null","34","","","","","","","","","","","","","","","",""
"","time_out","","html-keyboard-response","230","360338","0.0-1.0-314.0-0.0","0","0","55562","","null","","","null","34","","","","","","","","","","","","","","","",""
"","ITI","","html-keyboard-response","231","361342","0.0-1.0-315.0","0","0","55562","","286","","","68","34","","","","","","","","","","","","","","","d",""
"","S1","","html-keyboard-response","232","361595","0.0-1.0-317.0","0","0","55562","","null","","","null","35","","","","","","","","","","","","","","","",""
"","ISI","","html-keyboard-response","233","363598","0.0-1.0-318.0","0","0","55562","","1534","","","68","35","d","","","","","","","","","","","","","","",""
"","S2","","html-keyboard-response","234","363851","0.0-1.0-319.0","0","0","55562","","null","","","null","35","","NaN","","","","","","","","","","","","","",""
"","response","","html-keyboard-response","235","364375","0.0-1.0-320.0","0","0","55562","","523","","","68","35","","","1","35","training","adjacent","GF","7","6","R.jpg","N.jpg","1","0","0","",""
"","feedback","","html-keyboard-response","236","365378","0.0-1.0-321.0-0.0","0","0","55562","","null","","","null","35","","","","","","","","","","","","","","","",""
"","time_out","","html-keyboard-response","237","367386","0.0-1.0-323.0-0.0","0","0","55562","","null","","","null","35","","","","","","","","","","","","","","","",""
"","ITI","","html-keyboard-response","238","368389","0.0-1.0-324.0","0","0","55562","","403","","","68","35","","","","","","","","","","","","","","","d",""
"","S1","","html-keyboard-response","239","368642","0.0-1.0-326.0","0","0","55562","","null","","","null","36","","","","","","","","","","","","","","","",""
"","ISI","","html-keyboard-response","240","370647","0.0-1.0-327.0","0","0","55562","","1","","","68","36","d","","","","","","","","","","","","","","",""
"","S2","","html-keyboard-response","241","370901","0.0-1.0-328.0","0","0","55562","","null","","","null","36","","NaN","","","","","","","","","","","","","",""
"","response","","html-keyboard-response","242","370997","0.0-1.0-329.0","0","0","55562","","94","","","68","36","","","1","36","training","adjacent","AB","1","2","M.jpg","O.jpg","1","1","1","",""
"","feedback","","html-keyboard-response","243","372000","0.0-1.0-330.0-0.0","0","0","55562","","null","","","null","36","","","","","","","","","","","","","","","",""
"","ITI","","html-keyboard-response","244","373003","0.0-1.0-333.0","0","0","55562","","769","","","68","36","","","","","","","","","","","","","","","d",""
"","S1","","html-keyboard-response","245","373263","0.0-1.0-335.0","0","0","55562","","null","","","null","37","","","","","","","","","","","","","","","",""
"","ISI","","html-keyboard-response","246","375268","0.0-1.0-336.0","0","0","55562","","680","","","68","37","d","","","","","","","","","","","","","","",""
"","S2","","html-keyboard-response","247","375521","0.0-1.0-337.0","0","0","55562","","45","","","68","37","","d","","","","","","","","","","","","","",""
"","response","","html-keyboard-response","248","376604","0.0-1.0-338.0","0","0","55562","","1081","","","68","37","","","1","37","training","adjacent","EF","5","6","Q.jpg","N.jpg","1","1","1","",""
"","feedback","","html-keyboard-response","249","377607","0.0-1.0-339.0-0.0","0","0","55562","","null","","","null","37","","","","","","","","","","","","","","","",""
"","ITI","","html-keyboard-response","250","378610","0.0-1.0-342.0","0","0","55562","","701","","","68","37","","","","","","","","","","","","","","","d",""
"","S1","","html-keyboard-response","251","378862","0.0-1.0-344.0","0","0","55562","","null","","","null","38","","","","","","","","","","","","","","","",""
"","ISI","","html-keyboard-response","252","380865","0.0-1.0-345.0","0","0","55562","","230","","","68","38","d","","","","","","","","","","","","","","",""
"","S2","","html-keyboard-response","253","381120","0.0-1.0-346.0","0","0","55562","","null","","","null","38","","NaN","","","","","","","","","","","","","",""
"","response","","html-keyboard-response","254","381442","0.0-1.0-347.0","0","0","55562","","320","","","75","38","","","1","38","training","adjacent","FG","6","7","N.jpg","R.jpg","0","1","0","",""
"","feedback","","html-keyboard-response","255","382445","0.0-1.0-348.0-0.0","0","0","55562","","null","","","null","38","","","","","","","","","","","","","","","",""
"","time_out","","html-keyboard-response","256","384448","0.0-1.0-350.0-0.0","0","0","55562","","null","","","null","38","","","","","","","","","","","","","","","",""
"","ITI","","html-keyboard-response","257","385450","0.0-1.0-351.0","0","0","55562","","124","","","68","38","","","","","","","","","","","","","","","d",""
"","S1","","html-keyboard-response","258","385702","0.0-1.0-353.0","0","0","55562","","null","","","null","39","","","","","","","","","","","","","","","",""
"","ISI","","html-keyboard-response","259","387704","0.0-1.0-354.0","0","0","55562","","518","","","68","39","d","","","","","","","","","","","","","","",""
"","S2","","html-keyboard-response","260","387957","0.0-1.0-355.0","0","0","55562","","null","","","null","39","","NaN","","","","","","","","","","","","","",""
"","response","","html-keyboard-response","261","388125","0.0-1.0-356.0","0","0","55562","","165","","","68","39","","","1","39","training","adjacent","BA","2","1","O.jpg","M.jpg","1","0","0","",""
"","feedback","","html-keyboard-response","262","389128","0.0-1.0-357.0-0.0","0","0","55562","","null","","","null","39","","","","","","","","","","","","","","","",""
"","time_out","","html-keyboard-response","263","391130","0.0-1.0-359.0-0.0","0","0","55562","","null","","","null","39","","","","","","","","","","","","","","","",""
"","ITI","","html-keyboard-response","264","392132","0.0-1.0-360.0","0","0","55562","","280","","","68","39","","","","","","","","","","","","","","","d",""
"","S1","","html-keyboard-response","265","392385","0.0-1.0-362.0","0","0","55562","","null","","","null","40","","","","","","","","","","","","","","","",""
"","ISI","","html-keyboard-response","266","394387","0.0-1.0-363.0","0","0","55562","","476","","","68","40","d","","","","","","","","","","","","","","",""
"","S2","","html-keyboard-response","267","394641","0.0-1.0-364.0","0","0","55562","","null","","","null","40","","NaN","","","","","","","","","","","","","",""
"","response","","html-keyboard-response","268","395300","0.0-1.0-365.0","0","0","55562","","658","","","68","40","","","1","40","training","adjacent","CD","3","4","P.jpg","L.jpg","1","1","1","",""
"","feedback","","html-keyboard-response","269","396303","0.0-1.0-366.0-0.0","0","0","55562","","null","","","null","40","","","","","","","","","","","","","","","",""
"","ITI","","html-keyboard-response","270","397306","0.0-1.0-369.0","0","0","55562","","1001","","","68","40","","","","","","","","","","","","","","","d",""
"","S1","","html-keyboard-response","271","397559","0.0-1.0-371.0","0","0","55562","","null","","","null","41","","","","","","","","","","","","","","","",""
"","ISI","","html-keyboard-response","272","399562","0.0-1.0-372.0","0","0","55562","","567","","","68","41","d","","","","","","","","","","","","","","",""
"","S2","","html-keyboard-response","273","399814","0.0-1.0-373.0","0","0","55562","","79","","","68","41","","d","","","","","","","","","","","","","",""
"","response","","html-keyboard-response","274","400206","0.0-1.0-374.0","0","0","55562","","390","","","68","41","","","1","41","training","adjacent","CD","3","4","P.jpg","L.jpg","1","1","1","",""
"","feedback","","html-keyboard-response","275","401209","0.0-1.0-375.0-0.0","0","0","55562","","null","","","null","41","","","","","","","","","","","","","","","",""
"","ITI","","html-keyboard-response","276","402212","0.0-1.0-378.0","0","0","55562","","445","","","68","41","","","","","","","","","","","","","","","d",""
"","S1","","html-keyboard-response","277","402465","0.0-1.0-380.0","0","0","55562","","null","","","null","42","","","","","","","","","","","","","","","",""
"","ISI","","html-keyboard-response","278","404467","0.0-1.0-381.0","0","0","55562","","267","","","68","42","d","","","","","","","","","","","","","","",""
"","S2","","html-keyboard-response","279","404721","0.0-1.0-382.0","0","0","55562","","null","","","null","42","","NaN","","","","","","","","","","","","","",""
"","response","","html-keyboard-response","280","404970","0.0-1.0-383.0","0","0","55562","","248","","","75","42","","","1","42","training","adjacent","ED","5","4","Q.jpg","L.jpg","0","0","1","",""
"","feedback","","html-keyboard-response","281","405973","0.0-1.0-384.0-0.0","0","0","55562","","null","","","null","42","","","","","","","","","","","","","","","",""
"","ITI","","html-keyboard-response","282","406977","0.0-1.0-387.0","0","0","55562","","667","","","75","42","","","","","","","","","","","","","","","k",""
"","S1","","html-keyboard-response","283","407231","0.0-1.0-389.0","0","0","55562","","null","","","null","43","","","","","","","","","","","","","","","",""
"","ISI","","html-keyboard-response","284","409234","0.0-1.0-390.0","0","0","55562","","86","","","75","43","k","","","","","","","","","","","","","","",""
"","S2","","html-keyboard-response","285","409487","0.0-1.0-391.0","0","0","55562","","1","","","75","43","","k","","","","","","","","","","","","","",""
"","response","","html-keyboard-response","286","409987","0.0-1.0-392.0","0","0","55562","","499","","","68","43","","","1","43","training","adjacent","FG","6","7","N.jpg","R.jpg","1","1","1","",""
"","feedback","","html-keyboard-response","287","410990","0.0-1.0-393.0-0.0","0","0","55562","","null","","","null","43","","","","","","","","","","","","","","","",""
"","ITI","","html-keyboard-response","288","411993","0.0-1.0-396.0","0","0","55562","","null","","","null","43","","","","","","","","","","","","","","","NaN",""
"","S1","","html-keyboard-response","289","412254","0.0-1.0-398.0","0","0","55562","","null","","","null","44","","","","","","","","","","","","","","","",""
"","ISI","","html-keyboard-response","290","414256","0.0-1.0-399.0","0","0","55562","","844","","","68","44","d","","","","","","","","","","","","","","",""
"","S2","","html-keyboard-response","291","414508","0.0-1.0-400.0","0","0","55562","","24","","","68","44","","d","","","","","","","","","","","","","",""
"","response","","html-keyboard-response","292","415786","0.0-1.0-401.0","0","0","55562","","1277","","","68","44","","","1","44","training","adjacent","EF","5","6","Q.jpg","N.jpg","1","1","1","",""
"","feedback","","html-keyboard-response","293","416790","0.0-1.0-402.0-0.0","0","0","55562","","null","","","null","44","","","","","","","","","","","","","","","",""
"","ITI","","html-keyboard-response","294","417793","0.0-1.0-405.0","0","0","55562","","786","","","68","44","","","","","","","","","","","","","","","d",""
"","S1","","html-keyboard-response","295","418055","0.0-1.0-407.0","0","0","55562","","null","","","null","45","","","","","","","","","","","","","","","",""
"","ISI","","html-keyboard-response","296","420057","0.0-1.0-408.0","0","0","55562","","691","","","68","45","d","","","","","","","","","","","","","","",""
"","S2","","html-keyboard-response","297","420312","0.0-1.0-409.0","0","0","55562","","null","","","null","45","","NaN","","","","","","","","","","","","","",""
"","response","","html-keyboard-response","298","420611","0.0-1.0-410.0","0","0","55562","","297","","","68","45","","","1","45","training","adjacent","CB","3","2","P.jpg","O.jpg","1","0","0","",""
"","feedback","","html-keyboard-response","299","421614","0.0-1.0-411.0-0.0","0","0","55562","","null","","","null","45","","","","","","","","","","","","","","","",""
"","time_out","","html-keyboard-response","300","423617","0.0-1.0-413.0-0.0","0","0","55562","","null","","","null","45","","","","","","","","","","","","","","","",""
"","ITI","","html-keyboard-response","301","424619","0.0-1.0-414.0","0","0","55562","","null","","","null","45","","","","","","","","","","","","","","","NaN",""
"","S1","","html-keyboard-response","302","424872","0.0-1.0-416.0","0","0","55562","","null","","","null","46","","","","","","","","","","","","","","","",""
"","ISI","","html-keyboard-response","303","426876","0.0-1.0-417.0","0","0","55562","","978","","","68","46","d","","","","","","","","","","","","","","",""
"","S2","","html-keyboard-response","304","427128","0.0-1.0-418.0","0","0","55562","","null","","","null","46","","NaN","","","","","","","","","","","","","",""
"","response","","html-keyboard-response","305","427697","0.0-1.0-419.0","0","0","55562","","568","","","68","46","","","1","46","training","adjacent","FG","6","7","N.jpg","R.jpg","1","1","1","",""
"","feedback","","html-keyboard-response","306","428700","0.0-1.0-420.0-0.0","0","0","55562","","null","","","null","46","","","","","","","","","","","","","","","",""
"","ITI","","html-keyboard-response","307","429703","0.0-1.0-423.0","0","0","55562","","null","","","null","46","","","","","","","","","","","","","","","NaN",""
"","S1","","html-keyboard-response","308","429956","0.0-1.0-425.0","0","0","55562","","null","","","null","47","","","","","","","","","","","","","","","",""
"","ISI","","html-keyboard-response","309","431959","0.0-1.0-426.0","0","0","55562","","180","","","75","47","k","","","","","","","","","","","","","","",""
"","S2","","html-keyboard-response","310","432213","0.0-1.0-427.0","0","0","55562","","null","","","null","47","","NaN","","","","","","","","","","","","","",""
"","response","","html-keyboard-response","311","432402","0.0-1.0-428.0","0","0","55562","","187","","","75","47","","","1","47","training","adjacent","ED","5","4","Q.jpg","L.jpg","0","0","1","",""
"","feedback","","html-keyboard-response","312","433404","0.0-1.0-429.0-0.0","0","0","55562","","null","","","null","47","","","","","","","","","","","","","","","",""
"","ITI","","html-keyboard-response","313","434407","0.0-1.0-432.0","0","0","55562","","null","","","null","47","","","","","","","","","","","","","","","NaN",""
"","block_over","","html-keyboard-response","314","953618","0.0-1.0-433.0-0.0","0","0","55562","","519208","","","32","47","","","","","","","","","","","","","","","",""
"","S1","","html-keyboard-response","315","953871","0.0-1.0-434.0","0","0","55562","","null","","","null","48","","","","","","","","","","","","","","","",""
"","ISI","","html-keyboard-response","316","955874","0.0-1.0-435.0","0","0","55562","","null","","","null","48","NaN","","","","","","","","","","","","","","",""
"","S2","","html-keyboard-response","317","956127","0.0-1.0-436.0","0","0","55562","","null","","","null","48","","NaN","","","","","","","","","","","","","",""
"","response","","html-keyboard-response","318","956481","0.0-1.0-437.0","0","0","55562","","351","","","68","48","","","2","48","training","adjacent","ED","5","4","Q.jpg","L.jpg","1","0","0","",""
"","feedback","","html-keyboard-response","319","957484","0.0-1.0-438.0-0.0","0","0","55562","","null","","","null","48","","","","","","","","","","","","","","","",""
"","time_out","","html-keyboard-response","320","959487","0.0-1.0-440.0-0.0","0","0","55562","","null","","","null","48","","","","","","","","","","","","","","","",""
"","ITI","","html-keyboard-response","321","960490","0.0-1.0-441.0","0","0","55562","","null","","","null","48","","","","","","","","","","","","","","","NaN",""
"","S1","","html-keyboard-response","322","960742","0.0-1.0-443.0","0","0","55562","","null","","","null","49","","","","","","","","","","","","","","","",""
"","ISI","","html-keyboard-response","323","962745","0.0-1.0-444.0","0","0","55562","","1404","","","75","49","k","","","","","","","","","","","","","","",""
"","S2","","html-keyboard-response","324","962998","0.0-1.0-445.0","0","0","55562","","null","","","null","49","","NaN","","","","","","","","","","","","","",""
"","response","","html-keyboard-response","325","963536","0.0-1.0-446.0","0","0","55562","","537","","","75","49","","","2","49","training","adjacent","AB","1","2","M.jpg","O.jpg","0","1","0","",""
"","feedback","","html-keyboard-response","326","964539","0.0-1.0-447.0-0.0","0","0","55562","","null","","","null","49","","","","","","","","","","","","","","","",""
"","time_out","","html-keyboard-response","327","966543","0.0-1.0-449.0-0.0","0","0","55562","","null","","","null","49","","","","","","","","","","","","","","","",""
"","ITI","","html-keyboard-response","328","967545","0.0-1.0-450.0","0","0","55562","","834","","","75","49","","","","","","","","","","","","","","","k",""
"","S1","","html-keyboard-response","329","967799","0.0-1.0-452.0","0","0","55562","","null","","","null","50","","","","","","","","","","","","","","","",""
"","ISI","","html-keyboard-response","330","969805","0.0-1.0-453.0","0","0","55562","","502","","","68","50","d","","","","","","","","","","","","","","",""
"","S2","","html-keyboard-response","331","970059","0.0-1.0-454.0","0","0","55562","","null","","","null","50","","NaN","","","","","","","","","","","","","",""
"","response","","html-keyboard-response","332","972062","0.0-1.0-455.0","0","0","55562","","null","","","null","50","","","2","50","training","adjacent","AB","1","2","M.jpg","O.jpg","NaN","1","0","",""
"","too_slow_prompt","","html-keyboard-response","333","973065","0.0-1.0-457.0-0.0","1","0","55562","","null","","","null","","","","","","","","","","","","","","","","",""
"","time_out","","html-keyboard-response","334","975067","0.0-1.0-458.0-0.0","0","0","55562","","null","","","null","50","","","","","","","","","","","","","","","",""
"","ITI","","html-keyboard-response","335","976070","0.0-1.0-459.0","0","0","55562","","null","","","null","50","","","","","","","","","","","","","","","NaN",""
"","S1","","html-keyboard-response","336","976323","0.0-1.0-461.0","0","0","55562","","null","","","null","51","","","","","","","","","","","","","","","",""
"","ISI","","html-keyboard-response","337","978327","0.0-1.0-462.0","0","0","55562","","531","","","68","51","d","","","","","","","","","","","","","","",""
"","S2","","html-keyboard-response","338","978580","0.0-1.0-463.0","0","0","55562","","null","","","null","51","","NaN","","","","","","","","","","","","","",""
"","response","","html-keyboard-response","339","978797","0.0-1.0-464.0","0","0","55562","","214","","","68","51","","","2","51","training","adjacent","CB","3","2","P.jpg","O.jpg","1","0","0","",""
"","feedback","","html-keyboard-response","340","979801","0.0-1.0-465.0-0.0","0","0","55562","","null","","","null","51","","","","","","","","","","","","","","","",""
"","time_out","","html-keyboard-response","341","981804","0.0-1.0-467.0-0.0","0","0","55562","","null","","","null","51","","","","","","","","","","","","","","","",""
"","ITI","","html-keyboard-response","342","982808","0.0-1.0-468.0","0","0","55562","","167","","","75","51","","","","","","","","","","","","","","","k",""
"","S1","","html-keyboard-response","343","983062","0.0-1.0-470.0","0","0","55562","","null","","","null","52","","","","","","","","","","","","","","","",""
"","ISI","","html-keyboard-response","344","985063","0.0-1.0-471.0","0","0","55562","","null","","","null","52","NaN","","","","","","","","","","","","","","",""
"","S2","","html-keyboard-response","345","985316","0.0-1.0-472.0","0","0","55562","","202","","","75","52","","k","","","","","","","","","","","","","",""
"","response","","html-keyboard-response","346","986055","0.0-1.0-473.0","0","0","55562","","737","","","75","52","","","2","52","training","adjacent","FG","6","7","N.jpg","R.jpg","0","1","0","",""
"","feedback","","html-keyboard-response","347","987058","0.0-1.0-474.0-0.0","0","0","55562","","null","","","null","52","","","","","","","","","","","","","","","",""
"","time_out","","html-keyboard-response","348","989061","0.0-1.0-476.0-0.0","0","0","55562","","null","","","null","52","","","","","","","","","","","","","","","",""
"","ITI","","html-keyboard-response","349","990064","0.0-1.0-477.0","0","0","55562","","null","","","null","52","","","","","","","","","","","","","","","NaN",""
"","S1","","html-keyboard-response","350","990317","0.0-1.0-479.0","0","0","55562","","null","","","null","53","","","","","","","","","","","","","","","",""
"","ISI","","html-keyboard-response","351","992321","0.0-1.0-480.0","0","0","55562","","316","","","68","53","d","","","","","","","","","","","","","","",""
"","S2","","html-keyboard-response","352","992573","0.0-1.0-481.0","0","0","55562","","null","","","null","53","","NaN","","","","","","","","","","","","","",""
"","response","","html-keyboard-response","353","992691","0.0-1.0-482.0","0","0","55562","","115","","","68","53","","","2","53","training","adjacent","FE","6","5","N.jpg","Q.jpg","1","0","0","",""
"","feedback","","html-keyboard-response","354","993695","0.0-1.0-483.0-0.0","0","0","55562","","null","","","null","53","","","","","","","","","","","","","","","",""
"","time_out","","html-keyboard-response","355","995698","0.0-1.0-485.0-0.0","0","0","55562","","null","","","null","53","","","","","","","","","","","","","","","",""
"","ITI","","html-keyboard-response","356","996702","0.0-1.0-486.0","0","0","55562","","701","","","75","53","","","","","","","","","","","","","","","k",""
"","S1","","html-keyboard-response","357","996954","0.0-1.0-488.0","0","0","55562","","null","","","null","54","","","","","","","","","","","","","","","",""
"","ISI","","html-keyboard-response","358","998957","0.0-1.0-489.0","0","0","55562","","186","","","75","54","k","","","","","","","","","","","","","","",""
"","S2","","html-keyboard-response","359","999210","0.0-1.0-490.0","0","0","55562","","null","","","null","54","","NaN","","","","","","","","","","","","","",""
"","response","","html-keyboard-response","360","1000396","0.0-1.0-491.0","0","0","55562","","1183","","","68","54","","","2","54","training","adjacent","CB","3","2","P.jpg","O.jpg","1","0","0","",""
"","feedback","","html-keyboard-response","361","1001398","0.0-1.0-492.0-0.0","0","0","55562","","null","","","null","54","","","","","","","","","","","","","","","",""
"","time_out","","html-keyboard-response","362","1003401","0.0-1.0-494.0-0.0","0","0","55562","","null","","","null","54","","","","","","","","","","","","","","","",""
"","ITI","","html-keyboard-response","363","1004404","0.0-1.0-495.0","0","0","55562","","null","","","null","54","","","","","","","","","","","","","","","NaN",""
"","S1","","html-keyboard-response","364","1004656","0.0-1.0-497.0","0","0","55562","","null","","","null","55","","","","","","","","","","","","","","","",""
"","ISI","","html-keyboard-response","365","1006666","0.0-1.0-498.0","0","0","55562","","412","","","75","55","k","","","","","","","","","","","","","","",""
"","S2","","html-keyboard-response","366","1006919","0.0-1.0-499.0","0","0","55562","","null","","","null","55","","NaN","","","","","","","","","","","","","",""
"","response","","html-keyboard-response","367","1007138","0.0-1.0-500.0","0","0","55562","","218","","","75","55","","","2","55","training","adjacent","CD","3","4","P.jpg","L.jpg","0","1","0","",""
"","feedback","","html-keyboard-response","368","1008141","0.0-1.0-501.0-0.0","0","0","55562","","null","","","null","55","","","","","","","","","","","","","","","",""
"","time_out","","html-keyboard-response","369","1010144","0.0-1.0-503.0-0.0","0","0","55562","","null","","","null","55","","","","","","","","","","","","","","","",""
"","ITI","","html-keyboard-response","370","1011148","0.0-1.0-504.0","0","0","55562","","null","","","null","55","","","","","","","","","","","","","","","NaN",""
"","S1","","html-keyboard-response","371","1011400","0.0-1.0-506.0","0","0","55562","","null","","","null","56","","","","","","","","","","","","","","","",""
"","ISI","","html-keyboard-response","372","1013403","0.0-1.0-507.0","0","0","55562","","142","","","68","56","d","","","","","","","","","","","","","","",""
"","S2","","html-keyboard-response","373","1013656","0.0-1.0-508.0","0","0","55562","","null","","","null","56","","NaN","","","","","","","","","","","","","",""
"","response","","html-keyboard-response","374","1013721","0.0-1.0-509.0","0","0","55562","","63","","","68","56","","","2","56","training","adjacent","CD","3","4","P.jpg","L.jpg","1","1","1","",""
"","feedback","","html-keyboard-response","375","1014725","0.0-1.0-510.0-0.0","0","0","55562","","null","","","null","56","","","","","","","","","","","","","","","",""
"","ITI","","html-keyboard-response","376","1015728","0.0-1.0-513.0","0","0","55562","","952","","","68","56","","","","","","","","","","","","","","","d",""
"","S1","","html-keyboard-response","377","1015983","0.0-1.0-515.0","0","0","55562","","null","","","null","57","","","","","","","","","","","","","","","",""
"","ISI","","html-keyboard-response","378","1017986","0.0-1.0-516.0","0","0","55562","","1654","","","68","57","d","","","","","","","","","","","","","","",""
"","S2","","html-keyboard-response","379","1018239","0.0-1.0-517.0","0","0","55562","","null","","","null","57","","NaN","","","","","","","","","","","","","",""
"","response","","html-keyboard-response","380","1018537","0.0-1.0-518.0","0","0","55562","","296","","","68","57","","","2","57","training","adjacent","BA","2","1","O.jpg","M.jpg","1","0","0","",""
"","feedback","","html-keyboard-response","381","1019540","0.0-1.0-519.0-0.0","0","0","55562","","null","","","null","57","","","","","","","","","","","","","","","",""
"","time_out","","html-keyboard-response","382","1021543","0.0-1.0-521.0-0.0","0","0","55562","","null","","","null","57","","","","","","","","","","","","","","","",""
"","ITI","","html-keyboard-response","383","1022546","0.0-1.0-522.0","0","0","55562","","null","","","null","57","","","","","","","","","","","","","","","NaN",""
"","S1","","html-keyboard-response","384","1022798","0.0-1.0-524.0","0","0","55562","","null","","","null","58","","","","","","","","","","","","","","","",""
"","ISI","","html-keyboard-response","385","1024801","0.0-1.0-525.0","0","0","55562","","442","","","75","58","k","","","","","","","","","","","","","","",""
"","S2","","html-keyboard-response","386","1025054","0.0-1.0-526.0","0","0","55562","","null","","","null","58","","NaN","","","","","","","","","","","","","",""
"","response","","html-keyboard-response","387","1025219","0.0-1.0-527.0","0","0","55562","","164","","","68","58","","","2","58","training","adjacent","FE","6","5","N.jpg","Q.jpg","1","0","0","",""
"","feedback","","html-keyboard-response","388","1026223","0.0-1.0-528.0-0.0","0","0","55562","","null","","","null","58","","","","","","","","","","","","","","","",""
"","time_out","","html-keyboard-response","389","1028225","0.0-1.0-530.0-0.0","0","0","55562","","null","","","null","58","","","","","","","","","","","","","","","",""
"","ITI","","html-keyboard-response","390","1029227","0.0-1.0-531.0","0","0","55562","","null","","","null","58","","","","","","","","","","","","","","","NaN",""
"","S1","","html-keyboard-response","391","1029480","0.0-1.0-533.0","0","0","55562","","null","","","null","59","","","","","","","","","","","","","","","",""
"","ISI","","html-keyboard-response","392","1031483","0.0-1.0-534.0","0","0","55562","","null","","","null","59","NaN","","","","","","","","","","","","","","",""
"","S2","","html-keyboard-response","393","1031736","0.0-1.0-535.0","0","0","55562","","null","","","null","59","","NaN","","","","","","","","","","","","","",""
"","response","","html-keyboard-response","394","1032034","0.0-1.0-536.0","0","0","55562","","296","","","68","59","","","2","59","training","adjacent","FE","6","5","N.jpg","Q.jpg","1","0","0","",""
"","feedback","","html-keyboard-response","395","1033037","0.0-1.0-537.0-0.0","0","0","55562","","null","","","null","59","","","","","","","","","","","","","","","",""
"","time_out","","html-keyboard-response","396","1035043","0.0-1.0-539.0-0.0","0","0","55562","","null","","","null","59","","","","","","","","","","","","","","","",""
"","ITI","","html-keyboard-response","397","1036046","0.0-1.0-540.0","0","0","55562","","106","","","75","59","","","","","","","","","","","","","","","k",""
"","S1","","html-keyboard-response","398","1036300","0.0-1.0-542.0","0","0","55562","","null","","","null","60","","","","","","","","","","","","","","","",""
"","ISI","","html-keyboard-response","399","1038304","0.0-1.0-543.0","0","0","55562","","728","","","75","60","k","","","","","","","","","","","","","","",""
"","S2","","html-keyboard-response","400","1038556","0.0-1.0-544.0","0","0","55562","","null","","","null","60","","NaN","","","","","","","","","","","","","",""
"","response","","html-keyboard-response","401","1039058","0.0-1.0-545.0","0","0","55562","","501","","","75","60","","","2","60","training","adjacent","GF","7","6","R.jpg","N.jpg","0","0","1","",""
"","feedback","","html-keyboard-response","402","1040061","0.0-1.0-546.0-0.0","0","0","55562","","null","","","null","60","","","","","","","","","","","","","","","",""
"","ITI","","html-keyboard-response","403","1041064","0.0-1.0-549.0","0","0","55562","","null","","","null","60","","","","","","","","","","","","","","","NaN",""
"","S1","","html-keyboard-response","404","1041316","0.0-1.0-551.0","0","0","55562","","null","","","null","61","","","","","","","","","","","","","","","",""
"","ISI","","html-keyboard-response","405","1043318","0.0-1.0-552.0","0","0","55562","","null","","","null","61","NaN","","","","","","","","","","","","","","",""
"","S2","","html-keyboard-response","406","1043572","0.0-1.0-553.0","0","0","55562","","null","","","null","61","","NaN","","","","","","","","","","","","","",""
"","response","","html-keyboard-response","407","1045575","0.0-1.0-554.0","0","0","55562","","null","","","null","61","","","2","61","training","adjacent","ED","5","4","Q.jpg","L.jpg","NaN","0","0","",""
"","too_slow_prompt","","html-keyboard-response","408","1046578","0.0-1.0-556.0-0.0","1","0","55562","","null","","","null","","","","","","","","","","","","","","","","",""
"","time_out","","html-keyboard-response","409","1048581","0.0-1.0-557.0-0.0","0","0","55562","","null","","","null","61","","","","","","","","","","","","","","","",""
"","ITI","","html-keyboard-response","410","1049583","0.0-1.0-558.0","0","0","55562","","null","","","null","61","","","","","","","","","","","","","","","NaN",""
"","S1","","html-keyboard-response","411","1049843","0.0-1.0-560.0","0","0","55562","","null","","","null","62","","","","","","","","","","","","","","","",""
"","ISI","","html-keyboard-response","412","1051847","0.0-1.0-561.0","0","0","55562","","null","","","null","62","NaN","","","","","","","","","","","","","","",""
"","S2","","html-keyboard-response","413","1052100","0.0-1.0-562.0","0","0","55562","","null","","","null","62","","NaN","","","","","","","","","","","","","",""
"","response","","html-keyboard-response","414","1052770","0.0-1.0-563.0","0","0","55562","","669","","","68","62","","","2","62","training","adjacent","EF","5","6","Q.jpg","N.jpg","1","1","1","",""
"","feedback","","html-keyboard-response","415","1053774","0.0-1.0-564.0-0.0","0","0","55562","","null","","","null","62","","","","","","","","","","","","","","","",""
"","ITI","","html-keyboard-response","416","1054776","0.0-1.0-567.0","0","0","55562","","null","","","null","62","","","","","","","","","","","","","","","NaN",""
"","S1","","html-keyboard-response","417","1055029","0.0-1.0-569.0","0","0","55562","","null","","","null","63","","","","","","","","","","","","","","","",""
"","ISI","","html-keyboard-response","418","1057032","0.0-1.0-570.0","0","0","55562","","null","","","null","63","NaN","","","","","","","","","","","","","","",""
"","S2","","html-keyboard-response","419","1057285","0.0-1.0-571.0","0","0","55562","","null","","","null","63","","NaN","","","","","","","","","","","","","",""
"","response","","html-keyboard-response","420","1058092","0.0-1.0-572.0","0","0","55562","","805","","","68","63","","","2","63","training","adjacent","DC","4","3","L.jpg","P.jpg","1","0","0","",""
"","feedback","","html-keyboard-response","421","1059094","0.0-1.0-573.0-0.0","0","0","55562","","null","","","null","63","","","","","","","","","","","","","","","",""
"","time_out","","html-keyboard-response","422","1061098","0.0-1.0-575.0-0.0","0","0","55562","","null","","","null","63","","","","","","","","","","","","","","","",""
"","ITI","","html-keyboard-response","423","1062101","0.0-1.0-576.0","0","0","55562","","null","","","null","63","","","","","","","","","","","","","","","NaN",""
"","S1","","html-keyboard-response","424","1062354","0.0-1.0-578.0","0","0","55562","","null","","","null","64","","","","","","","","","","","","","","","",""
"","ISI","","html-keyboard-response","425","1064356","0.0-1.0-579.0","0","0","55562","","null","","","null","64","NaN","","","","","","","","","","","","","","",""
"","S2","","html-keyboard-response","426","1064608","0.0-1.0-580.0","0","0","55562","","null","","","null","64","","NaN","","","","","","","","","","","","","",""
"","response","","html-keyboard-response","427","1064779","0.0-1.0-581.0","0","0","55562","","169","","","75","64","","","2","64","training","adjacent","GF","7","6","R.jpg","N.jpg","0","0","1","",""
"","feedback","","html-keyboard-response","428","1065782","0.0-1.0-582.0-0.0","0","0","55562","","null","","","null","64","","","","","","","","","","","","","","","",""
"","ITI","","html-keyboard-response","429","1066784","0.0-1.0-585.0","0","0","55562","","null","","","null","64","","","","","","","","","","","","","","","NaN",""
"","S1","","html-keyboard-response","430","1067044","0.0-1.0-587.0","0","0","55562","","null","","","null","65","","","","","","","","","","","","","","","",""
"","ISI","","html-keyboard-response","431","1069047","0.0-1.0-588.0","0","0","55562","","null","","","null","65","NaN","","","","","","","","","","","","","","",""
"","S2","","html-keyboard-response","432","1069301","0.0-1.0-589.0","0","0","55562","","null","","","null","65","","NaN","","","","","","","","","","","","","",""
"","response","","html-keyboard-response","433","1069466","0.0-1.0-590.0","0","0","55562","","163","","","68","65","","","2","65","training","adjacent","AB","1","2","M.jpg","O.jpg","1","1","1","",""
"","feedback","","html-keyboard-response","434","1070469","0.0-1.0-591.0-0.0","0","0","55562","","null","","","null","65","","","","","","","","","","","","","","","",""
"","ITI","","html-keyboard-response","435","1071472","0.0-1.0-594.0","0","0","55562","","null","","","null","65","","","","","","","","","","","","","","","NaN",""
"","S1","","html-keyboard-response","436","1071725","0.0-1.0-596.0","0","0","55562","","null","","","null","66","","","","","","","","","","","","","","","",""
"","ISI","","html-keyboard-response","437","1073728","0.0-1.0-597.0","0","0","55562","","null","","","null","66","NaN","","","","","","","","","","","","","","",""
"","S2","","html-keyboard-response","438","1073982","0.0-1.0-598.0","0","0","55562","","null","","","null","66","","NaN","","","","","","","","","","","","","",""
"","response","","html-keyboard-response","439","1074575","0.0-1.0-599.0","0","0","55562","","591","","","75","66","","","2","66","training","adjacent","ED","5","4","Q.jpg","L.jpg","0","0","1","",""
"","feedback","","html-keyboard-response","440","1075578","0.0-1.0-600.0-0.0","0","0","55562","","null","","","null","66","","","","","","","","","","","","","","","",""
"","ITI","","html-keyboard-response","441","1076591","0.0-1.0-603.0","0","0","55562","","null","","","null","66","","","","","","","","","","","","","","","NaN",""
"","S1","","html-keyboard-response","442","1076845","0.0-1.0-605.0","0","0","55562","","null","","","null","67","","","","","","","","","","","","","","","",""
"","ISI","","html-keyboard-response","443","1078847","0.0-1.0-606.0","0","0","55562","","null","","","null","67","NaN","","","","","","","","","","","","","","",""
"","S2","","html-keyboard-response","444","1079100","0.0-1.0-607.0","0","0","55562","","null","","","null","67","","NaN","","","","","","","","","","","","","",""
"","response","","html-keyboard-response","445","1079657","0.0-1.0-608.0","0","0","55562","","554","","","68","67","","","2","67","training","adjacent","DC","4","3","L.jpg","P.jpg","1","0","0","",""
"","feedback","","html-keyboard-response","446","1080660","0.0-1.0-609.0-0.0","0","0","55562","","null","","","null","67","","","","","","","","","","","","","","","",""
"","time_out","","html-keyboard-response","447","1082663","0.0-1.0-611.0-0.0","0","0","55562","","null","","","null","67","","","","","","","","","","","","","","","",""
"","ITI","","html-keyboard-response","448","1083674","0.0-1.0-612.0","0","0","55562","","null","","","null","67","","","","","","","","","","","","","","","NaN",""
"","S1","","html-keyboard-response","449","1083927","0.0-1.0-614.0","0","0","55562","","null","","","null","68","","","","","","","","","","","","","","","",""
"","ISI","","html-keyboard-response","450","1085929","0.0-1.0-615.0","0","0","55562","","886","","","75","68","k","","","","","","","","","","","","","","",""
"","S2","","html-keyboard-response","451","1086182","0.0-1.0-616.0","0","0","55562","","null","","","null","68","","NaN","","","","","","","","","","","","","",""
"","response","","html-keyboard-response","452","1086514","0.0-1.0-617.0","0","0","55562","","329","","","75","68","","","2","68","training","adjacent","BA","2","1","O.jpg","M.jpg","0","0","1","",""
"","feedback","","html-keyboard-response","453","1087518","0.0-1.0-618.0-0.0","0","0","55562","","null","","","null","68","","","","","","","","","","","","","","","",""
"","ITI","","html-keyboard-response","454","1088522","0.0-1.0-621.0","0","0","55562","","null","","","null","68","","","","","","","","","","","","","","","NaN",""
"","S1","","html-keyboard-response","455","1088775","0.0-1.0-623.0","0","0","55562","","null","","","null","69","","","","","","","","","","","","","","","",""
"","ISI","","html-keyboard-response","456","1090778","0.0-1.0-624.0","0","0","55562","","203","","","68","69","d","","","","","","","","","","","","","","",""
"","S2","","html-keyboard-response","457","1091031","0.0-1.0-625.0","0","0","55562","","null","","","null","69","","NaN","","","","","","","","","","","","","",""
"","response","","html-keyboard-response","458","1091312","0.0-1.0-626.0","0","0","55562","","279","","","75","69","","","2","69","training","adjacent","CD","3","4","P.jpg","L.jpg","0","1","0","",""
"","feedback","","html-keyboard-response","459","1092315","0.0-1.0-627.0-0.0","0","0","55562","","null","","","null","69","","","","","","","","","","","","","","","",""
"","time_out","","html-keyboard-response","460","1094320","0.0-1.0-629.0-0.0","0","0","55562","","null","","","null","69","","","","","","","","","","","","","","","",""
"","ITI","","html-keyboard-response","461","1095324","0.0-1.0-630.0","0","0","55562","","null","","","null","69","","","","","","","","","","","","","","","NaN",""
"","S1","","html-keyboard-response","462","1095576","0.0-1.0-632.0","0","0","55562","","null","","","null","70","","","","","","","","","","","","","","","",""
"","ISI","","html-keyboard-response","463","1097579","0.0-1.0-633.0","0","0","55562","","280","","","68","70","d","","","","","","","","","","","","","","",""
"","S2","","html-keyboard-response","464","1097832","0.0-1.0-634.0","0","0","55562","","null","","","null","70","","NaN","","","","","","","","","","","","","",""
"","response","","html-keyboard-response","465","1098007","0.0-1.0-635.0","0","0","55562","","174","","","68","70","","","2","70","training","adjacent","FG","6","7","N.jpg","R.jpg","1","1","1","",""
"","feedback","","html-keyboard-response","466","1099010","0.0-1.0-636.0-0.0","0","0","55562","","null","","","null","70","","","","","","","","","","","","","","","",""
"","ITI","","html-keyboard-response","467","1100013","0.0-1.0-639.0","0","0","55562","","null","","","null","70","","","","","","","","","","","","","","","NaN",""
"","S1","","html-keyboard-response","468","1100277","0.0-1.0-641.0","0","0","55562","","null","","","null","71","","","","","","","","","","","","","","","",""
"","ISI","","html-keyboard-response","469","1102281","0.0-1.0-642.0","0","0","55562","","1595","","","75","71","k","","","","","","","","","","","","","","",""
"","S2","","html-keyboard-response","470","1102534","0.0-1.0-643.0","0","0","55562","","null","","","null","71","","NaN","","","","","","","","","","","","","",""
"","response","","html-keyboard-response","471","1102870","0.0-1.0-644.0","0","0","55562","","335","","","68","71","","","2","71","training","adjacent","GF","7","6","R.jpg","N.jpg","1","0","0","",""
"","feedback","","html-keyboard-response","472","1103873","0.0-1.0-645.0-0.0","0","0","55562","","null","","","null","71","","","","","","","","","","","","","","","",""
"","time_out","","html-keyboard-response","473","1105877","0.0-1.0-647.0-0.0","0","0","55562","","null","","","null","71","","","","","","","","","","","","","","","",""
"","ITI","","html-keyboard-response","474","1106882","0.0-1.0-648.0","0","0","55562","","null","","","null","71","","","","","","","","","","","","","","","NaN",""
"","S1","","html-keyboard-response","475","1107135","0.0-1.0-650.0","0","0","55562","","null","","","null","72","","","","","","","","","","","","","","","",""
"","ISI","","html-keyboard-response","476","1109137","0.0-1.0-651.0","0","0","55562","","337","","","75","72","k","","","","","","","","","","","","","","",""
"","S2","","html-keyboard-response","477","1109389","0.0-1.0-652.0","0","0","55562","","235","","","68","72","","d","","","","","","","","","","","","","",""
"","response","","html-keyboard-response","478","1111392","0.0-1.0-653.0","0","0","55562","","null","","","null","72","","","2","72","training","adjacent","DC","4","3","L.jpg","P.jpg","NaN","0","0","",""
"","too_slow_prompt","","html-keyboard-response","479","1112394","0.0-1.0-655.0-0.0","1","0","55562","","null","","","null","","","","","","","","","","","","","","","","",""
"","time_out","","html-keyboard-response","480","1114397","0.0-1.0-656.0-0.0","0","0","55562","","null","","","null","72","","","","","","","","","","","","","","","",""
"","ITI","","html-keyboard-response","481","1115401","0.0-1.0-657.0","0","0","55562","","215","","","68","72","","","","","","","","","","","","","","","d",""
"","S1","","html-keyboard-response","482","1115655","0.0-1.0-659.0","0","0","55562","","null","","","null","73","","","","","","","","","","","","","","","",""
"","ISI","","html-keyboard-response","483","1117658","0.0-1.0-660.0","0","0","55562","","1396","","","75","73","k","","","","","","","","","","","","","","",""
"","S2","","html-keyboard-response","484","1117911","0.0-1.0-661.0","0","0","55562","","null","","","null","73","","NaN","","","","","","","","","","","","","",""
"","response","","html-keyboard-response","485","1119066","0.0-1.0-662.0","0","0","55562","","1152","","","75","73","","","2","73","training","adjacent","ED","5","4","Q.jpg","L.jpg","0","0","1","",""
"","feedback","","html-keyboard-response","486","1120070","0.0-1.0-663.0-0.0","0","0","55562","","null","","","null","73","","","","","","","","","","","","","","","",""
"","ITI","","html-keyboard-response","487","1121077","0.0-1.0-666.0","0","0","55562","","null","","","null","73","","","","","","","","","","","","","","","NaN",""
"","S1","","html-keyboard-response","488","1121329","0.0-1.0-668.0","0","0","55562","","null","","","null","74","","","","","","","","","","","","","","","",""
"","ISI","","html-keyboard-response","489","1123332","0.0-1.0-669.0","0","0","55562","","453","","","75","74","k","","","","","","","","","","","","","","",""
"","S2","","html-keyboard-response","490","1123584","0.0-1.0-670.0","0","0","55562","","null","","","null","74","","NaN","","","","","","","","","","","","","",""
"","response","","html-keyboard-response","491","1123717","0.0-1.0-671.0","0","0","55562","","131","","","68","74","","","2","74","training","adjacent","GF","7","6","R.jpg","N.jpg","1","0","0","",""
"","feedback","","html-keyboard-response","492","1124720","0.0-1.0-672.0-0.0","0","0","55562","","null","","","null","74","","","","","","","","","","","","","","","",""
"","time_out","","html-keyboard-response","493","1126724","0.0-1.0-674.0-0.0","0","0","55562","","null","","","null","74","","","","","","","","","","","","","","","",""
"","ITI","","html-keyboard-response","494","1127728","0.0-1.0-675.0","0","0","55562","","null","","","null","74","","","","","","","","","","","","","","","NaN",""
"","S1","","html-keyboard-response","495","1127980","0.0-1.0-677.0","0","0","55562","","null","","","null","75","","","","","","","","","","","","","","","",""
"","ISI","","html-keyboard-response","496","1129983","0.0-1.0-678.0","0","0","55562","","134","","","75","75","k","","","","","","","","","","","","","","",""
"","S2","","html-keyboard-response","497","1130236","0.0-1.0-679.0","0","0","55562","","null","","","null","75","","NaN","","","","","","","","","","","","","",""
"","response","","html-keyboard-response","498","1130317","0.0-1.0-680.0","0","0","55562","","79","","","68","75","","","2","75","training","adjacent","EF","5","6","Q.jpg","N.jpg","1","1","1","",""
"","feedback","","html-keyboard-response","499","1131319","0.0-1.0-681.0-0.0","0","0","55562","","null","","","null","75","","","","","","","","","","","","","","","",""
"","ITI","","html-keyboard-response","500","1132322","0.0-1.0-684.0","0","0","55562","","null","","","null","75","","","","","","","","","","","","","","","NaN",""
"","S1","","html-keyboard-response","501","1132574","0.0-1.0-686.0","0","0","55562","","null","","","null","76","","","","","","","","","","","","","","","",""
"","ISI","","html-keyboard-response","502","1134577","0.0-1.0-687.0","0","0","55562","","null","","","null","76","NaN","","","","","","","","","","","","","","",""
"","S2","","html-keyboard-response","503","1134829","0.0-1.0-688.0","0","0","55562","","null","","","null","76","","NaN","","","","","","","","","","","","","",""
"","response","","html-keyboard-response","504","1135546","0.0-1.0-689.0","0","0","55562","","715","","","68","76","","","2","76","training","adjacent","BC","2","3","O.jpg","P.jpg","1","1","1","",""
"","feedback","","html-keyboard-response","505","1136549","0.0-1.0-690.0-0.0","0","0","55562","","null","","","null","76","","","","","","","","","","","","","","","",""
"","ITI","","html-keyboard-response","506","1137553","0.0-1.0-693.0","0","0","55562","","null","","","null","76","","","","","","","","","","","","","","","NaN",""
"","S1","","html-keyboard-response","507","1137806","0.0-1.0-695.0","0","0","55562","","null","","","null","77","","","","","","","","","","","","","","","",""
"","ISI","","html-keyboard-response","508","1139809","0.0-1.0-696.0","0","0","55562","","1504","","","68","77","d","","","","","","","","","","","","","","",""
"","S2","","html-keyboard-response","509","1140061","0.0-1.0-697.0","0","0","55562","","null","","","null","77","","NaN","","","","","","","","","","","","","",""
"","response","","html-keyboard-response","510","1140987","0.0-1.0-698.0","0","0","55562","","925","","","68","77","","","2","77","training","adjacent","DE","4","5","L.jpg","Q.jpg","1","1","1","",""
"","feedback","","html-keyboard-response","511","1141990","0.0-1.0-699.0-0.0","0","0","55562","","null","","","null","77","","","","","","","","","","","","","","","",""
"","ITI","","html-keyboard-response","512","1142993","0.0-1.0-702.0","0","0","55562","","18","","","68","77","","","","","","","","","","","","","","","d",""
"","S1","","html-keyboard-response","513","1143254","0.0-1.0-704.0","0","0","55562","","null","","","null","78","","","","","","","","","","","","","","","",""
"","ISI","","html-keyboard-response","514","1145260","0.0-1.0-705.0","0","0","55562","","1027","","","68","78","d","","","","","","","","","","","","","","",""
"","S2","","html-keyboard-response","515","1145513","0.0-1.0-706.0","0","0","55562","","null","","","null","78","","NaN","","","","","","","","","","","","","",""
"","response","","html-keyboard-response","516","1147515","0.0-1.0-707.0","0","0","55562","","null","","","null","78","","","2","78","training","adjacent","BC","2","3","O.jpg","P.jpg","NaN","1","0","",""
"","too_slow_prompt","","html-keyboard-response","517","1148519","0.0-1.0-709.0-0.0","1","0","55562","","null","","","null","","","","","","","","","","","","","","","","",""
"","time_out","","html-keyboard-response","518","1150522","0.0-1.0-710.0-0.0","0","0","55562","","null","","","null","78","","","","","","","","","","","","","","","",""
"","ITI","","html-keyboard-response","519","1151524","0.0-1.0-711.0","0","0","55562","","null","","","null","78","","","","","","","","","","","","","","","NaN",""
"","S1","","html-keyboard-response","520","1151777","0.0-1.0-713.0","0","0","55562","","null","","","null","79","","","","","","","","","","","","","","","",""
"","ISI","","html-keyboard-response","521","1153780","0.0-1.0-714.0","0","0","55562","","153","","","68","79","d","","","","","","","","","","","","","","",""
"","S2","","html-keyboard-response","522","1154033","0.0-1.0-715.0","0","0","55562","","null","","","null","79","","NaN","","","","","","","","","","","","","",""
"","response","","html-keyboard-response","523","1155236","0.0-1.0-716.0","0","0","55562","","1201","","","68","79","","","2","79","training","adjacent","AB","1","2","M.jpg","O.jpg","1","1","1","",""
"","feedback","","html-keyboard-response","524","1156239","0.0-1.0-717.0-0.0","0","0","55562","","null","","","null","79","","","","","","","","","","","","","","","",""
"","ITI","","html-keyboard-response","525","1157241","0.0-1.0-720.0","0","0","55562","","null","","","null","79","","","","","","","","","","","","","","","NaN",""
"","S1","","html-keyboard-response","526","1157494","0.0-1.0-722.0","0","0","55562","","null","","","null","80","","","","","","","","","","","","","","","",""
"","ISI","","html-keyboard-response","527","1159497","0.0-1.0-723.0","0","0","55562","","353","","","68","80","d","","","","","","","","","","","","","","",""
"","S2","","html-keyboard-response","528","1159760","0.0-1.0-724.0","0","0","55562","","157","","","68","80","","d","","","","","","","","","","","","","",""
"","response","","html-keyboard-response","529","1160629","0.0-1.0-725.0","0","0","55562","","866","","","68","80","","","2","80","training","adjacent","BA","2","1","O.jpg","M.jpg","1","0","0","",""
"","feedback","","html-keyboard-response","530","1161633","0.0-1.0-726.0-0.0","0","0","55562","","null","","","null","80","","","","","","","","","","","","","","","",""
"","time_out","","html-keyboard-response","531","1163636","0.0-1.0-728.0-0.0","0","0","55562","","null","","","null","80","","","","","","","","","","","","","","","",""
"","ITI","","html-keyboard-response","532","1164654","0.0-1.0-729.0","0","0","55562","","147","","","75","80","","","","","","","","","","","","","","","k",""
"","S1","","html-keyboard-response","533","1164917","0.0-1.0-731.0","0","0","55562","","null","","","null","81","","","","","","","","","","","","","","","",""
"","ISI","","html-keyboard-response","534","1166920","0.0-1.0-732.0","0","0","55562","","1395","","","68","81","d","","","","","","","","","","","","","","",""
"","S2","","html-keyboard-response","535","1167174","0.0-1.0-733.0","0","0","55562","","null","","","null","81","","NaN","","","","","","","","","","","","","",""
"","response","","html-keyboard-response","536","1167327","0.0-1.0-734.0","0","0","55562","","151","","","68","81","","","2","81","training","adjacent","DE","4","5","L.jpg","Q.jpg","1","1","1","",""
"","feedback","","html-keyboard-response","537","1168331","0.0-1.0-735.0-0.0","0","0","55562","","null","","","null","81","","","","","","","","","","","","","","","",""
"","ITI","","html-keyboard-response","538","1169345","0.0-1.0-738.0","0","0","55562","","null","","","null","81","","","","","","","","","","","","","","","NaN",""
"","S1","","html-keyboard-response","539","1169597","0.0-1.0-740.0","0","0","55562","","null","","","null","82","","","","","","","","","","","","","","","",""
"","ISI","","html-keyboard-response","540","1171600","0.0-1.0-741.0","0","0","55562","","405","","","75","82","k","","","","","","","","","","","","","","",""
"","S2","","html-keyboard-response","541","1171854","0.0-1.0-742.0","0","0","55562","","null","","","null","82","","NaN","","","","","","","","","","","","","",""
"","response","","html-keyboard-response","542","1173091","0.0-1.0-743.0","0","0","55562","","1236","","","68","82","","","2","82","training","adjacent","DE","4","5","L.jpg","Q.jpg","1","1","1","",""
"","feedback","","html-keyboard-response","543","1174095","0.0-1.0-744.0-0.0","0","0","55562","","null","","","null","82","","","","","","","","","","","","","","","",""
"","ITI","","html-keyboard-response","544","1175110","0.0-1.0-747.0","0","0","55562","","null","","","null","82","","","","","","","","","","","","","","","NaN",""
"","S1","","html-keyboard-response","545","1175362","0.0-1.0-749.0","0","0","55562","","null","","","null","83","","","","","","","","","","","","","","","",""
"","ISI","","html-keyboard-response","546","1177365","0.0-1.0-750.0","0","0","55562","","429","","","75","83","k","","","","","","","","","","","","","","",""
"","S2","","html-keyboard-response","547","1177617","0.0-1.0-751.0","0","0","55562","","null","","","null","83","","NaN","","","","","","","","","","","","","",""
"","response","","html-keyboard-response","548","1178559","0.0-1.0-752.0","0","0","55562","","941","","","68","83","","","2","83","training","adjacent","CB","3","2","P.jpg","O.jpg","1","0","0","",""
"","feedback","","html-keyboard-response","549","1179562","0.0-1.0-753.0-0.0","0","0","55562","","null","","","null","83","","","","","","","","","","","","","","","",""
"","time_out","","html-keyboard-response","550","1181564","0.0-1.0-755.0-0.0","0","0","55562","","null","","","null","83","","","","","","","","","","","","","","","",""
"","ITI","","html-keyboard-response","551","1182567","0.0-1.0-756.0","0","0","55562","","null","","","null","83","","","","","","","","","","","","","","","NaN",""
"","S1","","html-keyboard-response","552","1182821","0.0-1.0-758.0","0","0","55562","","null","","","null","84","","","","","","","","","","","","","","","",""
"","ISI","","html-keyboard-response","553","1184824","0.0-1.0-759.0","0","0","55562","","197","","","68","84","d","","","","","","","","","","","","","","",""
"","S2","","html-keyboard-response","554","1185077","0.0-1.0-760.0","0","0","55562","","206","","","75","84","","k","","","","","","","","","","","","","",""
"","response","","html-keyboard-response","555","1187080","0.0-1.0-761.0","0","0","55562","","null","","","null","84","","","2","84","training","adjacent","FG","6","7","N.jpg","R.jpg","NaN","1","0","",""
"","too_slow_prompt","","html-keyboard-response","556","1188082","0.0-1.0-763.0-0.0","1","0","55562","","null","","","null","","","","","","","","","","","","","","","","",""
"","time_out","","html-keyboard-response","557","1190085","0.0-1.0-764.0-0.0","0","0","55562","","null","","","null","84","","","","","","","","","","","","","","","",""
"","ITI","","html-keyboard-response","558","1191088","0.0-1.0-765.0","0","0","55562","","746","","","68","84","","","","","","","","","","","","","","","d",""
"","S1","","html-keyboard-response","559","1191342","0.0-1.0-767.0","0","0","55562","","null","","","null","85","","","","","","","","","","","","","","","",""
"","ISI","","html-keyboard-response","560","1193345","0.0-1.0-768.0","0","0","55562","","211","","","75","85","k","","","","","","","","","","","","","","",""
"","S2","","html-keyboard-response","561","1193598","0.0-1.0-769.0","0","0","55562","","null","","","null","85","","NaN","","","","","","","","","","","","","",""
"","response","","html-keyboard-response","562","1193819","0.0-1.0-770.0","0","0","55562","","219","","","68","85","","","2","85","training","adjacent","EF","5","6","Q.jpg","N.jpg","1","1","1","",""
"","feedback","","html-keyboard-response","563","1194822","0.0-1.0-771.0-0.0","0","0","55562","","null","","","null","85","","","","","","","","","","","","","","","",""
"","ITI","","html-keyboard-response","564","1195825","0.0-1.0-774.0","0","0","55562","","null","","","null","85","","","","","","","","","","","","","","","NaN",""
"","S1","","html-keyboard-response","565","1196079","0.0-1.0-776.0","0","0","55562","","null","","","null","86","","","","","","","","","","","","","","","",""
"","ISI","","html-keyboard-response","566","1198081","0.0-1.0-777.0","0","0","55562","","573","","","75","86","k","","","","","","","","","","","","","","",""
"","S2","","html-keyboard-response","567","1198334","0.0-1.0-778.0","0","0","55562","","null","","","null","86","","NaN","","","","","","","","","","","","","",""
"","response","","html-keyboard-response","568","1198796","0.0-1.0-779.0","0","0","55562","","460","","","75","86","","","2","86","training","adjacent","FE","6","5","N.jpg","Q.jpg","0","0","1","",""
"","feedback","","html-keyboard-response","569","1199799","0.0-1.0-780.0-0.0","0","0","55562","","null","","","null","86","","","","","","","","","","","","","","","",""
"","ITI","","html-keyboard-response","570","1200804","0.0-1.0-783.0","0","0","55562","","136","","","75","86","","","","","","","","","","","","","","","k",""
"","S1","","html-keyboard-response","571","1201058","0.0-1.0-785.0","0","0","55562","","null","","","null","87","","","","","","","","","","","","","","","",""
"","ISI","","html-keyboard-response","572","1203063","0.0-1.0-786.0","0","0","55562","","193","","","75","87","k","","","","","","","","","","","","","","",""
"","S2","","html-keyboard-response","573","1203317","0.0-1.0-787.0","0","0","55562","","null","","","null","87","","NaN","","","","","","","","","","","","","",""
"","response","","html-keyboard-response","574","1205320","0.0-1.0-788.0","0","0","55562","","null","","","null","87","","","2","87","training","adjacent","EF","5","6","Q.jpg","N.jpg","NaN","1","0","",""
"","too_slow_prompt","","html-keyboard-response","575","1206323","0.0-1.0-790.0-0.0","1","0","55562","","null","","","null","","","","","","","","","","","","","","","","",""
"","time_out","","html-keyboard-response","576","1208325","0.0-1.0-791.0-0.0","0","0","55562","","null","","","null","87","","","","","","","","","","","","","","","",""
"","ITI","","html-keyboard-response","577","1209328","0.0-1.0-792.0","0","0","55562","","null","","","null","87","","","","","","","","","","","","","","","NaN",""
"","S1","","html-keyboard-response","578","1209581","0.0-1.0-794.0","0","0","55562","","null","","","null","88","","","","","","","","","","","","","","","",""
"","ISI","","html-keyboard-response","579","1211585","0.0-1.0-795.0","0","0","55562","","279","","","68","88","d","","","","","","","","","","","","","","",""
"","S2","","html-keyboard-response","580","1211840","0.0-1.0-796.0","0","0","55562","","null","","","null","88","","NaN","","","","","","","","","","","","","",""
"","response","","html-keyboard-response","581","1211992","0.0-1.0-797.0","0","0","55562","","150","","","68","88","","","2","88","training","adjacent","CB","3","2","P.jpg","O.jpg","1","0","0","",""
"","feedback","","html-keyboard-response","582","1212995","0.0-1.0-798.0-0.0","0","0","55562","","null","","","null","88","","","","","","","","","","","","","","","",""
"","time_out","","html-keyboard-response","583","1214999","0.0-1.0-800.0-0.0","0","0","55562","","null","","","null","88","","","","","","","","","","","","","","","",""
"","ITI","","html-keyboard-response","584","1216001","0.0-1.0-801.0","0","0","55562","","150","","","75","88","","","","","","","","","","","","","","","k",""
"","S1","","html-keyboard-response","585","1216254","0.0-1.0-803.0","0","0","55562","","null","","","null","89","","","","","","","","","","","","","","","",""
"","ISI","","html-keyboard-response","586","1218259","0.0-1.0-804.0","0","0","55562","","353","","","75","89","k","","","","","","","","","","","","","","",""
