"success","ttype","start_time","trial_type","trial_index","time_elapsed","internal_node_id","warning","missed_checkup","PID","view_history","rt","responses","repeat_instructions","key_press","index","keypress_isi","keypress_S2","block","trial_num","phase","group_type","pair_type","S1_stim","S2_stim","S1_img","S2_img","S1_chosen","S1_higher","accuracy","keypress_iti","total_bonus_tally"
"true","full_screen","d03082023hr1432","fullscreen","0","1992","0.0-0.0","0","0","75806","","","","","","","","","","","","","","","","","","","","","",""
"","instructions","","instructions","1","17176","0.0-1.0-0.0-0.0","0","0","75806","[{""page_index"":0,""viewing_time"":5796},{""page_index"":1,""viewing_time"":7447},{""page_index"":2,""viewing_time"":1161},{""page_index"":3,""viewing_time"":778}]","15182","","","","","","","","","","","","","","","","","","","",""
"","comprehension_check","","survey-multi-choice","2","27011","0.0-1.0-0.0-1.0","0","0","75806","","9833","{""Q0"":""True"",""Q1"":""D"",""Q2"":""Only when the screen 'MAKE A CHOICE' is shown"",""Q3"":""Red cross"",""Q4"":""either D or K""}","1","","","","","","","","","","","","","","","","","",""
"","missed_instruction_checkup","","html-keyboard-response","3","28720","0.0-1.0-0.0-2.0-0.0","0","1","75806","","1708","","","32","","","","","","","","","","","","","","","","",""
"","instructions","","instructions","4","47891","0.0-1.0-0.1-0.1","0","0","75806","[{""page_index"":0,""viewing_time"":1377},{""page_index"":1,""viewing_time"":10492},{""page_index"":2,""viewing_time"":6450},{""page_index"":3,""viewing_time"":851}]","19170","","","","","","","","","","","","","","","","","","","",""
"","comprehension_check","","survey-multi-choice","5","65961","0.0-1.0-0.1-1.1","0","0","75806","","18068","{""Q0"":""True"",""Q1"":""D"",""Q2"":""Once the second image appears and while the screen 'MAKE A CHOICE' is shown"",""Q3"":""Green mark"",""Q4"":""either D or K""}","0","","","","","","","","","","","","","","","","","",""
"","start_exp","","html-keyboard-response","6","79406","0.0-1.0-1.0","0","0","75806","","13444","","","32","","","","","","","","","","","","","","","","",""
"","S1","","html-keyboard-response","7","79659","0.0-1.0-2.0","0","0","75806","","null","","","null","0","","","","","","","","","","","","","","","",""
"","ISI","","html-keyboard-response","8","79810","0.0-1.0-3.0","0","0","75806","","null","","","null","0","NaN","","","","","","","","","","","","","","",""
"","S2","","html-keyboard-response","9","80063","0.0-1.0-4.0","0","0","75806","","null","","","null","0","","NaN","","","","","","","","","","","","","",""
"","response","","html-keyboard-response","10","81013","0.0-1.0-5.0-0.0","0","0","75806","","949","","","68","0","","","1","0","training","adjacent","CD","3","4","P.jpg","N.jpg","1","1","1","",""
"","feedback","","html-keyboard-response","11","82014","0.0-1.0-6.0-0.0","0","0","75806","","null","","","null","0","","","","","","","","","","","","","","","",""
"","ITI","","html-keyboard-response","12","83016","0.0-1.0-9.0","0","0","75806","","null","","","null","0","","","","","","","","","","","","","","","NaN",""
"","S1","","html-keyboard-response","13","83268","0.0-1.0-11.0","0","0","75806","","null","","","null","1","","","","","","","","","","","","","","","",""
"","ISI","","html-keyboard-response","14","83419","0.0-1.0-12.0","0","0","75806","","null","","","null","1","NaN","","","","","","","","","","","","","","",""
"","S2","","html-keyboard-response","15","83672","0.0-1.0-13.0","0","0","75806","","null","","","null","1","","NaN","","","","","","","","","","","","","",""
"","response","","html-keyboard-response","16","84291","0.0-1.0-14.0-0.0","0","0","75806","","618","","","68","1","","","1","1","training","adjacent","FE","6","5","L.jpg","M.jpg","1","0","0","",""
"","feedback","","html-keyboard-response","17","85291","0.0-1.0-15.0-0.0","0","0","75806","","null","","","null","1","","","","","","","","","","","","","","","",""
"","time_out","","html-keyboard-response","18","87294","0.0-1.0-17.0-0.0","0","0","75806","","null","","","null","1","","","","","","","","","","","","","","","",""
"","ITI","","html-keyboard-response","19","88296","0.0-1.0-18.0","0","0","75806","","767","","","32","1","","","","","","","","","","","","","","","space",""
"","S1","","html-keyboard-response","20","88560","0.0-1.0-20.0","0","0","75806","","null","","","null","2","","","","","","","","","","","","","","","",""
"","ISI","","html-keyboard-response","21","88712","0.0-1.0-21.0","0","0","75806","","null","","","null","2","NaN","","","","","","","","","","","","","","",""
"","S2","","html-keyboard-response","22","88964","0.0-1.0-22.0","0","0","75806","","null","","","null","2","","NaN","","","","","","","","","","","","","",""
"","response","","html-keyboard-response","23","89271","0.0-1.0-23.0-0.0","0","0","75806","","306","","","75","2","","","1","2","training","adjacent","DC","4","3","N.jpg","P.jpg","0","0","1","",""
"","feedback","","html-keyboard-response","24","90273","0.0-1.0-24.0-0.0","0","0","75806","","null","","","null","2","","","","","","","","","","","","","","","",""
"","ITI","","html-keyboard-response","25","91276","0.0-1.0-27.0","0","0","75806","","null","","","null","2","","","","","","","","","","","","","","","NaN",""
"","S1","","html-keyboard-response","26","91528","0.0-1.0-29.0","0","0","75806","","null","","","null","3","","","","","","","","","","","","","","","",""
"","ISI","","html-keyboard-response","27","91680","0.0-1.0-30.0","0","0","75806","","null","","","null","3","NaN","","","","","","","","","","","","","","",""
"","S2","","html-keyboard-response","28","91932","0.0-1.0-31.0","0","0","75806","","null","","","null","3","","NaN","","","","","","","","","","","","","",""
"","response","","html-keyboard-response","29","92127","0.0-1.0-32.0-0.0","0","0","75806","","195","","","75","3","","","1","3","training","adjacent","EF","5","6","M.jpg","L.jpg","0","1","0","",""
"","feedback","","html-keyboard-response","30","93129","0.0-1.0-33.0-0.0","0","0","75806","","null","","","null","3","","","","","","","","","","","","","","","",""
"","time_out","","html-keyboard-response","31","95130","0.0-1.0-35.0-0.0","0","0","75806","","null","","","null","3","","","","","","","","","","","","","","","",""
"","ITI","","html-keyboard-response","32","96134","0.0-1.0-36.0","0","0","75806","","591","","","32","3","","","","","","","","","","","","","","","space",""
"","S1","","html-keyboard-response","33","96386","0.0-1.0-38.0","0","0","75806","","null","","","null","4","","","","","","","","","","","","","","","",""
"","ISI","","html-keyboard-response","34","96538","0.0-1.0-39.0","0","0","75806","","null","","","null","4","NaN","","","","","","","","","","","","","","",""
"","S2","","html-keyboard-response","35","96789","0.0-1.0-40.0","0","0","75806","","null","","","null","4","","NaN","","","","","","","","","","","","","",""
"","response","","html-keyboard-response","36","96981","0.0-1.0-41.0-0.0","0","0","75806","","190","","","68","4","","","1","4","training","adjacent","FG","6","7","L.jpg","O.jpg","1","1","1","",""
"","feedback","","html-keyboard-response","37","97983","0.0-1.0-42.0-0.0","0","0","75806","","null","","","null","4","","","","","","","","","","","","","","","",""
"","ITI","","html-keyboard-response","38","98984","0.0-1.0-45.0","0","0","75806","","null","","","null","4","","","","","","","","","","","","","","","NaN",""
"","S1","","html-keyboard-response","39","99237","0.0-1.0-47.0","0","0","75806","","null","","","null","5","","","","","","","","","","","","","","","",""
"","ISI","","html-keyboard-response","40","99389","0.0-1.0-48.0","0","0","75806","","null","","","null","5","NaN","","","","","","","","","","","","","","",""
"","S2","","html-keyboard-response","41","99642","0.0-1.0-49.0","0","0","75806","","null","","","null","5","","NaN","","","","","","","","","","","","","",""
"","response","","html-keyboard-response","42","99794","0.0-1.0-50.0-0.0","0","0","75806","","151","","","68","5","","","1","5","training","adjacent","DE","4","5","N.jpg","M.jpg","1","1","1","",""
"","feedback","","html-keyboard-response","43","100796","0.0-1.0-51.0-0.0","0","0","75806","","null","","","null","5","","","","","","","","","","","","","","","",""
"","ITI","","html-keyboard-response","44","101798","0.0-1.0-54.0","0","0","75806","","null","","","null","5","","","","","","","","","","","","","","","NaN",""
"","S1","","html-keyboard-response","45","102050","0.0-1.0-56.0","0","0","75806","","null","","","null","6","","","","","","","","","","","","","","","",""
"","ISI","","html-keyboard-response","46","102202","0.0-1.0-57.0","0","0","75806","","null","","","null","6","NaN","","","","","","","","","","","","","","",""
"","S2","","html-keyboard-response","47","102467","0.0-1.0-58.0","0","0","75806","","null","","","null","6","","NaN","","","","","","","","","","","","","",""
"","response","","html-keyboard-response","48","102640","0.0-1.0-59.0-0.0","0","0","75806","","172","","","68","6","","","1","6","training","adjacent","BA","2","1","R.jpg","Q.jpg","1","0","0","",""
"","feedback","","html-keyboard-response","49","103642","0.0-1.0-60.0-0.0","0","0","75806","","null","","","null","6","","","","","","","","","","","","","","","",""
"","time_out","","html-keyboard-response","50","105645","0.0-1.0-62.0-0.0","0","0","75806","","null","","","null","6","","","","","","","","","","","","","","","",""
"","ITI","","html-keyboard-response","51","106647","0.0-1.0-63.0","0","0","75806","","382","","","32","6","","","","","","","","","","","","","","","space",""
"","S1","","html-keyboard-response","52","106900","0.0-1.0-65.0","0","0","75806","","null","","","null","7","","","","","","","","","","","","","","","",""
"","ISI","","html-keyboard-response","53","107051","0.0-1.0-66.0","0","0","75806","","null","","","null","7","NaN","","","","","","","","","","","","","","",""
"","S2","","html-keyboard-response","54","107303","0.0-1.0-67.0","0","0","75806","","null","","","null","7","","NaN","","","","","","","","","","","","","",""
"","response","","html-keyboard-response","55","107439","0.0-1.0-68.0-0.0","0","0","75806","","135","","","75","7","","","1","7","training","adjacent","AB","1","2","Q.jpg","R.jpg","0","1","0","",""
"","feedback","","html-keyboard-response","56","108440","0.0-1.0-69.0-0.0","0","0","75806","","null","","","null","7","","","","","","","","","","","","","","","",""
"","time_out","","html-keyboard-response","57","110442","0.0-1.0-71.0-0.0","0","0","75806","","null","","","null","7","","","","","","","","","","","","","","","",""
"","ITI","","html-keyboard-response","58","111444","0.0-1.0-72.0","0","0","75806","","null","","","null","7","","","","","","","","","","","","","","","NaN",""
"","S1","","html-keyboard-response","59","111695","0.0-1.0-74.0","0","0","75806","","null","","","null","8","","","","","","","","","","","","","","","",""
"","ISI","","html-keyboard-response","60","111847","0.0-1.0-75.0","0","0","75806","","null","","","null","8","NaN","","","","","","","","","","","","","","",""
"","S2","","html-keyboard-response","61","111857","0.0-1.0-76.0","0","0","75806","","9","","","68","8","","d","1","8","training","adjacent","CD","3","4","P.jpg","N.jpg","1","1","1","",""
"","feedback","","html-keyboard-response","62","112859","0.0-1.0-78.0-0.0","0","0","75806","","null","","","null","8","","","","","","","","","","","","","","","",""
"","ITI","","html-keyboard-response","63","113861","0.0-1.0-81.0","0","0","75806","","null","","","null","8","","","","","","","","","","","","","","","NaN",""
"","S1","","html-keyboard-response","64","114113","0.0-1.0-83.0","0","0","75806","","null","","","null","9","","","","","","","","","","","","","","","",""
"","ISI","","html-keyboard-response","65","114265","0.0-1.0-84.0","0","0","75806","","null","","","null","9","NaN","","","","","","","","","","","","","","",""
"","S2","","html-keyboard-response","66","114517","0.0-1.0-85.0","0","0","75806","","null","","","null","9","","NaN","","","","","","","","","","","","","",""
"","response","","html-keyboard-response","67","114909","0.0-1.0-86.0-0.0","0","0","75806","","392","","","75","9","","","1","9","training","adjacent","DE","4","5","N.jpg","M.jpg","0","1","0","",""
"","feedback","","html-keyboard-response","68","115910","0.0-1.0-87.0-0.0","0","0","75806","","null","","","null","9","","","","","","","","","","","","","","","",""
"","time_out","","html-keyboard-response","69","117912","0.0-1.0-89.0-0.0","0","0","75806","","null","","","null","9","","","","","","","","","","","","","","","",""
"","ITI","","html-keyboard-response","70","118914","0.0-1.0-90.0","0","0","75806","","null","","","null","9","","","","","","","","","","","","","","","NaN",""
"","S1","","html-keyboard-response","71","119166","0.0-1.0-92.0","0","0","75806","","null","","","null","10","","","","","","","","","","","","","","","",""
"","ISI","","html-keyboard-response","72","119317","0.0-1.0-93.0","0","0","75806","","null","","","null","10","NaN","","","","","","","","","","","","","","",""
"","S2","","html-keyboard-response","73","119582","0.0-1.0-94.0","0","0","75806","","null","","","null","10","","NaN","","","","","","","","","","","","","",""
"","response","","html-keyboard-response","74","119910","0.0-1.0-95.0-0.0","0","0","75806","","327","","","68","10","","","1","10","training","adjacent","FE","6","5","L.jpg","M.jpg","1","0","0","",""
"","feedback","","html-keyboard-response","75","120912","0.0-1.0-96.0-0.0","0","0","75806","","null","","","null","10","","","","","","","","","","","","","","","",""
"","time_out","","html-keyboard-response","76","122914","0.0-1.0-98.0-0.0","0","0","75806","","null","","","null","10","","","","","","","","","","","","","","","",""
"","ITI","","html-keyboard-response","77","123916","0.0-1.0-99.0","0","0","75806","","null","","","null","10","","","","","","","","","","","","","","","NaN",""
"","S1","","html-keyboard-response","78","124168","0.0-1.0-101.0","0","0","75806","","null","","","null","11","","","","","","","","","","","","","","","",""
"","ISI","","html-keyboard-response","79","124320","0.0-1.0-102.0","0","0","75806","","null","","","null","11","NaN","","","","","","","","","","","","","","",""
"","S2","","html-keyboard-response","80","124571","0.0-1.0-103.0","0","0","75806","","null","","","null","11","","NaN","","","","","","","","","","","","","",""
"","response","","html-keyboard-response","81","124842","0.0-1.0-104.0-0.0","0","0","75806","","270","","","75","11","","","1","11","training","adjacent","AB","1","2","Q.jpg","R.jpg","0","1","0","",""
"","feedback","","html-keyboard-response","82","125844","0.0-1.0-105.0-0.0","0","0","75806","","null","","","null","11","","","","","","","","","","","","","","","",""
"","time_out","","html-keyboard-response","83","127847","0.0-1.0-107.0-0.0","0","0","75806","","null","","","null","11","","","","","","","","","","","","","","","",""
"","ITI","","html-keyboard-response","84","128849","0.0-1.0-108.0","0","0","75806","","null","","","null","11","","","","","","","","","","","","","","","NaN",""
"","S1","","html-keyboard-response","85","129100","0.0-1.0-110.0","0","0","75806","","null","","","null","12","","","","","","","","","","","","","","","",""
"","ISI","","html-keyboard-response","86","129252","0.0-1.0-111.0","0","0","75806","","143","","","68","12","d","","","","","","","","","","","","","","",""
"","S2","","html-keyboard-response","87","129504","0.0-1.0-112.0","0","0","75806","","null","","","null","12","","NaN","","","","","","","","","","","","","",""
"","response","","html-keyboard-response","88","129719","0.0-1.0-113.0-0.0","0","0","75806","","215","","","68","12","","","1","12","training","adjacent","AB","1","2","Q.jpg","R.jpg","1","1","1","",""
"","feedback","","html-keyboard-response","89","130721","0.0-1.0-114.0-0.0","0","0","75806","","null","","","null","12","","","","","","","","","","","","","","","",""
"","ITI","","html-keyboard-response","90","131722","0.0-1.0-117.0","0","0","75806","","null","","","null","12","","","","","","","","","","","","","","","NaN",""
"","S1","","html-keyboard-response","91","131973","0.0-1.0-119.0","0","0","75806","","null","","","null","13","","","","","","","","","","","","","","","",""
"","ISI","","html-keyboard-response","92","132126","0.0-1.0-120.0","0","0","75806","","null","","","null","13","NaN","","","","","","","","","","","","","","",""
"","S2","","html-keyboard-response","93","132378","0.0-1.0-121.0","0","0","75806","","null","","","null","13","","NaN","","","","","","","","","","","","","",""
"","response","","html-keyboard-response","94","132713","0.0-1.0-122.0-0.0","0","0","75806","","334","","","68","13","","","1","13","training","adjacent","EF","5","6","M.jpg","L.jpg","1","1","1","",""
"","feedback","","html-keyboard-response","95","133715","0.0-1.0-123.0-0.0","0","0","75806","","null","","","null","13","","","","","","","","","","","","","","","",""
"","ITI","","html-keyboard-response","96","134717","0.0-1.0-126.0","0","0","75806","","null","","","null","13","","","","","","","","","","","","","","","NaN",""
"","S1","","html-keyboard-response","97","134969","0.0-1.0-128.0","0","0","75806","","null","","","null","14","","","","","","","","","","","","","","","",""
"","ISI","","html-keyboard-response","98","135121","0.0-1.0-129.0","0","0","75806","","null","","","null","14","NaN","","","","","","","","","","","","","","",""
"","S2","","html-keyboard-response","99","135373","0.0-1.0-130.0","0","0","75806","","null","","","null","14","","NaN","","","","","","","","","","","","","",""
"","response","","html-keyboard-response","100","135887","0.0-1.0-131.0-0.0","0","0","75806","","514","","","75","14","","","1","14","training","adjacent","CB","3","2","P.jpg","R.jpg","0","0","1","",""
"","feedback","","html-keyboard-response","101","136889","0.0-1.0-132.0-0.0","0","0","75806","","null","","","null","14","","","","","","","","","","","","","","","",""
"","ITI","","html-keyboard-response","102","137891","0.0-1.0-135.0","0","0","75806","","null","","","null","14","","","","","","","","","","","","","","","NaN",""
"","S1","","html-keyboard-response","103","138142","0.0-1.0-137.0","0","0","75806","","null","","","null","15","","","","","","","","","","","","","","","",""
"","ISI","","html-keyboard-response","104","138293","0.0-1.0-138.0","0","0","75806","","null","","","null","15","NaN","","","","","","","","","","","","","","",""
"","S2","","html-keyboard-response","105","138545","0.0-1.0-139.0","0","0","75806","","null","","","null","15","","NaN","","","","","","","","","","","","","",""
"","response","","html-keyboard-response","106","138833","0.0-1.0-140.0-0.0","0","0","75806","","288","","","68","15","","","1","15","training","adjacent","GF","7","6","O.jpg","L.jpg","1","0","0","",""
"","feedback","","html-keyboard-response","107","139835","0.0-1.0-141.0-0.0","0","0","75806","","null","","","null","15","","","","","","","","","","","","","","","",""
"","time_out","","html-keyboard-response","108","141836","0.0-1.0-143.0-0.0","0","0","75806","","null","","","null","15","","","","","","","","","","","","","","","",""
"","ITI","","html-keyboard-response","109","142838","0.0-1.0-144.0","0","0","75806","","null","","","null","15","","","","","","","","","","","","","","","NaN",""
"","S1","","html-keyboard-response","110","143090","0.0-1.0-146.0","0","0","75806","","null","","","null","16","","","","","","","","","","","","","","","",""
"","ISI","","html-keyboard-response","111","143242","0.0-1.0-147.0","0","0","75806","","null","","","null","16","NaN","","","","","","","","","","","","","","",""
"","S2","","html-keyboard-response","112","143493","0.0-1.0-148.0","0","0","75806","","null","","","null","16","","NaN","","","","","","","","","","","","","",""
"","response","","html-keyboard-response","113","143653","0.0-1.0-149.0-0.0","0","0","75806","","159","","","75","16","","","1","16","training","adjacent","FG","6","7","L.jpg","O.jpg","0","1","0","",""
"","feedback","","html-keyboard-response","114","144655","0.0-1.0-150.0-0.0","0","0","75806","","null","","","null","16","","","","","","","","","","","","","","","",""
"","time_out","","html-keyboard-response","115","146657","0.0-1.0-152.0-0.0","0","0","75806","","null","","","null","16","","","","","","","","","","","","","","","",""
"","ITI","","html-keyboard-response","116","147658","0.0-1.0-153.0","0","0","75806","","null","","","null","16","","","","","","","","","","","","","","","NaN",""
"","S1","","html-keyboard-response","117","147909","0.0-1.0-155.0","0","0","75806","","null","","","null","17","","","","","","","","","","","","","","","",""
"","ISI","","html-keyboard-response","118","148061","0.0-1.0-156.0","0","0","75806","","null","","","null","17","NaN","","","","","","","","","","","","","","",""
"","S2","","html-keyboard-response","119","148314","0.0-1.0-157.0","0","0","75806","","null","","","null","17","","NaN","","","","","","","","","","","","","",""
"","response","","html-keyboard-response","120","148568","0.0-1.0-158.0-0.0","0","0","75806","","254","","","68","17","","","1","17","training","adjacent","CD","3","4","P.jpg","N.jpg","1","1","1","",""
"","feedback","","html-keyboard-response","121","149570","0.0-1.0-159.0-0.0","0","0","75806","","null","","","null","17","","","","","","","","","","","","","","","",""
"","ITI","","html-keyboard-response","122","150571","0.0-1.0-162.0","0","0","75806","","null","","","null","17","","","","","","","","","","","","","","","NaN",""
"","S1","","html-keyboard-response","123","150822","0.0-1.0-164.0","0","0","75806","","null","","","null","18","","","","","","","","","","","","","","","",""
"","ISI","","html-keyboard-response","124","150974","0.0-1.0-165.0","0","0","75806","","null","","","null","18","NaN","","","","","","","","","","","","","","",""
"","S2","","html-keyboard-response","125","151225","0.0-1.0-166.0","0","0","75806","","null","","","null","18","","NaN","","","","","","","","","","","","","",""
"","response","","html-keyboard-response","126","151492","0.0-1.0-167.0-0.0","0","0","75806","","267","","","68","18","","","1","18","training","adjacent","ED","5","4","M.jpg","N.jpg","1","0","0","",""
"","feedback","","html-keyboard-response","127","152497","0.0-1.0-168.0-0.0","0","0","75806","","null","","","null","18","","","","","","","","","","","","","","","",""
"","time_out","","html-keyboard-response","128","154498","0.0-1.0-170.0-0.0","0","0","75806","","null","","","null","18","","","","","","","","","","","","","","","",""
"","ITI","","html-keyboard-response","129","155500","0.0-1.0-171.0","0","0","75806","","null","","","null","18","","","","","","","","","","","","","","","NaN",""
"","S1","","html-keyboard-response","130","155752","0.0-1.0-173.0","0","0","75806","","null","","","null","19","","","","","","","","","","","","","","","",""
"","ISI","","html-keyboard-response","131","155904","0.0-1.0-174.0","0","0","75806","","null","","","null","19","NaN","","","","","","","","","","","","","","",""
"","S2","","html-keyboard-response","132","156155","0.0-1.0-175.0","0","0","75806","","null","","","null","19","","NaN","","","","","","","","","","","","","",""
"","response","","html-keyboard-response","133","156452","0.0-1.0-176.0-0.0","0","0","75806","","296","","","75","19","","","1","19","training","adjacent","BC","2","3","R.jpg","P.jpg","0","1","0","",""
"","feedback","","html-keyboard-response","134","157454","0.0-1.0-177.0-0.0","0","0","75806","","null","","","null","19","","","","","","","","","","","","","","","",""
"","time_out","","html-keyboard-response","135","159456","0.0-1.0-179.0-0.0","0","0","75806","","null","","","null","19","","","","","","","","","","","","","","","",""
"","ITI","","html-keyboard-response","136","160458","0.0-1.0-180.0","0","0","75806","","null","","","null","19","","","","","","","","","","","","","","","NaN",""
"","S1","","html-keyboard-response","137","160709","0.0-1.0-182.0","0","0","75806","","null","","","null","20","","","","","","","","","","","","","","","",""
"","ISI","","html-keyboard-response","138","160862","0.0-1.0-183.0","0","0","75806","","null","","","null","20","NaN","","","","","","","","","","","","","","",""
"","S2","","html-keyboard-response","139","161114","0.0-1.0-184.0","0","0","75806","","null","","","null","20","","NaN","","","","","","","","","","","","","",""
"","response","","html-keyboard-response","140","161385","0.0-1.0-185.0-0.0","0","0","75806","","271","","","68","20","","","1","20","training","adjacent","DC","4","3","N.jpg","P.jpg","1","0","0","",""
"","feedback","","html-keyboard-response","141","162387","0.0-1.0-186.0-0.0","0","0","75806","","null","","","null","20","","","","","","","","","","","","","","","",""
"","time_out","","html-keyboard-response","142","164390","0.0-1.0-188.0-0.0","0","0","75806","","null","","","null","20","","","","","","","","","","","","","","","",""
"","ITI","","html-keyboard-response","143","165391","0.0-1.0-189.0","0","0","75806","","null","","","null","20","","","","","","","","","","","","","","","NaN",""
"","S1","","html-keyboard-response","144","165642","0.0-1.0-191.0","0","0","75806","","null","","","null","21","","","","","","","","","","","","","","","",""
"","ISI","","html-keyboard-response","145","165802","0.0-1.0-192.0","0","0","75806","","null","","","null","21","NaN","","","","","","","","","","","","","","",""
"","S2","","html-keyboard-response","146","166055","0.0-1.0-193.0","0","0","75806","","null","","","null","21","","NaN","","","","","","","","","","","","","",""
"","response","","html-keyboard-response","147","166321","0.0-1.0-194.0-0.0","0","0","75806","","265","","","75","21","","","1","21","training","adjacent","DE","4","5","N.jpg","M.jpg","0","1","0","",""
"","feedback","","html-keyboard-response","148","167322","0.0-1.0-195.0-0.0","0","0","75806","","null","","","null","21","","","","","","","","","","","","","","","",""
"","time_out","","html-keyboard-response","149","169323","0.0-1.0-197.0-0.0","0","0","75806","","null","","","null","21","","","","","","","","","","","","","","","",""
"","ITI","","html-keyboard-response","150","170325","0.0-1.0-198.0","0","0","75806","","null","","","null","21","","","","","","","","","","","","","","","NaN",""
"","S1","","html-keyboard-response","151","170577","0.0-1.0-200.0","0","0","75806","","null","","","null","22","","","","","","","","","","","","","","","",""
"","ISI","","html-keyboard-response","152","170729","0.0-1.0-201.0","0","0","75806","","null","","","null","22","NaN","","","","","","","","","","","","","","",""
"","S2","","html-keyboard-response","153","170982","0.0-1.0-202.0","0","0","75806","","null","","","null","22","","NaN","","","","","","","","","","","","","",""
"","response","","html-keyboard-response","154","171235","0.0-1.0-203.0-0.0","0","0","75806","","253","","","68","22","","","1","22","training","adjacent","DE","4","5","N.jpg","M.jpg","1","1","1","",""
"","feedback","","html-keyboard-response","155","172238","0.0-1.0-204.0-0.0","0","0","75806","","null","","","null","22","","","","","","","","","","","","","","","",""
"","ITI","","html-keyboard-response","156","173239","0.0-1.0-207.0","0","0","75806","","null","","","null","22","","","","","","","","","","","","","","","NaN",""
"","S1","","html-keyboard-response","157","173492","0.0-1.0-209.0","0","0","75806","","null","","","null","23","","","","","","","","","","","","","","","",""
"","ISI","","html-keyboard-response","158","173643","0.0-1.0-210.0","0","0","75806","","null","","","null","23","NaN","","","","","","","","","","","","","","",""
"","S2","","html-keyboard-response","159","173897","0.0-1.0-211.0","0","0","75806","","null","","","null","23","","NaN","","","","","","","","","","","","","",""
"","response","","html-keyboard-response","160","174188","0.0-1.0-212.0-0.0","0","0","75806","","290","","","68","23","","","1","23","training","adjacent","EF","5","6","M.jpg","L.jpg","1","1","1","",""
"","feedback","","html-keyboard-response","161","175190","0.0-1.0-213.0-0.0","0","0","75806","","null","","","null","23","","","","","","","","","","","","","","","",""
"","ITI","","html-keyboard-response","162","176191","0.0-1.0-216.0","0","0","75806","","null","","","null","23","","","","","","","","","","","","","","","NaN",""
"","S1","","html-keyboard-response","163","176444","0.0-1.0-218.0","0","0","75806","","null","","","null","24","","","","","","","","","","","","","","","",""
"","ISI","","html-keyboard-response","164","176595","0.0-1.0-219.0","0","0","75806","","null","","","null","24","NaN","","","","","","","","","","","","","","",""
"","S2","","html-keyboard-response","165","176847","0.0-1.0-220.0","0","0","75806","","null","","","null","24","","NaN","","","","","","","","","","","","","",""
"","response","","html-keyboard-response","166","177113","0.0-1.0-221.0-0.0","0","0","75806","","266","","","68","24","","","1","24","training","adjacent","FE","6","5","L.jpg","M.jpg","1","0","0","",""
"","feedback","","html-keyboard-response","167","178116","0.0-1.0-222.0-0.0","0","0","75806","","null","","","null","24","","","","","","","","","","","","","","","",""
"","time_out","","html-keyboard-response","168","180118","0.0-1.0-224.0-0.0","0","0","75806","","null","","","null","24","","","","","","","","","","","","","","","",""
"","ITI","","html-keyboard-response","169","181119","0.0-1.0-225.0","0","0","75806","","null","","","null","24","","","","","","","","","","","","","","","NaN",""
"","S1","","html-keyboard-response","170","181371","0.0-1.0-227.0","0","0","75806","","null","","","null","25","","","","","","","","","","","","","","","",""
"","ISI","","html-keyboard-response","171","181522","0.0-1.0-228.0","0","0","75806","","null","","","null","25","NaN","","","","","","","","","","","","","","",""
"","S2","","html-keyboard-response","172","181773","0.0-1.0-229.0","0","0","75806","","null","","","null","25","","NaN","","","","","","","","","","","","","",""
"","response","","html-keyboard-response","173","181990","0.0-1.0-230.0-0.0","0","0","75806","","215","","","75","25","","","1","25","training","adjacent","ED","5","4","M.jpg","N.jpg","0","0","1","",""
"","feedback","","html-keyboard-response","174","182992","0.0-1.0-231.0-0.0","0","0","75806","","null","","","null","25","","","","","","","","","","","","","","","",""
"","ITI","","html-keyboard-response","175","183993","0.0-1.0-234.0","0","0","75806","","null","","","null","25","","","","","","","","","","","","","","","NaN",""
"","S1","","html-keyboard-response","176","184245","0.0-1.0-236.0","0","0","75806","","null","","","null","26","","","","","","","","","","","","","","","",""
"","ISI","","html-keyboard-response","177","184397","0.0-1.0-237.0","0","0","75806","","null","","","null","26","NaN","","","","","","","","","","","","","","",""
"","S2","","html-keyboard-response","178","184650","0.0-1.0-238.0","0","0","75806","","null","","","null","26","","NaN","","","","","","","","","","","","","",""
"","response","","html-keyboard-response","179","184864","0.0-1.0-239.0-0.0","0","0","75806","","214","","","75","26","","","1","26","training","adjacent","CB","3","2","P.jpg","R.jpg","0","0","1","",""
"","feedback","","html-keyboard-response","180","185866","0.0-1.0-240.0-0.0","0","0","75806","","null","","","null","26","","","","","","","","","","","","","","","",""
"","ITI","","html-keyboard-response","181","186867","0.0-1.0-243.0","0","0","75806","","null","","","null","26","","","","","","","","","","","","","","","NaN",""
"","S1","","html-keyboard-response","182","187119","0.0-1.0-245.0","0","0","75806","","null","","","null","27","","","","","","","","","","","","","","","",""
"","ISI","","html-keyboard-response","183","187272","0.0-1.0-246.0","0","0","75806","","null","","","null","27","NaN","","","","","","","","","","","","","","",""
"","S2","","html-keyboard-response","184","187524","0.0-1.0-247.0","0","0","75806","","null","","","null","27","","NaN","","","","","","","","","","","","","",""
"","response","","html-keyboard-response","185","187772","0.0-1.0-248.0-0.0","0","0","75806","","247","","","75","27","","","1","27","training","adjacent","CB","3","2","P.jpg","R.jpg","0","0","1","",""
"","feedback","","html-keyboard-response","186","188773","0.0-1.0-249.0-0.0","0","0","75806","","null","","","null","27","","","","","","","","","","","","","","","",""
"","ITI","","html-keyboard-response","187","189775","0.0-1.0-252.0","0","0","75806","","223","","","68","27","","","","","","","","","","","","","","","d",""
"","S1","","html-keyboard-response","188","190027","0.0-1.0-254.0","0","0","75806","","null","","","null","28","","","","","","","","","","","","","","","",""
"","ISI","","html-keyboard-response","189","190178","0.0-1.0-255.0","0","0","75806","","null","","","null","28","NaN","","","","","","","","","","","","","","",""
"","S2","","html-keyboard-response","190","190431","0.0-1.0-256.0","0","0","75806","","null","","","null","28","","NaN","","","","","","","","","","","","","",""
"","response","","html-keyboard-response","191","190844","0.0-1.0-257.0-0.0","0","0","75806","","412","","","75","28","","","1","28","training","adjacent","BA","2","1","R.jpg","Q.jpg","0","0","1","",""
"","feedback","","html-keyboard-response","192","191845","0.0-1.0-258.0-0.0","0","0","75806","","null","","","null","28","","","","","","","","","","","","","","","",""
"","ITI","","html-keyboard-response","193","192847","0.0-1.0-261.0","0","0","75806","","null","","","null","28","","","","","","","","","","","","","","","NaN",""
"","S1","","html-keyboard-response","194","193099","0.0-1.0-263.0","0","0","75806","","null","","","null","29","","","","","","","","","","","","","","","",""
"","ISI","","html-keyboard-response","195","193250","0.0-1.0-264.0","0","0","75806","","null","","","null","29","NaN","","","","","","","","","","","","","","",""
"","S2","","html-keyboard-response","196","193502","0.0-1.0-265.0","0","0","75806","","null","","","null","29","","NaN","","","","","","","","","","","","","",""
"","response","","html-keyboard-response","197","193794","0.0-1.0-266.0-0.0","0","0","75806","","291","","","75","29","","","1","29","training","adjacent","GF","7","6","O.jpg","L.jpg","0","0","1","",""
"","feedback","","html-keyboard-response","198","194796","0.0-1.0-267.0-0.0","0","0","75806","","null","","","null","29","","","","","","","","","","","","","","","",""
"","ITI","","html-keyboard-response","199","195799","0.0-1.0-270.0","0","0","75806","","null","","","null","29","","","","","","","","","","","","","","","NaN",""
"","S1","","html-keyboard-response","200","196051","0.0-1.0-272.0","0","0","75806","","null","","","null","30","","","","","","","","","","","","","","","",""
"","ISI","","html-keyboard-response","201","196202","0.0-1.0-273.0","0","0","75806","","null","","","null","30","NaN","","","","","","","","","","","","","","",""
"","S2","","html-keyboard-response","202","196454","0.0-1.0-274.0","0","0","75806","","null","","","null","30","","NaN","","","","","","","","","","","","","",""
"","response","","html-keyboard-response","203","196551","0.0-1.0-275.0-0.0","0","0","75806","","96","","","75","30","","","1","30","training","adjacent","GF","7","6","O.jpg","L.jpg","0","0","1","",""
"","feedback","","html-keyboard-response","204","197552","0.0-1.0-276.0-0.0","0","0","75806","","null","","","null","30","","","","","","","","","","","","","","","",""
"","ITI","","html-keyboard-response","205","198553","0.0-1.0-279.0","0","0","75806","","null","","","null","30","","","","","","","","","","","","","","","NaN",""
"","S1","","html-keyboard-response","206","198805","0.0-1.0-281.0","0","0","75806","","null","","","null","31","","","","","","","","","","","","","","","",""
"","ISI","","html-keyboard-response","207","198957","0.0-1.0-282.0","0","0","75806","","null","","","null","31","NaN","","","","","","","","","","","","","","",""
"","S2","","html-keyboard-response","208","199209","0.0-1.0-283.0","0","0","75806","","null","","","null","31","","NaN","","","","","","","","","","","","","",""
"","response","","html-keyboard-response","209","199263","0.0-1.0-284.0-0.0","0","0","75806","","54","","","75","31","","","1","31","training","adjacent","BA","2","1","R.jpg","Q.jpg","0","0","1","",""
"","feedback","","html-keyboard-response","210","200274","0.0-1.0-285.0-0.0","0","0","75806","","null","","","null","31","","","","","","","","","","","","","","","",""
"","ITI","","html-keyboard-response","211","201275","0.0-1.0-288.0","0","0","75806","","null","","","null","31","","","","","","","","","","","","","","","NaN",""
"","S1","","html-keyboard-response","212","201527","0.0-1.0-290.0","0","0","75806","","null","","","null","32","","","","","","","","","","","","","","","",""
"","ISI","","html-keyboard-response","213","201679","0.0-1.0-291.0","0","0","75806","","null","","","null","32","NaN","","","","","","","","","","","","","","",""
"","S2","","html-keyboard-response","214","201930","0.0-1.0-292.0","0","0","75806","","null","","","null","32","","NaN","","","","","","","","","","","","","",""
"","response","","html-keyboard-response","215","202158","0.0-1.0-293.0-0.0","0","0","75806","","226","","","68","32","","","1","32","training","adjacent","BC","2","3","R.jpg","P.jpg","1","1","1","",""
"","feedback","","html-keyboard-response","216","203160","0.0-1.0-294.0-0.0","0","0","75806","","null","","","null","32","","","","","","","","","","","","","","","",""
"","ITI","","html-keyboard-response","217","204162","0.0-1.0-297.0","0","0","75806","","null","","","null","32","","","","","","","","","","","","","","","NaN",""
"","S1","","html-keyboard-response","218","204414","0.0-1.0-299.0","0","0","75806","","null","","","null","33","","","","","","","","","","","","","","","",""
"","ISI","","html-keyboard-response","219","204567","0.0-1.0-300.0","0","0","75806","","null","","","null","33","NaN","","","","","","","","","","","","","","",""
"","S2","","html-keyboard-response","220","204818","0.0-1.0-301.0","0","0","75806","","null","","","null","33","","NaN","","","","","","","","","","","","","",""
"","response","","html-keyboard-response","221","205077","0.0-1.0-302.0-0.0","0","0","75806","","258","","","75","33","","","1","33","training","adjacent","BC","2","3","R.jpg","P.jpg","0","1","0","",""
"","feedback","","html-keyboard-response","222","206078","0.0-1.0-303.0-0.0","0","0","75806","","null","","","null","33","","","","","","","","","","","","","","","",""
"","time_out","","html-keyboard-response","223","208079","0.0-1.0-305.0-0.0","0","0","75806","","null","","","null","33","","","","","","","","","","","","","","","",""
"","ITI","","html-keyboard-response","224","209081","0.0-1.0-306.0","0","0","75806","","null","","","null","33","","","","","","","","","","","","","","","NaN",""
"","S1","","html-keyboard-response","225","209332","0.0-1.0-308.0","0","0","75806","","null","","","null","34","","","","","","","","","","","","","","","",""
"","ISI","","html-keyboard-response","226","209484","0.0-1.0-309.0","0","0","75806","","null","","","null","34","NaN","","","","","","","","","","","","","","",""
"","S2","","html-keyboard-response","227","209737","0.0-1.0-310.0","0","0","75806","","null","","","null","34","","NaN","","","","","","","","","","","","","",""
"","response","","html-keyboard-response","228","209971","0.0-1.0-311.0-0.0","0","0","75806","","234","","","68","34","","","1","34","training","adjacent","DC","4","3","N.jpg","P.jpg","1","0","0","",""
"","feedback","","html-keyboard-response","229","210973","0.0-1.0-312.0-0.0","0","0","75806","","null","","","null","34","","","","","","","","","","","","","","","",""
"","time_out","","html-keyboard-response","230","212975","0.0-1.0-314.0-0.0","0","0","75806","","null","","","null","34","","","","","","","","","","","","","","","",""
"","ITI","","html-keyboard-response","231","213977","0.0-1.0-315.0","0","0","75806","","null","","","null","34","","","","","","","","","","","","","","","NaN",""
"","S1","","html-keyboard-response","232","214228","0.0-1.0-317.0","0","0","75806","","null","","","null","35","","","","","","","","","","","","","","","",""
"","ISI","","html-keyboard-response","233","214380","0.0-1.0-318.0","0","0","75806","","null","","","null","35","NaN","","","","","","","","","","","","","","",""
"","S2","","html-keyboard-response","234","214632","0.0-1.0-319.0","0","0","75806","","null","","","null","35","","NaN","","","","","","","","","","","","","",""
"","response","","html-keyboard-response","235","214770","0.0-1.0-320.0-0.0","0","0","75806","","137","","","75","35","","","1","35","training","adjacent","DC","4","3","N.jpg","P.jpg","0","0","1","",""
"","feedback","","html-keyboard-response","236","215772","0.0-1.0-321.0-0.0","0","0","75806","","null","","","null","35","","","","","","","","","","","","","","","",""
"","ITI","","html-keyboard-response","237","216774","0.0-1.0-324.0","0","0","75806","","null","","","null","35","","","","","","","","","","","","","","","NaN",""
"","S1","","html-keyboard-response","238","217025","0.0-1.0-326.0","0","0","75806","","null","","","null","36","","","","","","","","","","","","","","","",""
"","ISI","","html-keyboard-response","239","217177","0.0-1.0-327.0","0","0","75806","","null","","","null","36","NaN","","","","","","","","","","","","","","",""
"","S2","","html-keyboard-response","240","217430","0.0-1.0-328.0","0","0","75806","","null","","","null","36","","NaN","","","","","","","","","","","","","",""
"","response","","html-keyboard-response","241","217752","0.0-1.0-329.0-0.0","0","0","75806","","321","","","75","36","","","1","36","training","adjacent","BA","2","1","R.jpg","Q.jpg","0","0","1","",""
"","feedback","","html-keyboard-response","242","218754","0.0-1.0-330.0-0.0","0","0","75806","","null","","","null","36","","","","","","","","","","","","","","","",""
"","ITI","","html-keyboard-response","243","219755","0.0-1.0-333.0","0","0","75806","","null","","","null","36","","","","","","","","","","","","","","","NaN",""
"","S1","","html-keyboard-response","244","220008","0.0-1.0-335.0","0","0","75806","","null","","","null","37","","","","","","","","","","","","","","","",""
"","ISI","","html-keyboard-response","245","220160","0.0-1.0-336.0","0","0","75806","","null","","","null","37","NaN","","","","","","","","","","","","","","",""
"","S2","","html-keyboard-response","246","220412","0.0-1.0-337.0","0","0","75806","","null","","","null","37","","NaN","","","","","","","","","","","","","",""
"","response","","html-keyboard-response","247","220674","0.0-1.0-338.0-0.0","0","0","75806","","260","","","75","37","","","1","37","training","adjacent","CB","3","2","P.jpg","R.jpg","0","0","1","",""
"","feedback","","html-keyboard-response","248","221675","0.0-1.0-339.0-0.0","0","0","75806","","null","","","null","37","","","","","","","","","","","","","","","",""
"","ITI","","html-keyboard-response","249","222677","0.0-1.0-342.0","0","0","75806","","null","","","null","37","","","","","","","","","","","","","","","NaN",""
"","S1","","html-keyboard-response","250","222929","0.0-1.0-344.0","0","0","75806","","null","","","null","38","","","","","","","","","","","","","","","",""
"","ISI","","html-keyboard-response","251","223080","0.0-1.0-345.0","0","0","75806","","null","","","null","38","NaN","","","","","","","","","","","","","","",""
"","S2","","html-keyboard-response","252","223333","0.0-1.0-346.0","0","0","75806","","null","","","null","38","","NaN","","","","","","","","","","","","","",""
"","response","","html-keyboard-response","253","223572","0.0-1.0-347.0-0.0","0","0","75806","","238","","","75","38","","","1","38","training","adjacent","FG","6","7","L.jpg","O.jpg","0","1","0","",""
"","feedback","","html-keyboard-response","254","224573","0.0-1.0-348.0-0.0","0","0","75806","","null","","","null","38","","","","","","","","","","","","","","","",""
"","time_out","","html-keyboard-response","255","226575","0.0-1.0-350.0-0.0","0","0","75806","","null","","","null","38","","","","","","","","","","","","","","","",""
"","ITI","","html-keyboard-response","256","227576","0.0-1.0-351.0","0","0","75806","","null","","","null","38","","","","","","","","","","","","","","","NaN",""
"","S1","","html-keyboard-response","257","227828","0.0-1.0-353.0","0","0","75806","","null","","","null","39","","","","","","","","","","","","","","","",""
"","ISI","","html-keyboard-response","258","227979","0.0-1.0-354.0","0","0","75806","","null","","","null","39","NaN","","","","","","","","","","","","","","",""
"","S2","","html-keyboard-response","259","228232","0.0-1.0-355.0","0","0","75806","","null","","","null","39","","NaN","","","","","","","","","","","","","",""
"","response","","html-keyboard-response","260","228459","0.0-1.0-356.0-0.0","0","0","75806","","226","","","68","39","","","1","39","training","adjacent","FE","6","5","L.jpg","M.jpg","1","0","0","",""
"","feedback","","html-keyboard-response","261","229460","0.0-1.0-357.0-0.0","0","0","75806","","null","","","null","39","","","","","","","","","","","","","","","",""
"","time_out","","html-keyboard-response","262","231462","0.0-1.0-359.0-0.0","0","0","75806","","null","","","null","39","","","","","","","","","","","","","","","",""
"","ITI","","html-keyboard-response","263","232463","0.0-1.0-360.0","0","0","75806","","null","","","null","39","","","","","","","","","","","","","","","NaN",""
"","S1","","html-keyboard-response","264","232715","0.0-1.0-362.0","0","0","75806","","null","","","null","40","","","","","","","","","","","","","","","",""
"","ISI","","html-keyboard-response","265","232867","0.0-1.0-363.0","0","0","75806","","null","","","null","40","NaN","","","","","","","","","","","","","","",""
"","S2","","html-keyboard-response","266","233119","0.0-1.0-364.0","0","0","75806","","null","","","null","40","","NaN","","","","","","","","","","","","","",""
"","response","","html-keyboard-response","267","233490","0.0-1.0-365.0-0.0","0","0","75806","","371","","","75","40","","","1","40","training","adjacent","CD","3","4","P.jpg","N.jpg","0","1","0","",""
"","feedback","","html-keyboard-response","268","234492","0.0-1.0-366.0-0.0","0","0","75806","","null","","","null","40","","","","","","","","","","","","","","","",""
"","time_out","","html-keyboard-response","269","236494","0.0-1.0-368.0-0.0","0","0","75806","","null","","","null","40","","","","","","","","","","","","","","","",""
"","ITI","","html-keyboard-response","270","237496","0.0-1.0-369.0","0","0","75806","","null","","","null","40","","","","","","","","","","","","","","","NaN",""
"","S1","","html-keyboard-response","271","237748","0.0-1.0-371.0","0","0","75806","","null","","","null","41","","","","","","","","","","","","","","","",""
"","ISI","","html-keyboard-response","272","237899","0.0-1.0-372.0","0","0","75806","","null","","","null","41","NaN","","","","","","","","","","","","","","",""
"","S2","","html-keyboard-response","273","238151","0.0-1.0-373.0","0","0","75806","","null","","","null","41","","NaN","","","","","","","","","","","","","",""
"","response","","html-keyboard-response","274","238447","0.0-1.0-374.0-0.0","0","0","75806","","295","","","68","41","","","1","41","training","adjacent","AB","1","2","Q.jpg","R.jpg","1","1","1","",""
"","feedback","","html-keyboard-response","275","239448","0.0-1.0-375.0-0.0","0","0","75806","","null","","","null","41","","","","","","","","","","","","","","","",""
"","ITI","","html-keyboard-response","276","240450","0.0-1.0-378.0","0","0","75806","","null","","","null","41","","","","","","","","","","","","","","","NaN",""
"","S1","","html-keyboard-response","277","240702","0.0-1.0-380.0","0","0","75806","","null","","","null","42","","","","","","","","","","","","","","","",""
"","ISI","","html-keyboard-response","278","240853","0.0-1.0-381.0","0","0","75806","","null","","","null","42","NaN","","","","","","","","","","","","","","",""
"","S2","","html-keyboard-response","279","241105","0.0-1.0-382.0","0","0","75806","","null","","","null","42","","NaN","","","","","","","","","","","","","",""
"","response","","html-keyboard-response","280","241399","0.0-1.0-383.0-0.0","0","0","75806","","294","","","68","42","","","1","42","training","adjacent","ED","5","4","M.jpg","N.jpg","1","0","0","",""
"","feedback","","html-keyboard-response","281","242402","0.0-1.0-384.0-0.0","0","0","75806","","null","","","null","42","","","","","","","","","","","","","","","",""
"","time_out","","html-keyboard-response","282","244403","0.0-1.0-386.0-0.0","0","0","75806","","null","","","null","42","","","","","","","","","","","","","","","",""
"","ITI","","html-keyboard-response","283","245405","0.0-1.0-387.0","0","0","75806","","null","","","null","42","","","","","","","","","","","","","","","NaN",""
"","S1","","html-keyboard-response","284","245657","0.0-1.0-389.0","0","0","75806","","null","","","null","43","","","","","","","","","","","","","","","",""
"","ISI","","html-keyboard-response","285","245808","0.0-1.0-390.0","0","0","75806","","null","","","null","43","NaN","","","","","","","","","","","","","","",""
"","S2","","html-keyboard-response","286","246061","0.0-1.0-391.0","0","0","75806","","null","","","null","43","","NaN","","","","","","","","","","","","","",""
"","response","","html-keyboard-response","287","246328","0.0-1.0-392.0-0.0","0","0","75806","","267","","","75","43","","","1","43","training","adjacent","GF","7","6","O.jpg","L.jpg","0","0","1","",""
"","feedback","","html-keyboard-response","288","247330","0.0-1.0-393.0-0.0","0","0","75806","","null","","","null","43","","","","","","","","","","","","","","","",""
"","ITI","","html-keyboard-response","289","248332","0.0-1.0-396.0","0","0","75806","","null","","","null","43","","","","","","","","","","","","","","","NaN",""
"","S1","","html-keyboard-response","290","248584","0.0-1.0-398.0","0","0","75806","","null","","","null","44","","","","","","","","","","","","","","","",""
"","ISI","","html-keyboard-response","291","248736","0.0-1.0-399.0","0","0","75806","","null","","","null","44","NaN","","","","","","","","","","","","","","",""
"","S2","","html-keyboard-response","292","248988","0.0-1.0-400.0","0","0","75806","","null","","","null","44","","NaN","","","","","","","","","","","","","",""
"","response","","html-keyboard-response","293","249154","0.0-1.0-401.0-0.0","0","0","75806","","166","","","75","44","","","1","44","training","adjacent","EF","5","6","M.jpg","L.jpg","0","1","0","",""
"","feedback","","html-keyboard-response","294","250155","0.0-1.0-402.0-0.0","0","0","75806","","null","","","null","44","","","","","","","","","","","","","","","",""
"","time_out","","html-keyboard-response","295","252156","0.0-1.0-404.0-0.0","0","0","75806","","null","","","null","44","","","","","","","","","","","","","","","",""
"","ITI","","html-keyboard-response","296","253158","0.0-1.0-405.0","0","0","75806","","null","","","null","44","","","","","","","","","","","","","","","NaN",""
"","S1","","html-keyboard-response","297","253409","0.0-1.0-407.0","0","0","75806","","null","","","null","45","","","","","","","","","","","","","","","",""
"","ISI","","html-keyboard-response","298","253561","0.0-1.0-408.0","0","0","75806","","null","","","null","45","NaN","","","","","","","","","","","","","","",""
"","S2","","html-keyboard-response","299","253826","0.0-1.0-409.0","0","0","75806","","null","","","null","45","","NaN","","","","","","","","","","","","","",""
"","response","","html-keyboard-response","300","254028","0.0-1.0-410.0-0.0","0","0","75806","","202","","","68","45","","","1","45","training","adjacent","BC","2","3","R.jpg","P.jpg","1","1","1","",""
"","feedback","","html-keyboard-response","301","255030","0.0-1.0-411.0-0.0","0","0","75806","","null","","","null","45","","","","","","","","","","","","","","","",""
"","ITI","","html-keyboard-response","302","256032","0.0-1.0-414.0","0","0","75806","","null","","","null","45","","","","","","","","","","","","","","","NaN",""
"","S1","","html-keyboard-response","303","256284","0.0-1.0-416.0","0","0","75806","","null","","","null","46","","","","","","","","","","","","","","","",""
"","ISI","","html-keyboard-response","304","256436","0.0-1.0-417.0","0","0","75806","","null","","","null","46","NaN","","","","","","","","","","","","","","",""
"","S2","","html-keyboard-response","305","256688","0.0-1.0-418.0","0","0","75806","","null","","","null","46","","NaN","","","","","","","","","","","","","",""
"","response","","html-keyboard-response","306","256867","0.0-1.0-419.0-0.0","0","0","75806","","179","","","68","46","","","1","46","training","adjacent","FG","6","7","L.jpg","O.jpg","1","1","1","",""
"","feedback","","html-keyboard-response","307","257870","0.0-1.0-420.0-0.0","0","0","75806","","null","","","null","46","","","","","","","","","","","","","","","",""
"","ITI","","html-keyboard-response","308","258872","0.0-1.0-423.0","0","0","75806","","null","","","null","46","","","","","","","","","","","","","","","NaN",""
"","S1","","html-keyboard-response","309","259123","0.0-1.0-425.0","0","0","75806","","null","","","null","47","","","","","","","","","","","","","","","",""
"","ISI","","html-keyboard-response","310","259275","0.0-1.0-426.0","0","0","75806","","null","","","null","47","NaN","","","","","","","","","","","","","","",""
"","S2","","html-keyboard-response","311","259528","0.0-1.0-427.0","0","0","75806","","null","","","null","47","","NaN","","","","","","","","","","","","","",""
"","response","","html-keyboard-response","312","259844","0.0-1.0-428.0-0.0","0","0","75806","","316","","","68","47","","","1","47","training","adjacent","ED","5","4","M.jpg","N.jpg","1","0","0","",""
"","feedback","","html-keyboard-response","313","260846","0.0-1.0-429.0-0.0","0","0","75806","","null","","","null","47","","","","","","","","","","","","","","","",""
"","time_out","","html-keyboard-response","314","262848","0.0-1.0-431.0-0.0","0","0","75806","","null","","","null","47","","","","","","","","","","","","","","","",""
"","ITI","","html-keyboard-response","315","263849","0.0-1.0-432.0","0","0","75806","","null","","","null","47","","","","","","","","","","","","","","","NaN",""
"","block_over","","html-keyboard-response","316","266485","0.0-1.0-433.0-0.0","0","0","75806","","2635","","","32","47","","","","","","","","","","","","","","","",""
"","S1","","html-keyboard-response","317","266736","0.0-1.0-434.0","0","0","75806","","null","","","null","48","","","","","","","","","","","","","","","",""
"","ISI","","html-keyboard-response","318","266887","0.0-1.0-435.0","0","0","75806","","null","","","null","48","NaN","","","","","","","","","","","","","","",""
"","S2","","html-keyboard-response","319","267140","0.0-1.0-436.0","0","0","75806","","null","","","null","48","","NaN","","","","","","","","","","","","","",""
"","response","","html-keyboard-response","320","267533","0.0-1.0-437.0-0.0","0","0","75806","","392","","","75","48","","","2","48","training","adjacent","BC","2","3","R.jpg","P.jpg","0","1","0","",""
"","feedback","","html-keyboard-response","321","268535","0.0-1.0-438.0-0.0","0","0","75806","","null","","","null","48","","","","","","","","","","","","","","","",""
"","time_out","","html-keyboard-response","322","270536","0.0-1.0-440.0-0.0","0","0","75806","","null","","","null","48","","","","","","","","","","","","","","","",""
"","ITI","","html-keyboard-response","323","271538","0.0-1.0-441.0","0","0","75806","","null","","","null","48","","","","","","","","","","","","","","","NaN",""
"","S1","","html-keyboard-response","324","271790","0.0-1.0-443.0","0","0","75806","","null","","","null","49","","","","","","","","","","","","","","","",""
"","ISI","","html-keyboard-response","325","271942","0.0-1.0-444.0","0","0","75806","","null","","","null","49","NaN","","","","","","","","","","","","","","",""
"","S2","","html-keyboard-response","326","272194","0.0-1.0-445.0","0","0","75806","","null","","","null","49","","NaN","","","","","","","","","","","","","",""
"","response","","html-keyboard-response","327","272407","0.0-1.0-446.0-0.0","0","0","75806","","211","","","68","49","","","2","49","training","adjacent","EF","5","6","M.jpg","L.jpg","1","1","1","",""
"","feedback","","html-keyboard-response","328","273408","0.0-1.0-447.0-0.0","0","0","75806","","null","","","null","49","","","","","","","","","","","","","","","",""
"","ITI","","html-keyboard-response","329","274412","0.0-1.0-450.0","0","0","75806","","null","","","null","49","","","","","","","","","","","","","","","NaN",""
"","S1","","html-keyboard-response","330","274664","0.0-1.0-452.0","0","0","75806","","null","","","null","50","","","","","","","","","","","","","","","",""
"","ISI","","html-keyboard-response","331","274816","0.0-1.0-453.0","0","0","75806","","null","","","null","50","NaN","","","","","","","","","","","","","","",""
"","S2","","html-keyboard-response","332","275068","0.0-1.0-454.0","0","0","75806","","null","","","null","50","","NaN","","","","","","","","","","","","","",""
"","response","","html-keyboard-response","333","275246","0.0-1.0-455.0-0.0","0","0","75806","","177","","","68","50","","","2","50","training","adjacent","EF","5","6","M.jpg","L.jpg","1","1","1","",""
"","feedback","","html-keyboard-response","334","276247","0.0-1.0-456.0-0.0","0","0","75806","","null","","","null","50","","","","","","","","","","","","","","","",""
"","ITI","","html-keyboard-response","335","277250","0.0-1.0-459.0","0","0","75806","","null","","","null","50","","","","","","","","","","","","","","","NaN",""
"","S1","","html-keyboard-response","336","277501","0.0-1.0-461.0","0","0","75806","","null","","","null","51","","","","","","","","","","","","","","","",""
"","ISI","","html-keyboard-response","337","277664","0.0-1.0-462.0","0","0","75806","","null","","","null","51","NaN","","","","","","","","","","","","","","",""
"","S2","","html-keyboard-response","338","277916","0.0-1.0-463.0","0","0","75806","","null","","","null","51","","NaN","","","","","","","","","","","","","",""
"","response","","html-keyboard-response","339","278552","0.0-1.0-464.0-0.0","0","0","75806","","636","","","68","51","","","2","51","training","adjacent","ED","5","4","M.jpg","N.jpg","1","0","0","",""
"","feedback","","html-keyboard-response","340","279554","0.0-1.0-465.0-0.0","0","0","75806","","null","","","null","51","","","","","","","","","","","","","","","",""
"","time_out","","html-keyboard-response","341","281556","0.0-1.0-467.0-0.0","0","0","75806","","null","","","null","51","","","","","","","","","","","","","","","",""
"","ITI","","html-keyboard-response","342","282559","0.0-1.0-468.0","0","0","75806","","null","","","null","51","","","","","","","","","","","","","","","NaN",""
"","S1","","html-keyboard-response","343","282811","0.0-1.0-470.0","0","0","75806","","null","","","null","52","","","","","","","","","","","","","","","",""
"","ISI","","html-keyboard-response","344","282962","0.0-1.0-471.0","0","0","75806","","null","","","null","52","NaN","","","","","","","","","","","","","","",""
"","S2","","html-keyboard-response","345","283221","0.0-1.0-472.0","0","0","75806","","null","","","null","52","","NaN","","","","","","","","","","","","","",""
"","response","","html-keyboard-response","346","283320","0.0-1.0-473.0-0.0","0","0","75806","","98","","","75","52","","","2","52","training","adjacent","BA","2","1","R.jpg","Q.jpg","0","0","1","",""
"","feedback","","html-keyboard-response","347","284322","0.0-1.0-474.0-0.0","0","0","75806","","null","","","null","52","","","","","","","","","","","","","","","",""
"","ITI","","html-keyboard-response","348","285324","0.0-1.0-477.0","0","0","75806","","null","","","null","52","","","","","","","","","","","","","","","NaN",""
"","S1","","html-keyboard-response","349","285581","0.0-1.0-479.0","0","0","75806","","null","","","null","53","","","","","","","","","","","","","","","",""
"","ISI","","html-keyboard-response","350","285732","0.0-1.0-480.0","0","0","75806","","null","","","null","53","NaN","","","","","","","","","","","","","","",""
"","S2","","html-keyboard-response","351","285984","0.0-1.0-481.0","0","0","75806","","null","","","null","53","","NaN","","","","","","","","","","","","","",""
"","response","","html-keyboard-response","352","286209","0.0-1.0-482.0-0.0","0","0","75806","","225","","","75","53","","","2","53","training","adjacent","CB","3","2","P.jpg","R.jpg","0","0","1","",""
"","feedback","","html-keyboard-response","353","287211","0.0-1.0-483.0-0.0","0","0","75806","","null","","","null","53","","","","","","","","","","","","","","","",""
"","ITI","","html-keyboard-response","354","288212","0.0-1.0-486.0","0","0","75806","","null","","","null","53","","","","","","","","","","","","","","","NaN",""
"","S1","","html-keyboard-response","355","288471","0.0-1.0-488.0","0","0","75806","","null","","","null","54","","","","","","","","","","","","","","","",""
"","ISI","","html-keyboard-response","356","288629","0.0-1.0-489.0","0","0","75806","","null","","","null","54","NaN","","","","","","","","","","","","","","",""
"","S2","","html-keyboard-response","357","288882","0.0-1.0-490.0","0","0","75806","","null","","","null","54","","NaN","","","","","","","","","","","","","",""
"","response","","html-keyboard-response","358","289053","0.0-1.0-491.0-0.0","0","0","75806","","171","","","75","54","","","2","54","training","adjacent","BC","2","3","R.jpg","P.jpg","0","1","0","",""
"","feedback","","html-keyboard-response","359","290056","0.0-1.0-492.0-0.0","0","0","75806","","null","","","null","54","","","","","","","","","","","","","","","",""
"","time_out","","html-keyboard-response","360","292057","0.0-1.0-494.0-0.0","0","0","75806","","null","","","null","54","","","","","","","","","","","","","","","",""
"","ITI","","html-keyboard-response","361","293059","0.0-1.0-495.0","0","0","75806","","null","","","null","54","","","","","","","","","","","","","","","NaN",""
"","S1","","html-keyboard-response","362","293312","0.0-1.0-497.0","0","0","75806","","null","","","null","55","","","","","","","","","","","","","","","",""
"","ISI","","html-keyboard-response","363","293466","0.0-1.0-498.0","0","0","75806","","null","","","null","55","NaN","","","","","","","","","","","","","","",""
"","S2","","html-keyboard-response","364","293718","0.0-1.0-499.0","0","0","75806","","null","","","null","55","","NaN","","","","","","","","","","","","","",""
"","response","","html-keyboard-response","365","293776","0.0-1.0-500.0-0.0","0","0","75806","","56","","","68","55","","","2","55","training","adjacent","CD","3","4","P.jpg","N.jpg","1","1","1","",""
"","feedback","","html-keyboard-response","366","294779","0.0-1.0-501.0-0.0","0","0","75806","","null","","","null","55","","","","","","","","","","","","","","","",""
"","ITI","","html-keyboard-response","367","295792","0.0-1.0-504.0","0","0","75806","","null","","","null","55","","","","","","","","","","","","","","","NaN",""
"","S1","","html-keyboard-response","368","296045","0.0-1.0-506.0","0","0","75806","","null","","","null","56","","","","","","","","","","","","","","","",""
"","ISI","","html-keyboard-response","369","296197","0.0-1.0-507.0","0","0","75806","","null","","","null","56","NaN","","","","","","","","","","","","","","",""
"","S2","","html-keyboard-response","370","296449","0.0-1.0-508.0","0","0","75806","","null","","","null","56","","NaN","","","","","","","","","","","","","",""
"","response","","html-keyboard-response","371","296701","0.0-1.0-509.0-0.0","0","0","75806","","250","","","75","56","","","2","56","training","adjacent","EF","5","6","M.jpg","L.jpg","0","1","0","",""
"","feedback","","html-keyboard-response","372","297703","0.0-1.0-510.0-0.0","0","0","75806","","null","","","null","56","","","","","","","","","","","","","","","",""
"","time_out","","html-keyboard-response","373","299705","0.0-1.0-512.0-0.0","0","0","75806","","null","","","null","56","","","","","","","","","","","","","","","",""
"","ITI","","html-keyboard-response","374","300706","0.0-1.0-513.0","0","0","75806","","null","","","null","56","","","","","","","","","","","","","","","NaN",""
"","S1","","html-keyboard-response","375","300958","0.0-1.0-515.0","0","0","75806","","null","","","null","57","","","","","","","","","","","","","","","",""
"","ISI","","html-keyboard-response","376","301110","0.0-1.0-516.0","0","0","75806","","null","","","null","57","NaN","","","","","","","","","","","","","","",""
"","S2","","html-keyboard-response","377","301362","0.0-1.0-517.0","0","0","75806","","null","","","null","57","","NaN","","","","","","","","","","","","","",""
"","response","","html-keyboard-response","378","301517","0.0-1.0-518.0-0.0","0","0","75806","","155","","","68","57","","","2","57","training","adjacent","FE","6","5","L.jpg","M.jpg","1","0","0","",""
"","feedback","","html-keyboard-response","379","302520","0.0-1.0-519.0-0.0","0","0","75806","","null","","","null","57","","","","","","","","","","","","","","","",""
"","time_out","","html-keyboard-response","380","304521","0.0-1.0-521.0-0.0","0","0","75806","","null","","","null","57","","","","","","","","","","","","","","","",""
"","ITI","","html-keyboard-response","381","305522","0.0-1.0-522.0","0","0","75806","","null","","","null","57","","","","","","","","","","","","","","","NaN",""
"","S1","","html-keyboard-response","382","305774","0.0-1.0-524.0","0","0","75806","","null","","","null","58","","","","","","","","","","","","","","","",""
"","ISI","","html-keyboard-response","383","305926","0.0-1.0-525.0","0","0","75806","","null","","","null","58","NaN","","","","","","","","","","","","","","",""
"","S2","","html-keyboard-response","384","306177","0.0-1.0-526.0","0","0","75806","","null","","","null","58","","NaN","","","","","","","","","","","","","",""
"","response","","html-keyboard-response","385","306513","0.0-1.0-527.0-0.0","0","0","75806","","336","","","75","58","","","2","58","training","adjacent","GF","7","6","O.jpg","L.jpg","0","0","1","",""
"","feedback","","html-keyboard-response","386","307515","0.0-1.0-528.0-0.0","0","0","75806","","null","","","null","58","","","","","","","","","","","","","","","",""
"","ITI","","html-keyboard-response","387","308517","0.0-1.0-531.0","0","0","75806","","null","","","null","58","","","","","","","","","","","","","","","NaN",""
"","S1","","html-keyboard-response","388","308769","0.0-1.0-533.0","0","0","75806","","null","","","null","59","","","","","","","","","","","","","","","",""
"","ISI","","html-keyboard-response","389","308921","0.0-1.0-534.0","0","0","75806","","null","","","null","59","NaN","","","","","","","","","","","","","","",""
"","S2","","html-keyboard-response","390","309173","0.0-1.0-535.0","0","0","75806","","null","","","null","59","","NaN","","","","","","","","","","","","","",""
"","response","","html-keyboard-response","391","310063","0.0-1.0-536.0-0.0","0","0","75806","","889","","","68","59","","","2","59","training","adjacent","DE","4","5","N.jpg","M.jpg","1","1","1","",""
"","feedback","","html-keyboard-response","392","311064","0.0-1.0-537.0-0.0","0","0","75806","","null","","","null","59","","","","","","","","","","","","","","","",""
"","ITI","","html-keyboard-response","393","312066","0.0-1.0-540.0","0","0","75806","","null","","","null","59","","","","","","","","","","","","","","","NaN",""
"","S1","","html-keyboard-response","394","312318","0.0-1.0-542.0","0","0","75806","","null","","","null","60","","","","","","","","","","","","","","","",""
"","ISI","","html-keyboard-response","395","312469","0.0-1.0-543.0","0","0","75806","","null","","","null","60","NaN","","","","","","","","","","","","","","",""
"","S2","","html-keyboard-response","396","312720","0.0-1.0-544.0","0","0","75806","","null","","","null","60","","NaN","","","","","","","","","","","","","",""
"","response","","html-keyboard-response","397","313028","0.0-1.0-545.0-0.0","0","0","75806","","306","","","75","60","","","2","60","training","adjacent","FE","6","5","L.jpg","M.jpg","0","0","1","",""
"","feedback","","html-keyboard-response","398","314030","0.0-1.0-546.0-0.0","0","0","75806","","null","","","null","60","","","","","","","","","","","","","","","",""
"","ITI","","html-keyboard-response","399","315031","0.0-1.0-549.0","0","0","75806","","null","","","null","60","","","","","","","","","","","","","","","NaN",""
"","S1","","html-keyboard-response","400","315282","0.0-1.0-551.0","0","0","75806","","null","","","null","61","","","","","","","","","","","","","","","",""
"","ISI","","html-keyboard-response","401","315434","0.0-1.0-552.0","0","0","75806","","null","","","null","61","NaN","","","","","","","","","","","","","","",""
"","S2","","html-keyboard-response","402","315686","0.0-1.0-553.0","0","0","75806","","null","","","null","61","","NaN","","","","","","","","","","","","","",""
"","response","","html-keyboard-response","403","316200","0.0-1.0-554.0-0.0","0","0","75806","","513","","","68","61","","","2","61","training","adjacent","CB","3","2","P.jpg","R.jpg","1","0","0","",""
"","feedback","","html-keyboard-response","404","317202","0.0-1.0-555.0-0.0","0","0","75806","","null","","","null","61","","","","","","","","","","","","","","","",""
"","time_out","","html-keyboard-response","405","319204","0.0-1.0-557.0-0.0","0","0","75806","","null","","","null","61","","","","","","","","","","","","","","","",""
"","ITI","","html-keyboard-response","406","320205","0.0-1.0-558.0","0","0","75806","","null","","","null","61","","","","","","","","","","","","","","","NaN",""
"","S1","","html-keyboard-response","407","320457","0.0-1.0-560.0","0","0","75806","","null","","","null","62","","","","","","","","","","","","","","","",""
"","ISI","","html-keyboard-response","408","320613","0.0-1.0-561.0","0","0","75806","","null","","","null","62","NaN","","","","","","","","","","","","","","",""
"","S2","","html-keyboard-response","409","320628","0.0-1.0-562.0","0","0","75806","","13","","","75","62","","k","2","62","training","adjacent","AB","1","2","Q.jpg","R.jpg","0","1","0","",""
"","feedback","","html-keyboard-response","410","321630","0.0-1.0-564.0-0.0","0","0","75806","","null","","","null","62","","","","","","","","","","","","","","","",""
"","time_out","","html-keyboard-response","411","323631","0.0-1.0-566.0-0.0","0","0","75806","","null","","","null","62","","","","","","","","","","","","","","","",""
"","ITI","","html-keyboard-response","412","324632","0.0-1.0-567.0","0","0","75806","","null","","","null","62","","","","","","","","","","","","","","","NaN",""
"","S1","","html-keyboard-response","413","324884","0.0-1.0-569.0","0","0","75806","","null","","","null","63","","","","","","","","","","","","","","","",""
"","ISI","","html-keyboard-response","414","325035","0.0-1.0-570.0","0","0","75806","","null","","","null","63","NaN","","","","","","","","","","","","","","",""
"","S2","","html-keyboard-response","415","325287","0.0-1.0-571.0","0","0","75806","","null","","","null","63","","NaN","","","","","","","","","","","","","",""
"","response","","html-keyboard-response","416","325611","0.0-1.0-572.0-0.0","0","0","75806","","323","","","68","63","","","2","63","training","adjacent","GF","7","6","O.jpg","L.jpg","1","0","0","",""
"","feedback","","html-keyboard-response","417","326612","0.0-1.0-573.0-0.0","0","0","75806","","null","","","null","63","","","","","","","","","","","","","","","",""
"","time_out","","html-keyboard-response","418","328614","0.0-1.0-575.0-0.0","0","0","75806","","null","","","null","63","","","","","","","","","","","","","","","",""
"","ITI","","html-keyboard-response","419","329615","0.0-1.0-576.0","0","0","75806","","null","","","null","63","","","","","","","","","","","","","","","NaN",""
"","S1","","html-keyboard-response","420","329868","0.0-1.0-578.0","0","0","75806","","null","","","null","64","","","","","","","","","","","","","","","",""
"","ISI","","html-keyboard-response","421","330020","0.0-1.0-579.0","0","0","75806","","null","","","null","64","NaN","","","","","","","","","","","","","","",""
"","S2","","html-keyboard-response","422","330271","0.0-1.0-580.0","0","0","75806","","null","","","null","64","","NaN","","","","","","","","","","","","","",""
"","response","","html-keyboard-response","423","330574","0.0-1.0-581.0-0.0","0","0","75806","","302","","","75","64","","","2","64","training","adjacent","BA","2","1","R.jpg","Q.jpg","0","0","1","",""
"","feedback","","html-keyboard-response","424","331575","0.0-1.0-582.0-0.0","0","0","75806","","null","","","null","64","","","","","","","","","","","","","","","",""
"","ITI","","html-keyboard-response","425","332577","0.0-1.0-585.0","0","0","75806","","null","","","null","64","","","","","","","","","","","","","","","NaN",""
"","S1","","html-keyboard-response","426","332829","0.0-1.0-587.0","0","0","75806","","null","","","null","65","","","","","","","","","","","","","","","",""
"","ISI","","html-keyboard-response","427","332981","0.0-1.0-588.0","0","0","75806","","null","","","null","65","NaN","","","","","","","","","","","","","","",""
"","S2","","html-keyboard-response","428","333234","0.0-1.0-589.0","0","0","75806","","null","","","null","65","","NaN","","","","","","","","","","","","","",""
"","response","","html-keyboard-response","429","333718","0.0-1.0-590.0-0.0","0","0","75806","","483","","","75","65","","","2","65","training","adjacent","BC","2","3","R.jpg","P.jpg","0","1","0","",""
"","feedback","","html-keyboard-response","430","334720","0.0-1.0-591.0-0.0","0","0","75806","","null","","","null","65","","","","","","","","","","","","","","","",""
"","time_out","","html-keyboard-response","431","336722","0.0-1.0-593.0-0.0","0","0","75806","","null","","","null","65","","","","","","","","","","","","","","","",""
"","ITI","","html-keyboard-response","432","337725","0.0-1.0-594.0","0","0","75806","","null","","","null","65","","","","","","","","","","","","","","","NaN",""
"","S1","","html-keyboard-response","433","337978","0.0-1.0-596.0","0","0","75806","","null","","","null","66","","","","","","","","","","","","","","","",""
"","ISI","","html-keyboard-response","434","338129","0.0-1.0-597.0","0","0","75806","","null","","","null","66","NaN","","","","","","","","","","","","","","",""
"","S2","","html-keyboard-response","435","338380","0.0-1.0-598.0","0","0","75806","","null","","","null","66","","NaN","","","","","","","","","","","","","",""
"","response","","html-keyboard-response","436","338969","0.0-1.0-599.0-0.0","0","0","75806","","587","","","68","66","","","2","66","training","adjacent","CB","3","2","P.jpg","R.jpg","1","0","0","",""
"","feedback","","html-keyboard-response","437","340049","0.0-1.0-600.0-0.0","0","0","75806","","null","","","null","66","","","","","","","","","","","","","","","",""
"","time_out","","html-keyboard-response","438","343048","0.0-1.0-602.0-0.0","0","0","75806","","null","","","null","66","","","","","","","","","","","","","","","",""
"","ITI","","html-keyboard-response","439","344049","0.0-1.0-603.0","0","0","75806","","702","","","75","66","","","","","","","","","","","","","","","k",""
"","S1","","html-keyboard-response","440","344300","0.0-1.0-605.0","0","0","75806","","null","","","null","67","","","","","","","","","","","","","","","",""
"","ISI","","html-keyboard-response","441","344452","0.0-1.0-606.0","0","0","75806","","null","","","null","67","NaN","","","","","","","","","","","","","","",""
"","S2","","html-keyboard-response","442","344704","0.0-1.0-607.0","0","0","75806","","null","","","null","67","","NaN","","","","","","","","","","","","","",""
"","response","","html-keyboard-response","443","344908","0.0-1.0-608.0-0.0","0","0","75806","","203","","","75","67","","","2","67","training","adjacent","ED","5","4","M.jpg","N.jpg","0","0","1","",""
"","feedback","","html-keyboard-response","444","345910","0.0-1.0-609.0-0.0","0","0","75806","","null","","","null","67","","","","","","","","","","","","","","","",""
"","ITI","","html-keyboard-response","445","346912","0.0-1.0-612.0","0","0","75806","","null","","","null","67","","","","","","","","","","","","","","","NaN",""
"","S1","","html-keyboard-response","446","347164","0.0-1.0-614.0","0","0","75806","","null","","","null","68","","","","","","","","","","","","","","","",""
"","ISI","","html-keyboard-response","447","347315","0.0-1.0-615.0","0","0","75806","","null","","","null","68","NaN","","","","","","","","","","","","","","",""
"","S2","","html-keyboard-response","448","347567","0.0-1.0-616.0","0","0","75806","","null","","","null","68","","NaN","","","","","","","","","","","","","",""
"","response","","html-keyboard-response","449","348604","0.0-1.0-617.0-0.0","0","0","75806","","1035","","","68","68","","","2","68","training","adjacent","BA","2","1","R.jpg","Q.jpg","1","0","0","",""
"","feedback","","html-keyboard-response","450","349606","0.0-1.0-618.0-0.0","0","0","75806","","null","","","null","68","","","","","","","","","","","","","","","",""
"","time_out","","html-keyboard-response","451","351608","0.0-1.0-620.0-0.0","0","0","75806","","null","","","null","68","","","","","","","","","","","","","","","",""
"","ITI","","html-keyboard-response","452","352610","0.0-1.0-621.0","0","0","75806","","null","","","null","68","","","","","","","","","","","","","","","NaN",""
"","S1","","html-keyboard-response","453","352862","0.0-1.0-623.0","0","0","75806","","null","","","null","69","","","","","","","","","","","","","","","",""
"","ISI","","html-keyboard-response","454","353013","0.0-1.0-624.0","0","0","75806","","15","","","75","69","k","","","","","","","","","","","","","","",""
"","S2","","html-keyboard-response","455","353271","0.0-1.0-625.0","0","0","75806","","null","","","null","69","","NaN","","","","","","","","","","","","","",""
"","response","","html-keyboard-response","456","353357","0.0-1.0-626.0-0.0","0","0","75806","","85","","","75","69","","","2","69","training","adjacent","ED","5","4","M.jpg","N.jpg","0","0","1","",""
"","feedback","","html-keyboard-response","457","354359","0.0-1.0-627.0-0.0","0","0","75806","","null","","","null","69","","","","","","","","","","","","","","","",""
"","ITI","","html-keyboard-response","458","355365","0.0-1.0-630.0","0","0","75806","","null","","","null","69","","","","","","","","","","","","","","","NaN",""
"","S1","","html-keyboard-response","459","355616","0.0-1.0-632.0","0","0","75806","","null","","","null","70","","","","","","","","","","","","","","","",""
"","ISI","","html-keyboard-response","460","355768","0.0-1.0-633.0","0","0","75806","","null","","","null","70","NaN","","","","","","","","","","","","","","",""
"","S2","","html-keyboard-response","461","356020","0.0-1.0-634.0","0","0","75806","","null","","","null","70","","NaN","","","","","","","","","","","","","",""
"","response","","html-keyboard-response","462","356499","0.0-1.0-635.0-0.0","0","0","75806","","478","","","68","70","","","2","70","training","adjacent","FE","6","5","L.jpg","M.jpg","1","0","0","",""
"","feedback","","html-keyboard-response","463","357502","0.0-1.0-636.0-0.0","0","0","75806","","null","","","null","70","","","","","","","","","","","","","","","",""
"","time_out","","html-keyboard-response","464","359503","0.0-1.0-638.0-0.0","0","0","75806","","null","","","null","70","","","","","","","","","","","","","","","",""
"","ITI","","html-keyboard-response","465","360504","0.0-1.0-639.0","0","0","75806","","null","","","null","70","","","","","","","","","","","","","","","NaN",""
"","S1","","html-keyboard-response","466","360757","0.0-1.0-641.0","0","0","75806","","null","","","null","71","","","","","","","","","","","","","","","",""
"","ISI","","html-keyboard-response","467","360908","0.0-1.0-642.0","0","0","75806","","null","","","null","71","NaN","","","","","","","","","","","","","","",""
"","S2","","html-keyboard-response","468","361160","0.0-1.0-643.0","0","0","75806","","null","","","null","71","","NaN","","","","","","","","","","","","","",""
"","response","","html-keyboard-response","469","361406","0.0-1.0-644.0-0.0","0","0","75806","","245","","","75","71","","","2","71","training","adjacent","GF","7","6","O.jpg","L.jpg","0","0","1","",""
"","feedback","","html-keyboard-response","470","362408","0.0-1.0-645.0-0.0","0","0","75806","","null","","","null","71","","","","","","","","","","","","","","","",""
"","ITI","","html-keyboard-response","471","363409","0.0-1.0-648.0","0","0","75806","","null","","","null","71","","","","","","","","","","","","","","","NaN",""
"","S1","","html-keyboard-response","472","363662","0.0-1.0-650.0","0","0","75806","","null","","","null","72","","","","","","","","","","","","","","","",""
"","ISI","","html-keyboard-response","473","363817","0.0-1.0-651.0","0","0","75806","","null","","","null","72","NaN","","","","","","","","","","","","","","",""
"","S2","","html-keyboard-response","474","364069","0.0-1.0-652.0","0","0","75806","","null","","","null","72","","NaN","","","","","","","","","","","","","",""
"","response","","html-keyboard-response","475","364633","0.0-1.0-653.0-0.0","0","0","75806","","563","","","68","72","","","2","72","training","adjacent","BA","2","1","R.jpg","Q.jpg","1","0","0","",""
"","feedback","","html-keyboard-response","476","365635","0.0-1.0-654.0-0.0","0","0","75806","","null","","","null","72","","","","","","","","","","","","","","","",""
"","time_out","","html-keyboard-response","477","367637","0.0-1.0-656.0-0.0","0","0","75806","","null","","","null","72","","","","","","","","","","","","","","","",""
"","ITI","","html-keyboard-response","478","368639","0.0-1.0-657.0","0","0","75806","","null","","","null","72","","","","","","","","","","","","","","","NaN",""
"","S1","","html-keyboard-response","479","368891","0.0-1.0-659.0","0","0","75806","","null","","","null","73","","","","","","","","","","","","","","","",""
"","ISI","","html-keyboard-response","480","369042","0.0-1.0-660.0","0","0","75806","","null","","","null","73","NaN","","","","","","","","","","","","","","",""
"","S2","","html-keyboard-response","481","369293","0.0-1.0-661.0","0","0","75806","","null","","","null","73","","NaN","","","","","","","","","","","","","",""
"","response","","html-keyboard-response","482","369620","0.0-1.0-662.0-0.0","0","0","75806","","326","","","75","73","","","2","73","training","adjacent","DE","4","5","N.jpg","M.jpg","0","1","0","",""
"","feedback","","html-keyboard-response","483","370622","0.0-1.0-663.0-0.0","0","0","75806","","null","","","null","73","","","","","","","","","","","","","","","",""
"","time_out","","html-keyboard-response","484","372623","0.0-1.0-665.0-0.0","0","0","75806","","null","","","null","73","","","","","","","","","","","","","","","",""
"","ITI","","html-keyboard-response","485","373625","0.0-1.0-666.0","0","0","75806","","null","","","null","73","","","","","","","","","","","","","","","NaN",""
"","S1","","html-keyboard-response","486","373876","0.0-1.0-668.0","0","0","75806","","null","","","null","74","","","","","","","","","","","","","","","",""
"","ISI","","html-keyboard-response","487","374027","0.0-1.0-669.0","0","0","75806","","null","","","null","74","NaN","","","","","","","","","","","","","","",""
"","S2","","html-keyboard-response","488","374052","0.0-1.0-670.0","0","0","75806","","23","","","68","74","","d","2","74","training","adjacent","AB","1","2","Q.jpg","R.jpg","1","1","1","",""
"","feedback","","html-keyboard-response","489","375055","0.0-1.0-672.0-0.0","0","0","75806","","null","","","null","74","","","","","","","","","","","","","","","",""
"","ITI","","html-keyboard-response","490","376057","0.0-1.0-675.0","0","0","75806","","null","","","null","74","","","","","","","","","","","","","","","NaN",""
"","S1","","html-keyboard-response","491","376310","0.0-1.0-677.0","0","0","75806","","null","","","null","75","","","","","","","","","","","","","","","",""
"","ISI","","html-keyboard-response","492","376461","0.0-1.0-678.0","0","0","75806","","null","","","null","75","NaN","","","","","","","","","","","","","","",""
"","S2","","html-keyboard-response","493","376713","0.0-1.0-679.0","0","0","75806","","null","","","null","75","","NaN","","","","","","","","","","","","","",""
"","response","","html-keyboard-response","494","377419","0.0-1.0-680.0-0.0","0","0","75806","","705","","","75","75","","","2","75","training","adjacent","FG","6","7","L.jpg","O.jpg","0","1","0","",""
"","feedback","","html-keyboard-response","495","378420","0.0-1.0-681.0-0.0","0","0","75806","","null","","","null","75","","","","","","","","","","","","","","","",""
"","time_out","","html-keyboard-response","496","380422","0.0-1.0-683.0-0.0","0","0","75806","","null","","","null","75","","","","","","","","","","","","","","","",""
"","ITI","","html-keyboard-response","497","381423","0.0-1.0-684.0","0","0","75806","","null","","","null","75","","","","","","","","","","","","","","","NaN",""
"","S1","","html-keyboard-response","498","381675","0.0-1.0-686.0","0","0","75806","","null","","","null","76","","","","","","","","","","","","","","","",""
"","ISI","","html-keyboard-response","499","381827","0.0-1.0-687.0","0","0","75806","","null","","","null","76","NaN","","","","","","","","","","","","","","",""
"","S2","","html-keyboard-response","500","382078","0.0-1.0-688.0","0","0","75806","","null","","","null","76","","NaN","","","","","","","","","","","","","",""
"","response","","html-keyboard-response","501","383121","0.0-1.0-689.0-0.0","0","0","75806","","1042","","","75","76","","","2","76","training","adjacent","FE","6","5","L.jpg","M.jpg","0","0","1","",""
"","feedback","","html-keyboard-response","502","384123","0.0-1.0-690.0-0.0","0","0","75806","","null","","","null","76","","","","","","","","","","","","","","","",""
"","ITI","","html-keyboard-response","503","385126","0.0-1.0-693.0","0","0","75806","","null","","","null","76","","","","","","","","","","","","","","","NaN",""
"","S1","","html-keyboard-response","504","385378","0.0-1.0-695.0","0","0","75806","","null","","","null","77","","","","","","","","","","","","","","","",""
"","ISI","","html-keyboard-response","505","385529","0.0-1.0-696.0","0","0","75806","","null","","","null","77","NaN","","","","","","","","","","","","","","",""
"","S2","","html-keyboard-response","506","385781","0.0-1.0-697.0","0","0","75806","","null","","","null","77","","NaN","","","","","","","","","","","","","",""
"","response","","html-keyboard-response","507","387064","0.0-1.0-698.0-0.0","0","0","75806","","1281","","","75","77","","","2","77","training","adjacent","FG","6","7","L.jpg","O.jpg","0","1","0","",""
"","feedback","","html-keyboard-response","508","388065","0.0-1.0-699.0-0.0","0","0","75806","","null","","","null","77","","","","","","","","","","","","","","","",""
"","time_out","","html-keyboard-response","509","390067","0.0-1.0-701.0-0.0","0","0","75806","","null","","","null","77","","","","","","","","","","","","","","","",""
"","ITI","","html-keyboard-response","510","391068","0.0-1.0-702.0","0","0","75806","","null","","","null","77","","","","","","","","","","","","","","","NaN",""
"","S1","","html-keyboard-response","511","391319","0.0-1.0-704.0","0","0","75806","","null","","","null","78","","","","","","","","","","","","","","","",""
"","ISI","","html-keyboard-response","512","391471","0.0-1.0-705.0","0","0","75806","","null","","","null","78","NaN","","","","","","","","","","","","","","",""
"","S2","","html-keyboard-response","513","391722","0.0-1.0-706.0","0","0","75806","","null","","","null","78","","NaN","","","","","","","","","","","","","",""
"","response","","html-keyboard-response","514","392014","0.0-1.0-707.0-0.0","0","0","75806","","291","","","68","78","","","2","78","training","adjacent","DC","4","3","N.jpg","P.jpg","1","0","0","",""
"","feedback","","html-keyboard-response","515","393016","0.0-1.0-708.0-0.0","0","0","75806","","null","","","null","78","","","","","","","","","","","","","","","",""
"","time_out","","html-keyboard-response","516","395017","0.0-1.0-710.0-0.0","0","0","75806","","null","","","null","78","","","","","","","","","","","","","","","",""
"","ITI","","html-keyboard-response","517","396019","0.0-1.0-711.0","0","0","75806","","null","","","null","78","","","","","","","","","","","","","","","NaN",""
"","S1","","html-keyboard-response","518","396270","0.0-1.0-713.0","0","0","75806","","null","","","null","79","","","","","","","","","","","","","","","",""
"","ISI","","html-keyboard-response","519","396422","0.0-1.0-714.0","0","0","75806","","null","","","null","79","NaN","","","","","","","","","","","","","","",""
"","S2","","html-keyboard-response","520","396688","0.0-1.0-715.0","0","0","75806","","null","","","null","79","","NaN","","","","","","","","","","","","","",""
"","response","","html-keyboard-response","521","397007","0.0-1.0-716.0-0.0","0","0","75806","","318","","","75","79","","","2","79","training","adjacent","DE","4","5","N.jpg","M.jpg","0","1","0","",""
"","feedback","","html-keyboard-response","522","398009","0.0-1.0-717.0-0.0","0","0","75806","","null","","","null","79","","","","","","","","","","","","","","","",""
"","time_out","","html-keyboard-response","523","400011","0.0-1.0-719.0-0.0","0","0","75806","","null","","","null","79","","","","","","","","","","","","","","","",""
"","ITI","","html-keyboard-response","524","401013","0.0-1.0-720.0","0","0","75806","","null","","","null","79","","","","","","","","","","","","","","","NaN",""
"","S1","","html-keyboard-response","525","401264","0.0-1.0-722.0","0","0","75806","","null","","","null","80","","","","","","","","","","","","","","","",""
"","ISI","","html-keyboard-response","526","401415","0.0-1.0-723.0","0","0","75806","","null","","","null","80","NaN","","","","","","","","","","","","","","",""
"","S2","","html-keyboard-response","527","401667","0.0-1.0-724.0","0","0","75806","","null","","","null","80","","NaN","","","","","","","","","","","","","",""
"","response","","html-keyboard-response","528","402141","0.0-1.0-725.0-0.0","0","0","75806","","474","","","68","80","","","2","80","training","adjacent","CD","3","4","P.jpg","N.jpg","1","1","1","",""
"","feedback","","html-keyboard-response","529","403143","0.0-1.0-726.0-0.0","0","0","75806","","null","","","null","80","","","","","","","","","","","","","","","",""
"","ITI","","html-keyboard-response","530","404145","0.0-1.0-729.0","0","0","75806","","null","","","null","80","","","","","","","","","","","","","","","NaN",""
"","S1","","html-keyboard-response","531","404397","0.0-1.0-731.0","0","0","75806","","null","","","null","81","","","","","","","","","","","","","","","",""
"","ISI","","html-keyboard-response","532","404549","0.0-1.0-732.0","0","0","75806","","null","","","null","81","NaN","","","","","","","","","","","","","","",""
"","S2","","html-keyboard-response","533","404801","0.0-1.0-733.0","0","0","75806","","null","","","null","81","","NaN","","","","","","","","","","","","","",""
"","response","","html-keyboard-response","534","405347","0.0-1.0-734.0-0.0","0","0","75806","","544","","","75","81","","","2","81","training","adjacent","EF","5","6","M.jpg","L.jpg","0","1","0","",""
"","feedback","","html-keyboard-response","535","406348","0.0-1.0-735.0-0.0","0","0","75806","","null","","","null","81","","","","","","","","","","","","","","","",""
"","time_out","","html-keyboard-response","536","408350","0.0-1.0-737.0-0.0","0","0","75806","","null","","","null","81","","","","","","","","","","","","","","","",""
"","ITI","","html-keyboard-response","537","409352","0.0-1.0-738.0","0","0","75806","","null","","","null","81","","","","","","","","","","","","","","","NaN",""
"","S1","","html-keyboard-response","538","409605","0.0-1.0-740.0","0","0","75806","","null","","","null","82","","","","","","","","","","","","","","","",""
"","ISI","","html-keyboard-response","539","409756","0.0-1.0-741.0","0","0","75806","","null","","","null","82","NaN","","","","","","","","","","","","","","",""
"","S2","","html-keyboard-response","540","409854","0.0-1.0-742.0","0","0","75806","","97","","","68","82","","d","2","82","training","adjacent","GF","7","6","O.jpg","L.jpg","1","0","0","",""
"","feedback","","html-keyboard-response","541","410856","0.0-1.0-744.0-0.0","0","0","75806","","null","","","null","82","","","","","","","","","","","","","","","",""
"","time_out","","html-keyboard-response","542","412858","0.0-1.0-746.0-0.0","0","0","75806","","null","","","null","82","","","","","","","","","","","","","","","",""
"","ITI","","html-keyboard-response","543","413870","0.0-1.0-747.0","0","0","75806","","null","","","null","82","","","","","","","","","","","","","","","NaN",""
"","S1","","html-keyboard-response","544","414122","0.0-1.0-749.0","0","0","75806","","null","","","null","83","","","","","","","","","","","","","","","",""
"","ISI","","html-keyboard-response","545","414279","0.0-1.0-750.0","0","0","75806","","null","","","null","83","NaN","","","","","","","","","","","","","","",""
"","S2","","html-keyboard-response","546","414530","0.0-1.0-751.0","0","0","75806","","null","","","null","83","","NaN","","","","","","","","","","","","","",""
"","response","","html-keyboard-response","547","414978","0.0-1.0-752.0-0.0","0","0","75806","","448","","","75","83","","","2","83","training","adjacent","DC","4","3","N.jpg","P.jpg","0","0","1","",""
"","feedback","","html-keyboard-response","548","415980","0.0-1.0-753.0-0.0","0","0","75806","","null","","","null","83","","","","","","","","","","","","","","","",""
"","ITI","","html-keyboard-response","549","416982","0.0-1.0-756.0","0","0","75806","","null","","","null","83","","","","","","","","","","","","","","","NaN",""
"","S1","","html-keyboard-response","550","417233","0.0-1.0-758.0","0","0","75806","","null","","","null","84","","","","","","","","","","","","","","","",""
"","ISI","","html-keyboard-response","551","417385","0.0-1.0-759.0","0","0","75806","","null","","","null","84","NaN","","","","","","","","","","","","","","",""
"","S2","","html-keyboard-response","552","417637","0.0-1.0-760.0","0","0","75806","","null","","","null","84","","NaN","","","","","","","","","","","","","",""
"","response","","html-keyboard-response","553","417849","0.0-1.0-761.0-0.0","0","0","75806","","211","","","68","84","","","2","84","training","adjacent","FG","6","7","L.jpg","O.jpg","1","1","1","",""
"","feedback","","html-keyboard-response","554","418851","0.0-1.0-762.0-0.0","0","0","75806","","null","","","null","84","","","","","","","","","","","","","","","",""
"","ITI","","html-keyboard-response","555","419853","0.0-1.0-765.0","0","0","75806","","null","","","null","84","","","","","","","","","","","","","","","NaN",""
"","S1","","html-keyboard-response","556","420105","0.0-1.0-767.0","0","0","75806","","null","","","null","85","","","","","","","","","","","","","","","",""
"","ISI","","html-keyboard-response","557","420258","0.0-1.0-768.0","0","0","75806","","null","","","null","85","NaN","","","","","","","","","","","","","","",""
"","S2","","html-keyboard-response","558","420510","0.0-1.0-769.0","0","0","75806","","null","","","null","85","","NaN","","","","","","","","","","","","","",""
"","response","","html-keyboard-response","559","421150","0.0-1.0-770.0-0.0","0","0","75806","","640","","","75","85","","","2","85","training","adjacent","CB","3","2","P.jpg","R.jpg","0","0","1","",""
"","feedback","","html-keyboard-response","560","422152","0.0-1.0-771.0-0.0","0","0","75806","","null","","","null","85","","","","","","","","","","","","","","","",""
"","ITI","","html-keyboard-response","561","423154","0.0-1.0-774.0","0","0","75806","","null","","","null","85","","","","","","","","","","","","","","","NaN",""
"","S1","","html-keyboard-response","562","423405","0.0-1.0-776.0","0","0","75806","","null","","","null","86","","","","","","","","","","","","","","","",""
"","ISI","","html-keyboard-response","563","423556","0.0-1.0-777.0","0","0","75806","","null","","","null","86","NaN","","","","","","","","","","","","","","",""
"","S2","","html-keyboard-response","564","423808","0.0-1.0-778.0","0","0","75806","","null","","","null","86","","NaN","","","","","","","","","","","","","",""
"","response","","html-keyboard-response","565","424143","0.0-1.0-779.0-0.0","0","0","75806","","334","","","68","86","","","2","86","training","adjacent","DC","4","3","N.jpg","P.jpg","1","0","0","",""
"","feedback","","html-keyboard-response","566","425145","0.0-1.0-780.0-0.0","0","0","75806","","null","","","null","86","","","","","","","","","","","","","","","",""
"","time_out","","html-keyboard-response","567","427147","0.0-1.0-782.0-0.0","0","0","75806","","null","","","null","86","","","","","","","","","","","","","","","",""
"","ITI","","html-keyboard-response","568","428149","0.0-1.0-783.0","0","0","75806","","null","","","null","86","","","","","","","","","","","","","","","NaN",""
"","S1","","html-keyboard-response","569","428400","0.0-1.0-785.0","0","0","75806","","null","","","null","87","","","","","","","","","","","","","","","",""
"","ISI","","html-keyboard-response","570","428552","0.0-1.0-786.0","0","0","75806","","null","","","null","87","NaN","","","","","","","","","","","","","","",""
"","S2","","html-keyboard-response","571","428805","0.0-1.0-787.0","0","0","75806","","null","","","null","87","","NaN","","","","","","","","","","","","","",""
"","response","","html-keyboard-response","572","429282","0.0-1.0-788.0-0.0","0","0","75806","","476","","","75","87","","","2","87","training","adjacent","FG","6","7","L.jpg","O.jpg","0","1","0","",""
"","feedback","","html-keyboard-response","573","430284","0.0-1.0-789.0-0.0","0","0","75806","","null","","","null","87","","","","","","","","","","","","","","","",""
"","time_out","","html-keyboard-response","574","432286","0.0-1.0-791.0-0.0","0","0","75806","","null","","","null","87","","","","","","","","","","","","","","","",""
"","ITI","","html-keyboard-response","575","433288","0.0-1.0-792.0","0","0","75806","","null","","","null","87","","","","","","","","","","","","","","","NaN",""
"","S1","","html-keyboard-response","576","433540","0.0-1.0-794.0","0","0","75806","","null","","","null","88","","","","","","","","","","","","","","","",""
"","ISI","","html-keyboard-response","577","433691","0.0-1.0-795.0","0","0","75806","","null","","","null","88","NaN","","","","","","","","","","","","","","",""
"","S2","","html-keyboard-response","578","433944","0.0-1.0-796.0","0","0","75806","","null","","","null","88","","NaN","","","","","","","","","","","","","",""
"","response","","html-keyboard-response","579","435709","0.0-1.0-797.0-0.0","0","0","75806","","null","","","null","88","","","2","88","training","adjacent","AB","1","2","Q.jpg","R.jpg","NaN","1","0","",""
"","too_slow_prompt","","html-keyboard-response","580","436710","0.0-1.0-799.0-0.0","1","0","75806","","null","","","null","","","","","","","","","","","","","","","","",""
"","time_out","","html-keyboard-response","581","438712","0.0-1.0-800.0-0.0","0","0","75806","","null","","","null","88","","","","","","","","","","","","","","","",""
