"success","ttype","start_time","trial_type","trial_index","time_elapsed","internal_node_id","warning","missed_checkup","PID","view_history","rt","responses","repeat_instructions","key_press","index","keypress_isi","keypress_S2","block","trial_num","phase","group_type","pair_type","S1_stim","S2_stim","S1_img","S2_img","S1_chosen","S1_higher","accuracy","keypress_iti","total_bonus_tally"
"true","full_screen","d03072023hr2142","fullscreen","0","16518","0.0-0.0","0","0","36625","","","","","","","","","","","","","","","","","","","","","",""
"","instructions","","instructions","1","83859","0.0-1.0-0.0-0.0","0","0","36625","[{""page_index"":0,""viewing_time"":5206},{""page_index"":1,""viewing_time"":47473},{""page_index"":2,""viewing_time"":12191},{""page_index"":3,""viewing_time"":2469}]","67340","","","","","","","","","","","","","","","","","","","",""
"","comprehension_check","","survey-multi-choice","2","105112","0.0-1.0-0.0-1.0","0","0","36625","","21250","{""Q0"":""True"",""Q1"":""K"",""Q2"":""Only when the screen 'MAKE A CHOICE' is shown"",""Q3"":""Green mark"",""Q4"":""either D or K""}","1","","","","","","","","","","","","","","","","","",""
"","missed_instruction_checkup","","html-keyboard-response","3","108329","0.0-1.0-0.0-2.0-0.0","0","1","36625","","3213","","","32","","","","","","","","","","","","","","","","",""
"","instructions","","instructions","4","134524","0.0-1.0-0.1-0.1","0","0","36625","[{""page_index"":0,""viewing_time"":3049},{""page_index"":1,""viewing_time"":18032},{""page_index"":2,""viewing_time"":4243},{""page_index"":3,""viewing_time"":869}]","26193","","","","","","","","","","","","","","","","","","","",""
"","comprehension_check","","survey-multi-choice","5","162198","0.0-1.0-0.1-1.1","0","0","36625","","27671","{""Q0"":""True"",""Q1"":""K"",""Q2"":""Once the second image appears and while the screen 'MAKE A CHOICE' is shown"",""Q3"":""Green mark"",""Q4"":""either D or K""}","0","","","","","","","","","","","","","","","","","",""
"","start_exp","","html-keyboard-response","6","164959","0.0-1.0-1.0","0","0","36625","","2760","","","32","","","","","","","","","","","","","","","","",""
"","S1","","html-keyboard-response","7","165212","0.0-1.0-2.0","0","0","36625","","null","","","null","0","","","","","","","","","","","","","","","",""
"","ISI","","html-keyboard-response","8","166215","0.0-1.0-3.0","0","0","36625","","null","","","null","0","NaN","","","","","","","","","","","","","","",""
"","S2","","html-keyboard-response","9","166468","0.0-1.0-4.0","0","0","36625","","null","","","null","0","","NaN","","","","","","","","","","","","","",""
"","response","","html-keyboard-response","10","168185","0.0-1.0-5.0-0.0","0","0","36625","","1716","","","75","0","","","1","0","training","adjacent","EF","5","6","O.jpg","P.jpg","1","1","1","",""
"","feedback","","html-keyboard-response","11","169187","0.0-1.0-6.0-0.0","0","0","36625","","null","","","null","0","","","","","","","","","","","","","","","",""
"","ITI","","html-keyboard-response","12","170189","0.0-1.0-9.0","0","0","36625","","null","","","null","0","","","","","","","","","","","","","","","NaN",""
"","S1","","html-keyboard-response","13","170442","0.0-1.0-11.0","0","0","36625","","null","","","null","1","","","","","","","","","","","","","","","",""
"","ISI","","html-keyboard-response","14","171445","0.0-1.0-12.0","0","0","36625","","null","","","null","1","NaN","","","","","","","","","","","","","","",""
"","S2","","html-keyboard-response","15","171699","0.0-1.0-13.0","0","0","36625","","null","","","null","1","","NaN","","","","","","","","","","","","","",""
"","response","","html-keyboard-response","16","172661","0.0-1.0-14.0-0.0","0","0","36625","","961","","","75","1","","","1","1","training","adjacent","FE","6","5","P.jpg","O.jpg","1","0","0","",""
"","feedback","","html-keyboard-response","17","173664","0.0-1.0-15.0-0.0","0","0","36625","","null","","","null","1","","","","","","","","","","","","","","","",""
"","time_out","","html-keyboard-response","18","175666","0.0-1.0-17.0-0.0","0","0","36625","","null","","","null","1","","","","","","","","","","","","","","","",""
"","ITI","","html-keyboard-response","19","176669","0.0-1.0-18.0","0","0","36625","","null","","","null","1","","","","","","","","","","","","","","","NaN",""
"","S1","","html-keyboard-response","20","176921","0.0-1.0-20.0","0","0","36625","","null","","","null","2","","","","","","","","","","","","","","","",""
"","ISI","","html-keyboard-response","21","177925","0.0-1.0-21.0","0","0","36625","","null","","","null","2","NaN","","","","","","","","","","","","","","",""
"","S2","","html-keyboard-response","22","178177","0.0-1.0-22.0","0","0","36625","","null","","","null","2","","NaN","","","","","","","","","","","","","",""
"","response","","html-keyboard-response","23","179576","0.0-1.0-23.0-0.0","0","0","36625","","1397","","","75","2","","","1","2","training","adjacent","GF","7","6","Q.jpg","P.jpg","1","0","0","",""
"","feedback","","html-keyboard-response","24","180583","0.0-1.0-24.0-0.0","0","0","36625","","null","","","null","2","","","","","","","","","","","","","","","",""
"","time_out","","html-keyboard-response","25","182585","0.0-1.0-26.0-0.0","0","0","36625","","null","","","null","2","","","","","","","","","","","","","","","",""
"","ITI","","html-keyboard-response","26","183588","0.0-1.0-27.0","0","0","36625","","null","","","null","2","","","","","","","","","","","","","","","NaN",""
"","S1","","html-keyboard-response","27","183840","0.0-1.0-29.0","0","0","36625","","null","","","null","3","","","","","","","","","","","","","","","",""
"","ISI","","html-keyboard-response","28","184843","0.0-1.0-30.0","0","0","36625","","null","","","null","3","NaN","","","","","","","","","","","","","","",""
"","S2","","html-keyboard-response","29","185096","0.0-1.0-31.0","0","0","36625","","null","","","null","3","","NaN","","","","","","","","","","","","","",""
"","response","","html-keyboard-response","30","185548","0.0-1.0-32.0-0.0","0","0","36625","","451","","","68","3","","","1","3","training","adjacent","FE","6","5","P.jpg","O.jpg","0","0","1","",""
"","feedback","","html-keyboard-response","31","186551","0.0-1.0-33.0-0.0","0","0","36625","","null","","","null","3","","","","","","","","","","","","","","","",""
"","ITI","","html-keyboard-response","32","187554","0.0-1.0-36.0","0","0","36625","","null","","","null","3","","","","","","","","","","","","","","","NaN",""
"","S1","","html-keyboard-response","33","187807","0.0-1.0-38.0","0","0","36625","","null","","","null","4","","","","","","","","","","","","","","","",""
"","ISI","","html-keyboard-response","34","188809","0.0-1.0-39.0","0","0","36625","","null","","","null","4","NaN","","","","","","","","","","","","","","",""
"","S2","","html-keyboard-response","35","189063","0.0-1.0-40.0","0","0","36625","","null","","","null","4","","NaN","","","","","","","","","","","","","",""
"","response","","html-keyboard-response","36","190113","0.0-1.0-41.0-0.0","0","0","36625","","1048","","","75","4","","","1","4","training","adjacent","CD","3","4","L.jpg","N.jpg","1","1","1","",""
"","feedback","","html-keyboard-response","37","191115","0.0-1.0-42.0-0.0","0","0","36625","","null","","","null","4","","","","","","","","","","","","","","","",""
"","ITI","","html-keyboard-response","38","192118","0.0-1.0-45.0","0","0","36625","","null","","","null","4","","","","","","","","","","","","","","","NaN",""
"","S1","","html-keyboard-response","39","192371","0.0-1.0-47.0","0","0","36625","","null","","","null","5","","","","","","","","","","","","","","","",""
"","ISI","","html-keyboard-response","40","193375","0.0-1.0-48.0","0","0","36625","","null","","","null","5","NaN","","","","","","","","","","","","","","",""
"","S2","","html-keyboard-response","41","193627","0.0-1.0-49.0","0","0","36625","","null","","","null","5","","NaN","","","","","","","","","","","","","",""
"","response","","html-keyboard-response","42","194249","0.0-1.0-50.0-0.0","0","0","36625","","621","","","68","5","","","1","5","training","adjacent","DE","4","5","N.jpg","O.jpg","0","1","0","",""
"","feedback","","html-keyboard-response","43","195252","0.0-1.0-51.0-0.0","0","0","36625","","null","","","null","5","","","","","","","","","","","","","","","",""
"","time_out","","html-keyboard-response","44","197255","0.0-1.0-53.0-0.0","0","0","36625","","null","","","null","5","","","","","","","","","","","","","","","",""
"","ITI","","html-keyboard-response","45","198258","0.0-1.0-54.0","0","0","36625","","null","","","null","5","","","","","","","","","","","","","","","NaN",""
"","S1","","html-keyboard-response","46","198510","0.0-1.0-56.0","0","0","36625","","null","","","null","6","","","","","","","","","","","","","","","",""
"","ISI","","html-keyboard-response","47","199513","0.0-1.0-57.0","0","0","36625","","null","","","null","6","NaN","","","","","","","","","","","","","","",""
"","S2","","html-keyboard-response","48","199766","0.0-1.0-58.0","0","0","36625","","null","","","null","6","","NaN","","","","","","","","","","","","","",""
"","response","","html-keyboard-response","49","199958","0.0-1.0-59.0-0.0","0","0","36625","","191","","","68","6","","","1","6","training","adjacent","ED","5","4","O.jpg","N.jpg","0","0","1","",""
"","feedback","","html-keyboard-response","50","200960","0.0-1.0-60.0-0.0","0","0","36625","","null","","","null","6","","","","","","","","","","","","","","","",""
"","ITI","","html-keyboard-response","51","201963","0.0-1.0-63.0","0","0","36625","","null","","","null","6","","","","","","","","","","","","","","","NaN",""
"","S1","","html-keyboard-response","52","202216","0.0-1.0-65.0","0","0","36625","","null","","","null","7","","","","","","","","","","","","","","","",""
"","ISI","","html-keyboard-response","53","203218","0.0-1.0-66.0","0","0","36625","","null","","","null","7","NaN","","","","","","","","","","","","","","",""
"","S2","","html-keyboard-response","54","203471","0.0-1.0-67.0","0","0","36625","","null","","","null","7","","NaN","","","","","","","","","","","","","",""
"","response","","html-keyboard-response","55","204567","0.0-1.0-68.0-0.0","0","0","36625","","1094","","","75","7","","","1","7","training","adjacent","CB","3","2","L.jpg","R.jpg","1","0","0","",""
"","feedback","","html-keyboard-response","56","205571","0.0-1.0-69.0-0.0","0","0","36625","","null","","","null","7","","","","","","","","","","","","","","","",""
"","time_out","","html-keyboard-response","57","207573","0.0-1.0-71.0-0.0","0","0","36625","","null","","","null","7","","","","","","","","","","","","","","","",""
"","ITI","","html-keyboard-response","58","208575","0.0-1.0-72.0","0","0","36625","","null","","","null","7","","","","","","","","","","","","","","","NaN",""
"","S1","","html-keyboard-response","59","208827","0.0-1.0-74.0","0","0","36625","","null","","","null","8","","","","","","","","","","","","","","","",""
"","ISI","","html-keyboard-response","60","209829","0.0-1.0-75.0","0","0","36625","","null","","","null","8","NaN","","","","","","","","","","","","","","",""
"","S2","","html-keyboard-response","61","210082","0.0-1.0-76.0","0","0","36625","","null","","","null","8","","NaN","","","","","","","","","","","","","",""
"","response","","html-keyboard-response","62","211302","0.0-1.0-77.0-0.0","0","0","36625","","1218","","","68","8","","","1","8","training","adjacent","AB","1","2","M.jpg","R.jpg","0","1","0","",""
"","feedback","","html-keyboard-response","63","212305","0.0-1.0-78.0-0.0","0","0","36625","","null","","","null","8","","","","","","","","","","","","","","","",""
"","time_out","","html-keyboard-response","64","214307","0.0-1.0-80.0-0.0","0","0","36625","","null","","","null","8","","","","","","","","","","","","","","","",""
"","ITI","","html-keyboard-response","65","215310","0.0-1.0-81.0","0","0","36625","","null","","","null","8","","","","","","","","","","","","","","","NaN",""
"","S1","","html-keyboard-response","66","215563","0.0-1.0-83.0","0","0","36625","","null","","","null","9","","","","","","","","","","","","","","","",""
"","ISI","","html-keyboard-response","67","216565","0.0-1.0-84.0","0","0","36625","","null","","","null","9","NaN","","","","","","","","","","","","","","",""
"","S2","","html-keyboard-response","68","216818","0.0-1.0-85.0","0","0","36625","","null","","","null","9","","NaN","","","","","","","","","","","","","",""
"","response","","html-keyboard-response","69","217816","0.0-1.0-86.0-0.0","0","0","36625","","997","","","75","9","","","1","9","training","adjacent","AB","1","2","M.jpg","R.jpg","1","1","1","",""
"","feedback","","html-keyboard-response","70","218819","0.0-1.0-87.0-0.0","0","0","36625","","null","","","null","9","","","","","","","","","","","","","","","",""
"","ITI","","html-keyboard-response","71","219822","0.0-1.0-90.0","0","0","36625","","null","","","null","9","","","","","","","","","","","","","","","NaN",""
"","S1","","html-keyboard-response","72","220075","0.0-1.0-92.0","0","0","36625","","null","","","null","10","","","","","","","","","","","","","","","",""
"","ISI","","html-keyboard-response","73","221077","0.0-1.0-93.0","0","0","36625","","null","","","null","10","NaN","","","","","","","","","","","","","","",""
"","S2","","html-keyboard-response","74","221330","0.0-1.0-94.0","0","0","36625","","null","","","null","10","","NaN","","","","","","","","","","","","","",""
"","response","","html-keyboard-response","75","221894","0.0-1.0-95.0-0.0","0","0","36625","","563","","","68","10","","","1","10","training","adjacent","EF","5","6","O.jpg","P.jpg","0","1","0","",""
"","feedback","","html-keyboard-response","76","222897","0.0-1.0-96.0-0.0","0","0","36625","","null","","","null","10","","","","","","","","","","","","","","","",""
"","time_out","","html-keyboard-response","77","224899","0.0-1.0-98.0-0.0","0","0","36625","","null","","","null","10","","","","","","","","","","","","","","","",""
"","ITI","","html-keyboard-response","78","225902","0.0-1.0-99.0","0","0","36625","","null","","","null","10","","","","","","","","","","","","","","","NaN",""
"","S1","","html-keyboard-response","79","226155","0.0-1.0-101.0","0","0","36625","","null","","","null","11","","","","","","","","","","","","","","","",""
"","ISI","","html-keyboard-response","80","227157","0.0-1.0-102.0","0","0","36625","","null","","","null","11","NaN","","","","","","","","","","","","","","",""
"","S2","","html-keyboard-response","81","227410","0.0-1.0-103.0","0","0","36625","","null","","","null","11","","NaN","","","","","","","","","","","","","",""
"","response","","html-keyboard-response","82","227947","0.0-1.0-104.0-0.0","0","0","36625","","536","","","75","11","","","1","11","training","adjacent","DC","4","3","N.jpg","L.jpg","1","0","0","",""
"","feedback","","html-keyboard-response","83","228949","0.0-1.0-105.0-0.0","0","0","36625","","null","","","null","11","","","","","","","","","","","","","","","",""
"","time_out","","html-keyboard-response","84","230951","0.0-1.0-107.0-0.0","0","0","36625","","null","","","null","11","","","","","","","","","","","","","","","",""
"","ITI","","html-keyboard-response","85","231954","0.0-1.0-108.0","0","0","36625","","null","","","null","11","","","","","","","","","","","","","","","NaN",""
"","S1","","html-keyboard-response","86","232207","0.0-1.0-110.0","0","0","36625","","null","","","null","12","","","","","","","","","","","","","","","",""
"","ISI","","html-keyboard-response","87","233209","0.0-1.0-111.0","0","0","36625","","null","","","null","12","NaN","","","","","","","","","","","","","","",""
"","S2","","html-keyboard-response","88","233461","0.0-1.0-112.0","0","0","36625","","null","","","null","12","","NaN","","","","","","","","","","","","","",""
"","response","","html-keyboard-response","89","234027","0.0-1.0-113.0-0.0","0","0","36625","","564","","","68","12","","","1","12","training","adjacent","DC","4","3","N.jpg","L.jpg","0","0","1","",""
"","feedback","","html-keyboard-response","90","235044","0.0-1.0-114.0-0.0","0","0","36625","","null","","","null","12","","","","","","","","","","","","","","","",""
"","ITI","","html-keyboard-response","91","236046","0.0-1.0-117.0","0","0","36625","","null","","","null","12","","","","","","","","","","","","","","","NaN",""
"","S1","","html-keyboard-response","92","236298","0.0-1.0-119.0","0","0","36625","","null","","","null","13","","","","","","","","","","","","","","","",""
"","ISI","","html-keyboard-response","93","237310","0.0-1.0-120.0","0","0","36625","","null","","","null","13","NaN","","","","","","","","","","","","","","",""
"","S2","","html-keyboard-response","94","237563","0.0-1.0-121.0","0","0","36625","","null","","","null","13","","NaN","","","","","","","","","","","","","",""
"","response","","html-keyboard-response","95","238172","0.0-1.0-122.0-0.0","0","0","36625","","607","","","68","13","","","1","13","training","adjacent","FG","6","7","P.jpg","Q.jpg","0","1","0","",""
"","feedback","","html-keyboard-response","96","239176","0.0-1.0-123.0-0.0","0","0","36625","","null","","","null","13","","","","","","","","","","","","","","","",""
"","time_out","","html-keyboard-response","97","241178","0.0-1.0-125.0-0.0","0","0","36625","","null","","","null","13","","","","","","","","","","","","","","","",""
"","ITI","","html-keyboard-response","98","242181","0.0-1.0-126.0","0","0","36625","","null","","","null","13","","","","","","","","","","","","","","","NaN",""
"","S1","","html-keyboard-response","99","242444","0.0-1.0-128.0","0","0","36625","","null","","","null","14","","","","","","","","","","","","","","","",""
"","ISI","","html-keyboard-response","100","243447","0.0-1.0-129.0","0","0","36625","","null","","","null","14","NaN","","","","","","","","","","","","","","",""
"","S2","","html-keyboard-response","101","243699","0.0-1.0-130.0","0","0","36625","","null","","","null","14","","NaN","","","","","","","","","","","","","",""
"","response","","html-keyboard-response","102","244118","0.0-1.0-131.0-0.0","0","0","36625","","417","","","75","14","","","1","14","training","adjacent","DC","4","3","N.jpg","L.jpg","1","0","0","",""
"","feedback","","html-keyboard-response","103","245121","0.0-1.0-132.0-0.0","0","0","36625","","null","","","null","14","","","","","","","","","","","","","","","",""
"","time_out","","html-keyboard-response","104","247123","0.0-1.0-134.0-0.0","0","0","36625","","null","","","null","14","","","","","","","","","","","","","","","",""
"","ITI","","html-keyboard-response","105","248125","0.0-1.0-135.0","0","0","36625","","null","","","null","14","","","","","","","","","","","","","","","NaN",""
"","S1","","html-keyboard-response","106","248378","0.0-1.0-137.0","0","0","36625","","null","","","null","15","","","","","","","","","","","","","","","",""
"","ISI","","html-keyboard-response","107","249380","0.0-1.0-138.0","0","0","36625","","null","","","null","15","NaN","","","","","","","","","","","","","","",""
"","S2","","html-keyboard-response","108","249644","0.0-1.0-139.0","0","0","36625","","null","","","null","15","","NaN","","","","","","","","","","","","","",""
"","response","","html-keyboard-response","109","250242","0.0-1.0-140.0-0.0","0","0","36625","","596","","","68","15","","","1","15","training","adjacent","BC","2","3","R.jpg","L.jpg","0","1","0","",""
"","feedback","","html-keyboard-response","110","251246","0.0-1.0-141.0-0.0","0","0","36625","","null","","","null","15","","","","","","","","","","","","","","","",""
"","time_out","","html-keyboard-response","111","253248","0.0-1.0-143.0-0.0","0","0","36625","","null","","","null","15","","","","","","","","","","","","","","","",""
"","ITI","","html-keyboard-response","112","254250","0.0-1.0-144.0","0","0","36625","","null","","","null","15","","","","","","","","","","","","","","","NaN",""
"","S1","","html-keyboard-response","113","254503","0.0-1.0-146.0","0","0","36625","","null","","","null","16","","","","","","","","","","","","","","","",""
"","ISI","","html-keyboard-response","114","255515","0.0-1.0-147.0","0","0","36625","","null","","","null","16","NaN","","","","","","","","","","","","","","",""
"","S2","","html-keyboard-response","115","255767","0.0-1.0-148.0","0","0","36625","","null","","","null","16","","NaN","","","","","","","","","","","","","",""
"","response","","html-keyboard-response","116","256326","0.0-1.0-149.0-0.0","0","0","36625","","557","","","75","16","","","1","16","training","adjacent","ED","5","4","O.jpg","N.jpg","1","0","0","",""
"","feedback","","html-keyboard-response","117","257329","0.0-1.0-150.0-0.0","0","0","36625","","null","","","null","16","","","","","","","","","","","","","","","",""
"","time_out","","html-keyboard-response","118","259331","0.0-1.0-152.0-0.0","0","0","36625","","null","","","null","16","","","","","","","","","","","","","","","",""
"","ITI","","html-keyboard-response","119","260335","0.0-1.0-153.0","0","0","36625","","null","","","null","16","","","","","","","","","","","","","","","NaN",""
"","S1","","html-keyboard-response","120","260587","0.0-1.0-155.0","0","0","36625","","null","","","null","17","","","","","","","","","","","","","","","",""
"","ISI","","html-keyboard-response","121","261590","0.0-1.0-156.0","0","0","36625","","null","","","null","17","NaN","","","","","","","","","","","","","","",""
"","S2","","html-keyboard-response","122","261842","0.0-1.0-157.0","0","0","36625","","null","","","null","17","","NaN","","","","","","","","","","","","","",""
"","response","","html-keyboard-response","123","261961","0.0-1.0-158.0-0.0","0","0","36625","","116","","","68","17","","","1","17","training","adjacent","DE","4","5","N.jpg","O.jpg","0","1","0","",""
"","feedback","","html-keyboard-response","124","262963","0.0-1.0-159.0-0.0","0","0","36625","","null","","","null","17","","","","","","","","","","","","","","","",""
"","time_out","","html-keyboard-response","125","264966","0.0-1.0-161.0-0.0","0","0","36625","","null","","","null","17","","","","","","","","","","","","","","","",""
"","ITI","","html-keyboard-response","126","265967","0.0-1.0-162.0","0","0","36625","","null","","","null","17","","","","","","","","","","","","","","","NaN",""
"","S1","","html-keyboard-response","127","266220","0.0-1.0-164.0","0","0","36625","","null","","","null","18","","","","","","","","","","","","","","","",""
"","ISI","","html-keyboard-response","128","267223","0.0-1.0-165.0","0","0","36625","","null","","","null","18","NaN","","","","","","","","","","","","","","",""
"","S2","","html-keyboard-response","129","267476","0.0-1.0-166.0","0","0","36625","","null","","","null","18","","NaN","","","","","","","","","","","","","",""
"","response","","html-keyboard-response","130","268327","0.0-1.0-167.0-0.0","0","0","36625","","850","","","68","18","","","1","18","training","adjacent","BA","2","1","R.jpg","M.jpg","0","0","1","",""
"","feedback","","html-keyboard-response","131","269329","0.0-1.0-168.0-0.0","0","0","36625","","null","","","null","18","","","","","","","","","","","","","","","",""
"","ITI","","html-keyboard-response","132","270333","0.0-1.0-171.0","0","0","36625","","null","","","null","18","","","","","","","","","","","","","","","NaN",""
"","S1","","html-keyboard-response","133","270585","0.0-1.0-173.0","0","0","36625","","null","","","null","19","","","","","","","","","","","","","","","",""
"","ISI","","html-keyboard-response","134","271588","0.0-1.0-174.0","0","0","36625","","null","","","null","19","NaN","","","","","","","","","","","","","","",""
"","S2","","html-keyboard-response","135","271840","0.0-1.0-175.0","0","0","36625","","null","","","null","19","","NaN","","","","","","","","","","","","","",""
"","response","","html-keyboard-response","136","272918","0.0-1.0-176.0-0.0","0","0","36625","","1076","","","68","19","","","1","19","training","adjacent","EF","5","6","O.jpg","P.jpg","0","1","0","",""
"","feedback","","html-keyboard-response","137","273921","0.0-1.0-177.0-0.0","0","0","36625","","null","","","null","19","","","","","","","","","","","","","","","",""
"","time_out","","html-keyboard-response","138","275924","0.0-1.0-179.0-0.0","0","0","36625","","null","","","null","19","","","","","","","","","","","","","","","",""
"","ITI","","html-keyboard-response","139","276926","0.0-1.0-180.0","0","0","36625","","null","","","null","19","","","","","","","","","","","","","","","NaN",""
"","S1","","html-keyboard-response","140","277178","0.0-1.0-182.0","0","0","36625","","null","","","null","20","","","","","","","","","","","","","","","",""
"","ISI","","html-keyboard-response","141","278180","0.0-1.0-183.0","0","0","36625","","null","","","null","20","NaN","","","","","","","","","","","","","","",""
"","S2","","html-keyboard-response","142","278433","0.0-1.0-184.0","0","0","36625","","null","","","null","20","","NaN","","","","","","","","","","","","","",""
"","response","","html-keyboard-response","143","278990","0.0-1.0-185.0-0.0","0","0","36625","","555","","","75","20","","","1","20","training","adjacent","BC","2","3","R.jpg","L.jpg","1","1","1","",""
"","feedback","","html-keyboard-response","144","279992","0.0-1.0-186.0-0.0","0","0","36625","","null","","","null","20","","","","","","","","","","","","","","","",""
"","ITI","","html-keyboard-response","145","280995","0.0-1.0-189.0","0","0","36625","","null","","","null","20","","","","","","","","","","","","","","","NaN",""
"","S1","","html-keyboard-response","146","281248","0.0-1.0-191.0","0","0","36625","","null","","","null","21","","","","","","","","","","","","","","","",""
"","ISI","","html-keyboard-response","147","282253","0.0-1.0-192.0","0","0","36625","","null","","","null","21","NaN","","","","","","","","","","","","","","",""
"","S2","","html-keyboard-response","148","282505","0.0-1.0-193.0","0","0","36625","","null","","","null","21","","NaN","","","","","","","","","","","","","",""
"","response","","html-keyboard-response","149","283291","0.0-1.0-194.0-0.0","0","0","36625","","784","","","75","21","","","1","21","training","adjacent","FG","6","7","P.jpg","Q.jpg","1","1","1","",""
"","feedback","","html-keyboard-response","150","284294","0.0-1.0-195.0-0.0","0","0","36625","","null","","","null","21","","","","","","","","","","","","","","","",""
"","ITI","","html-keyboard-response","151","285296","0.0-1.0-198.0","0","0","36625","","null","","","null","21","","","","","","","","","","","","","","","NaN",""
"","S1","","html-keyboard-response","152","285549","0.0-1.0-200.0","0","0","36625","","null","","","null","22","","","","","","","","","","","","","","","",""
"","ISI","","html-keyboard-response","153","286551","0.0-1.0-201.0","0","0","36625","","null","","","null","22","NaN","","","","","","","","","","","","","","",""
"","S2","","html-keyboard-response","154","286804","0.0-1.0-202.0","0","0","36625","","null","","","null","22","","NaN","","","","","","","","","","","","","",""
"","response","","html-keyboard-response","155","287157","0.0-1.0-203.0-0.0","0","0","36625","","351","","","75","22","","","1","22","training","adjacent","FE","6","5","P.jpg","O.jpg","1","0","0","",""
"","feedback","","html-keyboard-response","156","288160","0.0-1.0-204.0-0.0","0","0","36625","","null","","","null","22","","","","","","","","","","","","","","","",""
"","time_out","","html-keyboard-response","157","290163","0.0-1.0-206.0-0.0","0","0","36625","","null","","","null","22","","","","","","","","","","","","","","","",""
"","ITI","","html-keyboard-response","158","291165","0.0-1.0-207.0","0","0","36625","","null","","","null","22","","","","","","","","","","","","","","","NaN",""
"","S1","","html-keyboard-response","159","291418","0.0-1.0-209.0","0","0","36625","","null","","","null","23","","","","","","","","","","","","","","","",""
"","ISI","","html-keyboard-response","160","292421","0.0-1.0-210.0","0","0","36625","","null","","","null","23","NaN","","","","","","","","","","","","","","",""
"","S2","","html-keyboard-response","161","292674","0.0-1.0-211.0","0","0","36625","","null","","","null","23","","NaN","","","","","","","","","","","","","",""
"","response","","html-keyboard-response","162","292681","0.0-1.0-212.0-0.0","0","0","36625","","5","","","68","23","","","1","23","training","adjacent","DE","4","5","N.jpg","O.jpg","0","1","0","",""
"","feedback","","html-keyboard-response","163","293683","0.0-1.0-213.0-0.0","0","0","36625","","null","","","null","23","","","","","","","","","","","","","","","",""
"","time_out","","html-keyboard-response","164","295685","0.0-1.0-215.0-0.0","0","0","36625","","null","","","null","23","","","","","","","","","","","","","","","",""
"","ITI","","html-keyboard-response","165","296687","0.0-1.0-216.0","0","0","36625","","null","","","null","23","","","","","","","","","","","","","","","NaN",""
"","S1","","html-keyboard-response","166","296940","0.0-1.0-218.0","0","0","36625","","null","","","null","24","","","","","","","","","","","","","","","",""
"","ISI","","html-keyboard-response","167","297942","0.0-1.0-219.0","0","0","36625","","null","","","null","24","NaN","","","","","","","","","","","","","","",""
"","S2","","html-keyboard-response","168","298195","0.0-1.0-220.0","0","0","36625","","null","","","null","24","","NaN","","","","","","","","","","","","","",""
"","response","","html-keyboard-response","169","298420","0.0-1.0-221.0-0.0","0","0","36625","","223","","","75","24","","","1","24","training","adjacent","AB","1","2","M.jpg","R.jpg","1","1","1","",""
"","feedback","","html-keyboard-response","170","299423","0.0-1.0-222.0-0.0","0","0","36625","","null","","","null","24","","","","","","","","","","","","","","","",""
"","ITI","","html-keyboard-response","171","300425","0.0-1.0-225.0","0","0","36625","","null","","","null","24","","","","","","","","","","","","","","","NaN",""
"","S1","","html-keyboard-response","172","300677","0.0-1.0-227.0","0","0","36625","","null","","","null","25","","","","","","","","","","","","","","","",""
"","ISI","","html-keyboard-response","173","301680","0.0-1.0-228.0","0","0","36625","","null","","","null","25","NaN","","","","","","","","","","","","","","",""
"","S2","","html-keyboard-response","174","301932","0.0-1.0-229.0","0","0","36625","","null","","","null","25","","NaN","","","","","","","","","","","","","",""
"","response","","html-keyboard-response","175","302671","0.0-1.0-230.0-0.0","0","0","36625","","737","","","75","25","","","1","25","training","adjacent","CB","3","2","L.jpg","R.jpg","1","0","0","",""
"","feedback","","html-keyboard-response","176","303673","0.0-1.0-231.0-0.0","0","0","36625","","null","","","null","25","","","","","","","","","","","","","","","",""
"","time_out","","html-keyboard-response","177","305675","0.0-1.0-233.0-0.0","0","0","36625","","null","","","null","25","","","","","","","","","","","","","","","",""
"","ITI","","html-keyboard-response","178","306678","0.0-1.0-234.0","0","0","36625","","null","","","null","25","","","","","","","","","","","","","","","NaN",""
"","S1","","html-keyboard-response","179","306931","0.0-1.0-236.0","0","0","36625","","null","","","null","26","","","","","","","","","","","","","","","",""
"","ISI","","html-keyboard-response","180","307933","0.0-1.0-237.0","0","0","36625","","null","","","null","26","NaN","","","","","","","","","","","","","","",""
"","S2","","html-keyboard-response","181","308185","0.0-1.0-238.0","0","0","36625","","null","","","null","26","","NaN","","","","","","","","","","","","","",""
"","response","","html-keyboard-response","182","308643","0.0-1.0-239.0-0.0","0","0","36625","","456","","","68","26","","","1","26","training","adjacent","DE","4","5","N.jpg","O.jpg","0","1","0","",""
"","feedback","","html-keyboard-response","183","309646","0.0-1.0-240.0-0.0","0","0","36625","","null","","","null","26","","","","","","","","","","","","","","","",""
"","time_out","","html-keyboard-response","184","311649","0.0-1.0-242.0-0.0","0","0","36625","","null","","","null","26","","","","","","","","","","","","","","","",""
"","ITI","","html-keyboard-response","185","312651","0.0-1.0-243.0","0","0","36625","","null","","","null","26","","","","","","","","","","","","","","","NaN",""
"","S1","","html-keyboard-response","186","312903","0.0-1.0-245.0","0","0","36625","","null","","","null","27","","","","","","","","","","","","","","","",""
"","ISI","","html-keyboard-response","187","313906","0.0-1.0-246.0","0","0","36625","","null","","","null","27","NaN","","","","","","","","","","","","","","",""
"","S2","","html-keyboard-response","188","314158","0.0-1.0-247.0","0","0","36625","","null","","","null","27","","NaN","","","","","","","","","","","","","",""
"","response","","html-keyboard-response","189","314609","0.0-1.0-248.0-0.0","0","0","36625","","449","","","75","27","","","1","27","training","adjacent","ED","5","4","O.jpg","N.jpg","1","0","0","",""
"","feedback","","html-keyboard-response","190","315611","0.0-1.0-249.0-0.0","0","0","36625","","null","","","null","27","","","","","","","","","","","","","","","",""
"","time_out","","html-keyboard-response","191","317613","0.0-1.0-251.0-0.0","0","0","36625","","null","","","null","27","","","","","","","","","","","","","","","",""
"","ITI","","html-keyboard-response","192","318615","0.0-1.0-252.0","0","0","36625","","null","","","null","27","","","","","","","","","","","","","","","NaN",""
"","S1","","html-keyboard-response","193","318867","0.0-1.0-254.0","0","0","36625","","null","","","null","28","","","","","","","","","","","","","","","",""
"","ISI","","html-keyboard-response","194","319871","0.0-1.0-255.0","0","0","36625","","null","","","null","28","NaN","","","","","","","","","","","","","","",""
"","S2","","html-keyboard-response","195","320125","0.0-1.0-256.0","0","0","36625","","null","","","null","28","","NaN","","","","","","","","","","","","","",""
"","response","","html-keyboard-response","196","320223","0.0-1.0-257.0-0.0","0","0","36625","","97","","","68","28","","","1","28","training","adjacent","GF","7","6","Q.jpg","P.jpg","0","0","1","",""
"","feedback","","html-keyboard-response","197","321230","0.0-1.0-258.0-0.0","0","0","36625","","null","","","null","28","","","","","","","","","","","","","","","",""
"","ITI","","html-keyboard-response","198","322232","0.0-1.0-261.0","0","0","36625","","null","","","null","28","","","","","","","","","","","","","","","NaN",""
"","S1","","html-keyboard-response","199","322485","0.0-1.0-263.0","0","0","36625","","null","","","null","29","","","","","","","","","","","","","","","",""
"","ISI","","html-keyboard-response","200","323487","0.0-1.0-264.0","0","0","36625","","null","","","null","29","NaN","","","","","","","","","","","","","","",""
"","S2","","html-keyboard-response","201","323739","0.0-1.0-265.0","0","0","36625","","null","","","null","29","","NaN","","","","","","","","","","","","","",""
"","response","","html-keyboard-response","202","324102","0.0-1.0-266.0-0.0","0","0","36625","","362","","","68","29","","","1","29","training","adjacent","BC","2","3","R.jpg","L.jpg","0","1","0","",""
"","feedback","","html-keyboard-response","203","325104","0.0-1.0-267.0-0.0","0","0","36625","","null","","","null","29","","","","","","","","","","","","","","","",""
"","time_out","","html-keyboard-response","204","327107","0.0-1.0-269.0-0.0","0","0","36625","","null","","","null","29","","","","","","","","","","","","","","","",""
"","ITI","","html-keyboard-response","205","328109","0.0-1.0-270.0","0","0","36625","","null","","","null","29","","","","","","","","","","","","","","","NaN",""
"","S1","","html-keyboard-response","206","328361","0.0-1.0-272.0","0","0","36625","","null","","","null","30","","","","","","","","","","","","","","","",""
"","ISI","","html-keyboard-response","207","329365","0.0-1.0-273.0","0","0","36625","","null","","","null","30","NaN","","","","","","","","","","","","","","",""
"","S2","","html-keyboard-response","208","329617","0.0-1.0-274.0","0","0","36625","","null","","","null","30","","NaN","","","","","","","","","","","","","",""
"","response","","html-keyboard-response","209","330085","0.0-1.0-275.0-0.0","0","0","36625","","466","","","75","30","","","1","30","training","adjacent","BA","2","1","R.jpg","M.jpg","1","0","0","",""
"","feedback","","html-keyboard-response","210","331088","0.0-1.0-276.0-0.0","0","0","36625","","null","","","null","30","","","","","","","","","","","","","","","",""
"","time_out","","html-keyboard-response","211","333090","0.0-1.0-278.0-0.0","0","0","36625","","null","","","null","30","","","","","","","","","","","","","","","",""
"","ITI","","html-keyboard-response","212","334092","0.0-1.0-279.0","0","0","36625","","null","","","null","30","","","","","","","","","","","","","","","NaN",""
"","S1","","html-keyboard-response","213","334345","0.0-1.0-281.0","0","0","36625","","null","","","null","31","","","","","","","","","","","","","","","",""
"","ISI","","html-keyboard-response","214","335348","0.0-1.0-282.0","0","0","36625","","null","","","null","31","NaN","","","","","","","","","","","","","","",""
"","S2","","html-keyboard-response","215","335600","0.0-1.0-283.0","0","0","36625","","null","","","null","31","","NaN","","","","","","","","","","","","","",""
"","response","","html-keyboard-response","216","335997","0.0-1.0-284.0-0.0","0","0","36625","","395","","","68","31","","","1","31","training","adjacent","CB","3","2","L.jpg","R.jpg","0","0","1","",""
"","feedback","","html-keyboard-response","217","337001","0.0-1.0-285.0-0.0","0","0","36625","","null","","","null","31","","","","","","","","","","","","","","","",""
"","ITI","","html-keyboard-response","218","338004","0.0-1.0-288.0","0","0","36625","","null","","","null","31","","","","","","","","","","","","","","","NaN",""
"","S1","","html-keyboard-response","219","338258","0.0-1.0-290.0","0","0","36625","","null","","","null","32","","","","","","","","","","","","","","","",""
"","ISI","","html-keyboard-response","220","339260","0.0-1.0-291.0","0","0","36625","","null","","","null","32","NaN","","","","","","","","","","","","","","",""
"","S2","","html-keyboard-response","221","339513","0.0-1.0-292.0","0","0","36625","","null","","","null","32","","NaN","","","","","","","","","","","","","",""
"","response","","html-keyboard-response","222","340277","0.0-1.0-293.0-0.0","0","0","36625","","762","","","75","32","","","1","32","training","adjacent","CD","3","4","L.jpg","N.jpg","1","1","1","",""
"","feedback","","html-keyboard-response","223","341279","0.0-1.0-294.0-0.0","0","0","36625","","null","","","null","32","","","","","","","","","","","","","","","",""
"","ITI","","html-keyboard-response","224","342282","0.0-1.0-297.0","0","0","36625","","null","","","null","32","","","","","","","","","","","","","","","NaN",""
"","S1","","html-keyboard-response","225","342534","0.0-1.0-299.0","0","0","36625","","null","","","null","33","","","","","","","","","","","","","","","",""
"","ISI","","html-keyboard-response","226","343537","0.0-1.0-300.0","0","0","36625","","null","","","null","33","NaN","","","","","","","","","","","","","","",""
"","S2","","html-keyboard-response","227","343789","0.0-1.0-301.0","0","0","36625","","null","","","null","33","","NaN","","","","","","","","","","","","","",""
"","response","","html-keyboard-response","228","344146","0.0-1.0-302.0-0.0","0","0","36625","","355","","","68","33","","","1","33","training","adjacent","EF","5","6","O.jpg","P.jpg","0","1","0","",""
"","feedback","","html-keyboard-response","229","345149","0.0-1.0-303.0-0.0","0","0","36625","","null","","","null","33","","","","","","","","","","","","","","","",""
"","time_out","","html-keyboard-response","230","347152","0.0-1.0-305.0-0.0","0","0","36625","","null","","","null","33","","","","","","","","","","","","","","","",""
"","ITI","","html-keyboard-response","231","348155","0.0-1.0-306.0","0","0","36625","","null","","","null","33","","","","","","","","","","","","","","","NaN",""
"","S1","","html-keyboard-response","232","348408","0.0-1.0-308.0","0","0","36625","","null","","","null","34","","","","","","","","","","","","","","","",""
"","ISI","","html-keyboard-response","233","349411","0.0-1.0-309.0","0","0","36625","","null","","","null","34","NaN","","","","","","","","","","","","","","",""
"","S2","","html-keyboard-response","234","349663","0.0-1.0-310.0","0","0","36625","","null","","","null","34","","NaN","","","","","","","","","","","","","",""
"","response","","html-keyboard-response","235","350054","0.0-1.0-311.0-0.0","0","0","36625","","389","","","75","34","","","1","34","training","adjacent","BC","2","3","R.jpg","L.jpg","1","1","1","",""
"","feedback","","html-keyboard-response","236","351057","0.0-1.0-312.0-0.0","0","0","36625","","null","","","null","34","","","","","","","","","","","","","","","",""
"","ITI","","html-keyboard-response","237","352060","0.0-1.0-315.0","0","0","36625","","null","","","null","34","","","","","","","","","","","","","","","NaN",""
"","S1","","html-keyboard-response","238","352321","0.0-1.0-317.0","0","0","36625","","null","","","null","35","","","","","","","","","","","","","","","",""
"","ISI","","html-keyboard-response","239","353324","0.0-1.0-318.0","0","0","36625","","null","","","null","35","NaN","","","","","","","","","","","","","","",""
"","S2","","html-keyboard-response","240","353577","0.0-1.0-319.0","0","0","36625","","null","","","null","35","","NaN","","","","","","","","","","","","","",""
"","response","","html-keyboard-response","241","354879","0.0-1.0-320.0-0.0","0","0","36625","","1301","","","68","35","","","1","35","training","adjacent","FG","6","7","P.jpg","Q.jpg","0","1","0","",""
"","feedback","","html-keyboard-response","242","355880","0.0-1.0-321.0-0.0","0","0","36625","","null","","","null","35","","","","","","","","","","","","","","","",""
"","time_out","","html-keyboard-response","243","357882","0.0-1.0-323.0-0.0","0","0","36625","","null","","","null","35","","","","","","","","","","","","","","","",""
"","ITI","","html-keyboard-response","244","358885","0.0-1.0-324.0","0","0","36625","","null","","","null","35","","","","","","","","","","","","","","","NaN",""
"","S1","","html-keyboard-response","245","359138","0.0-1.0-326.0","0","0","36625","","null","","","null","36","","","","","","","","","","","","","","","",""
"","ISI","","html-keyboard-response","246","360141","0.0-1.0-327.0","0","0","36625","","null","","","null","36","NaN","","","","","","","","","","","","","","",""
"","S2","","html-keyboard-response","247","360409","0.0-1.0-328.0","0","0","36625","","null","","","null","36","","NaN","","","","","","","","","","","","","",""
"","response","","html-keyboard-response","248","360808","0.0-1.0-329.0-0.0","0","0","36625","","398","","","75","36","","","1","36","training","adjacent","CD","3","4","L.jpg","N.jpg","1","1","1","",""
"","feedback","","html-keyboard-response","249","361811","0.0-1.0-330.0-0.0","0","0","36625","","null","","","null","36","","","","","","","","","","","","","","","",""
"","ITI","","html-keyboard-response","250","362815","0.0-1.0-333.0","0","0","36625","","null","","","null","36","","","","","","","","","","","","","","","NaN",""
"","S1","","html-keyboard-response","251","363068","0.0-1.0-335.0","0","0","36625","","null","","","null","37","","","","","","","","","","","","","","","",""
"","ISI","","html-keyboard-response","252","364071","0.0-1.0-336.0","0","0","36625","","null","","","null","37","NaN","","","","","","","","","","","","","","",""
"","S2","","html-keyboard-response","253","364324","0.0-1.0-337.0","0","0","36625","","null","","","null","37","","NaN","","","","","","","","","","","","","",""
"","response","","html-keyboard-response","254","365079","0.0-1.0-338.0-0.0","0","0","36625","","753","","","75","37","","","1","37","training","adjacent","GF","7","6","Q.jpg","P.jpg","1","0","0","",""
"","feedback","","html-keyboard-response","255","366083","0.0-1.0-339.0-0.0","0","0","36625","","null","","","null","37","","","","","","","","","","","","","","","",""
"","time_out","","html-keyboard-response","256","368085","0.0-1.0-341.0-0.0","0","0","36625","","null","","","null","37","","","","","","","","","","","","","","","",""
"","ITI","","html-keyboard-response","257","369089","0.0-1.0-342.0","0","0","36625","","null","","","null","37","","","","","","","","","","","","","","","NaN",""
"","S1","","html-keyboard-response","258","369341","0.0-1.0-344.0","0","0","36625","","null","","","null","38","","","","","","","","","","","","","","","",""
"","ISI","","html-keyboard-response","259","370344","0.0-1.0-345.0","0","0","36625","","null","","","null","38","NaN","","","","","","","","","","","","","","",""
"","S2","","html-keyboard-response","260","370597","0.0-1.0-346.0","0","0","36625","","null","","","null","38","","NaN","","","","","","","","","","","","","",""
"","response","","html-keyboard-response","261","371030","0.0-1.0-347.0-0.0","0","0","36625","","431","","","68","38","","","1","38","training","adjacent","FE","6","5","P.jpg","O.jpg","0","0","1","",""
"","feedback","","html-keyboard-response","262","372033","0.0-1.0-348.0-0.0","0","0","36625","","null","","","null","38","","","","","","","","","","","","","","","",""
"","ITI","","html-keyboard-response","263","373035","0.0-1.0-351.0","0","0","36625","","null","","","null","38","","","","","","","","","","","","","","","NaN",""
"","S1","","html-keyboard-response","264","373288","0.0-1.0-353.0","0","0","36625","","null","","","null","39","","","","","","","","","","","","","","","",""
"","ISI","","html-keyboard-response","265","374291","0.0-1.0-354.0","0","0","36625","","null","","","null","39","NaN","","","","","","","","","","","","","","",""
"","S2","","html-keyboard-response","266","374544","0.0-1.0-355.0","0","0","36625","","null","","","null","39","","NaN","","","","","","","","","","","","","",""
"","response","","html-keyboard-response","267","376134","0.0-1.0-356.0-0.0","0","0","36625","","1588","","","75","39","","","1","39","training","adjacent","ED","5","4","O.jpg","N.jpg","1","0","0","",""
"","feedback","","html-keyboard-response","268","377150","0.0-1.0-357.0-0.0","0","0","36625","","null","","","null","39","","","","","","","","","","","","","","","",""
"","time_out","","html-keyboard-response","269","379153","0.0-1.0-359.0-0.0","0","0","36625","","null","","","null","39","","","","","","","","","","","","","","","",""
"","ITI","","html-keyboard-response","270","380156","0.0-1.0-360.0","0","0","36625","","null","","","null","39","","","","","","","","","","","","","","","NaN",""
"","S1","","html-keyboard-response","271","380409","0.0-1.0-362.0","0","0","36625","","null","","","null","40","","","","","","","","","","","","","","","",""
"","ISI","","html-keyboard-response","272","381411","0.0-1.0-363.0","0","0","36625","","null","","","null","40","NaN","","","","","","","","","","","","","","",""
"","S2","","html-keyboard-response","273","381664","0.0-1.0-364.0","0","0","36625","","null","","","null","40","","NaN","","","","","","","","","","","","","",""
"","response","","html-keyboard-response","274","382177","0.0-1.0-365.0-0.0","0","0","36625","","511","","","75","40","","","1","40","training","adjacent","FG","6","7","P.jpg","Q.jpg","1","1","1","",""
"","feedback","","html-keyboard-response","275","383179","0.0-1.0-366.0-0.0","0","0","36625","","null","","","null","40","","","","","","","","","","","","","","","",""
"","ITI","","html-keyboard-response","276","384182","0.0-1.0-369.0","0","0","36625","","null","","","null","40","","","","","","","","","","","","","","","NaN",""
"","S1","","html-keyboard-response","277","384435","0.0-1.0-371.0","0","0","36625","","null","","","null","41","","","","","","","","","","","","","","","",""
"","ISI","","html-keyboard-response","278","385438","0.0-1.0-372.0","0","0","36625","","null","","","null","41","NaN","","","","","","","","","","","","","","",""
"","S2","","html-keyboard-response","279","385691","0.0-1.0-373.0","0","0","36625","","null","","","null","41","","NaN","","","","","","","","","","","","","",""
"","response","","html-keyboard-response","280","386943","0.0-1.0-374.0-0.0","0","0","36625","","1251","","","68","41","","","1","41","training","adjacent","GF","7","6","Q.jpg","P.jpg","0","0","1","",""
"","feedback","","html-keyboard-response","281","387946","0.0-1.0-375.0-0.0","0","0","36625","","null","","","null","41","","","","","","","","","","","","","","","",""
"","ITI","","html-keyboard-response","282","388957","0.0-1.0-378.0","0","0","36625","","null","","","null","41","","","","","","","","","","","","","","","NaN",""
"","S1","","html-keyboard-response","283","389210","0.0-1.0-380.0","0","0","36625","","null","","","null","42","","","","","","","","","","","","","","","",""
"","ISI","","html-keyboard-response","284","390212","0.0-1.0-381.0","0","0","36625","","null","","","null","42","NaN","","","","","","","","","","","","","","",""
"","S2","","html-keyboard-response","285","390466","0.0-1.0-382.0","0","0","36625","","null","","","null","42","","NaN","","","","","","","","","","","","","",""
"","response","","html-keyboard-response","286","390991","0.0-1.0-383.0-0.0","0","0","36625","","523","","","75","42","","","1","42","training","adjacent","CB","3","2","L.jpg","R.jpg","1","0","0","",""
"","feedback","","html-keyboard-response","287","391994","0.0-1.0-384.0-0.0","0","0","36625","","null","","","null","42","","","","","","","","","","","","","","","",""
"","time_out","","html-keyboard-response","288","393996","0.0-1.0-386.0-0.0","0","0","36625","","null","","","null","42","","","","","","","","","","","","","","","",""
"","ITI","","html-keyboard-response","289","394999","0.0-1.0-387.0","0","0","36625","","null","","","null","42","","","","","","","","","","","","","","","NaN",""
"","S1","","html-keyboard-response","290","395252","0.0-1.0-389.0","0","0","36625","","null","","","null","43","","","","","","","","","","","","","","","",""
"","ISI","","html-keyboard-response","291","396255","0.0-1.0-390.0","0","0","36625","","null","","","null","43","NaN","","","","","","","","","","","","","","",""
"","S2","","html-keyboard-response","292","396508","0.0-1.0-391.0","0","0","36625","","null","","","null","43","","NaN","","","","","","","","","","","","","",""
"","response","","html-keyboard-response","293","396786","0.0-1.0-392.0-0.0","0","0","36625","","277","","","68","43","","","1","43","training","adjacent","BA","2","1","R.jpg","M.jpg","0","0","1","",""
"","feedback","","html-keyboard-response","294","397789","0.0-1.0-393.0-0.0","0","0","36625","","null","","","null","43","","","","","","","","","","","","","","","",""
"","ITI","","html-keyboard-response","295","398793","0.0-1.0-396.0","0","0","36625","","null","","","null","43","","","","","","","","","","","","","","","NaN",""
"","S1","","html-keyboard-response","296","399046","0.0-1.0-398.0","0","0","36625","","null","","","null","44","","","","","","","","","","","","","","","",""
"","ISI","","html-keyboard-response","297","400048","0.0-1.0-399.0","0","0","36625","","null","","","null","44","NaN","","","","","","","","","","","","","","",""
"","S2","","html-keyboard-response","298","400301","0.0-1.0-400.0","0","0","36625","","null","","","null","44","","NaN","","","","","","","","","","","","","",""
"","response","","html-keyboard-response","299","401177","0.0-1.0-401.0-0.0","0","0","36625","","874","","","68","44","","","1","44","training","adjacent","BA","2","1","R.jpg","M.jpg","0","0","1","",""
"","feedback","","html-keyboard-response","300","402180","0.0-1.0-402.0-0.0","0","0","36625","","null","","","null","44","","","","","","","","","","","","","","","",""
"","ITI","","html-keyboard-response","301","403192","0.0-1.0-405.0","0","0","36625","","null","","","null","44","","","","","","","","","","","","","","","NaN",""
"","S1","","html-keyboard-response","302","403460","0.0-1.0-407.0","0","0","36625","","null","","","null","45","","","","","","","","","","","","","","","",""
"","ISI","","html-keyboard-response","303","404463","0.0-1.0-408.0","0","0","36625","","490","","","75","45","k","","","","","","","","","","","","","","",""
"","S2","","html-keyboard-response","304","404716","0.0-1.0-409.0","0","0","36625","","null","","","null","45","","NaN","","","","","","","","","","","","","",""
"","response","","html-keyboard-response","305","405163","0.0-1.0-410.0-0.0","0","0","36625","","445","","","68","45","","","1","45","training","adjacent","CD","3","4","L.jpg","N.jpg","0","1","0","",""
"","feedback","","html-keyboard-response","306","406166","0.0-1.0-411.0-0.0","0","0","36625","","null","","","null","45","","","","","","","","","","","","","","","",""
"","time_out","","html-keyboard-response","307","408168","0.0-1.0-413.0-0.0","0","0","36625","","null","","","null","45","","","","","","","","","","","","","","","",""
"","ITI","","html-keyboard-response","308","409171","0.0-1.0-414.0","0","0","36625","","null","","","null","45","","","","","","","","","","","","","","","NaN",""
"","S1","","html-keyboard-response","309","409424","0.0-1.0-416.0","0","0","36625","","null","","","null","46","","","","","","","","","","","","","","","",""
"","ISI","","html-keyboard-response","310","410427","0.0-1.0-417.0","0","0","36625","","null","","","null","46","NaN","","","","","","","","","","","","","","",""
"","S2","","html-keyboard-response","311","410680","0.0-1.0-418.0","0","0","36625","","null","","","null","46","","NaN","","","","","","","","","","","","","",""
"","response","","html-keyboard-response","312","411017","0.0-1.0-419.0-0.0","0","0","36625","","336","","","75","46","","","1","46","training","adjacent","AB","1","2","M.jpg","R.jpg","1","1","1","",""
"","feedback","","html-keyboard-response","313","412021","0.0-1.0-420.0-0.0","0","0","36625","","null","","","null","46","","","","","","","","","","","","","","","",""
"","ITI","","html-keyboard-response","314","413037","0.0-1.0-423.0","0","0","36625","","null","","","null","46","","","","","","","","","","","","","","","NaN",""
"","S1","","html-keyboard-response","315","413289","0.0-1.0-425.0","0","0","36625","","null","","","null","47","","","","","","","","","","","","","","","",""
"","ISI","","html-keyboard-response","316","414291","0.0-1.0-426.0","0","0","36625","","null","","","null","47","NaN","","","","","","","","","","","","","","",""
"","S2","","html-keyboard-response","317","414543","0.0-1.0-427.0","0","0","36625","","null","","","null","47","","NaN","","","","","","","","","","","","","",""
"","response","","html-keyboard-response","318","414989","0.0-1.0-428.0-0.0","0","0","36625","","444","","","75","47","","","1","47","training","adjacent","DC","4","3","N.jpg","L.jpg","1","0","0","",""
"","feedback","","html-keyboard-response","319","415991","0.0-1.0-429.0-0.0","0","0","36625","","null","","","null","47","","","","","","","","","","","","","","","",""
"","time_out","","html-keyboard-response","320","417993","0.0-1.0-431.0-0.0","0","0","36625","","null","","","null","47","","","","","","","","","","","","","","","",""
"","ITI","","html-keyboard-response","321","418996","0.0-1.0-432.0","0","0","36625","","null","","","null","47","","","","","","","","","","","","","","","NaN",""
"","block_over","","html-keyboard-response","322","430371","0.0-1.0-433.0-0.0","0","0","36625","","11373","","","32","47","","","","","","","","","","","","","","","",""
"","S1","","html-keyboard-response","323","430624","0.0-1.0-434.0","0","0","36625","","null","","","null","48","","","","","","","","","","","","","","","",""
"","ISI","","html-keyboard-response","324","431626","0.0-1.0-435.0","0","0","36625","","null","","","null","48","NaN","","","","","","","","","","","","","","",""
"","S2","","html-keyboard-response","325","431879","0.0-1.0-436.0","0","0","36625","","null","","","null","48","","NaN","","","","","","","","","","","","","",""
"","response","","html-keyboard-response","326","432217","0.0-1.0-437.0-0.0","0","0","36625","","336","","","68","48","","","2","48","training","adjacent","DC","4","3","N.jpg","L.jpg","0","0","1","",""
"","feedback","","html-keyboard-response","327","433219","0.0-1.0-438.0-0.0","0","0","36625","","null","","","null","48","","","","","","","","","","","","","","","",""
"","ITI","","html-keyboard-response","328","434221","0.0-1.0-441.0","0","0","36625","","null","","","null","48","","","","","","","","","","","","","","","NaN",""
"","S1","","html-keyboard-response","329","434479","0.0-1.0-443.0","0","0","36625","","null","","","null","49","","","","","","","","","","","","","","","",""
"","ISI","","html-keyboard-response","330","435481","0.0-1.0-444.0","0","0","36625","","null","","","null","49","NaN","","","","","","","","","","","","","","",""
"","S2","","html-keyboard-response","331","435734","0.0-1.0-445.0","0","0","36625","","null","","","null","49","","NaN","","","","","","","","","","","","","",""
"","response","","html-keyboard-response","332","436821","0.0-1.0-446.0-0.0","0","0","36625","","1085","","","68","49","","","2","49","training","adjacent","AB","1","2","M.jpg","R.jpg","0","1","0","",""
"","feedback","","html-keyboard-response","333","437824","0.0-1.0-447.0-0.0","0","0","36625","","null","","","null","49","","","","","","","","","","","","","","","",""
"","time_out","","html-keyboard-response","334","439826","0.0-1.0-449.0-0.0","0","0","36625","","null","","","null","49","","","","","","","","","","","","","","","",""
"","ITI","","html-keyboard-response","335","440829","0.0-1.0-450.0","0","0","36625","","null","","","null","49","","","","","","","","","","","","","","","NaN",""
"","S1","","html-keyboard-response","336","441081","0.0-1.0-452.0","0","0","36625","","null","","","null","50","","","","","","","","","","","","","","","",""
"","ISI","","html-keyboard-response","337","442084","0.0-1.0-453.0","0","0","36625","","null","","","null","50","NaN","","","","","","","","","","","","","","",""
"","S2","","html-keyboard-response","338","442337","0.0-1.0-454.0","0","0","36625","","null","","","null","50","","NaN","","","","","","","","","","","","","",""
"","response","","html-keyboard-response","339","442535","0.0-1.0-455.0-0.0","0","0","36625","","197","","","68","50","","","2","50","training","adjacent","FE","6","5","P.jpg","O.jpg","0","0","1","",""
"","feedback","","html-keyboard-response","340","443537","0.0-1.0-456.0-0.0","0","0","36625","","null","","","null","50","","","","","","","","","","","","","","","",""
"","ITI","","html-keyboard-response","341","444540","0.0-1.0-459.0","0","0","36625","","null","","","null","50","","","","","","","","","","","","","","","NaN",""
"","S1","","html-keyboard-response","342","444792","0.0-1.0-461.0","0","0","36625","","null","","","null","51","","","","","","","","","","","","","","","",""
"","ISI","","html-keyboard-response","343","445794","0.0-1.0-462.0","0","0","36625","","null","","","null","51","NaN","","","","","","","","","","","","","","",""
"","S2","","html-keyboard-response","344","446047","0.0-1.0-463.0","0","0","36625","","null","","","null","51","","NaN","","","","","","","","","","","","","",""
"","response","","html-keyboard-response","345","446592","0.0-1.0-464.0-0.0","0","0","36625","","545","","","75","51","","","2","51","training","adjacent","BC","2","3","R.jpg","L.jpg","1","1","1","",""
"","feedback","","html-keyboard-response","346","447596","0.0-1.0-465.0-0.0","0","0","36625","","null","","","null","51","","","","","","","","","","","","","","","",""
"","ITI","","html-keyboard-response","347","448598","0.0-1.0-468.0","0","0","36625","","null","","","null","51","","","","","","","","","","","","","","","NaN",""
"","S1","","html-keyboard-response","348","448851","0.0-1.0-470.0","0","0","36625","","null","","","null","52","","","","","","","","","","","","","","","",""
"","ISI","","html-keyboard-response","349","449854","0.0-1.0-471.0","0","0","36625","","null","","","null","52","NaN","","","","","","","","","","","","","","",""
"","S2","","html-keyboard-response","350","450106","0.0-1.0-472.0","0","0","36625","","null","","","null","52","","NaN","","","","","","","","","","","","","",""
"","response","","html-keyboard-response","351","450770","0.0-1.0-473.0-0.0","0","0","36625","","662","","","75","52","","","2","52","training","adjacent","BC","2","3","R.jpg","L.jpg","1","1","1","",""
"","feedback","","html-keyboard-response","352","451773","0.0-1.0-474.0-0.0","0","0","36625","","null","","","null","52","","","","","","","","","","","","","","","",""
"","ITI","","html-keyboard-response","353","452776","0.0-1.0-477.0","0","0","36625","","null","","","null","52","","","","","","","","","","","","","","","NaN",""
"","S1","","html-keyboard-response","354","453028","0.0-1.0-479.0","0","0","36625","","null","","","null","53","","","","","","","","","","","","","","","",""
"","ISI","","html-keyboard-response","355","454031","0.0-1.0-480.0","0","0","36625","","null","","","null","53","NaN","","","","","","","","","","","","","","",""
"","S2","","html-keyboard-response","356","454284","0.0-1.0-481.0","0","0","36625","","null","","","null","53","","NaN","","","","","","","","","","","","","",""
"","response","","html-keyboard-response","357","454555","0.0-1.0-482.0-0.0","0","0","36625","","270","","","68","53","","","2","53","training","adjacent","BA","2","1","R.jpg","M.jpg","0","0","1","",""
"","feedback","","html-keyboard-response","358","455558","0.0-1.0-483.0-0.0","0","0","36625","","null","","","null","53","","","","","","","","","","","","","","","",""
"","ITI","","html-keyboard-response","359","456561","0.0-1.0-486.0","0","0","36625","","null","","","null","53","","","","","","","","","","","","","","","NaN",""
"","S1","","html-keyboard-response","360","456813","0.0-1.0-488.0","0","0","36625","","null","","","null","54","","","","","","","","","","","","","","","",""
"","ISI","","html-keyboard-response","361","457816","0.0-1.0-489.0","0","0","36625","","null","","","null","54","NaN","","","","","","","","","","","","","","",""
"","S2","","html-keyboard-response","362","458069","0.0-1.0-490.0","0","0","36625","","null","","","null","54","","NaN","","","","","","","","","","","","","",""
"","response","","html-keyboard-response","363","458369","0.0-1.0-491.0-0.0","0","0","36625","","297","","","68","54","","","2","54","training","adjacent","FE","6","5","P.jpg","O.jpg","0","0","1","",""
"","feedback","","html-keyboard-response","364","459371","0.0-1.0-492.0-0.0","0","0","36625","","null","","","null","54","","","","","","","","","","","","","","","",""
"","ITI","","html-keyboard-response","365","460373","0.0-1.0-495.0","0","0","36625","","null","","","null","54","","","","","","","","","","","","","","","NaN",""
"","S1","","html-keyboard-response","366","460626","0.0-1.0-497.0","0","0","36625","","null","","","null","55","","","","","","","","","","","","","","","",""
"","ISI","","html-keyboard-response","367","461628","0.0-1.0-498.0","0","0","36625","","null","","","null","55","NaN","","","","","","","","","","","","","","",""
"","S2","","html-keyboard-response","368","461880","0.0-1.0-499.0","0","0","36625","","null","","","null","55","","NaN","","","","","","","","","","","","","",""
"","response","","html-keyboard-response","369","463368","0.0-1.0-500.0-0.0","0","0","36625","","1487","","","75","55","","","2","55","training","adjacent","CB","3","2","L.jpg","R.jpg","1","0","0","",""
"","feedback","","html-keyboard-response","370","464370","0.0-1.0-501.0-0.0","0","0","36625","","null","","","null","55","","","","","","","","","","","","","","","",""
"","time_out","","html-keyboard-response","371","466373","0.0-1.0-503.0-0.0","0","0","36625","","null","","","null","55","","","","","","","","","","","","","","","",""
"","ITI","","html-keyboard-response","372","467375","0.0-1.0-504.0","0","0","36625","","null","","","null","55","","","","","","","","","","","","","","","NaN",""
"","S1","","html-keyboard-response","373","467628","0.0-1.0-506.0","0","0","36625","","null","","","null","56","","","","","","","","","","","","","","","",""
"","ISI","","html-keyboard-response","374","468631","0.0-1.0-507.0","0","0","36625","","null","","","null","56","NaN","","","","","","","","","","","","","","",""
"","S2","","html-keyboard-response","375","468896","0.0-1.0-508.0","0","0","36625","","null","","","null","56","","NaN","","","","","","","","","","","","","",""
"","response","","html-keyboard-response","376","470032","0.0-1.0-509.0-0.0","0","0","36625","","1135","","","68","56","","","2","56","training","adjacent","DC","4","3","N.jpg","L.jpg","0","0","1","",""
"","feedback","","html-keyboard-response","377","471036","0.0-1.0-510.0-0.0","0","0","36625","","null","","","null","56","","","","","","","","","","","","","","","",""
"","ITI","","html-keyboard-response","378","472038","0.0-1.0-513.0","0","0","36625","","null","","","null","56","","","","","","","","","","","","","","","NaN",""
"","S1","","html-keyboard-response","379","472290","0.0-1.0-515.0","0","0","36625","","null","","","null","57","","","","","","","","","","","","","","","",""
"","ISI","","html-keyboard-response","380","473293","0.0-1.0-516.0","0","0","36625","","null","","","null","57","NaN","","","","","","","","","","","","","","",""
"","S2","","html-keyboard-response","381","473545","0.0-1.0-517.0","0","0","36625","","null","","","null","57","","NaN","","","","","","","","","","","","","",""
"","response","","html-keyboard-response","382","473902","0.0-1.0-518.0-0.0","0","0","36625","","356","","","68","57","","","2","57","training","adjacent","DC","4","3","N.jpg","L.jpg","0","0","1","",""
"","feedback","","html-keyboard-response","383","474906","0.0-1.0-519.0-0.0","0","0","36625","","null","","","null","57","","","","","","","","","","","","","","","",""
"","ITI","","html-keyboard-response","384","475908","0.0-1.0-522.0","0","0","36625","","null","","","null","57","","","","","","","","","","","","","","","NaN",""
"","S1","","html-keyboard-response","385","476161","0.0-1.0-524.0","0","0","36625","","null","","","null","58","","","","","","","","","","","","","","","",""
"","ISI","","html-keyboard-response","386","477163","0.0-1.0-525.0","0","0","36625","","null","","","null","58","NaN","","","","","","","","","","","","","","",""
"","S2","","html-keyboard-response","387","477416","0.0-1.0-526.0","0","0","36625","","null","","","null","58","","NaN","","","","","","","","","","","","","",""
"","response","","html-keyboard-response","388","478758","0.0-1.0-527.0-0.0","0","0","36625","","1341","","","68","58","","","2","58","training","adjacent","BA","2","1","R.jpg","M.jpg","0","0","1","",""
"","feedback","","html-keyboard-response","389","479762","0.0-1.0-528.0-0.0","0","0","36625","","null","","","null","58","","","","","","","","","","","","","","","",""
"","ITI","","html-keyboard-response","390","480764","0.0-1.0-531.0","0","0","36625","","null","","","null","58","","","","","","","","","","","","","","","NaN",""
"","S1","","html-keyboard-response","391","481017","0.0-1.0-533.0","0","0","36625","","null","","","null","59","","","","","","","","","","","","","","","",""
"","ISI","","html-keyboard-response","392","482020","0.0-1.0-534.0","0","0","36625","","null","","","null","59","NaN","","","","","","","","","","","","","","",""
"","S2","","html-keyboard-response","393","482273","0.0-1.0-535.0","0","0","36625","","null","","","null","59","","NaN","","","","","","","","","","","","","",""
"","response","","html-keyboard-response","394","482993","0.0-1.0-536.0-0.0","0","0","36625","","719","","","68","59","","","2","59","training","adjacent","FG","6","7","P.jpg","Q.jpg","0","1","0","",""
"","feedback","","html-keyboard-response","395","483996","0.0-1.0-537.0-0.0","0","0","36625","","null","","","null","59","","","","","","","","","","","","","","","",""
"","time_out","","html-keyboard-response","396","485999","0.0-1.0-539.0-0.0","0","0","36625","","null","","","null","59","","","","","","","","","","","","","","","",""
"","ITI","","html-keyboard-response","397","487000","0.0-1.0-540.0","0","0","36625","","null","","","null","59","","","","","","","","","","","","","","","NaN",""
"","S1","","html-keyboard-response","398","487253","0.0-1.0-542.0","0","0","36625","","null","","","null","60","","","","","","","","","","","","","","","",""
"","ISI","","html-keyboard-response","399","488256","0.0-1.0-543.0","0","0","36625","","null","","","null","60","NaN","","","","","","","","","","","","","","",""
"","S2","","html-keyboard-response","400","488508","0.0-1.0-544.0","0","0","36625","","null","","","null","60","","NaN","","","","","","","","","","","","","",""
"","response","","html-keyboard-response","401","488516","0.0-1.0-545.0-0.0","0","0","36625","","6","","","75","60","","","2","60","training","adjacent","DE","4","5","N.jpg","O.jpg","1","1","1","",""
"","feedback","","html-keyboard-response","402","489519","0.0-1.0-546.0-0.0","0","0","36625","","null","","","null","60","","","","","","","","","","","","","","","",""
"","ITI","","html-keyboard-response","403","490522","0.0-1.0-549.0","0","0","36625","","null","","","null","60","","","","","","","","","","","","","","","NaN",""
"","S1","","html-keyboard-response","404","490775","0.0-1.0-551.0","0","0","36625","","null","","","null","61","","","","","","","","","","","","","","","",""
"","ISI","","html-keyboard-response","405","491778","0.0-1.0-552.0","0","0","36625","","null","","","null","61","NaN","","","","","","","","","","","","","","",""
"","S2","","html-keyboard-response","406","492030","0.0-1.0-553.0","0","0","36625","","null","","","null","61","","NaN","","","","","","","","","","","","","",""
"","response","","html-keyboard-response","407","492848","0.0-1.0-554.0-0.0","0","0","36625","","816","","","68","61","","","2","61","training","adjacent","BA","2","1","R.jpg","M.jpg","0","0","1","",""
"","feedback","","html-keyboard-response","408","493850","0.0-1.0-555.0-0.0","0","0","36625","","null","","","null","61","","","","","","","","","","","","","","","",""
"","ITI","","html-keyboard-response","409","494853","0.0-1.0-558.0","0","0","36625","","null","","","null","61","","","","","","","","","","","","","","","NaN",""
"","S1","","html-keyboard-response","410","495106","0.0-1.0-560.0","0","0","36625","","null","","","null","62","","","","","","","","","","","","","","","",""
"","ISI","","html-keyboard-response","411","496108","0.0-1.0-561.0","0","0","36625","","null","","","null","62","NaN","","","","","","","","","","","","","","",""
"","S2","","html-keyboard-response","412","496361","0.0-1.0-562.0","0","0","36625","","null","","","null","62","","NaN","","","","","","","","","","","","","",""
"","response","","html-keyboard-response","413","497460","0.0-1.0-563.0-0.0","0","0","36625","","1097","","","68","62","","","2","62","training","adjacent","FG","6","7","P.jpg","Q.jpg","0","1","0","",""
"","feedback","","html-keyboard-response","414","498462","0.0-1.0-564.0-0.0","0","0","36625","","null","","","null","62","","","","","","","","","","","","","","","",""
"","time_out","","html-keyboard-response","415","500465","0.0-1.0-566.0-0.0","0","0","36625","","null","","","null","62","","","","","","","","","","","","","","","",""
"","ITI","","html-keyboard-response","416","501468","0.0-1.0-567.0","0","0","36625","","null","","","null","62","","","","","","","","","","","","","","","NaN",""
"","S1","","html-keyboard-response","417","501721","0.0-1.0-569.0","0","0","36625","","null","","","null","63","","","","","","","","","","","","","","","",""
"","ISI","","html-keyboard-response","418","502723","0.0-1.0-570.0","0","0","36625","","null","","","null","63","NaN","","","","","","","","","","","","","","",""
"","S2","","html-keyboard-response","419","502962","0.0-1.0-571.0","0","0","36625","","237","","","75","63","","k","2","63","training","adjacent","BA","2","1","R.jpg","M.jpg","1","0","0","",""
"","feedback","","html-keyboard-response","420","503965","0.0-1.0-573.0-0.0","0","0","36625","","null","","","null","63","","","","","","","","","","","","","","","",""
"","time_out","","html-keyboard-response","421","505968","0.0-1.0-575.0-0.0","0","0","36625","","null","","","null","63","","","","","","","","","","","","","","","",""
"","ITI","","html-keyboard-response","422","506970","0.0-1.0-576.0","0","0","36625","","null","","","null","63","","","","","","","","","","","","","","","NaN",""
"","S1","","html-keyboard-response","423","507224","0.0-1.0-578.0","0","0","36625","","null","","","null","64","","","","","","","","","","","","","","","",""
"","ISI","","html-keyboard-response","424","508226","0.0-1.0-579.0","0","0","36625","","null","","","null","64","NaN","","","","","","","","","","","","","","",""
"","S2","","html-keyboard-response","425","508428","0.0-1.0-580.0","0","0","36625","","200","","","68","64","","d","2","64","training","adjacent","AB","1","2","M.jpg","R.jpg","0","1","0","",""
"","feedback","","html-keyboard-response","426","509432","0.0-1.0-582.0-0.0","0","0","36625","","null","","","null","64","","","","","","","","","","","","","","","",""
"","time_out","","html-keyboard-response","427","511435","0.0-1.0-584.0-0.0","0","0","36625","","null","","","null","64","","","","","","","","","","","","","","","",""
"","ITI","","html-keyboard-response","428","512437","0.0-1.0-585.0","0","0","36625","","null","","","null","64","","","","","","","","","","","","","","","NaN",""
"","S1","","html-keyboard-response","429","512691","0.0-1.0-587.0","0","0","36625","","null","","","null","65","","","","","","","","","","","","","","","",""
"","ISI","","html-keyboard-response","430","513693","0.0-1.0-588.0","0","0","36625","","null","","","null","65","NaN","","","","","","","","","","","","","","",""
"","S2","","html-keyboard-response","431","513946","0.0-1.0-589.0","0","0","36625","","null","","","null","65","","NaN","","","","","","","","","","","","","",""
"","response","","html-keyboard-response","432","514403","0.0-1.0-590.0-0.0","0","0","36625","","456","","","68","65","","","2","65","training","adjacent","ED","5","4","O.jpg","N.jpg","0","0","1","",""
"","feedback","","html-keyboard-response","433","515406","0.0-1.0-591.0-0.0","0","0","36625","","null","","","null","65","","","","","","","","","","","","","","","",""
"","ITI","","html-keyboard-response","434","516408","0.0-1.0-594.0","0","0","36625","","null","","","null","65","","","","","","","","","","","","","","","NaN",""
"","S1","","html-keyboard-response","435","516661","0.0-1.0-596.0","0","0","36625","","null","","","null","66","","","","","","","","","","","","","","","",""
"","ISI","","html-keyboard-response","436","517663","0.0-1.0-597.0","0","0","36625","","null","","","null","66","NaN","","","","","","","","","","","","","","",""
"","S2","","html-keyboard-response","437","517916","0.0-1.0-598.0","0","0","36625","","null","","","null","66","","NaN","","","","","","","","","","","","","",""
"","response","","html-keyboard-response","438","518835","0.0-1.0-599.0-0.0","0","0","36625","","917","","","75","66","","","2","66","training","adjacent","CD","3","4","L.jpg","N.jpg","1","1","1","",""
"","feedback","","html-keyboard-response","439","519839","0.0-1.0-600.0-0.0","0","0","36625","","null","","","null","66","","","","","","","","","","","","","","","",""
"","ITI","","html-keyboard-response","440","520842","0.0-1.0-603.0","0","0","36625","","null","","","null","66","","","","","","","","","","","","","","","NaN",""
"","S1","","html-keyboard-response","441","521096","0.0-1.0-605.0","0","0","36625","","null","","","null","67","","","","","","","","","","","","","","","",""
"","ISI","","html-keyboard-response","442","522098","0.0-1.0-606.0","0","0","36625","","null","","","null","67","NaN","","","","","","","","","","","","","","",""
"","S2","","html-keyboard-response","443","522351","0.0-1.0-607.0","0","0","36625","","null","","","null","67","","NaN","","","","","","","","","","","","","",""
"","response","","html-keyboard-response","444","522882","0.0-1.0-608.0-0.0","0","0","36625","","529","","","68","67","","","2","67","training","adjacent","ED","5","4","O.jpg","N.jpg","0","0","1","",""
"","feedback","","html-keyboard-response","445","523885","0.0-1.0-609.0-0.0","0","0","36625","","null","","","null","67","","","","","","","","","","","","","","","",""
"","ITI","","html-keyboard-response","446","524888","0.0-1.0-612.0","0","0","36625","","null","","","null","67","","","","","","","","","","","","","","","NaN",""
"","S1","","html-keyboard-response","447","525141","0.0-1.0-614.0","0","0","36625","","null","","","null","68","","","","","","","","","","","","","","","",""
"","ISI","","html-keyboard-response","448","526143","0.0-1.0-615.0","0","0","36625","","null","","","null","68","NaN","","","","","","","","","","","","","","",""
"","S2","","html-keyboard-response","449","526396","0.0-1.0-616.0","0","0","36625","","null","","","null","68","","NaN","","","","","","","","","","","","","",""
"","response","","html-keyboard-response","450","527201","0.0-1.0-617.0-0.0","0","0","36625","","804","","","68","68","","","2","68","training","adjacent","EF","5","6","O.jpg","P.jpg","0","1","0","",""
"","feedback","","html-keyboard-response","451","528205","0.0-1.0-618.0-0.0","0","0","36625","","null","","","null","68","","","","","","","","","","","","","","","",""
"","time_out","","html-keyboard-response","452","530208","0.0-1.0-620.0-0.0","0","0","36625","","null","","","null","68","","","","","","","","","","","","","","","",""
"","ITI","","html-keyboard-response","453","531211","0.0-1.0-621.0","0","0","36625","","null","","","null","68","","","","","","","","","","","","","","","NaN",""
"","S1","","html-keyboard-response","454","531474","0.0-1.0-623.0","0","0","36625","","null","","","null","69","","","","","","","","","","","","","","","",""
"","ISI","","html-keyboard-response","455","532476","0.0-1.0-624.0","0","0","36625","","null","","","null","69","NaN","","","","","","","","","","","","","","",""
"","S2","","html-keyboard-response","456","532729","0.0-1.0-625.0","0","0","36625","","null","","","null","69","","NaN","","","","","","","","","","","","","",""
"","response","","html-keyboard-response","457","533007","0.0-1.0-626.0-0.0","0","0","36625","","275","","","75","69","","","2","69","training","adjacent","EF","5","6","O.jpg","P.jpg","1","1","1","",""
"","feedback","","html-keyboard-response","458","534010","0.0-1.0-627.0-0.0","0","0","36625","","null","","","null","69","","","","","","","","","","","","","","","",""
"","ITI","","html-keyboard-response","459","535013","0.0-1.0-630.0","0","0","36625","","null","","","null","69","","","","","","","","","","","","","","","NaN",""
"","S1","","html-keyboard-response","460","535265","0.0-1.0-632.0","0","0","36625","","null","","","null","70","","","","","","","","","","","","","","","",""
"","ISI","","html-keyboard-response","461","536268","0.0-1.0-633.0","0","0","36625","","null","","","null","70","NaN","","","","","","","","","","","","","","",""
"","S2","","html-keyboard-response","462","536472","0.0-1.0-634.0","0","0","36625","","202","","","75","70","","k","2","70","training","adjacent","CB","3","2","L.jpg","R.jpg","1","0","0","",""
"","feedback","","html-keyboard-response","463","537475","0.0-1.0-636.0-0.0","0","0","36625","","null","","","null","70","","","","","","","","","","","","","","","",""
"","time_out","","html-keyboard-response","464","539477","0.0-1.0-638.0-0.0","0","0","36625","","null","","","null","70","","","","","","","","","","","","","","","",""
"","ITI","","html-keyboard-response","465","540480","0.0-1.0-639.0","0","0","36625","","null","","","null","70","","","","","","","","","","","","","","","NaN",""
"","S1","","html-keyboard-response","466","540733","0.0-1.0-641.0","0","0","36625","","null","","","null","71","","","","","","","","","","","","","","","",""
"","ISI","","html-keyboard-response","467","541744","0.0-1.0-642.0","0","0","36625","","null","","","null","71","NaN","","","","","","","","","","","","","","",""
"","S2","","html-keyboard-response","468","541996","0.0-1.0-643.0","0","0","36625","","null","","","null","71","","NaN","","","","","","","","","","","","","",""
"","response","","html-keyboard-response","469","542311","0.0-1.0-644.0-0.0","0","0","36625","","313","","","68","71","","","2","71","training","adjacent","CD","3","4","L.jpg","N.jpg","0","1","0","",""
"","feedback","","html-keyboard-response","470","543314","0.0-1.0-645.0-0.0","0","0","36625","","null","","","null","71","","","","","","","","","","","","","","","",""
"","time_out","","html-keyboard-response","471","545317","0.0-1.0-647.0-0.0","0","0","36625","","null","","","null","71","","","","","","","","","","","","","","","",""
"","ITI","","html-keyboard-response","472","546320","0.0-1.0-648.0","0","0","36625","","null","","","null","71","","","","","","","","","","","","","","","NaN",""
"","S1","","html-keyboard-response","473","546572","0.0-1.0-650.0","0","0","36625","","null","","","null","72","","","","","","","","","","","","","","","",""
"","ISI","","html-keyboard-response","474","547581","0.0-1.0-651.0","0","0","36625","","null","","","null","72","NaN","","","","","","","","","","","","","","",""
"","S2","","html-keyboard-response","475","547833","0.0-1.0-652.0","0","0","36625","","null","","","null","72","","NaN","","","","","","","","","","","","","",""
"","response","","html-keyboard-response","476","549064","0.0-1.0-653.0-0.0","0","0","36625","","1229","","","75","72","","","2","72","training","adjacent","BC","2","3","R.jpg","L.jpg","1","1","1","",""
"","feedback","","html-keyboard-response","477","550066","0.0-1.0-654.0-0.0","0","0","36625","","null","","","null","72","","","","","","","","","","","","","","","",""
"","ITI","","html-keyboard-response","478","551069","0.0-1.0-657.0","0","0","36625","","null","","","null","72","","","","","","","","","","","","","","","NaN",""
"","S1","","html-keyboard-response","479","551334","0.0-1.0-659.0","0","0","36625","","null","","","null","73","","","","","","","","","","","","","","","",""
"","ISI","","html-keyboard-response","480","552336","0.0-1.0-660.0","0","0","36625","","null","","","null","73","NaN","","","","","","","","","","","","","","",""
"","S2","","html-keyboard-response","481","552589","0.0-1.0-661.0","0","0","36625","","null","","","null","73","","NaN","","","","","","","","","","","","","",""
"","response","","html-keyboard-response","482","553851","0.0-1.0-662.0-0.0","0","0","36625","","1260","","","75","73","","","2","73","training","adjacent","FG","6","7","P.jpg","Q.jpg","1","1","1","",""
"","feedback","","html-keyboard-response","483","554856","0.0-1.0-663.0-0.0","0","0","36625","","null","","","null","73","","","","","","","","","","","","","","","",""
"","ITI","","html-keyboard-response","484","555858","0.0-1.0-666.0","0","0","36625","","null","","","null","73","","","","","","","","","","","","","","","NaN",""
"","S1","","html-keyboard-response","485","556111","0.0-1.0-668.0","0","0","36625","","null","","","null","74","","","","","","","","","","","","","","","",""
"","ISI","","html-keyboard-response","486","557115","0.0-1.0-669.0","0","0","36625","","null","","","null","74","NaN","","","","","","","","","","","","","","",""
"","S2","","html-keyboard-response","487","557368","0.0-1.0-670.0","0","0","36625","","null","","","null","74","","NaN","","","","","","","","","","","","","",""
"","response","","html-keyboard-response","488","557721","0.0-1.0-671.0-0.0","0","0","36625","","352","","","75","74","","","2","74","training","adjacent","FE","6","5","P.jpg","O.jpg","1","0","0","",""
"","feedback","","html-keyboard-response","489","558725","0.0-1.0-672.0-0.0","0","0","36625","","null","","","null","74","","","","","","","","","","","","","","","",""
"","time_out","","html-keyboard-response","490","560729","0.0-1.0-674.0-0.0","0","0","36625","","null","","","null","74","","","","","","","","","","","","","","","",""
"","ITI","","html-keyboard-response","491","561731","0.0-1.0-675.0","0","0","36625","","null","","","null","74","","","","","","","","","","","","","","","NaN",""
"","S1","","html-keyboard-response","492","561984","0.0-1.0-677.0","0","0","36625","","null","","","null","75","","","","","","","","","","","","","","","",""
"","ISI","","html-keyboard-response","493","562986","0.0-1.0-678.0","0","0","36625","","null","","","null","75","NaN","","","","","","","","","","","","","","",""
"","S2","","html-keyboard-response","494","563239","0.0-1.0-679.0","0","0","36625","","null","","","null","75","","NaN","","","","","","","","","","","","","",""
"","response","","html-keyboard-response","495","563241","0.0-1.0-680.0-0.0","0","0","36625","","0","","","68","75","","","2","75","training","adjacent","AB","1","2","M.jpg","R.jpg","0","1","0","",""
"","feedback","","html-keyboard-response","496","564243","0.0-1.0-681.0-0.0","0","0","36625","","null","","","null","75","","","","","","","","","","","","","","","",""
"","time_out","","html-keyboard-response","497","566246","0.0-1.0-683.0-0.0","0","0","36625","","null","","","null","75","","","","","","","","","","","","","","","",""
"","ITI","","html-keyboard-response","498","567261","0.0-1.0-684.0","0","0","36625","","null","","","null","75","","","","","","","","","","","","","","","NaN",""
"","S1","","html-keyboard-response","499","567527","0.0-1.0-686.0","0","0","36625","","null","","","null","76","","","","","","","","","","","","","","","",""
"","ISI","","html-keyboard-response","500","568530","0.0-1.0-687.0","0","0","36625","","null","","","null","76","NaN","","","","","","","","","","","","","","",""
"","S2","","html-keyboard-response","501","568733","0.0-1.0-688.0","0","0","36625","","201","","","75","76","","k","2","76","training","adjacent","GF","7","6","Q.jpg","P.jpg","1","0","0","",""
"","feedback","","html-keyboard-response","502","569736","0.0-1.0-690.0-0.0","0","0","36625","","null","","","null","76","","","","","","","","","","","","","","","",""
"","time_out","","html-keyboard-response","503","571740","0.0-1.0-692.0-0.0","0","0","36625","","null","","","null","76","","","","","","","","","","","","","","","",""
"","ITI","","html-keyboard-response","504","572742","0.0-1.0-693.0","0","0","36625","","null","","","null","76","","","","","","","","","","","","","","","NaN",""
"","S1","","html-keyboard-response","505","572995","0.0-1.0-695.0","0","0","36625","","null","","","null","77","","","","","","","","","","","","","","","",""
"","ISI","","html-keyboard-response","506","573997","0.0-1.0-696.0","0","0","36625","","null","","","null","77","NaN","","","","","","","","","","","","","","",""
"","S2","","html-keyboard-response","507","574250","0.0-1.0-697.0","0","0","36625","","null","","","null","77","","NaN","","","","","","","","","","","","","",""
"","response","","html-keyboard-response","508","574591","0.0-1.0-698.0-0.0","0","0","36625","","338","","","68","77","","","2","77","training","adjacent","ED","5","4","O.jpg","N.jpg","0","0","1","",""
"","feedback","","html-keyboard-response","509","575593","0.0-1.0-699.0-0.0","0","0","36625","","null","","","null","77","","","","","","","","","","","","","","","",""
"","ITI","","html-keyboard-response","510","576595","0.0-1.0-702.0","0","0","36625","","null","","","null","77","","","","","","","","","","","","","","","NaN",""
"","S1","","html-keyboard-response","511","576848","0.0-1.0-704.0","0","0","36625","","null","","","null","78","","","","","","","","","","","","","","","",""
"","ISI","","html-keyboard-response","512","577851","0.0-1.0-705.0","0","0","36625","","null","","","null","78","NaN","","","","","","","","","","","","","","",""
"","S2","","html-keyboard-response","513","578105","0.0-1.0-706.0","0","0","36625","","null","","","null","78","","NaN","","","","","","","","","","","","","",""
"","response","","html-keyboard-response","514","578870","0.0-1.0-707.0-0.0","0","0","36625","","764","","","75","78","","","2","78","training","adjacent","GF","7","6","Q.jpg","P.jpg","1","0","0","",""
"","feedback","","html-keyboard-response","515","579873","0.0-1.0-708.0-0.0","0","0","36625","","null","","","null","78","","","","","","","","","","","","","","","",""
"","time_out","","html-keyboard-response","516","581875","0.0-1.0-710.0-0.0","0","0","36625","","null","","","null","78","","","","","","","","","","","","","","","",""
"","ITI","","html-keyboard-response","517","582877","0.0-1.0-711.0","0","0","36625","","null","","","null","78","","","","","","","","","","","","","","","NaN",""
"","S1","","html-keyboard-response","518","583130","0.0-1.0-713.0","0","0","36625","","null","","","null","79","","","","","","","","","","","","","","","",""
"","ISI","","html-keyboard-response","519","584132","0.0-1.0-714.0","0","0","36625","","null","","","null","79","NaN","","","","","","","","","","","","","","",""
"","S2","","html-keyboard-response","520","584386","0.0-1.0-715.0","0","0","36625","","null","","","null","79","","NaN","","","","","","","","","","","","","",""
"","response","","html-keyboard-response","521","584414","0.0-1.0-716.0-0.0","0","0","36625","","27","","","68","79","","","2","79","training","adjacent","DC","4","3","N.jpg","L.jpg","0","0","1","",""
"","feedback","","html-keyboard-response","522","585417","0.0-1.0-717.0-0.0","0","0","36625","","null","","","null","79","","","","","","","","","","","","","","","",""
"","ITI","","html-keyboard-response","523","586420","0.0-1.0-720.0","0","0","36625","","null","","","null","79","","","","","","","","","","","","","","","NaN",""
"","S1","","html-keyboard-response","524","586673","0.0-1.0-722.0","0","0","36625","","null","","","null","80","","","","","","","","","","","","","","","",""
"","ISI","","html-keyboard-response","525","587675","0.0-1.0-723.0","0","0","36625","","null","","","null","80","NaN","","","","","","","","","","","","","","",""
"","S2","","html-keyboard-response","526","587929","0.0-1.0-724.0","0","0","36625","","null","","","null","80","","NaN","","","","","","","","","","","","","",""
"","response","","html-keyboard-response","527","588325","0.0-1.0-725.0-0.0","0","0","36625","","395","","","75","80","","","2","80","training","adjacent","CD","3","4","L.jpg","N.jpg","1","1","1","",""
"","feedback","","html-keyboard-response","528","589327","0.0-1.0-726.0-0.0","0","0","36625","","null","","","null","80","","","","","","","","","","","","","","","",""
"","ITI","","html-keyboard-response","529","590330","0.0-1.0-729.0","0","0","36625","","null","","","null","80","","","","","","","","","","","","","","","NaN",""
"","S1","","html-keyboard-response","530","590582","0.0-1.0-731.0","0","0","36625","","null","","","null","81","","","","","","","","","","","","","","","",""
"","ISI","","html-keyboard-response","531","591585","0.0-1.0-732.0","0","0","36625","","null","","","null","81","NaN","","","","","","","","","","","","","","",""
"","S2","","html-keyboard-response","532","591838","0.0-1.0-733.0","0","0","36625","","null","","","null","81","","NaN","","","","","","","","","","","","","",""
"","response","","html-keyboard-response","533","592065","0.0-1.0-734.0-0.0","0","0","36625","","226","","","68","81","","","2","81","training","adjacent","ED","5","4","O.jpg","N.jpg","0","0","1","",""
"","feedback","","html-keyboard-response","534","593067","0.0-1.0-735.0-0.0","0","0","36625","","null","","","null","81","","","","","","","","","","","","","","","",""
"","ITI","","html-keyboard-response","535","594069","0.0-1.0-738.0","0","0","36625","","null","","","null","81","","","","","","","","","","","","","","","NaN",""
"","S1","","html-keyboard-response","536","594321","0.0-1.0-740.0","0","0","36625","","null","","","null","82","","","","","","","","","","","","","","","",""
"","ISI","","html-keyboard-response","537","595324","0.0-1.0-741.0","0","0","36625","","null","","","null","82","NaN","","","","","","","","","","","","","","",""
"","S2","","html-keyboard-response","538","595576","0.0-1.0-742.0","0","0","36625","","null","","","null","82","","NaN","","","","","","","","","","","","","",""
"","response","","html-keyboard-response","539","596476","0.0-1.0-743.0-0.0","0","0","36625","","899","","","68","82","","","2","82","training","adjacent","DE","4","5","N.jpg","O.jpg","0","1","0","",""
"","feedback","","html-keyboard-response","540","597478","0.0-1.0-744.0-0.0","0","0","36625","","null","","","null","82","","","","","","","","","","","","","","","",""
"","time_out","","html-keyboard-response","541","599481","0.0-1.0-746.0-0.0","0","0","36625","","null","","","null","82","","","","","","","","","","","","","","","",""
"","ITI","","html-keyboard-response","542","600484","0.0-1.0-747.0","0","0","36625","","null","","","null","82","","","","","","","","","","","","","","","NaN",""
"","S1","","html-keyboard-response","543","600736","0.0-1.0-749.0","0","0","36625","","null","","","null","83","","","","","","","","","","","","","","","",""
"","ISI","","html-keyboard-response","544","601738","0.0-1.0-750.0","0","0","36625","","null","","","null","83","NaN","","","","","","","","","","","","","","",""
"","S2","","html-keyboard-response","545","601991","0.0-1.0-751.0","0","0","36625","","null","","","null","83","","NaN","","","","","","","","","","","","","",""
"","response","","html-keyboard-response","546","602770","0.0-1.0-752.0-0.0","0","0","36625","","778","","","75","83","","","2","83","training","adjacent","AB","1","2","M.jpg","R.jpg","1","1","1","",""
"","feedback","","html-keyboard-response","547","603773","0.0-1.0-753.0-0.0","0","0","36625","","null","","","null","83","","","","","","","","","","","","","","","",""
"","ITI","","html-keyboard-response","548","604775","0.0-1.0-756.0","0","0","36625","","null","","","null","83","","","","","","","","","","","","","","","NaN",""
"","S1","","html-keyboard-response","549","605028","0.0-1.0-758.0","0","0","36625","","null","","","null","84","","","","","","","","","","","","","","","",""
"","ISI","","html-keyboard-response","550","606030","0.0-1.0-759.0","0","0","36625","","null","","","null","84","NaN","","","","","","","","","","","","","","",""
"","S2","","html-keyboard-response","551","606283","0.0-1.0-760.0","0","0","36625","","null","","","null","84","","NaN","","","","","","","","","","","","","",""
"","response","","html-keyboard-response","552","606519","0.0-1.0-761.0-0.0","0","0","36625","","233","","","68","84","","","2","84","training","adjacent","GF","7","6","Q.jpg","P.jpg","0","0","1","",""
"","feedback","","html-keyboard-response","553","607522","0.0-1.0-762.0-0.0","0","0","36625","","null","","","null","84","","","","","","","","","","","","","","","",""
"","ITI","","html-keyboard-response","554","608525","0.0-1.0-765.0","0","0","36625","","null","","","null","84","","","","","","","","","","","","","","","NaN",""
"","S1","","html-keyboard-response","555","608777","0.0-1.0-767.0","0","0","36625","","null","","","null","85","","","","","","","","","","","","","","","",""
"","ISI","","html-keyboard-response","556","609779","0.0-1.0-768.0","0","0","36625","","null","","","null","85","NaN","","","","","","","","","","","","","","",""
"","S2","","html-keyboard-response","557","610032","0.0-1.0-769.0","0","0","36625","","null","","","null","85","","NaN","","","","","","","","","","","","","",""
"","response","","html-keyboard-response","558","611476","0.0-1.0-770.0-0.0","0","0","36625","","1442","","","68","85","","","2","85","training","adjacent","EF","5","6","O.jpg","P.jpg","0","1","0","",""
"","feedback","","html-keyboard-response","559","612479","0.0-1.0-771.0-0.0","0","0","36625","","null","","","null","85","","","","","","","","","","","","","","","",""
"","time_out","","html-keyboard-response","560","614481","0.0-1.0-773.0-0.0","0","0","36625","","null","","","null","85","","","","","","","","","","","","","","","",""
"","ITI","","html-keyboard-response","561","615483","0.0-1.0-774.0","0","0","36625","","null","","","null","85","","","","","","","","","","","","","","","NaN",""
"","S1","","html-keyboard-response","562","615736","0.0-1.0-776.0","0","0","36625","","null","","","null","86","","","","","","","","","","","","","","","",""
"","ISI","","html-keyboard-response","563","616738","0.0-1.0-777.0","0","0","36625","","null","","","null","86","NaN","","","","","","","","","","","","","","",""
"","S2","","html-keyboard-response","564","616992","0.0-1.0-778.0","0","0","36625","","null","","","null","86","","NaN","","","","","","","","","","","","","",""
"","response","","html-keyboard-response","565","617340","0.0-1.0-779.0-0.0","0","0","36625","","347","","","75","86","","","2","86","training","adjacent","BC","2","3","R.jpg","L.jpg","1","1","1","",""
"","feedback","","html-keyboard-response","566","618342","0.0-1.0-780.0-0.0","0","0","36625","","null","","","null","86","","","","","","","","","","","","","","","",""
"","ITI","","html-keyboard-response","567","619344","0.0-1.0-783.0","0","0","36625","","null","","","null","86","","","","","","","","","","","","","","","NaN",""
"","S1","","html-keyboard-response","568","619597","0.0-1.0-785.0","0","0","36625","","null","","","null","87","","","","","","","","","","","","","","","",""
"","ISI","","html-keyboard-response","569","620600","0.0-1.0-786.0","0","0","36625","","null","","","null","87","NaN","","","","","","","","","","","","","","",""
"","S2","","html-keyboard-response","570","620853","0.0-1.0-787.0","0","0","36625","","null","","","null","87","","NaN","","","","","","","","","","","","","",""
"","response","","html-keyboard-response","571","621477","0.0-1.0-788.0-0.0","0","0","36625","","623","","","68","87","","","2","87","training","adjacent","FG","6","7","P.jpg","Q.jpg","0","1","0","",""
"","feedback","","html-keyboard-response","572","622481","0.0-1.0-789.0-0.0","0","0","36625","","null","","","null","87","","","","","","","","","","","","","","","",""
"","time_out","","html-keyboard-response","573","624485","0.0-1.0-791.0-0.0","0","0","36625","","null","","","null","87","","","","","","","","","","","","","","","",""
"","ITI","","html-keyboard-response","574","625487","0.0-1.0-792.0","0","0","36625","","null","","","null","87","","","","","","","","","","","","","","","NaN",""
"","S1","","html-keyboard-response","575","625740","0.0-1.0-794.0","0","0","36625","","null","","","null","88","","","","","","","","","","","","","","","",""
"","ISI","","html-keyboard-response","576","626743","0.0-1.0-795.0","0","0","36625","","null","","","null","88","NaN","","","","","","","","","","","","","","",""
"","S2","","html-keyboard-response","577","626995","0.0-1.0-796.0","0","0","36625","","null","","","null","88","","NaN","","","","","","","","","","","","","",""
"","response","","html-keyboard-response","578","627075","0.0-1.0-797.0-0.0","0","0","36625","","78","","","75","88","","","2","88","training","adjacent","GF","7","6","Q.jpg","P.jpg","1","0","0","",""
"","feedback","","html-keyboard-response","579","628078","0.0-1.0-798.0-0.0","0","0","36625","","null","","","null","88","","","","","","","","","","","","","","","",""
"","time_out","","html-keyboard-response","580","630081","0.0-1.0-800.0-0.0","0","0","36625","","null","","","null","88","","","","","","","","","","","","","","","",""
