"success","ttype","start_time","trial_type","trial_index","time_elapsed","internal_node_id","warning","missed_checkup","PID","view_history","rt","responses","repeat_instructions","key_press","index","keypress_isi","keypress_S2","block","trial_num","phase","group_type","pair_type","S1_stim","S2_stim","S1_img","S2_img","S1_chosen","S1_higher","accuracy","keypress_iti","total_bonus_tally"
"true","full_screen","d04132023hr1350","fullscreen","0","26345","0.0-0.0","0","0","71008","","","","","","","","","","","","","","","","","","","","","",""
"","instructions","","instructions","1","64447","0.0-1.0-0.0-0.0","0","0","71008","[{""page_index"":0,""viewing_time"":3782},{""page_index"":1,""viewing_time"":18137},{""page_index"":2,""viewing_time"":14180},{""page_index"":3,""viewing_time"":1980}]","38085","","","","","","","","","","","","","","","","","","","",""
"","comprehension_check","","survey-multi-choice","2","86639","0.0-1.0-0.0-1.0","0","0","71008","","22155","{""Q0"":""True"",""Q1"":""D"",""Q2"":""Once the second image appears and while the screen 'MAKE A CHOICE' is shown"",""Q3"":""Green mark"",""Q4"":""either D or K""}","0","","","","","","","","","","","","","","","","","",""
"","start_exp","","html-keyboard-response","3","89055","0.0-1.0-1.0","0","0","71008","","2403","","","32","","","","","","","","","","","","","","","","",""
"","S1","","html-keyboard-response","4","89322","0.0-1.0-2.0","0","0","71008","","null","","","null","0","","","","","","","","","","","","","","","",""
"","ISI","","html-keyboard-response","5","90329","0.0-1.0-3.0","0","0","71008","","null","","","null","0","NaN","","","","","","","","","","","","","","",""
"","S2","","html-keyboard-response","6","90631","0.0-1.0-4.0","0","0","71008","","null","","","null","0","","NaN","","","","","","","","","","","","","",""
"","response","","html-keyboard-response","7","91769","0.0-1.0-5.0-0.0","0","0","71008","","1131","","","75","0","","","1","0","training","adjacent","GF","7","6","R.jpg","Q.jpg","0","0","1","",""
"","feedback","","html-keyboard-response","8","92785","0.0-1.0-6.0-0.0","0","0","71008","","null","","","null","0","","","","","","","","","","","","","","","",""
"","ITI","","html-keyboard-response","9","93798","0.0-1.0-9.0","0","0","71008","","null","","","null","0","","","","","","","","","","","","","","","NaN",""
"","S1","","html-keyboard-response","10","94062","0.0-1.0-11.0","0","0","71008","","null","","","null","1","","","","","","","","","","","","","","","",""
"","ISI","","html-keyboard-response","11","95088","0.0-1.0-12.0","0","0","71008","","null","","","null","1","NaN","","","","","","","","","","","","","","",""
"","S2","","html-keyboard-response","12","95378","0.0-1.0-13.0","0","0","71008","","null","","","null","1","","NaN","","","","","","","","","","","","","",""
"","response","","html-keyboard-response","13","96522","0.0-1.0-14.0-0.0","0","0","71008","","1134","","","68","1","","","1","1","training","adjacent","EF","5","6","O.jpg","Q.jpg","1","1","1","",""
"","feedback","","html-keyboard-response","14","97541","0.0-1.0-15.0-0.0","0","0","71008","","null","","","null","1","","","","","","","","","","","","","","","",""
"","ITI","","html-keyboard-response","15","98554","0.0-1.0-18.0","0","0","71008","","null","","","null","1","","","","","","","","","","","","","","","NaN",""
"","S1","","html-keyboard-response","16","98814","0.0-1.0-20.0","0","0","71008","","null","","","null","2","","","","","","","","","","","","","","","",""
"","ISI","","html-keyboard-response","17","99824","0.0-1.0-21.0","0","0","71008","","null","","","null","2","NaN","","","","","","","","","","","","","","",""
"","S2","","html-keyboard-response","18","100087","0.0-1.0-22.0","0","0","71008","","null","","","null","2","","NaN","","","","","","","","","","","","","",""
"","response","","html-keyboard-response","19","100763","0.0-1.0-23.0-0.0","0","0","71008","","671","","","68","2","","","1","2","training","adjacent","DE","4","5","P.jpg","O.jpg","1","1","1","",""
"","feedback","","html-keyboard-response","20","101796","0.0-1.0-24.0-0.0","0","0","71008","","null","","","null","2","","","","","","","","","","","","","","","",""
"","ITI","","html-keyboard-response","21","102822","0.0-1.0-27.0","0","0","71008","","null","","","null","2","","","","","","","","","","","","","","","NaN",""
"","S1","","html-keyboard-response","22","103081","0.0-1.0-29.0","0","0","71008","","null","","","null","3","","","","","","","","","","","","","","","",""
"","ISI","","html-keyboard-response","23","104091","0.0-1.0-30.0","0","0","71008","","null","","","null","3","NaN","","","","","","","","","","","","","","",""
"","S2","","html-keyboard-response","24","104354","0.0-1.0-31.0","0","0","71008","","null","","","null","3","","NaN","","","","","","","","","","","","","",""
"","response","","html-keyboard-response","25","105024","0.0-1.0-32.0-0.0","0","0","71008","","662","","","75","3","","","1","3","training","adjacent","DC","4","3","P.jpg","L.jpg","0","0","1","",""
"","feedback","","html-keyboard-response","26","106038","0.0-1.0-33.0-0.0","0","0","71008","","null","","","null","3","","","","","","","","","","","","","","","",""
"","ITI","","html-keyboard-response","27","107057","0.0-1.0-36.0","0","0","71008","","null","","","null","3","","","","","","","","","","","","","","","NaN",""
"","S1","","html-keyboard-response","28","107319","0.0-1.0-38.0","0","0","71008","","null","","","null","4","","","","","","","","","","","","","","","",""
"","ISI","","html-keyboard-response","29","108330","0.0-1.0-39.0","0","0","71008","","null","","","null","4","NaN","","","","","","","","","","","","","","",""
"","S2","","html-keyboard-response","30","108599","0.0-1.0-40.0","0","0","71008","","null","","","null","4","","NaN","","","","","","","","","","","","","",""
"","response","","html-keyboard-response","31","109435","0.0-1.0-41.0-0.0","0","0","71008","","831","","","68","4","","","1","4","training","adjacent","AB","1","2","M.jpg","N.jpg","1","1","1","",""
"","feedback","","html-keyboard-response","32","110450","0.0-1.0-42.0-0.0","0","0","71008","","null","","","null","4","","","","","","","","","","","","","","","",""
"","ITI","","html-keyboard-response","33","111473","0.0-1.0-45.0","0","0","71008","","null","","","null","4","","","","","","","","","","","","","","","NaN",""
"","S1","","html-keyboard-response","34","111858","0.0-1.0-47.0","0","0","71008","","null","","","null","5","","","","","","","","","","","","","","","",""
"","ISI","","html-keyboard-response","35","112865","0.0-1.0-48.0","0","0","71008","","null","","","null","5","NaN","","","","","","","","","","","","","","",""
"","S2","","html-keyboard-response","36","113127","0.0-1.0-49.0","0","0","71008","","null","","","null","5","","NaN","","","","","","","","","","","","","",""
"","response","","html-keyboard-response","37","113504","0.0-1.0-50.0-0.0","0","0","71008","","374","","","68","5","","","1","5","training","adjacent","EF","5","6","O.jpg","Q.jpg","1","1","1","",""
"","feedback","","html-keyboard-response","38","114517","0.0-1.0-51.0-0.0","0","0","71008","","null","","","null","5","","","","","","","","","","","","","","","",""
"","ITI","","html-keyboard-response","39","115530","0.0-1.0-54.0","0","0","71008","","null","","","null","5","","","","","","","","","","","","","","","NaN",""
"","S1","","html-keyboard-response","40","115791","0.0-1.0-56.0","0","0","71008","","null","","","null","6","","","","","","","","","","","","","","","",""
"","ISI","","html-keyboard-response","41","116814","0.0-1.0-57.0","0","0","71008","","null","","","null","6","NaN","","","","","","","","","","","","","","",""
"","S2","","html-keyboard-response","42","117071","0.0-1.0-58.0","0","0","71008","","null","","","null","6","","NaN","","","","","","","","","","","","","",""
"","response","","html-keyboard-response","43","117660","0.0-1.0-59.0-0.0","0","0","71008","","580","","","68","6","","","1","6","training","adjacent","CD","3","4","L.jpg","P.jpg","1","1","1","",""
"","feedback","","html-keyboard-response","44","118677","0.0-1.0-60.0-0.0","0","0","71008","","null","","","null","6","","","","","","","","","","","","","","","",""
"","ITI","","html-keyboard-response","45","119689","0.0-1.0-63.0","0","0","71008","","null","","","null","6","","","","","","","","","","","","","","","NaN",""
"","S1","","html-keyboard-response","46","119948","0.0-1.0-65.0","0","0","71008","","null","","","null","7","","","","","","","","","","","","","","","",""
"","ISI","","html-keyboard-response","47","120962","0.0-1.0-66.0","0","0","71008","","null","","","null","7","NaN","","","","","","","","","","","","","","",""
"","S2","","html-keyboard-response","48","121220","0.0-1.0-67.0","0","0","71008","","null","","","null","7","","NaN","","","","","","","","","","","","","",""
"","response","","html-keyboard-response","49","121899","0.0-1.0-68.0-0.0","0","0","71008","","669","","","68","7","","","1","7","training","adjacent","CB","3","2","L.jpg","N.jpg","1","0","0","",""
"","feedback","","html-keyboard-response","50","122912","0.0-1.0-69.0-0.0","0","0","71008","","null","","","null","7","","","","","","","","","","","","","","","",""
"","time_out","","html-keyboard-response","51","124919","0.0-1.0-71.0-0.0","0","0","71008","","null","","","null","7","","","","","","","","","","","","","","","",""
"","ITI","","html-keyboard-response","52","125928","0.0-1.0-72.0","0","0","71008","","null","","","null","7","","","","","","","","","","","","","","","NaN",""
"","S1","","html-keyboard-response","53","126191","0.0-1.0-74.0","0","0","71008","","null","","","null","8","","","","","","","","","","","","","","","",""
"","ISI","","html-keyboard-response","54","127202","0.0-1.0-75.0","0","0","71008","","null","","","null","8","NaN","","","","","","","","","","","","","","",""
"","S2","","html-keyboard-response","55","127471","0.0-1.0-76.0","0","0","71008","","null","","","null","8","","NaN","","","","","","","","","","","","","",""
"","response","","html-keyboard-response","56","127894","0.0-1.0-77.0-0.0","0","0","71008","","410","","","75","8","","","1","8","training","adjacent","BC","2","3","N.jpg","L.jpg","0","1","0","",""
"","feedback","","html-keyboard-response","57","128909","0.0-1.0-78.0-0.0","0","0","71008","","null","","","null","8","","","","","","","","","","","","","","","",""
"","time_out","","html-keyboard-response","58","130924","0.0-1.0-80.0-0.0","0","0","71008","","null","","","null","8","","","","","","","","","","","","","","","",""
"","ITI","","html-keyboard-response","59","131937","0.0-1.0-81.0","0","0","71008","","null","","","null","8","","","","","","","","","","","","","","","NaN",""
"","S1","","html-keyboard-response","60","132202","0.0-1.0-83.0","0","0","71008","","null","","","null","9","","","","","","","","","","","","","","","",""
"","ISI","","html-keyboard-response","61","133228","0.0-1.0-84.0","0","0","71008","","792","","","75","9","k","","","","","","","","","","","","","","",""
"","S2","","html-keyboard-response","62","133494","0.0-1.0-85.0","0","0","71008","","null","","","null","9","","NaN","","","","","","","","","","","","","",""
"","response","","html-keyboard-response","63","133823","0.0-1.0-86.0-0.0","0","0","71008","","323","","","75","9","","","1","9","training","adjacent","FG","6","7","Q.jpg","R.jpg","0","1","0","",""
"","feedback","","html-keyboard-response","64","134835","0.0-1.0-87.0-0.0","0","0","71008","","null","","","null","9","","","","","","","","","","","","","","","",""
"","time_out","","html-keyboard-response","65","136865","0.0-1.0-89.0-0.0","0","0","71008","","null","","","null","9","","","","","","","","","","","","","","","",""
"","ITI","","html-keyboard-response","66","137872","0.0-1.0-90.0","0","0","71008","","null","","","null","9","","","","","","","","","","","","","","","NaN",""
"","S1","","html-keyboard-response","67","138179","0.0-1.0-92.0","0","0","71008","","null","","","null","10","","","","","","","","","","","","","","","",""
"","ISI","","html-keyboard-response","68","139196","0.0-1.0-93.0","0","0","71008","","null","","","null","10","NaN","","","","","","","","","","","","","","",""
"","S2","","html-keyboard-response","69","139463","0.0-1.0-94.0","0","0","71008","","null","","","null","10","","NaN","","","","","","","","","","","","","",""
"","response","","html-keyboard-response","70","140339","0.0-1.0-95.0-0.0","0","0","71008","","872","","","68","10","","","1","10","training","adjacent","CD","3","4","L.jpg","P.jpg","1","1","1","",""
"","feedback","","html-keyboard-response","71","141353","0.0-1.0-96.0-0.0","0","0","71008","","null","","","null","10","","","","","","","","","","","","","","","",""
"","ITI","","html-keyboard-response","72","142362","0.0-1.0-99.0","0","0","71008","","null","","","null","10","","","","","","","","","","","","","","","NaN",""
"","S1","","html-keyboard-response","73","142627","0.0-1.0-101.0","0","0","71008","","null","","","null","11","","","","","","","","","","","","","","","",""
"","ISI","","html-keyboard-response","74","143643","0.0-1.0-102.0","0","0","71008","","null","","","null","11","NaN","","","","","","","","","","","","","","",""
"","S2","","html-keyboard-response","75","143905","0.0-1.0-103.0","0","0","71008","","null","","","null","11","","NaN","","","","","","","","","","","","","",""
"","response","","html-keyboard-response","76","144285","0.0-1.0-104.0-0.0","0","0","71008","","366","","","75","11","","","1","11","training","adjacent","FG","6","7","Q.jpg","R.jpg","0","1","0","",""
"","feedback","","html-keyboard-response","77","145298","0.0-1.0-105.0-0.0","0","0","71008","","null","","","null","11","","","","","","","","","","","","","","","",""
"","time_out","","html-keyboard-response","78","147312","0.0-1.0-107.0-0.0","0","0","71008","","null","","","null","11","","","","","","","","","","","","","","","",""
"","ITI","","html-keyboard-response","79","148321","0.0-1.0-108.0","0","0","71008","","null","","","null","11","","","","","","","","","","","","","","","NaN",""
"","S1","","html-keyboard-response","80","148583","0.0-1.0-110.0","0","0","71008","","null","","","null","12","","","","","","","","","","","","","","","",""
"","ISI","","html-keyboard-response","81","149645","0.0-1.0-111.0","0","0","71008","","null","","","null","12","NaN","","","","","","","","","","","","","","",""
"","S2","","html-keyboard-response","82","149902","0.0-1.0-112.0","0","0","71008","","null","","","null","12","","NaN","","","","","","","","","","","","","",""
"","response","","html-keyboard-response","83","150301","0.0-1.0-113.0-0.0","0","0","71008","","393","","","68","12","","","1","12","training","adjacent","DC","4","3","P.jpg","L.jpg","1","0","0","",""
"","feedback","","html-keyboard-response","84","151326","0.0-1.0-114.0-0.0","0","0","71008","","null","","","null","12","","","","","","","","","","","","","","","",""
"","time_out","","html-keyboard-response","85","153343","0.0-1.0-116.0-0.0","0","0","71008","","null","","","null","12","","","","","","","","","","","","","","","",""
"","ITI","","html-keyboard-response","86","154354","0.0-1.0-117.0","0","0","71008","","null","","","null","12","","","","","","","","","","","","","","","NaN",""
"","S1","","html-keyboard-response","87","154621","0.0-1.0-119.0","0","0","71008","","null","","","null","13","","","","","","","","","","","","","","","",""
"","ISI","","html-keyboard-response","88","155730","0.0-1.0-120.0","0","0","71008","","null","","","null","13","NaN","","","","","","","","","","","","","","",""
"","S2","","html-keyboard-response","89","156005","0.0-1.0-121.0","0","0","71008","","null","","","null","13","","NaN","","","","","","","","","","","","","",""
"","response","","html-keyboard-response","90","156864","0.0-1.0-122.0-0.0","0","0","71008","","846","","","75","13","","","1","13","training","adjacent","BA","2","1","N.jpg","M.jpg","0","0","1","",""
"","feedback","","html-keyboard-response","91","157877","0.0-1.0-123.0-0.0","0","0","71008","","null","","","null","13","","","","","","","","","","","","","","","",""
"","ITI","","html-keyboard-response","92","158894","0.0-1.0-126.0","0","0","71008","","null","","","null","13","","","","","","","","","","","","","","","NaN",""
"","S1","","html-keyboard-response","93","159152","0.0-1.0-128.0","0","0","71008","","null","","","null","14","","","","","","","","","","","","","","","",""
"","ISI","","html-keyboard-response","94","160162","0.0-1.0-129.0","0","0","71008","","null","","","null","14","NaN","","","","","","","","","","","","","","",""
"","S2","","html-keyboard-response","95","160423","0.0-1.0-130.0","0","0","71008","","null","","","null","14","","NaN","","","","","","","","","","","","","",""
"","response","","html-keyboard-response","96","161205","0.0-1.0-131.0-0.0","0","0","71008","","762","","","68","14","","","1","14","training","adjacent","EF","5","6","O.jpg","Q.jpg","1","1","1","",""
"","feedback","","html-keyboard-response","97","162219","0.0-1.0-132.0-0.0","0","0","71008","","null","","","null","14","","","","","","","","","","","","","","","",""
"","ITI","","html-keyboard-response","98","163272","0.0-1.0-135.0","0","0","71008","","null","","","null","14","","","","","","","","","","","","","","","NaN",""
"","S1","","html-keyboard-response","99","163527","0.0-1.0-137.0","0","0","71008","","null","","","null","15","","","","","","","","","","","","","","","",""
"","ISI","","html-keyboard-response","100","164553","0.0-1.0-138.0","0","0","71008","","null","","","null","15","NaN","","","","","","","","","","","","","","",""
"","S2","","html-keyboard-response","101","164819","0.0-1.0-139.0","0","0","71008","","null","","","null","15","","NaN","","","","","","","","","","","","","",""
"","response","","html-keyboard-response","102","165581","0.0-1.0-140.0-0.0","0","0","71008","","756","","","68","15","","","1","15","training","adjacent","ED","5","4","O.jpg","P.jpg","1","0","0","",""
"","feedback","","html-keyboard-response","103","166596","0.0-1.0-141.0-0.0","0","0","71008","","null","","","null","15","","","","","","","","","","","","","","","",""
"","time_out","","html-keyboard-response","104","168619","0.0-1.0-143.0-0.0","0","0","71008","","null","","","null","15","","","","","","","","","","","","","","","",""
"","ITI","","html-keyboard-response","105","169631","0.0-1.0-144.0","0","0","71008","","null","","","null","15","","","","","","","","","","","","","","","NaN",""
"","S1","","html-keyboard-response","106","169890","0.0-1.0-146.0","0","0","71008","","null","","","null","16","","","","","","","","","","","","","","","",""
"","ISI","","html-keyboard-response","107","170902","0.0-1.0-147.0","0","0","71008","","null","","","null","16","NaN","","","","","","","","","","","","","","",""
"","S2","","html-keyboard-response","108","171164","0.0-1.0-148.0","0","0","71008","","null","","","null","16","","NaN","","","","","","","","","","","","","",""
"","response","","html-keyboard-response","109","171761","0.0-1.0-149.0-0.0","0","0","71008","","592","","","75","16","","","1","16","training","adjacent","DE","4","5","P.jpg","O.jpg","0","1","0","",""
"","feedback","","html-keyboard-response","110","172769","0.0-1.0-150.0-0.0","0","0","71008","","null","","","null","16","","","","","","","","","","","","","","","",""
"","time_out","","html-keyboard-response","111","174814","0.0-1.0-152.0-0.0","0","0","71008","","null","","","null","16","","","","","","","","","","","","","","","",""
"","ITI","","html-keyboard-response","112","175834","0.0-1.0-153.0","0","0","71008","","null","","","null","16","","","","","","","","","","","","","","","NaN",""
"","S1","","html-keyboard-response","113","176125","0.0-1.0-155.0","0","0","71008","","null","","","null","17","","","","","","","","","","","","","","","",""
"","ISI","","html-keyboard-response","114","177134","0.0-1.0-156.0","0","0","71008","","null","","","null","17","NaN","","","","","","","","","","","","","","",""
"","S2","","html-keyboard-response","115","177393","0.0-1.0-157.0","0","0","71008","","null","","","null","17","","NaN","","","","","","","","","","","","","",""
"","response","","html-keyboard-response","116","177926","0.0-1.0-158.0-0.0","0","0","71008","","526","","","75","17","","","1","17","training","adjacent","BA","2","1","N.jpg","M.jpg","0","0","1","",""
"","feedback","","html-keyboard-response","117","178937","0.0-1.0-159.0-0.0","0","0","71008","","null","","","null","17","","","","","","","","","","","","","","","",""
"","ITI","","html-keyboard-response","118","179947","0.0-1.0-162.0","0","0","71008","","null","","","null","17","","","","","","","","","","","","","","","NaN",""
"","S1","","html-keyboard-response","119","180207","0.0-1.0-164.0","0","0","71008","","null","","","null","18","","","","","","","","","","","","","","","",""
"","ISI","","html-keyboard-response","120","181301","0.0-1.0-165.0","0","0","71008","","null","","","null","18","NaN","","","","","","","","","","","","","","",""
"","S2","","html-keyboard-response","121","181580","0.0-1.0-166.0","0","0","71008","","null","","","null","18","","NaN","","","","","","","","","","","","","",""
"","response","","html-keyboard-response","122","182313","0.0-1.0-167.0-0.0","0","0","71008","","726","","","75","18","","","1","18","training","adjacent","BC","2","3","N.jpg","L.jpg","0","1","0","",""
"","feedback","","html-keyboard-response","123","183323","0.0-1.0-168.0-0.0","0","0","71008","","null","","","null","18","","","","","","","","","","","","","","","",""
"","time_out","","html-keyboard-response","124","185341","0.0-1.0-170.0-0.0","0","0","71008","","null","","","null","18","","","","","","","","","","","","","","","",""
"","ITI","","html-keyboard-response","125","186352","0.0-1.0-171.0","0","0","71008","","null","","","null","18","","","","","","","","","","","","","","","NaN",""
"","S1","","html-keyboard-response","126","186607","0.0-1.0-173.0","0","0","71008","","null","","","null","19","","","","","","","","","","","","","","","",""
"","ISI","","html-keyboard-response","127","187629","0.0-1.0-174.0","0","0","71008","","null","","","null","19","NaN","","","","","","","","","","","","","","",""
"","S2","","html-keyboard-response","128","187894","0.0-1.0-175.0","0","0","71008","","null","","","null","19","","NaN","","","","","","","","","","","","","",""
"","response","","html-keyboard-response","129","188654","0.0-1.0-176.0-0.0","0","0","71008","","756","","","68","19","","","1","19","training","adjacent","DC","4","3","P.jpg","L.jpg","1","0","0","",""
"","feedback","","html-keyboard-response","130","189662","0.0-1.0-177.0-0.0","0","0","71008","","null","","","null","19","","","","","","","","","","","","","","","",""
"","time_out","","html-keyboard-response","131","191673","0.0-1.0-179.0-0.0","0","0","71008","","null","","","null","19","","","","","","","","","","","","","","","",""
"","ITI","","html-keyboard-response","132","192681","0.0-1.0-180.0","0","0","71008","","null","","","null","19","","","","","","","","","","","","","","","NaN",""
"","S1","","html-keyboard-response","133","192945","0.0-1.0-182.0","0","0","71008","","null","","","null","20","","","","","","","","","","","","","","","",""
"","ISI","","html-keyboard-response","134","193956","0.0-1.0-183.0","0","0","71008","","null","","","null","20","NaN","","","","","","","","","","","","","","",""
"","S2","","html-keyboard-response","135","194229","0.0-1.0-184.0","0","0","71008","","null","","","null","20","","NaN","","","","","","","","","","","","","",""
"","response","","html-keyboard-response","136","195035","0.0-1.0-185.0-0.0","0","0","71008","","796","","","75","20","","","1","20","training","adjacent","FE","6","5","Q.jpg","O.jpg","0","0","1","",""
"","feedback","","html-keyboard-response","137","196053","0.0-1.0-186.0-0.0","0","0","71008","","null","","","null","20","","","","","","","","","","","","","","","",""
"","ITI","","html-keyboard-response","138","197064","0.0-1.0-189.0","0","0","71008","","null","","","null","20","","","","","","","","","","","","","","","NaN",""
"","S1","","html-keyboard-response","139","197326","0.0-1.0-191.0","0","0","71008","","null","","","null","21","","","","","","","","","","","","","","","",""
"","ISI","","html-keyboard-response","140","198334","0.0-1.0-192.0","0","0","71008","","null","","","null","21","NaN","","","","","","","","","","","","","","",""
"","S2","","html-keyboard-response","141","198603","0.0-1.0-193.0","0","0","71008","","null","","","null","21","","NaN","","","","","","","","","","","","","",""
"","response","","html-keyboard-response","142","199544","0.0-1.0-194.0-0.0","0","0","71008","","933","","","68","21","","","1","21","training","adjacent","FE","6","5","Q.jpg","O.jpg","1","0","0","",""
"","feedback","","html-keyboard-response","143","200553","0.0-1.0-195.0-0.0","0","0","71008","","null","","","null","21","","","","","","","","","","","","","","","",""
"","time_out","","html-keyboard-response","144","202563","0.0-1.0-197.0-0.0","0","0","71008","","null","","","null","21","","","","","","","","","","","","","","","",""
"","ITI","","html-keyboard-response","145","203576","0.0-1.0-198.0","0","0","71008","","null","","","null","21","","","","","","","","","","","","","","","NaN",""
"","S1","","html-keyboard-response","146","203842","0.0-1.0-200.0","0","0","71008","","null","","","null","22","","","","","","","","","","","","","","","",""
"","ISI","","html-keyboard-response","147","204849","0.0-1.0-201.0","0","0","71008","","null","","","null","22","NaN","","","","","","","","","","","","","","",""
"","S2","","html-keyboard-response","148","205111","0.0-1.0-202.0","0","0","71008","","null","","","null","22","","NaN","","","","","","","","","","","","","",""
"","response","","html-keyboard-response","149","206191","0.0-1.0-203.0-0.0","0","0","71008","","1074","","","75","22","","","1","22","training","adjacent","FG","6","7","Q.jpg","R.jpg","0","1","0","",""
"","feedback","","html-keyboard-response","150","207205","0.0-1.0-204.0-0.0","0","0","71008","","null","","","null","22","","","","","","","","","","","","","","","",""
"","time_out","","html-keyboard-response","151","209269","0.0-1.0-206.0-0.0","0","0","71008","","null","","","null","22","","","","","","","","","","","","","","","",""
"","ITI","","html-keyboard-response","152","210283","0.0-1.0-207.0","0","0","71008","","null","","","null","22","","","","","","","","","","","","","","","NaN",""
"","S1","","html-keyboard-response","153","210572","0.0-1.0-209.0","0","0","71008","","null","","","null","23","","","","","","","","","","","","","","","",""
"","ISI","","html-keyboard-response","154","211683","0.0-1.0-210.0","0","0","71008","","null","","","null","23","NaN","","","","","","","","","","","","","","",""
"","S2","","html-keyboard-response","155","211939","0.0-1.0-211.0","0","0","71008","","null","","","null","23","","NaN","","","","","","","","","","","","","",""
"","response","","html-keyboard-response","156","212714","0.0-1.0-212.0-0.0","0","0","71008","","770","","","75","23","","","1","23","training","adjacent","FE","6","5","Q.jpg","O.jpg","0","0","1","",""
"","feedback","","html-keyboard-response","157","213729","0.0-1.0-213.0-0.0","0","0","71008","","null","","","null","23","","","","","","","","","","","","","","","",""
"","ITI","","html-keyboard-response","158","214736","0.0-1.0-216.0","0","0","71008","","null","","","null","23","","","","","","","","","","","","","","","NaN",""
"","S1","","html-keyboard-response","159","214999","0.0-1.0-218.0","0","0","71008","","null","","","null","24","","","","","","","","","","","","","","","",""
"","ISI","","html-keyboard-response","160","216082","0.0-1.0-219.0","0","0","71008","","null","","","null","24","NaN","","","","","","","","","","","","","","",""
"","S2","","html-keyboard-response","161","216393","0.0-1.0-220.0","0","0","71008","","null","","","null","24","","NaN","","","","","","","","","","","","","",""
"","response","","html-keyboard-response","162","217242","0.0-1.0-221.0-0.0","0","0","71008","","842","","","75","24","","","1","24","training","adjacent","DC","4","3","P.jpg","L.jpg","0","0","1","",""
"","feedback","","html-keyboard-response","163","218258","0.0-1.0-222.0-0.0","0","0","71008","","null","","","null","24","","","","","","","","","","","","","","","",""
"","ITI","","html-keyboard-response","164","219266","0.0-1.0-225.0","0","0","71008","","null","","","null","24","","","","","","","","","","","","","","","NaN",""
"","S1","","html-keyboard-response","165","219527","0.0-1.0-227.0","0","0","71008","","null","","","null","25","","","","","","","","","","","","","","","",""
"","ISI","","html-keyboard-response","166","220539","0.0-1.0-228.0","0","0","71008","","null","","","null","25","NaN","","","","","","","","","","","","","","",""
"","S2","","html-keyboard-response","167","220811","0.0-1.0-229.0","0","0","71008","","null","","","null","25","","NaN","","","","","","","","","","","","","",""
"","response","","html-keyboard-response","168","221630","0.0-1.0-230.0-0.0","0","0","71008","","812","","","68","25","","","1","25","training","adjacent","AB","1","2","M.jpg","N.jpg","1","1","1","",""
"","feedback","","html-keyboard-response","169","222640","0.0-1.0-231.0-0.0","0","0","71008","","null","","","null","25","","","","","","","","","","","","","","","",""
"","ITI","","html-keyboard-response","170","223648","0.0-1.0-234.0","0","0","71008","","null","","","null","25","","","","","","","","","","","","","","","NaN",""
"","S1","","html-keyboard-response","171","223905","0.0-1.0-236.0","0","0","71008","","null","","","null","26","","","","","","","","","","","","","","","",""
"","ISI","","html-keyboard-response","172","224953","0.0-1.0-237.0","0","0","71008","","null","","","null","26","NaN","","","","","","","","","","","","","","",""
"","S2","","html-keyboard-response","173","225217","0.0-1.0-238.0","0","0","71008","","null","","","null","26","","NaN","","","","","","","","","","","","","",""
"","response","","html-keyboard-response","174","225954","0.0-1.0-239.0-0.0","0","0","71008","","730","","","75","26","","","1","26","training","adjacent","FG","6","7","Q.jpg","R.jpg","0","1","0","",""
"","feedback","","html-keyboard-response","175","226971","0.0-1.0-240.0-0.0","0","0","71008","","null","","","null","26","","","","","","","","","","","","","","","",""
"","time_out","","html-keyboard-response","176","228984","0.0-1.0-242.0-0.0","0","0","71008","","null","","","null","26","","","","","","","","","","","","","","","",""
"","ITI","","html-keyboard-response","177","230000","0.0-1.0-243.0","0","0","71008","","null","","","null","26","","","","","","","","","","","","","","","NaN",""
"","S1","","html-keyboard-response","178","230274","0.0-1.0-245.0","0","0","71008","","null","","","null","27","","","","","","","","","","","","","","","",""
"","ISI","","html-keyboard-response","179","231289","0.0-1.0-246.0","0","0","71008","","null","","","null","27","NaN","","","","","","","","","","","","","","",""
"","S2","","html-keyboard-response","180","231596","0.0-1.0-247.0","0","0","71008","","null","","","null","27","","NaN","","","","","","","","","","","","","",""
"","response","","html-keyboard-response","181","232416","0.0-1.0-248.0-0.0","0","0","71008","","816","","","68","27","","","1","27","training","adjacent","EF","5","6","O.jpg","Q.jpg","1","1","1","",""
"","feedback","","html-keyboard-response","182","233424","0.0-1.0-249.0-0.0","0","0","71008","","null","","","null","27","","","","","","","","","","","","","","","",""
"","ITI","","html-keyboard-response","183","234492","0.0-1.0-252.0","0","0","71008","","null","","","null","27","","","","","","","","","","","","","","","NaN",""
"","S1","","html-keyboard-response","184","234749","0.0-1.0-254.0","0","0","71008","","null","","","null","28","","","","","","","","","","","","","","","",""
"","ISI","","html-keyboard-response","185","235759","0.0-1.0-255.0","0","0","71008","","null","","","null","28","NaN","","","","","","","","","","","","","","",""
"","S2","","html-keyboard-response","186","236014","0.0-1.0-256.0","0","0","71008","","null","","","null","28","","NaN","","","","","","","","","","","","","",""
"","response","","html-keyboard-response","187","236645","0.0-1.0-257.0-0.0","0","0","71008","","621","","","68","28","","","1","28","training","adjacent","ED","5","4","O.jpg","P.jpg","1","0","0","",""
"","feedback","","html-keyboard-response","188","237723","0.0-1.0-258.0-0.0","0","0","71008","","null","","","null","28","","","","","","","","","","","","","","","",""
"","time_out","","html-keyboard-response","189","239729","0.0-1.0-260.0-0.0","0","0","71008","","null","","","null","28","","","","","","","","","","","","","","","",""
"","ITI","","html-keyboard-response","190","240734","0.0-1.0-261.0","0","0","71008","","null","","","null","28","","","","","","","","","","","","","","","NaN",""
"","S1","","html-keyboard-response","191","240994","0.0-1.0-263.0","0","0","71008","","null","","","null","29","","","","","","","","","","","","","","","",""
"","ISI","","html-keyboard-response","192","242010","0.0-1.0-264.0","0","0","71008","","575","","","68","29","d","","","","","","","","","","","","","","",""
"","S2","","html-keyboard-response","193","242270","0.0-1.0-265.0","0","0","71008","","null","","","null","29","","NaN","","","","","","","","","","","","","",""
"","response","","html-keyboard-response","194","242920","0.0-1.0-266.0-0.0","0","0","71008","","646","","","68","29","","","1","29","training","adjacent","FE","6","5","Q.jpg","O.jpg","1","0","0","",""
"","feedback","","html-keyboard-response","195","243930","0.0-1.0-267.0-0.0","0","0","71008","","null","","","null","29","","","","","","","","","","","","","","","",""
"","time_out","","html-keyboard-response","196","245948","0.0-1.0-269.0-0.0","0","0","71008","","null","","","null","29","","","","","","","","","","","","","","","",""
"","ITI","","html-keyboard-response","197","246967","0.0-1.0-270.0","0","0","71008","","null","","","null","29","","","","","","","","","","","","","","","NaN",""
"","S1","","html-keyboard-response","198","247231","0.0-1.0-272.0","0","0","71008","","null","","","null","30","","","","","","","","","","","","","","","",""
"","ISI","","html-keyboard-response","199","248256","0.0-1.0-273.0","0","0","71008","","null","","","null","30","NaN","","","","","","","","","","","","","","",""
"","S2","","html-keyboard-response","200","248518","0.0-1.0-274.0","0","0","71008","","null","","","null","30","","NaN","","","","","","","","","","","","","",""
"","response","","html-keyboard-response","201","249454","0.0-1.0-275.0-0.0","0","0","71008","","931","","","75","30","","","1","30","training","adjacent","DE","4","5","P.jpg","O.jpg","0","1","0","",""
"","feedback","","html-keyboard-response","202","250485","0.0-1.0-276.0-0.0","0","0","71008","","null","","","null","30","","","","","","","","","","","","","","","",""
"","time_out","","html-keyboard-response","203","252501","0.0-1.0-278.0-0.0","0","0","71008","","null","","","null","30","","","","","","","","","","","","","","","",""
"","ITI","","html-keyboard-response","204","253511","0.0-1.0-279.0","0","0","71008","","null","","","null","30","","","","","","","","","","","","","","","NaN",""
"","S1","","html-keyboard-response","205","253770","0.0-1.0-281.0","0","0","71008","","null","","","null","31","","","","","","","","","","","","","","","",""
"","ISI","","html-keyboard-response","206","254786","0.0-1.0-282.0","0","0","71008","","null","","","null","31","NaN","","","","","","","","","","","","","","",""
"","S2","","html-keyboard-response","207","255059","0.0-1.0-283.0","0","0","71008","","null","","","null","31","","NaN","","","","","","","","","","","","","",""
"","response","","html-keyboard-response","208","255821","0.0-1.0-284.0-0.0","0","0","71008","","752","","","75","31","","","1","31","training","adjacent","AB","1","2","M.jpg","N.jpg","0","1","0","",""
"","feedback","","html-keyboard-response","209","256833","0.0-1.0-285.0-0.0","0","0","71008","","null","","","null","31","","","","","","","","","","","","","","","",""
"","time_out","","html-keyboard-response","210","258849","0.0-1.0-287.0-0.0","0","0","71008","","null","","","null","31","","","","","","","","","","","","","","","",""
"","ITI","","html-keyboard-response","211","259859","0.0-1.0-288.0","0","0","71008","","null","","","null","31","","","","","","","","","","","","","","","NaN",""
"","S1","","html-keyboard-response","212","260121","0.0-1.0-290.0","0","0","71008","","null","","","null","32","","","","","","","","","","","","","","","",""
"","ISI","","html-keyboard-response","213","261130","0.0-1.0-291.0","0","0","71008","","null","","","null","32","NaN","","","","","","","","","","","","","","",""
"","S2","","html-keyboard-response","214","261394","0.0-1.0-292.0","0","0","71008","","null","","","null","32","","NaN","","","","","","","","","","","","","",""
"","response","","html-keyboard-response","215","262139","0.0-1.0-293.0-0.0","0","0","71008","","739","","","75","32","","","1","32","training","adjacent","CB","3","2","L.jpg","N.jpg","0","0","1","",""
"","feedback","","html-keyboard-response","216","263152","0.0-1.0-294.0-0.0","0","0","71008","","null","","","null","32","","","","","","","","","","","","","","","",""
"","ITI","","html-keyboard-response","217","264170","0.0-1.0-297.0","0","0","71008","","null","","","null","32","","","","","","","","","","","","","","","NaN",""
"","S1","","html-keyboard-response","218","264438","0.0-1.0-299.0","0","0","71008","","null","","","null","33","","","","","","","","","","","","","","","",""
"","ISI","","html-keyboard-response","219","265463","0.0-1.0-300.0","0","0","71008","","null","","","null","33","NaN","","","","","","","","","","","","","","",""
"","S2","","html-keyboard-response","220","265725","0.0-1.0-301.0","0","0","71008","","null","","","null","33","","NaN","","","","","","","","","","","","","",""
"","response","","html-keyboard-response","221","266081","0.0-1.0-302.0-0.0","0","0","71008","","349","","","75","33","","","1","33","training","adjacent","ED","5","4","O.jpg","P.jpg","0","0","1","",""
"","feedback","","html-keyboard-response","222","267088","0.0-1.0-303.0-0.0","0","0","71008","","null","","","null","33","","","","","","","","","","","","","","","",""
"","ITI","","html-keyboard-response","223","268097","0.0-1.0-306.0","0","0","71008","","null","","","null","33","","","","","","","","","","","","","","","NaN",""
"","S1","","html-keyboard-response","224","268363","0.0-1.0-308.0","0","0","71008","","null","","","null","34","","","","","","","","","","","","","","","",""
"","ISI","","html-keyboard-response","225","269376","0.0-1.0-309.0","0","0","71008","","null","","","null","34","NaN","","","","","","","","","","","","","","",""
"","S2","","html-keyboard-response","226","269645","0.0-1.0-310.0","0","0","71008","","null","","","null","34","","NaN","","","","","","","","","","","","","",""
"","response","","html-keyboard-response","227","270433","0.0-1.0-311.0-0.0","0","0","71008","","778","","","75","34","","","1","34","training","adjacent","GF","7","6","R.jpg","Q.jpg","0","0","1","",""
"","feedback","","html-keyboard-response","228","271457","0.0-1.0-312.0-0.0","0","0","71008","","null","","","null","34","","","","","","","","","","","","","","","",""
"","ITI","","html-keyboard-response","229","272466","0.0-1.0-315.0","0","0","71008","","null","","","null","34","","","","","","","","","","","","","","","NaN",""
"","S1","","html-keyboard-response","230","272729","0.0-1.0-317.0","0","0","71008","","null","","","null","35","","","","","","","","","","","","","","","",""
"","ISI","","html-keyboard-response","231","273736","0.0-1.0-318.0","0","0","71008","","null","","","null","35","NaN","","","","","","","","","","","","","","",""
"","S2","","html-keyboard-response","232","274038","0.0-1.0-319.0","0","0","71008","","null","","","null","35","","NaN","","","","","","","","","","","","","",""
"","response","","html-keyboard-response","233","274771","0.0-1.0-320.0-0.0","0","0","71008","","726","","","68","35","","","1","35","training","adjacent","ED","5","4","O.jpg","P.jpg","1","0","0","",""
"","feedback","","html-keyboard-response","234","275784","0.0-1.0-321.0-0.0","0","0","71008","","null","","","null","35","","","","","","","","","","","","","","","",""
"","time_out","","html-keyboard-response","235","277794","0.0-1.0-323.0-0.0","0","0","71008","","null","","","null","35","","","","","","","","","","","","","","","",""
"","ITI","","html-keyboard-response","236","278807","0.0-1.0-324.0","0","0","71008","","null","","","null","35","","","","","","","","","","","","","","","NaN",""
"","S1","","html-keyboard-response","237","279064","0.0-1.0-326.0","0","0","71008","","null","","","null","36","","","","","","","","","","","","","","","",""
"","ISI","","html-keyboard-response","238","280069","0.0-1.0-327.0","0","0","71008","","null","","","null","36","NaN","","","","","","","","","","","","","","",""
"","S2","","html-keyboard-response","239","280329","0.0-1.0-328.0","0","0","71008","","null","","","null","36","","NaN","","","","","","","","","","","","","",""
"","response","","html-keyboard-response","240","280958","0.0-1.0-329.0-0.0","0","0","71008","","622","","","75","36","","","1","36","training","adjacent","BA","2","1","N.jpg","M.jpg","0","0","1","",""
"","feedback","","html-keyboard-response","241","281968","0.0-1.0-330.0-0.0","0","0","71008","","null","","","null","36","","","","","","","","","","","","","","","",""
"","ITI","","html-keyboard-response","242","282977","0.0-1.0-333.0","0","0","71008","","null","","","null","36","","","","","","","","","","","","","","","NaN",""
"","S1","","html-keyboard-response","243","283243","0.0-1.0-335.0","0","0","71008","","null","","","null","37","","","","","","","","","","","","","","","",""
"","ISI","","html-keyboard-response","244","284257","0.0-1.0-336.0","0","0","71008","","null","","","null","37","NaN","","","","","","","","","","","","","","",""
"","S2","","html-keyboard-response","245","284520","0.0-1.0-337.0","0","0","71008","","null","","","null","37","","NaN","","","","","","","","","","","","","",""
"","response","","html-keyboard-response","246","285220","0.0-1.0-338.0-0.0","0","0","71008","","695","","","75","37","","","1","37","training","adjacent","CD","3","4","L.jpg","P.jpg","0","1","0","",""
"","feedback","","html-keyboard-response","247","286231","0.0-1.0-339.0-0.0","0","0","71008","","null","","","null","37","","","","","","","","","","","","","","","",""
"","time_out","","html-keyboard-response","248","288243","0.0-1.0-341.0-0.0","0","0","71008","","null","","","null","37","","","","","","","","","","","","","","","",""
"","ITI","","html-keyboard-response","249","289259","0.0-1.0-342.0","0","0","71008","","null","","","null","37","","","","","","","","","","","","","","","NaN",""
"","S1","","html-keyboard-response","250","289532","0.0-1.0-344.0","0","0","71008","","null","","","null","38","","","","","","","","","","","","","","","",""
"","ISI","","html-keyboard-response","251","290544","0.0-1.0-345.0","0","0","71008","","null","","","null","38","NaN","","","","","","","","","","","","","","",""
"","S2","","html-keyboard-response","252","290874","0.0-1.0-346.0","0","0","71008","","null","","","null","38","","NaN","","","","","","","","","","","","","",""
"","response","","html-keyboard-response","253","291721","0.0-1.0-347.0-0.0","0","0","71008","","840","","","68","38","","","1","38","training","adjacent","CB","3","2","L.jpg","N.jpg","1","0","0","",""
"","feedback","","html-keyboard-response","254","292727","0.0-1.0-348.0-0.0","0","0","71008","","null","","","null","38","","","","","","","","","","","","","","","",""
"","time_out","","html-keyboard-response","255","294742","0.0-1.0-350.0-0.0","0","0","71008","","null","","","null","38","","","","","","","","","","","","","","","",""
"","ITI","","html-keyboard-response","256","295752","0.0-1.0-351.0","0","0","71008","","null","","","null","38","","","","","","","","","","","","","","","NaN",""
"","S1","","html-keyboard-response","257","296034","0.0-1.0-353.0","0","0","71008","","null","","","null","39","","","","","","","","","","","","","","","",""
"","ISI","","html-keyboard-response","258","297043","0.0-1.0-354.0","0","0","71008","","null","","","null","39","NaN","","","","","","","","","","","","","","",""
"","S2","","html-keyboard-response","259","297304","0.0-1.0-355.0","0","0","71008","","null","","","null","39","","NaN","","","","","","","","","","","","","",""
"","response","","html-keyboard-response","260","298087","0.0-1.0-356.0-0.0","0","0","71008","","777","","","68","39","","","1","39","training","adjacent","GF","7","6","R.jpg","Q.jpg","1","0","0","",""
"","feedback","","html-keyboard-response","261","299097","0.0-1.0-357.0-0.0","0","0","71008","","null","","","null","39","","","","","","","","","","","","","","","",""
"","time_out","","html-keyboard-response","262","301123","0.0-1.0-359.0-0.0","0","0","71008","","null","","","null","39","","","","","","","","","","","","","","","",""
"","ITI","","html-keyboard-response","263","302139","0.0-1.0-360.0","0","0","71008","","null","","","null","39","","","","","","","","","","","","","","","NaN",""
"","S1","","html-keyboard-response","264","302399","0.0-1.0-362.0","0","0","71008","","null","","","null","40","","","","","","","","","","","","","","","",""
"","ISI","","html-keyboard-response","265","303410","0.0-1.0-363.0","0","0","71008","","null","","","null","40","NaN","","","","","","","","","","","","","","",""
"","S2","","html-keyboard-response","266","303672","0.0-1.0-364.0","0","0","71008","","null","","","null","40","","NaN","","","","","","","","","","","","","",""
"","response","","html-keyboard-response","267","304896","0.0-1.0-365.0-0.0","0","0","71008","","1216","","","68","40","","","1","40","training","adjacent","CB","3","2","L.jpg","N.jpg","1","0","0","",""
"","feedback","","html-keyboard-response","268","305965","0.0-1.0-366.0-0.0","0","0","71008","","null","","","null","40","","","","","","","","","","","","","","","",""
"","time_out","","html-keyboard-response","269","307980","0.0-1.0-368.0-0.0","0","0","71008","","null","","","null","40","","","","","","","","","","","","","","","",""
"","ITI","","html-keyboard-response","270","308990","0.0-1.0-369.0","0","0","71008","","null","","","null","40","","","","","","","","","","","","","","","NaN",""
"","S1","","html-keyboard-response","271","309268","0.0-1.0-371.0","0","0","71008","","null","","","null","41","","","","","","","","","","","","","","","",""
"","ISI","","html-keyboard-response","272","310282","0.0-1.0-372.0","0","0","71008","","null","","","null","41","NaN","","","","","","","","","","","","","","",""
"","S2","","html-keyboard-response","273","310551","0.0-1.0-373.0","0","0","71008","","null","","","null","41","","NaN","","","","","","","","","","","","","",""
"","response","","html-keyboard-response","274","311199","0.0-1.0-374.0-0.0","0","0","71008","","642","","","68","41","","","1","41","training","adjacent","AB","1","2","M.jpg","N.jpg","1","1","1","",""
"","feedback","","html-keyboard-response","275","312208","0.0-1.0-375.0-0.0","0","0","71008","","null","","","null","41","","","","","","","","","","","","","","","",""
"","ITI","","html-keyboard-response","276","313218","0.0-1.0-378.0","0","0","71008","","null","","","null","41","","","","","","","","","","","","","","","NaN",""
"","S1","","html-keyboard-response","277","313480","0.0-1.0-380.0","0","0","71008","","null","","","null","42","","","","","","","","","","","","","","","",""
"","ISI","","html-keyboard-response","278","314571","0.0-1.0-381.0","0","0","71008","","null","","","null","42","NaN","","","","","","","","","","","","","","",""
"","S2","","html-keyboard-response","279","314842","0.0-1.0-382.0","0","0","71008","","null","","","null","42","","NaN","","","","","","","","","","","","","",""
"","response","","html-keyboard-response","280","316602","0.0-1.0-383.0-0.0","0","0","71008","","null","","","null","42","","","1","42","training","adjacent","BC","2","3","N.jpg","L.jpg","NaN","1","0","",""
"","too_slow_prompt","","html-keyboard-response","281","317620","0.0-1.0-385.0-0.0","1","0","71008","","null","","","null","","","","","","","","","","","","","","","","",""
"","time_out","","html-keyboard-response","282","319633","0.0-1.0-386.0-0.0","0","0","71008","","null","","","null","42","","","","","","","","","","","","","","","",""
"","ITI","","html-keyboard-response","283","320640","0.0-1.0-387.0","0","0","71008","","null","","","null","42","","","","","","","","","","","","","","","NaN",""
"","S1","","html-keyboard-response","284","321013","0.0-1.0-389.0","0","0","71008","","null","","","null","43","","","","","","","","","","","","","","","",""
"","ISI","","html-keyboard-response","285","322045","0.0-1.0-390.0","0","0","71008","","214","","","75","43","k","","","","","","","","","","","","","","",""
"","S2","","html-keyboard-response","286","322305","0.0-1.0-391.0","0","0","71008","","null","","","null","43","","NaN","","","","","","","","","","","","","",""
"","response","","html-keyboard-response","287","323230","0.0-1.0-392.0-0.0","0","0","71008","","918","","","75","43","","","1","43","training","adjacent","DE","4","5","P.jpg","O.jpg","0","1","0","",""
"","feedback","","html-keyboard-response","288","324240","0.0-1.0-393.0-0.0","0","0","71008","","null","","","null","43","","","","","","","","","","","","","","","",""
"","time_out","","html-keyboard-response","289","326253","0.0-1.0-395.0-0.0","0","0","71008","","null","","","null","43","","","","","","","","","","","","","","","",""
"","ITI","","html-keyboard-response","290","327265","0.0-1.0-396.0","0","0","71008","","null","","","null","43","","","","","","","","","","","","","","","NaN",""
"","S1","","html-keyboard-response","291","327528","0.0-1.0-398.0","0","0","71008","","null","","","null","44","","","","","","","","","","","","","","","",""
"","ISI","","html-keyboard-response","292","328536","0.0-1.0-399.0","0","0","71008","","null","","","null","44","NaN","","","","","","","","","","","","","","",""
"","S2","","html-keyboard-response","293","328816","0.0-1.0-400.0","0","0","71008","","null","","","null","44","","NaN","","","","","","","","","","","","","",""
"","response","","html-keyboard-response","294","329286","0.0-1.0-401.0-0.0","0","0","71008","","463","","","68","44","","","1","44","training","adjacent","BC","2","3","N.jpg","L.jpg","1","1","1","",""
"","feedback","","html-keyboard-response","295","330295","0.0-1.0-402.0-0.0","0","0","71008","","null","","","null","44","","","","","","","","","","","","","","","",""
"","ITI","","html-keyboard-response","296","331305","0.0-1.0-405.0","0","0","71008","","null","","","null","44","","","","","","","","","","","","","","","NaN",""
"","S1","","html-keyboard-response","297","331571","0.0-1.0-407.0","0","0","71008","","null","","","null","45","","","","","","","","","","","","","","","",""
"","ISI","","html-keyboard-response","298","332585","0.0-1.0-408.0","0","0","71008","","null","","","null","45","NaN","","","","","","","","","","","","","","",""
"","S2","","html-keyboard-response","299","332846","0.0-1.0-409.0","0","0","71008","","null","","","null","45","","NaN","","","","","","","","","","","","","",""
"","response","","html-keyboard-response","300","333569","0.0-1.0-410.0-0.0","0","0","71008","","715","","","75","45","","","1","45","training","adjacent","BA","2","1","N.jpg","M.jpg","0","0","1","",""
"","feedback","","html-keyboard-response","301","334583","0.0-1.0-411.0-0.0","0","0","71008","","null","","","null","45","","","","","","","","","","","","","","","",""
"","ITI","","html-keyboard-response","302","335672","0.0-1.0-414.0","0","0","71008","","null","","","null","45","","","","","","","","","","","","","","","NaN",""
"","S1","","html-keyboard-response","303","335925","0.0-1.0-416.0","0","0","71008","","null","","","null","46","","","","","","","","","","","","","","","",""
"","ISI","","html-keyboard-response","304","336941","0.0-1.0-417.0","0","0","71008","","712","","","75","46","k","","","","","","","","","","","","","","",""
"","S2","","html-keyboard-response","305","337208","0.0-1.0-418.0","0","0","71008","","null","","","null","46","","NaN","","","","","","","","","","","","","",""
"","response","","html-keyboard-response","306","337936","0.0-1.0-419.0-0.0","0","0","71008","","717","","","75","46","","","1","46","training","adjacent","GF","7","6","R.jpg","Q.jpg","0","0","1","",""
"","feedback","","html-keyboard-response","307","338953","0.0-1.0-420.0-0.0","0","0","71008","","null","","","null","46","","","","","","","","","","","","","","","",""
"","ITI","","html-keyboard-response","308","339969","0.0-1.0-423.0","0","0","71008","","null","","","null","46","","","","","","","","","","","","","","","NaN",""
"","S1","","html-keyboard-response","309","340234","0.0-1.0-425.0","0","0","71008","","null","","","null","47","","","","","","","","","","","","","","","",""
"","ISI","","html-keyboard-response","310","341255","0.0-1.0-426.0","0","0","71008","","null","","","null","47","NaN","","","","","","","","","","","","","","",""
"","S2","","html-keyboard-response","311","341522","0.0-1.0-427.0","0","0","71008","","null","","","null","47","","NaN","","","","","","","","","","","","","",""
"","response","","html-keyboard-response","312","342370","0.0-1.0-428.0-0.0","0","0","71008","","840","","","75","47","","","1","47","training","adjacent","CD","3","4","L.jpg","P.jpg","0","1","0","",""
"","feedback","","html-keyboard-response","313","343395","0.0-1.0-429.0-0.0","0","0","71008","","null","","","null","47","","","","","","","","","","","","","","","",""
"","time_out","","html-keyboard-response","314","345416","0.0-1.0-431.0-0.0","0","0","71008","","null","","","null","47","","","","","","","","","","","","","","","",""
"","ITI","","html-keyboard-response","315","346426","0.0-1.0-432.0","0","0","71008","","null","","","null","47","","","","","","","","","","","","","","","NaN",""
"","block_over","","html-keyboard-response","316","407159","0.0-1.0-433.0-0.0","0","0","71008","","60712","","","32","47","","","","","","","","","","","","","","","",""
"","S1","","html-keyboard-response","317","407423","0.0-1.0-434.0","0","0","71008","","null","","","null","48","","","","","","","","","","","","","","","",""
"","ISI","","html-keyboard-response","318","408433","0.0-1.0-435.0","0","0","71008","","null","","","null","48","NaN","","","","","","","","","","","","","","",""
"","S2","","html-keyboard-response","319","408694","0.0-1.0-436.0","0","0","71008","","null","","","null","48","","NaN","","","","","","","","","","","","","",""
"","response","","html-keyboard-response","320","409449","0.0-1.0-437.0-0.0","0","0","71008","","745","","","68","48","","","2","48","training","adjacent","FG","6","7","Q.jpg","R.jpg","1","1","1","",""
"","feedback","","html-keyboard-response","321","410466","0.0-1.0-438.0-0.0","0","0","71008","","null","","","null","48","","","","","","","","","","","","","","","",""
"","ITI","","html-keyboard-response","322","411478","0.0-1.0-441.0","0","0","71008","","null","","","null","48","","","","","","","","","","","","","","","NaN",""
"","S1","","html-keyboard-response","323","411734","0.0-1.0-443.0","0","0","71008","","null","","","null","49","","","","","","","","","","","","","","","",""
"","ISI","","html-keyboard-response","324","412744","0.0-1.0-444.0","0","0","71008","","null","","","null","49","NaN","","","","","","","","","","","","","","",""
"","S2","","html-keyboard-response","325","413010","0.0-1.0-445.0","0","0","71008","","null","","","null","49","","NaN","","","","","","","","","","","","","",""
"","response","","html-keyboard-response","326","413988","0.0-1.0-446.0-0.0","0","0","71008","","973","","","68","49","","","2","49","training","adjacent","AB","1","2","M.jpg","N.jpg","1","1","1","",""
"","feedback","","html-keyboard-response","327","415006","0.0-1.0-447.0-0.0","0","0","71008","","null","","","null","49","","","","","","","","","","","","","","","",""
"","ITI","","html-keyboard-response","328","416018","0.0-1.0-450.0","0","0","71008","","null","","","null","49","","","","","","","","","","","","","","","NaN",""
"","S1","","html-keyboard-response","329","416281","0.0-1.0-452.0","0","0","71008","","null","","","null","50","","","","","","","","","","","","","","","",""
"","ISI","","html-keyboard-response","330","417288","0.0-1.0-453.0","0","0","71008","","null","","","null","50","NaN","","","","","","","","","","","","","","",""
"","S2","","html-keyboard-response","331","417552","0.0-1.0-454.0","0","0","71008","","null","","","null","50","","NaN","","","","","","","","","","","","","",""
"","response","","html-keyboard-response","332","418290","0.0-1.0-455.0-0.0","0","0","71008","","726","","","68","50","","","2","50","training","adjacent","FE","6","5","Q.jpg","O.jpg","1","0","0","",""
"","feedback","","html-keyboard-response","333","419311","0.0-1.0-456.0-0.0","0","0","71008","","null","","","null","50","","","","","","","","","","","","","","","",""
"","time_out","","html-keyboard-response","334","421359","0.0-1.0-458.0-0.0","0","0","71008","","null","","","null","50","","","","","","","","","","","","","","","",""
"","ITI","","html-keyboard-response","335","422368","0.0-1.0-459.0","0","0","71008","","null","","","null","50","","","","","","","","","","","","","","","NaN",""
"","S1","","html-keyboard-response","336","422633","0.0-1.0-461.0","0","0","71008","","null","","","null","51","","","","","","","","","","","","","","","",""
"","ISI","","html-keyboard-response","337","423640","0.0-1.0-462.0","0","0","71008","","null","","","null","51","NaN","","","","","","","","","","","","","","",""
"","S2","","html-keyboard-response","338","423900","0.0-1.0-463.0","0","0","71008","","null","","","null","51","","NaN","","","","","","","","","","","","","",""
"","response","","html-keyboard-response","339","424647","0.0-1.0-464.0-0.0","0","0","71008","","740","","","75","51","","","2","51","training","adjacent","DE","4","5","P.jpg","O.jpg","0","1","0","",""
"","feedback","","html-keyboard-response","340","425656","0.0-1.0-465.0-0.0","0","0","71008","","null","","","null","51","","","","","","","","","","","","","","","",""
"","time_out","","html-keyboard-response","341","427663","0.0-1.0-467.0-0.0","0","0","71008","","null","","","null","51","","","","","","","","","","","","","","","",""
"","ITI","","html-keyboard-response","342","428673","0.0-1.0-468.0","0","0","71008","","null","","","null","51","","","","","","","","","","","","","","","NaN",""
"","S1","","html-keyboard-response","343","428934","0.0-1.0-470.0","0","0","71008","","null","","","null","52","","","","","","","","","","","","","","","",""
"","ISI","","html-keyboard-response","344","429943","0.0-1.0-471.0","0","0","71008","","null","","","null","52","NaN","","","","","","","","","","","","","","",""
"","S2","","html-keyboard-response","345","430222","0.0-1.0-472.0","0","0","71008","","null","","","null","52","","NaN","","","","","","","","","","","","","",""
"","response","","html-keyboard-response","346","430651","0.0-1.0-473.0-0.0","0","0","71008","","421","","","68","52","","","2","52","training","adjacent","AB","1","2","M.jpg","N.jpg","1","1","1","",""
"","feedback","","html-keyboard-response","347","431706","0.0-1.0-474.0-0.0","0","0","71008","","null","","","null","52","","","","","","","","","","","","","","","",""
"","ITI","","html-keyboard-response","348","432722","0.0-1.0-477.0","0","0","71008","","null","","","null","52","","","","","","","","","","","","","","","NaN",""
"","S1","","html-keyboard-response","349","432982","0.0-1.0-479.0","0","0","71008","","null","","","null","53","","","","","","","","","","","","","","","",""
"","ISI","","html-keyboard-response","350","433993","0.0-1.0-480.0","0","0","71008","","null","","","null","53","NaN","","","","","","","","","","","","","","",""
"","S2","","html-keyboard-response","351","434257","0.0-1.0-481.0","0","0","71008","","null","","","null","53","","NaN","","","","","","","","","","","","","",""
"","response","","html-keyboard-response","352","435146","0.0-1.0-482.0-0.0","0","0","71008","","883","","","68","53","","","2","53","training","adjacent","CB","3","2","L.jpg","N.jpg","1","0","0","",""
"","feedback","","html-keyboard-response","353","436156","0.0-1.0-483.0-0.0","0","0","71008","","null","","","null","53","","","","","","","","","","","","","","","",""
"","time_out","","html-keyboard-response","354","438188","0.0-1.0-485.0-0.0","0","0","71008","","null","","","null","53","","","","","","","","","","","","","","","",""
"","ITI","","html-keyboard-response","355","439199","0.0-1.0-486.0","0","0","71008","","null","","","null","53","","","","","","","","","","","","","","","NaN",""
"","S1","","html-keyboard-response","356","439462","0.0-1.0-488.0","0","0","71008","","null","","","null","54","","","","","","","","","","","","","","","",""
"","ISI","","html-keyboard-response","357","440468","0.0-1.0-489.0","0","0","71008","","null","","","null","54","NaN","","","","","","","","","","","","","","",""
"","S2","","html-keyboard-response","358","440734","0.0-1.0-490.0","0","0","71008","","null","","","null","54","","NaN","","","","","","","","","","","","","",""
"","response","","html-keyboard-response","359","441266","0.0-1.0-491.0-0.0","0","0","71008","","523","","","75","54","","","2","54","training","adjacent","BA","2","1","N.jpg","M.jpg","0","0","1","",""
"","feedback","","html-keyboard-response","360","442354","0.0-1.0-492.0-0.0","0","0","71008","","null","","","null","54","","","","","","","","","","","","","","","",""
"","ITI","","html-keyboard-response","361","443376","0.0-1.0-495.0","0","0","71008","","null","","","null","54","","","","","","","","","","","","","","","NaN",""
"","S1","","html-keyboard-response","362","443637","0.0-1.0-497.0","0","0","71008","","null","","","null","55","","","","","","","","","","","","","","","",""
"","ISI","","html-keyboard-response","363","444648","0.0-1.0-498.0","0","0","71008","","null","","","null","55","NaN","","","","","","","","","","","","","","",""
"","S2","","html-keyboard-response","364","444909","0.0-1.0-499.0","0","0","71008","","null","","","null","55","","NaN","","","","","","","","","","","","","",""
"","response","","html-keyboard-response","365","445640","0.0-1.0-500.0-0.0","0","0","71008","","724","","","75","55","","","2","55","training","adjacent","DE","4","5","P.jpg","O.jpg","0","1","0","",""
"","feedback","","html-keyboard-response","366","446697","0.0-1.0-501.0-0.0","0","0","71008","","null","","","null","55","","","","","","","","","","","","","","","",""
"","time_out","","html-keyboard-response","367","448709","0.0-1.0-503.0-0.0","0","0","71008","","null","","","null","55","","","","","","","","","","","","","","","",""
"","ITI","","html-keyboard-response","368","449721","0.0-1.0-504.0","0","0","71008","","null","","","null","55","","","","","","","","","","","","","","","NaN",""
"","S1","","html-keyboard-response","369","449985","0.0-1.0-506.0","0","0","71008","","null","","","null","56","","","","","","","","","","","","","","","",""
"","ISI","","html-keyboard-response","370","451005","0.0-1.0-507.0","0","0","71008","","null","","","null","56","NaN","","","","","","","","","","","","","","",""
"","S2","","html-keyboard-response","371","451269","0.0-1.0-508.0","0","0","71008","","null","","","null","56","","NaN","","","","","","","","","","","","","",""
"","response","","html-keyboard-response","372","451586","0.0-1.0-509.0-0.0","0","0","71008","","310","","","68","56","","","2","56","training","adjacent","ED","5","4","O.jpg","P.jpg","1","0","0","",""
"","feedback","","html-keyboard-response","373","452621","0.0-1.0-510.0-0.0","0","0","71008","","null","","","null","56","","","","","","","","","","","","","","","",""
"","time_out","","html-keyboard-response","374","454636","0.0-1.0-512.0-0.0","0","0","71008","","null","","","null","56","","","","","","","","","","","","","","","",""
"","ITI","","html-keyboard-response","375","455649","0.0-1.0-513.0","0","0","71008","","null","","","null","56","","","","","","","","","","","","","","","NaN",""
"","S1","","html-keyboard-response","376","455914","0.0-1.0-515.0","0","0","71008","","null","","","null","57","","","","","","","","","","","","","","","",""
"","ISI","","html-keyboard-response","377","456930","0.0-1.0-516.0","0","0","71008","","null","","","null","57","NaN","","","","","","","","","","","","","","",""
"","S2","","html-keyboard-response","378","457205","0.0-1.0-517.0","0","0","71008","","null","","","null","57","","NaN","","","","","","","","","","","","","",""
"","response","","html-keyboard-response","379","457969","0.0-1.0-518.0-0.0","0","0","71008","","757","","","75","57","","","2","57","training","adjacent","BA","2","1","N.jpg","M.jpg","0","0","1","",""
"","feedback","","html-keyboard-response","380","458983","0.0-1.0-519.0-0.0","0","0","71008","","null","","","null","57","","","","","","","","","","","","","","","",""
"","ITI","","html-keyboard-response","381","459992","0.0-1.0-522.0","0","0","71008","","null","","","null","57","","","","","","","","","","","","","","","NaN",""
"","S1","","html-keyboard-response","382","460254","0.0-1.0-524.0","0","0","71008","","null","","","null","58","","","","","","","","","","","","","","","",""
"","ISI","","html-keyboard-response","383","461263","0.0-1.0-525.0","0","0","71008","","null","","","null","58","NaN","","","","","","","","","","","","","","",""
"","S2","","html-keyboard-response","384","461527","0.0-1.0-526.0","0","0","71008","","null","","","null","58","","NaN","","","","","","","","","","","","","",""
"","response","","html-keyboard-response","385","462208","0.0-1.0-527.0-0.0","0","0","71008","","675","","","75","58","","","2","58","training","adjacent","DC","4","3","P.jpg","L.jpg","0","0","1","",""
"","feedback","","html-keyboard-response","386","463239","0.0-1.0-528.0-0.0","0","0","71008","","null","","","null","58","","","","","","","","","","","","","","","",""
"","ITI","","html-keyboard-response","387","464265","0.0-1.0-531.0","0","0","71008","","null","","","null","58","","","","","","","","","","","","","","","NaN",""
"","S1","","html-keyboard-response","388","464527","0.0-1.0-533.0","0","0","71008","","null","","","null","59","","","","","","","","","","","","","","","",""
"","ISI","","html-keyboard-response","389","465540","0.0-1.0-534.0","0","0","71008","","null","","","null","59","NaN","","","","","","","","","","","","","","",""
"","S2","","html-keyboard-response","390","465804","0.0-1.0-535.0","0","0","71008","","null","","","null","59","","NaN","","","","","","","","","","","","","",""
"","response","","html-keyboard-response","391","466172","0.0-1.0-536.0-0.0","0","0","71008","","358","","","75","59","","","2","59","training","adjacent","BC","2","3","N.jpg","L.jpg","0","1","0","",""
"","feedback","","html-keyboard-response","392","467186","0.0-1.0-537.0-0.0","0","0","71008","","null","","","null","59","","","","","","","","","","","","","","","",""
"","time_out","","html-keyboard-response","393","469331","0.0-1.0-539.0-0.0","0","0","71008","","null","","","null","59","","","","","","","","","","","","","","","",""
"","ITI","","html-keyboard-response","394","470345","0.0-1.0-540.0","0","0","71008","","null","","","null","59","","","","","","","","","","","","","","","NaN",""
"","S1","","html-keyboard-response","395","470631","0.0-1.0-542.0","0","0","71008","","null","","","null","60","","","","","","","","","","","","","","","",""
"","ISI","","html-keyboard-response","396","471671","0.0-1.0-543.0","0","0","71008","","null","","","null","60","NaN","","","","","","","","","","","","","","",""
"","S2","","html-keyboard-response","397","471939","0.0-1.0-544.0","0","0","71008","","null","","","null","60","","NaN","","","","","","","","","","","","","",""
"","response","","html-keyboard-response","398","472782","0.0-1.0-545.0-0.0","0","0","71008","","804","","","75","60","","","2","60","training","adjacent","CD","3","4","L.jpg","P.jpg","0","1","0","",""
"","feedback","","html-keyboard-response","399","473793","0.0-1.0-546.0-0.0","0","0","71008","","null","","","null","60","","","","","","","","","","","","","","","",""
"","time_out","","html-keyboard-response","400","475800","0.0-1.0-548.0-0.0","0","0","71008","","null","","","null","60","","","","","","","","","","","","","","","",""
"","ITI","","html-keyboard-response","401","476824","0.0-1.0-549.0","0","0","71008","","null","","","null","60","","","","","","","","","","","","","","","NaN",""
"","S1","","html-keyboard-response","402","477097","0.0-1.0-551.0","0","0","71008","","null","","","null","61","","","","","","","","","","","","","","","",""
"","ISI","","html-keyboard-response","403","478106","0.0-1.0-552.0","0","0","71008","","null","","","null","61","NaN","","","","","","","","","","","","","","",""
"","S2","","html-keyboard-response","404","478366","0.0-1.0-553.0","0","0","71008","","null","","","null","61","","NaN","","","","","","","","","","","","","",""
"","response","","html-keyboard-response","405","478998","0.0-1.0-554.0-0.0","0","0","71008","","623","","","68","61","","","2","61","training","adjacent","ED","5","4","O.jpg","P.jpg","1","0","0","",""
"","feedback","","html-keyboard-response","406","480012","0.0-1.0-555.0-0.0","0","0","71008","","null","","","null","61","","","","","","","","","","","","","","","",""
"","time_out","","html-keyboard-response","407","482025","0.0-1.0-557.0-0.0","0","0","71008","","null","","","null","61","","","","","","","","","","","","","","","",""
"","ITI","","html-keyboard-response","408","483059","0.0-1.0-558.0","0","0","71008","","null","","","null","61","","","","","","","","","","","","","","","NaN",""
"","S1","","html-keyboard-response","409","483321","0.0-1.0-560.0","0","0","71008","","null","","","null","62","","","","","","","","","","","","","","","",""
"","ISI","","html-keyboard-response","410","484326","0.0-1.0-561.0","0","0","71008","","null","","","null","62","NaN","","","","","","","","","","","","","","",""
"","S2","","html-keyboard-response","411","484584","0.0-1.0-562.0","0","0","71008","","null","","","null","62","","NaN","","","","","","","","","","","","","",""
"","response","","html-keyboard-response","412","485359","0.0-1.0-563.0-0.0","0","0","71008","","768","","","68","62","","","2","62","training","adjacent","FE","6","5","Q.jpg","O.jpg","1","0","0","",""
"","feedback","","html-keyboard-response","413","486367","0.0-1.0-564.0-0.0","0","0","71008","","null","","","null","62","","","","","","","","","","","","","","","",""
"","time_out","","html-keyboard-response","414","488376","0.0-1.0-566.0-0.0","0","0","71008","","null","","","null","62","","","","","","","","","","","","","","","",""
"","ITI","","html-keyboard-response","415","489387","0.0-1.0-567.0","0","0","71008","","null","","","null","62","","","","","","","","","","","","","","","NaN",""
"","S1","","html-keyboard-response","416","489647","0.0-1.0-569.0","0","0","71008","","null","","","null","63","","","","","","","","","","","","","","","",""
"","ISI","","html-keyboard-response","417","490660","0.0-1.0-570.0","0","0","71008","","null","","","null","63","NaN","","","","","","","","","","","","","","",""
"","S2","","html-keyboard-response","418","490919","0.0-1.0-571.0","0","0","71008","","null","","","null","63","","NaN","","","","","","","","","","","","","",""
"","response","","html-keyboard-response","419","491638","0.0-1.0-572.0-0.0","0","0","71008","","712","","","68","63","","","2","63","training","adjacent","CB","3","2","L.jpg","N.jpg","1","0","0","",""
"","feedback","","html-keyboard-response","420","492666","0.0-1.0-573.0-0.0","0","0","71008","","null","","","null","63","","","","","","","","","","","","","","","",""
"","time_out","","html-keyboard-response","421","494685","0.0-1.0-575.0-0.0","0","0","71008","","null","","","null","63","","","","","","","","","","","","","","","",""
"","ITI","","html-keyboard-response","422","495698","0.0-1.0-576.0","0","0","71008","","null","","","null","63","","","","","","","","","","","","","","","NaN",""
"","S1","","html-keyboard-response","423","495959","0.0-1.0-578.0","0","0","71008","","null","","","null","64","","","","","","","","","","","","","","","",""
"","ISI","","html-keyboard-response","424","496969","0.0-1.0-579.0","0","0","71008","","null","","","null","64","NaN","","","","","","","","","","","","","","",""
"","S2","","html-keyboard-response","425","497246","0.0-1.0-580.0","0","0","71008","","null","","","null","64","","NaN","","","","","","","","","","","","","",""
"","response","","html-keyboard-response","426","497961","0.0-1.0-581.0-0.0","0","0","71008","","708","","","75","64","","","2","64","training","adjacent","FG","6","7","Q.jpg","R.jpg","0","1","0","",""
"","feedback","","html-keyboard-response","427","499000","0.0-1.0-582.0-0.0","0","0","71008","","null","","","null","64","","","","","","","","","","","","","","","",""
"","time_out","","html-keyboard-response","428","501021","0.0-1.0-584.0-0.0","0","0","71008","","null","","","null","64","","","","","","","","","","","","","","","",""
"","ITI","","html-keyboard-response","429","502045","0.0-1.0-585.0","0","0","71008","","null","","","null","64","","","","","","","","","","","","","","","NaN",""
"","S1","","html-keyboard-response","430","502303","0.0-1.0-587.0","0","0","71008","","null","","","null","65","","","","","","","","","","","","","","","",""
"","ISI","","html-keyboard-response","431","503318","0.0-1.0-588.0","0","0","71008","","null","","","null","65","NaN","","","","","","","","","","","","","","",""
"","S2","","html-keyboard-response","432","503588","0.0-1.0-589.0","0","0","71008","","null","","","null","65","","NaN","","","","","","","","","","","","","",""
"","response","","html-keyboard-response","433","504363","0.0-1.0-590.0-0.0","0","0","71008","","767","","","75","65","","","2","65","training","adjacent","EF","5","6","O.jpg","Q.jpg","0","1","0","",""
"","feedback","","html-keyboard-response","434","505393","0.0-1.0-591.0-0.0","0","0","71008","","null","","","null","65","","","","","","","","","","","","","","","",""
"","time_out","","html-keyboard-response","435","507398","0.0-1.0-593.0-0.0","0","0","71008","","null","","","null","65","","","","","","","","","","","","","","","",""
"","ITI","","html-keyboard-response","436","508410","0.0-1.0-594.0","0","0","71008","","null","","","null","65","","","","","","","","","","","","","","","NaN",""
"","S1","","html-keyboard-response","437","508779","0.0-1.0-596.0","0","0","71008","","null","","","null","66","","","","","","","","","","","","","","","",""
"","ISI","","html-keyboard-response","438","509783","0.0-1.0-597.0","0","0","71008","","null","","","null","66","NaN","","","","","","","","","","","","","","",""
"","S2","","html-keyboard-response","439","510039","0.0-1.0-598.0","0","0","71008","","null","","","null","66","","NaN","","","","","","","","","","","","","",""
"","response","","html-keyboard-response","440","510867","0.0-1.0-599.0-0.0","0","0","71008","","822","","","68","66","","","2","66","training","adjacent","FG","6","7","Q.jpg","R.jpg","1","1","1","",""
"","feedback","","html-keyboard-response","441","511883","0.0-1.0-600.0-0.0","0","0","71008","","null","","","null","66","","","","","","","","","","","","","","","",""
"","ITI","","html-keyboard-response","442","512897","0.0-1.0-603.0","0","0","71008","","null","","","null","66","","","","","","","","","","","","","","","NaN",""
"","S1","","html-keyboard-response","443","513161","0.0-1.0-605.0","0","0","71008","","null","","","null","67","","","","","","","","","","","","","","","",""
"","ISI","","html-keyboard-response","444","514174","0.0-1.0-606.0","0","0","71008","","null","","","null","67","NaN","","","","","","","","","","","","","","",""
"","S2","","html-keyboard-response","445","514431","0.0-1.0-607.0","0","0","71008","","null","","","null","67","","NaN","","","","","","","","","","","","","",""
"","response","","html-keyboard-response","446","515178","0.0-1.0-608.0-0.0","0","0","71008","","744","","","68","67","","","2","67","training","adjacent","BC","2","3","N.jpg","L.jpg","1","1","1","",""
"","feedback","","html-keyboard-response","447","516182","0.0-1.0-609.0-0.0","0","0","71008","","null","","","null","67","","","","","","","","","","","","","","","",""
"","ITI","","html-keyboard-response","448","517196","0.0-1.0-612.0","0","0","71008","","null","","","null","67","","","","","","","","","","","","","","","NaN",""
"","S1","","html-keyboard-response","449","517455","0.0-1.0-614.0","0","0","71008","","null","","","null","68","","","","","","","","","","","","","","","",""
"","ISI","","html-keyboard-response","450","518464","0.0-1.0-615.0","0","0","71008","","null","","","null","68","NaN","","","","","","","","","","","","","","",""
"","S2","","html-keyboard-response","451","518727","0.0-1.0-616.0","0","0","71008","","null","","","null","68","","NaN","","","","","","","","","","","","","",""
"","response","","html-keyboard-response","452","519602","0.0-1.0-617.0-0.0","0","0","71008","","868","","","68","68","","","2","68","training","adjacent","BC","2","3","N.jpg","L.jpg","1","1","1","",""
"","feedback","","html-keyboard-response","453","520609","0.0-1.0-618.0-0.0","0","0","71008","","null","","","null","68","","","","","","","","","","","","","","","",""
"","ITI","","html-keyboard-response","454","521620","0.0-1.0-621.0","0","0","71008","","null","","","null","68","","","","","","","","","","","","","","","NaN",""
"","S1","","html-keyboard-response","455","521878","0.0-1.0-623.0","0","0","71008","","null","","","null","69","","","","","","","","","","","","","","","",""
"","ISI","","html-keyboard-response","456","522887","0.0-1.0-624.0","0","0","71008","","null","","","null","69","NaN","","","","","","","","","","","","","","",""
"","S2","","html-keyboard-response","457","523149","0.0-1.0-625.0","0","0","71008","","null","","","null","69","","NaN","","","","","","","","","","","","","",""
"","response","","html-keyboard-response","458","524088","0.0-1.0-626.0-0.0","0","0","71008","","930","","","75","69","","","2","69","training","adjacent","FE","6","5","Q.jpg","O.jpg","0","0","1","",""
"","feedback","","html-keyboard-response","459","525096","0.0-1.0-627.0-0.0","0","0","71008","","null","","","null","69","","","","","","","","","","","","","","","",""
"","ITI","","html-keyboard-response","460","526106","0.0-1.0-630.0","0","0","71008","","null","","","null","69","","","","","","","","","","","","","","","NaN",""
"","S1","","html-keyboard-response","461","526378","0.0-1.0-632.0","0","0","71008","","null","","","null","70","","","","","","","","","","","","","","","",""
"","ISI","","html-keyboard-response","462","527393","0.0-1.0-633.0","0","0","71008","","null","","","null","70","NaN","","","","","","","","","","","","","","",""
"","S2","","html-keyboard-response","463","527653","0.0-1.0-634.0","0","0","71008","","null","","","null","70","","NaN","","","","","","","","","","","","","",""
"","response","","html-keyboard-response","464","528283","0.0-1.0-635.0-0.0","0","0","71008","","622","","","75","70","","","2","70","training","adjacent","GF","7","6","R.jpg","Q.jpg","0","0","1","",""
"","feedback","","html-keyboard-response","465","529297","0.0-1.0-636.0-0.0","0","0","71008","","null","","","null","70","","","","","","","","","","","","","","","",""
"","ITI","","html-keyboard-response","466","530314","0.0-1.0-639.0","0","0","71008","","null","","","null","70","","","","","","","","","","","","","","","NaN",""
"","S1","","html-keyboard-response","467","530577","0.0-1.0-641.0","0","0","71008","","null","","","null","71","","","","","","","","","","","","","","","",""
"","ISI","","html-keyboard-response","468","531596","0.0-1.0-642.0","0","0","71008","","null","","","null","71","NaN","","","","","","","","","","","","","","",""
"","S2","","html-keyboard-response","469","531856","0.0-1.0-643.0","0","0","71008","","null","","","null","71","","NaN","","","","","","","","","","","","","",""
"","response","","html-keyboard-response","470","532623","0.0-1.0-644.0-0.0","0","0","71008","","762","","","75","71","","","2","71","training","adjacent","EF","5","6","O.jpg","Q.jpg","0","1","0","",""
"","feedback","","html-keyboard-response","471","533631","0.0-1.0-645.0-0.0","0","0","71008","","null","","","null","71","","","","","","","","","","","","","","","",""
"","time_out","","html-keyboard-response","472","535641","0.0-1.0-647.0-0.0","0","0","71008","","null","","","null","71","","","","","","","","","","","","","","","",""
"","ITI","","html-keyboard-response","473","536657","0.0-1.0-648.0","0","0","71008","","null","","","null","71","","","","","","","","","","","","","","","NaN",""
"","S1","","html-keyboard-response","474","536934","0.0-1.0-650.0","0","0","71008","","null","","","null","72","","","","","","","","","","","","","","","",""
"","ISI","","html-keyboard-response","475","537964","0.0-1.0-651.0","0","0","71008","","null","","","null","72","NaN","","","","","","","","","","","","","","",""
"","S2","","html-keyboard-response","476","538232","0.0-1.0-652.0","0","0","71008","","null","","","null","72","","NaN","","","","","","","","","","","","","",""
"","response","","html-keyboard-response","477","538959","0.0-1.0-653.0-0.0","0","0","71008","","718","","","75","72","","","2","72","training","adjacent","AB","1","2","M.jpg","N.jpg","0","1","0","",""
"","feedback","","html-keyboard-response","478","539990","0.0-1.0-654.0-0.0","0","0","71008","","null","","","null","72","","","","","","","","","","","","","","","",""
"","time_out","","html-keyboard-response","479","541999","0.0-1.0-656.0-0.0","0","0","71008","","null","","","null","72","","","","","","","","","","","","","","","",""
"","ITI","","html-keyboard-response","480","543021","0.0-1.0-657.0","0","0","71008","","null","","","null","72","","","","","","","","","","","","","","","NaN",""
"","S1","","html-keyboard-response","481","543286","0.0-1.0-659.0","0","0","71008","","null","","","null","73","","","","","","","","","","","","","","","",""
"","ISI","","html-keyboard-response","482","544293","0.0-1.0-660.0","0","0","71008","","null","","","null","73","NaN","","","","","","","","","","","","","","",""
"","S2","","html-keyboard-response","483","544551","0.0-1.0-661.0","0","0","71008","","null","","","null","73","","NaN","","","","","","","","","","","","","",""
"","response","","html-keyboard-response","484","545467","0.0-1.0-662.0-0.0","0","0","71008","","909","","","68","73","","","2","73","training","adjacent","ED","5","4","O.jpg","P.jpg","1","0","0","",""
"","feedback","","html-keyboard-response","485","546481","0.0-1.0-663.0-0.0","0","0","71008","","null","","","null","73","","","","","","","","","","","","","","","",""
"","time_out","","html-keyboard-response","486","548545","0.0-1.0-665.0-0.0","0","0","71008","","null","","","null","73","","","","","","","","","","","","","","","",""
"","ITI","","html-keyboard-response","487","549580","0.0-1.0-666.0","0","0","71008","","null","","","null","73","","","","","","","","","","","","","","","NaN",""
"","S1","","html-keyboard-response","488","549921","0.0-1.0-668.0","0","0","71008","","null","","","null","74","","","","","","","","","","","","","","","",""
"","ISI","","html-keyboard-response","489","550953","0.0-1.0-669.0","0","0","71008","","null","","","null","74","NaN","","","","","","","","","","","","","","",""
"","S2","","html-keyboard-response","490","551217","0.0-1.0-670.0","0","0","71008","","null","","","null","74","","NaN","","","","","","","","","","","","","",""
"","response","","html-keyboard-response","491","552100","0.0-1.0-671.0-0.0","0","0","71008","","877","","","68","74","","","2","74","training","adjacent","CD","3","4","L.jpg","P.jpg","1","1","1","",""
"","feedback","","html-keyboard-response","492","553111","0.0-1.0-672.0-0.0","0","0","71008","","null","","","null","74","","","","","","","","","","","","","","","",""
"","ITI","","html-keyboard-response","493","554122","0.0-1.0-675.0","0","0","71008","","null","","","null","74","","","","","","","","","","","","","","","NaN",""
"","S1","","html-keyboard-response","494","554383","0.0-1.0-677.0","0","0","71008","","null","","","null","75","","","","","","","","","","","","","","","",""
"","ISI","","html-keyboard-response","495","555435","0.0-1.0-678.0","0","0","71008","","null","","","null","75","NaN","","","","","","","","","","","","","","",""
"","S2","","html-keyboard-response","496","555693","0.0-1.0-679.0","0","0","71008","","null","","","null","75","","NaN","","","","","","","","","","","","","",""
"","response","","html-keyboard-response","497","556670","0.0-1.0-680.0-0.0","0","0","71008","","971","","","68","75","","","2","75","training","adjacent","EF","5","6","O.jpg","Q.jpg","1","1","1","",""
"","feedback","","html-keyboard-response","498","557677","0.0-1.0-681.0-0.0","0","0","71008","","null","","","null","75","","","","","","","","","","","","","","","",""
"","ITI","","html-keyboard-response","499","558687","0.0-1.0-684.0","0","0","71008","","null","","","null","75","","","","","","","","","","","","","","","NaN",""
"","S1","","html-keyboard-response","500","559085","0.0-1.0-686.0","0","0","71008","","null","","","null","76","","","","","","","","","","","","","","","",""
"","ISI","","html-keyboard-response","501","560095","0.0-1.0-687.0","0","0","71008","","null","","","null","76","NaN","","","","","","","","","","","","","","",""
"","S2","","html-keyboard-response","502","560356","0.0-1.0-688.0","0","0","71008","","null","","","null","76","","NaN","","","","","","","","","","","","","",""
"","response","","html-keyboard-response","503","560999","0.0-1.0-689.0-0.0","0","0","71008","","639","","","75","76","","","2","76","training","adjacent","FE","6","5","Q.jpg","O.jpg","0","0","1","",""
"","feedback","","html-keyboard-response","504","562010","0.0-1.0-690.0-0.0","0","0","71008","","null","","","null","76","","","","","","","","","","","","","","","",""
"","ITI","","html-keyboard-response","505","563024","0.0-1.0-693.0","0","0","71008","","null","","","null","76","","","","","","","","","","","","","","","NaN",""
"","S1","","html-keyboard-response","506","563286","0.0-1.0-695.0","0","0","71008","","null","","","null","77","","","","","","","","","","","","","","","",""
"","ISI","","html-keyboard-response","507","564296","0.0-1.0-696.0","0","0","71008","","null","","","null","77","NaN","","","","","","","","","","","","","","",""
"","S2","","html-keyboard-response","508","564596","0.0-1.0-697.0","0","0","71008","","null","","","null","77","","NaN","","","","","","","","","","","","","",""
"","response","","html-keyboard-response","509","565012","0.0-1.0-698.0-0.0","0","0","71008","","409","","","75","77","","","2","77","training","adjacent","ED","5","4","O.jpg","P.jpg","0","0","1","",""
"","feedback","","html-keyboard-response","510","566031","0.0-1.0-699.0-0.0","0","0","71008","","null","","","null","77","","","","","","","","","","","","","","","",""
"","ITI","","html-keyboard-response","511","567040","0.0-1.0-702.0","0","0","71008","","null","","","null","77","","","","","","","","","","","","","","","NaN",""
"","S1","","html-keyboard-response","512","567301","0.0-1.0-704.0","0","0","71008","","null","","","null","78","","","","","","","","","","","","","","","",""
"","ISI","","html-keyboard-response","513","568309","0.0-1.0-705.0","0","0","71008","","null","","","null","78","NaN","","","","","","","","","","","","","","",""
"","S2","","html-keyboard-response","514","568566","0.0-1.0-706.0","0","0","71008","","null","","","null","78","","NaN","","","","","","","","","","","","","",""
"","response","","html-keyboard-response","515","569249","0.0-1.0-707.0-0.0","0","0","71008","","678","","","75","78","","","2","78","training","adjacent","GF","7","6","R.jpg","Q.jpg","0","0","1","",""
"","feedback","","html-keyboard-response","516","570264","0.0-1.0-708.0-0.0","0","0","71008","","null","","","null","78","","","","","","","","","","","","","","","",""
"","ITI","","html-keyboard-response","517","571284","0.0-1.0-711.0","0","0","71008","","null","","","null","78","","","","","","","","","","","","","","","NaN",""
"","S1","","html-keyboard-response","518","571540","0.0-1.0-713.0","0","0","71008","","null","","","null","79","","","","","","","","","","","","","","","",""
"","ISI","","html-keyboard-response","519","572552","0.0-1.0-714.0","0","0","71008","","null","","","null","79","NaN","","","","","","","","","","","","","","",""
"","S2","","html-keyboard-response","520","572813","0.0-1.0-715.0","0","0","71008","","null","","","null","79","","NaN","","","","","","","","","","","","","",""
"","response","","html-keyboard-response","521","573143","0.0-1.0-716.0-0.0","0","0","71008","","323","","","68","79","","","2","79","training","adjacent","BC","2","3","N.jpg","L.jpg","1","1","1","",""
"","feedback","","html-keyboard-response","522","574154","0.0-1.0-717.0-0.0","0","0","71008","","null","","","null","79","","","","","","","","","","","","","","","",""
"","ITI","","html-keyboard-response","523","575171","0.0-1.0-720.0","0","0","71008","","null","","","null","79","","","","","","","","","","","","","","","NaN",""
"","S1","","html-keyboard-response","524","575429","0.0-1.0-722.0","0","0","71008","","null","","","null","80","","","","","","","","","","","","","","","",""
"","ISI","","html-keyboard-response","525","576438","0.0-1.0-723.0","0","0","71008","","null","","","null","80","NaN","","","","","","","","","","","","","","",""
"","S2","","html-keyboard-response","526","576808","0.0-1.0-724.0","0","0","71008","","null","","","null","80","","NaN","","","","","","","","","","","","","",""
"","response","","html-keyboard-response","527","577107","0.0-1.0-725.0-0.0","0","0","71008","","293","","","75","80","","","2","80","training","adjacent","CB","3","2","L.jpg","N.jpg","0","0","1","",""
"","feedback","","html-keyboard-response","528","578121","0.0-1.0-726.0-0.0","0","0","71008","","null","","","null","80","","","","","","","","","","","","","","","",""
"","ITI","","html-keyboard-response","529","579135","0.0-1.0-729.0","0","0","71008","","null","","","null","80","","","","","","","","","","","","","","","NaN",""
"","S1","","html-keyboard-response","530","579421","0.0-1.0-731.0","0","0","71008","","null","","","null","81","","","","","","","","","","","","","","","",""
"","ISI","","html-keyboard-response","531","580438","0.0-1.0-732.0","0","0","71008","","null","","","null","81","NaN","","","","","","","","","","","","","","",""
"","S2","","html-keyboard-response","532","580705","0.0-1.0-733.0","0","0","71008","","null","","","null","81","","NaN","","","","","","","","","","","","","",""
"","response","","html-keyboard-response","533","581491","0.0-1.0-734.0-0.0","0","0","71008","","781","","","68","81","","","2","81","training","adjacent","CD","3","4","L.jpg","P.jpg","1","1","1","",""
"","feedback","","html-keyboard-response","534","582502","0.0-1.0-735.0-0.0","0","0","71008","","null","","","null","81","","","","","","","","","","","","","","","",""
"","ITI","","html-keyboard-response","535","583513","0.0-1.0-738.0","0","0","71008","","null","","","null","81","","","","","","","","","","","","","","","NaN",""
"","S1","","html-keyboard-response","536","583778","0.0-1.0-740.0","0","0","71008","","null","","","null","82","","","","","","","","","","","","","","","",""
"","ISI","","html-keyboard-response","537","584796","0.0-1.0-741.0","0","0","71008","","null","","","null","82","NaN","","","","","","","","","","","","","","",""
"","S2","","html-keyboard-response","538","585053","0.0-1.0-742.0","0","0","71008","","null","","","null","82","","NaN","","","","","","","","","","","","","",""
"","response","","html-keyboard-response","539","585528","0.0-1.0-743.0-0.0","0","0","71008","","468","","","75","82","","","2","82","training","adjacent","EF","5","6","O.jpg","Q.jpg","0","1","0","",""
"","feedback","","html-keyboard-response","540","586544","0.0-1.0-744.0-0.0","0","0","71008","","null","","","null","82","","","","","","","","","","","","","","","",""
"","time_out","","html-keyboard-response","541","588581","0.0-1.0-746.0-0.0","0","0","71008","","null","","","null","82","","","","","","","","","","","","","","","",""
"","ITI","","html-keyboard-response","542","589626","0.0-1.0-747.0","0","0","71008","","null","","","null","82","","","","","","","","","","","","","","","NaN",""
"","S1","","html-keyboard-response","543","589888","0.0-1.0-749.0","0","0","71008","","null","","","null","83","","","","","","","","","","","","","","","",""
"","ISI","","html-keyboard-response","544","590905","0.0-1.0-750.0","0","0","71008","","null","","","null","83","NaN","","","","","","","","","","","","","","",""
"","S2","","html-keyboard-response","545","591168","0.0-1.0-751.0","0","0","71008","","null","","","null","83","","NaN","","","","","","","","","","","","","",""
"","response","","html-keyboard-response","546","591910","0.0-1.0-752.0-0.0","0","0","71008","","720","","","75","83","","","2","83","training","adjacent","DE","4","5","P.jpg","O.jpg","0","1","0","",""
"","feedback","","html-keyboard-response","547","592921","0.0-1.0-753.0-0.0","0","0","71008","","null","","","null","83","","","","","","","","","","","","","","","",""
"","time_out","","html-keyboard-response","548","594933","0.0-1.0-755.0-0.0","0","0","71008","","null","","","null","83","","","","","","","","","","","","","","","",""
"","ITI","","html-keyboard-response","549","595945","0.0-1.0-756.0","0","0","71008","","null","","","null","83","","","","","","","","","","","","","","","NaN",""
"","S1","","html-keyboard-response","550","596208","0.0-1.0-758.0","0","0","71008","","null","","","null","84","","","","","","","","","","","","","","","",""
"","ISI","","html-keyboard-response","551","597222","0.0-1.0-759.0","0","0","71008","","null","","","null","84","NaN","","","","","","","","","","","","","","",""
"","S2","","html-keyboard-response","552","597479","0.0-1.0-760.0","0","0","71008","","null","","","null","84","","NaN","","","","","","","","","","","","","",""
"","response","","html-keyboard-response","553","598271","0.0-1.0-761.0-0.0","0","0","71008","","784","","","68","84","","","2","84","training","adjacent","AB","1","2","M.jpg","N.jpg","1","1","1","",""
"","feedback","","html-keyboard-response","554","599432","0.0-1.0-762.0-0.0","0","0","71008","","null","","","null","84","","","","","","","","","","","","","","","",""
"","ITI","","html-keyboard-response","555","600446","0.0-1.0-765.0","0","0","71008","","null","","","null","84","","","","","","","","","","","","","","","NaN",""
"","S1","","html-keyboard-response","556","600704","0.0-1.0-767.0","0","0","71008","","null","","","null","85","","","","","","","","","","","","","","","",""
"","ISI","","html-keyboard-response","557","601713","0.0-1.0-768.0","0","0","71008","","null","","","null","85","NaN","","","","","","","","","","","","","","",""
"","S2","","html-keyboard-response","558","601976","0.0-1.0-769.0","0","0","71008","","null","","","null","85","","NaN","","","","","","","","","","","","","",""
"","response","","html-keyboard-response","559","602776","0.0-1.0-770.0-0.0","0","0","71008","","794","","","75","85","","","2","85","training","adjacent","DC","4","3","P.jpg","L.jpg","0","0","1","",""
"","feedback","","html-keyboard-response","560","603788","0.0-1.0-771.0-0.0","0","0","71008","","null","","","null","85","","","","","","","","","","","","","","","",""
"","ITI","","html-keyboard-response","561","604802","0.0-1.0-774.0","0","0","71008","","null","","","null","85","","","","","","","","","","","","","","","NaN",""
"","S1","","html-keyboard-response","562","605061","0.0-1.0-776.0","0","0","71008","","null","","","null","86","","","","","","","","","","","","","","","",""
"","ISI","","html-keyboard-response","563","606075","0.0-1.0-777.0","0","0","71008","","null","","","null","86","NaN","","","","","","","","","","","","","","",""
"","S2","","html-keyboard-response","564","606338","0.0-1.0-778.0","0","0","71008","","null","","","null","86","","NaN","","","","","","","","","","","","","",""
"","response","","html-keyboard-response","565","607145","0.0-1.0-779.0-0.0","0","0","71008","","795","","","75","86","","","2","86","training","adjacent","FG","6","7","Q.jpg","R.jpg","0","1","0","",""
"","feedback","","html-keyboard-response","566","608162","0.0-1.0-780.0-0.0","0","0","71008","","null","","","null","86","","","","","","","","","","","","","","","",""
"","time_out","","html-keyboard-response","567","610176","0.0-1.0-782.0-0.0","0","0","71008","","null","","","null","86","","","","","","","","","","","","","","","",""
"","ITI","","html-keyboard-response","568","611204","0.0-1.0-783.0","0","0","71008","","null","","","null","86","","","","","","","","","","","","","","","NaN",""
"","S1","","html-keyboard-response","569","611461","0.0-1.0-785.0","0","0","71008","","null","","","null","87","","","","","","","","","","","","","","","",""
"","ISI","","html-keyboard-response","570","612473","0.0-1.0-786.0","0","0","71008","","null","","","null","87","NaN","","","","","","","","","","","","","","",""
"","S2","","html-keyboard-response","571","612734","0.0-1.0-787.0","0","0","71008","","null","","","null","87","","NaN","","","","","","","","","","","","","",""
"","response","","html-keyboard-response","572","613421","0.0-1.0-788.0-0.0","0","0","71008","","679","","","68","87","","","2","87","training","adjacent","BA","2","1","N.jpg","M.jpg","1","0","0","",""
"","feedback","","html-keyboard-response","573","614434","0.0-1.0-789.0-0.0","0","0","71008","","null","","","null","87","","","","","","","","","","","","","","","",""
"","time_out","","html-keyboard-response","574","616453","0.0-1.0-791.0-0.0","0","0","71008","","null","","","null","87","","","","","","","","","","","","","","","",""
"","ITI","","html-keyboard-response","575","617470","0.0-1.0-792.0","0","0","71008","","null","","","null","87","","","","","","","","","","","","","","","NaN",""
"","S1","","html-keyboard-response","576","617742","0.0-1.0-794.0","0","0","71008","","null","","","null","88","","","","","","","","","","","","","","","",""
"","ISI","","html-keyboard-response","577","618751","0.0-1.0-795.0","0","0","71008","","null","","","null","88","NaN","","","","","","","","","","","","","","",""
"","S2","","html-keyboard-response","578","619015","0.0-1.0-796.0","0","0","71008","","null","","","null","88","","NaN","","","","","","","","","","","","","",""
"","response","","html-keyboard-response","579","619738","0.0-1.0-797.0-0.0","0","0","71008","","715","","","75","88","","","2","88","training","adjacent","CB","3","2","L.jpg","N.jpg","0","0","1","",""
"","feedback","","html-keyboard-response","580","620754","0.0-1.0-798.0-0.0","0","0","71008","","null","","","null","88","","","","","","","","","","","","","","","",""
"","ITI","","html-keyboard-response","581","621773","0.0-1.0-801.0","0","0","71008","","null","","","null","88","","","","","","","","","","","","","","","NaN",""
"","S1","","html-keyboard-response","582","622030","0.0-1.0-803.0","0","0","71008","","null","","","null","89","","","","","","","","","","","","","","","",""
