"success","ttype","start_time","trial_type","trial_index","time_elapsed","internal_node_id","warning","missed_checkup","PID","view_history","rt","responses","repeat_instructions","key_press","index","keypress_isi","keypress_S2","block","trial_num","phase","group_type","pair_type","S1_stim","S2_stim","S1_img","S2_img","S1_chosen","S1_higher","accuracy","keypress_iti","total_bonus_tally"
"true","full_screen","d03082023hr1621","fullscreen","0","5522","0.0-0.0","0","0","22620","","","","","","","","","","","","","","","","","","","","","",""
"","instructions","","instructions","1","28439","0.0-1.0-0.0-0.0","0","0","22620","[{""page_index"":0,""viewing_time"":2355},{""page_index"":1,""viewing_time"":13312},{""page_index"":2,""viewing_time"":6304},{""page_index"":3,""viewing_time"":944}]","22915","","","","","","","","","","","","","","","","","","","",""
"","comprehension_check","","survey-multi-choice","2","51344","0.0-1.0-0.0-1.0","0","0","22620","","22899","{""Q0"":""True"",""Q1"":""D"",""Q2"":""Once the second image appears and while the screen 'MAKE A CHOICE' is shown"",""Q3"":""Green mark"",""Q4"":""either D or K""}","0","","","","","","","","","","","","","","","","","",""
"","start_exp","","html-keyboard-response","3","52630","0.0-1.0-1.0","0","0","22620","","1283","","","32","","","","","","","","","","","","","","","","",""
"","S1","","html-keyboard-response","4","52884","0.0-1.0-2.0","0","0","22620","","null","","","null","0","","","","","","","","","","","","","","","",""
"","ISI","","html-keyboard-response","5","53036","0.0-1.0-3.0","0","0","22620","","null","","","null","0","NaN","","","","","","","","","","","","","","",""
"","S2","","html-keyboard-response","6","53289","0.0-1.0-4.0","0","0","22620","","null","","","null","0","","NaN","","","","","","","","","","","","","",""
"","response","","html-keyboard-response","7","54030","0.0-1.0-5.0-0.0","0","0","22620","","739","","","68","0","","","1","0","training","adjacent","BA","2","1","P.jpg","Q.jpg","1","0","0","",""
"","feedback","","html-keyboard-response","8","55041","0.0-1.0-6.0-0.0","0","0","22620","","null","","","null","0","","","","","","","","","","","","","","","",""
"","time_out","","html-keyboard-response","9","57043","0.0-1.0-8.0-0.0","0","0","22620","","null","","","null","0","","","","","","","","","","","","","","","",""
"","ITI","","html-keyboard-response","10","58046","0.0-1.0-9.0","0","0","22620","","null","","","null","0","","","","","","","","","","","","","","","NaN",""
"","S1","","html-keyboard-response","11","58298","0.0-1.0-11.0","0","0","22620","","null","","","null","1","","","","","","","","","","","","","","","",""
"","ISI","","html-keyboard-response","12","58459","0.0-1.0-12.0","0","0","22620","","null","","","null","1","NaN","","","","","","","","","","","","","","",""
"","S2","","html-keyboard-response","13","58599","0.0-1.0-13.0","0","0","22620","","137","","","68","1","","d","1","1","training","adjacent","GF","7","6","N.jpg","L.jpg","1","0","0","",""
"","feedback","","html-keyboard-response","14","59602","0.0-1.0-15.0-0.0","0","0","22620","","null","","","null","1","","","","","","","","","","","","","","","",""
"","time_out","","html-keyboard-response","15","61604","0.0-1.0-17.0-0.0","0","0","22620","","null","","","null","1","","","","","","","","","","","","","","","",""
"","ITI","","html-keyboard-response","16","62606","0.0-1.0-18.0","0","0","22620","","null","","","null","1","","","","","","","","","","","","","","","NaN",""
"","S1","","html-keyboard-response","17","62862","0.0-1.0-20.0","0","0","22620","","null","","","null","2","","","","","","","","","","","","","","","",""
"","ISI","","html-keyboard-response","18","63014","0.0-1.0-21.0","0","0","22620","","null","","","null","2","NaN","","","","","","","","","","","","","","",""
"","S2","","html-keyboard-response","19","63267","0.0-1.0-22.0","0","0","22620","","null","","","null","2","","NaN","","","","","","","","","","","","","",""
"","response","","html-keyboard-response","20","64342","0.0-1.0-23.0-0.0","0","0","22620","","1073","","","75","2","","","1","2","training","adjacent","EF","5","6","M.jpg","L.jpg","0","1","0","",""
"","feedback","","html-keyboard-response","21","65345","0.0-1.0-24.0-0.0","0","0","22620","","null","","","null","2","","","","","","","","","","","","","","","",""
"","time_out","","html-keyboard-response","22","67347","0.0-1.0-26.0-0.0","0","0","22620","","null","","","null","2","","","","","","","","","","","","","","","",""
"","ITI","","html-keyboard-response","23","68350","0.0-1.0-27.0","0","0","22620","","null","","","null","2","","","","","","","","","","","","","","","NaN",""
"","S1","","html-keyboard-response","24","68602","0.0-1.0-29.0","0","0","22620","","null","","","null","3","","","","","","","","","","","","","","","",""
"","ISI","","html-keyboard-response","25","68754","0.0-1.0-30.0","0","0","22620","","null","","","null","3","NaN","","","","","","","","","","","","","","",""
"","S2","","html-keyboard-response","26","69007","0.0-1.0-31.0","0","0","22620","","null","","","null","3","","NaN","","","","","","","","","","","","","",""
"","response","","html-keyboard-response","27","69510","0.0-1.0-32.0-0.0","0","0","22620","","502","","","68","3","","","1","3","training","adjacent","DE","4","5","R.jpg","M.jpg","1","1","1","",""
"","feedback","","html-keyboard-response","28","70513","0.0-1.0-33.0-0.0","0","0","22620","","null","","","null","3","","","","","","","","","","","","","","","",""
"","ITI","","html-keyboard-response","29","71516","0.0-1.0-36.0","0","0","22620","","null","","","null","3","","","","","","","","","","","","","","","NaN",""
"","S1","","html-keyboard-response","30","71769","0.0-1.0-38.0","0","0","22620","","null","","","null","4","","","","","","","","","","","","","","","",""
"","ISI","","html-keyboard-response","31","71921","0.0-1.0-39.0","0","0","22620","","null","","","null","4","NaN","","","","","","","","","","","","","","",""
"","S2","","html-keyboard-response","32","72174","0.0-1.0-40.0","0","0","22620","","null","","","null","4","","NaN","","","","","","","","","","","","","",""
"","response","","html-keyboard-response","33","72639","0.0-1.0-41.0-0.0","0","0","22620","","463","","","75","4","","","1","4","training","adjacent","DE","4","5","R.jpg","M.jpg","0","1","0","",""
"","feedback","","html-keyboard-response","34","73641","0.0-1.0-42.0-0.0","0","0","22620","","null","","","null","4","","","","","","","","","","","","","","","",""
"","time_out","","html-keyboard-response","35","75643","0.0-1.0-44.0-0.0","0","0","22620","","null","","","null","4","","","","","","","","","","","","","","","",""
"","ITI","","html-keyboard-response","36","76645","0.0-1.0-45.0","0","0","22620","","null","","","null","4","","","","","","","","","","","","","","","NaN",""
"","S1","","html-keyboard-response","37","76898","0.0-1.0-47.0","0","0","22620","","null","","","null","5","","","","","","","","","","","","","","","",""
"","ISI","","html-keyboard-response","38","77062","0.0-1.0-48.0","0","0","22620","","null","","","null","5","NaN","","","","","","","","","","","","","","",""
"","S2","","html-keyboard-response","39","77314","0.0-1.0-49.0","0","0","22620","","null","","","null","5","","NaN","","","","","","","","","","","","","",""
"","response","","html-keyboard-response","40","77750","0.0-1.0-50.0-0.0","0","0","22620","","434","","","68","5","","","1","5","training","adjacent","FE","6","5","L.jpg","M.jpg","1","0","0","",""
"","feedback","","html-keyboard-response","41","78753","0.0-1.0-51.0-0.0","0","0","22620","","null","","","null","5","","","","","","","","","","","","","","","",""
"","time_out","","html-keyboard-response","42","80756","0.0-1.0-53.0-0.0","0","0","22620","","null","","","null","5","","","","","","","","","","","","","","","",""
"","ITI","","html-keyboard-response","43","81758","0.0-1.0-54.0","0","0","22620","","null","","","null","5","","","","","","","","","","","","","","","NaN",""
"","S1","","html-keyboard-response","44","82011","0.0-1.0-56.0","0","0","22620","","null","","","null","6","","","","","","","","","","","","","","","",""
"","ISI","","html-keyboard-response","45","82164","0.0-1.0-57.0","0","0","22620","","null","","","null","6","NaN","","","","","","","","","","","","","","",""
"","S2","","html-keyboard-response","46","82416","0.0-1.0-58.0","0","0","22620","","null","","","null","6","","NaN","","","","","","","","","","","","","",""
"","response","","html-keyboard-response","47","82727","0.0-1.0-59.0-0.0","0","0","22620","","309","","","68","6","","","1","6","training","adjacent","DC","4","3","R.jpg","O.jpg","1","0","0","",""
"","feedback","","html-keyboard-response","48","83730","0.0-1.0-60.0-0.0","0","0","22620","","null","","","null","6","","","","","","","","","","","","","","","",""
"","time_out","","html-keyboard-response","49","85732","0.0-1.0-62.0-0.0","0","0","22620","","null","","","null","6","","","","","","","","","","","","","","","",""
"","ITI","","html-keyboard-response","50","86734","0.0-1.0-63.0","0","0","22620","","null","","","null","6","","","","","","","","","","","","","","","NaN",""
"","S1","","html-keyboard-response","51","86988","0.0-1.0-65.0","0","0","22620","","null","","","null","7","","","","","","","","","","","","","","","",""
"","ISI","","html-keyboard-response","52","87140","0.0-1.0-66.0","0","0","22620","","null","","","null","7","NaN","","","","","","","","","","","","","","",""
"","S2","","html-keyboard-response","53","87393","0.0-1.0-67.0","0","0","22620","","null","","","null","7","","NaN","","","","","","","","","","","","","",""
"","response","","html-keyboard-response","54","87598","0.0-1.0-68.0-0.0","0","0","22620","","203","","","75","7","","","1","7","training","adjacent","BA","2","1","P.jpg","Q.jpg","0","0","1","",""
"","feedback","","html-keyboard-response","55","88602","0.0-1.0-69.0-0.0","0","0","22620","","null","","","null","7","","","","","","","","","","","","","","","",""
"","ITI","","html-keyboard-response","56","89604","0.0-1.0-72.0","0","0","22620","","null","","","null","7","","","","","","","","","","","","","","","NaN",""
"","S1","","html-keyboard-response","57","89857","0.0-1.0-74.0","0","0","22620","","null","","","null","8","","","","","","","","","","","","","","","",""
"","ISI","","html-keyboard-response","58","90024","0.0-1.0-75.0","0","0","22620","","null","","","null","8","NaN","","","","","","","","","","","","","","",""
"","S2","","html-keyboard-response","59","90276","0.0-1.0-76.0","0","0","22620","","null","","","null","8","","NaN","","","","","","","","","","","","","",""
"","response","","html-keyboard-response","60","90502","0.0-1.0-77.0-0.0","0","0","22620","","224","","","68","8","","","1","8","training","adjacent","AB","1","2","Q.jpg","P.jpg","1","1","1","",""
"","feedback","","html-keyboard-response","61","91504","0.0-1.0-78.0-0.0","0","0","22620","","null","","","null","8","","","","","","","","","","","","","","","",""
"","ITI","","html-keyboard-response","62","92506","0.0-1.0-81.0","0","0","22620","","null","","","null","8","","","","","","","","","","","","","","","NaN",""
"","S1","","html-keyboard-response","63","92759","0.0-1.0-83.0","0","0","22620","","null","","","null","9","","","","","","","","","","","","","","","",""
"","ISI","","html-keyboard-response","64","92912","0.0-1.0-84.0","0","0","22620","","null","","","null","9","NaN","","","","","","","","","","","","","","",""
"","S2","","html-keyboard-response","65","93164","0.0-1.0-85.0","0","0","22620","","null","","","null","9","","NaN","","","","","","","","","","","","","",""
"","response","","html-keyboard-response","66","93526","0.0-1.0-86.0-0.0","0","0","22620","","360","","","68","9","","","1","9","training","adjacent","EF","5","6","M.jpg","L.jpg","1","1","1","",""
"","feedback","","html-keyboard-response","67","94528","0.0-1.0-87.0-0.0","0","0","22620","","null","","","null","9","","","","","","","","","","","","","","","",""
"","ITI","","html-keyboard-response","68","95531","0.0-1.0-90.0","0","0","22620","","null","","","null","9","","","","","","","","","","","","","","","NaN",""
"","S1","","html-keyboard-response","69","95784","0.0-1.0-92.0","0","0","22620","","null","","","null","10","","","","","","","","","","","","","","","",""
"","ISI","","html-keyboard-response","70","95936","0.0-1.0-93.0","0","0","22620","","null","","","null","10","NaN","","","","","","","","","","","","","","",""
"","S2","","html-keyboard-response","71","96190","0.0-1.0-94.0","0","0","22620","","null","","","null","10","","NaN","","","","","","","","","","","","","",""
"","response","","html-keyboard-response","72","96439","0.0-1.0-95.0-0.0","0","0","22620","","247","","","75","10","","","1","10","training","adjacent","FG","6","7","L.jpg","N.jpg","0","1","0","",""
"","feedback","","html-keyboard-response","73","97442","0.0-1.0-96.0-0.0","0","0","22620","","null","","","null","10","","","","","","","","","","","","","","","",""
"","time_out","","html-keyboard-response","74","99444","0.0-1.0-98.0-0.0","0","0","22620","","null","","","null","10","","","","","","","","","","","","","","","",""
"","ITI","","html-keyboard-response","75","100447","0.0-1.0-99.0","0","0","22620","","null","","","null","10","","","","","","","","","","","","","","","NaN",""
"","S1","","html-keyboard-response","76","100701","0.0-1.0-101.0","0","0","22620","","null","","","null","11","","","","","","","","","","","","","","","",""
"","ISI","","html-keyboard-response","77","100852","0.0-1.0-102.0","0","0","22620","","null","","","null","11","NaN","","","","","","","","","","","","","","",""
"","S2","","html-keyboard-response","78","101105","0.0-1.0-103.0","0","0","22620","","null","","","null","11","","NaN","","","","","","","","","","","","","",""
"","response","","html-keyboard-response","79","101214","0.0-1.0-104.0-0.0","0","0","22620","","107","","","75","11","","","1","11","training","adjacent","FE","6","5","L.jpg","M.jpg","0","0","1","",""
"","feedback","","html-keyboard-response","80","102217","0.0-1.0-105.0-0.0","0","0","22620","","null","","","null","11","","","","","","","","","","","","","","","",""
"","ITI","","html-keyboard-response","81","103219","0.0-1.0-108.0","0","0","22620","","null","","","null","11","","","","","","","","","","","","","","","NaN",""
"","S1","","html-keyboard-response","82","103472","0.0-1.0-110.0","0","0","22620","","null","","","null","12","","","","","","","","","","","","","","","",""
"","ISI","","html-keyboard-response","83","103624","0.0-1.0-111.0","0","0","22620","","null","","","null","12","NaN","","","","","","","","","","","","","","",""
"","S2","","html-keyboard-response","84","103877","0.0-1.0-112.0","0","0","22620","","null","","","null","12","","NaN","","","","","","","","","","","","","",""
"","response","","html-keyboard-response","85","103982","0.0-1.0-113.0-0.0","0","0","22620","","103","","","68","12","","","1","12","training","adjacent","GF","7","6","N.jpg","L.jpg","1","0","0","",""
"","feedback","","html-keyboard-response","86","104986","0.0-1.0-114.0-0.0","0","0","22620","","null","","","null","12","","","","","","","","","","","","","","","",""
"","time_out","","html-keyboard-response","87","106987","0.0-1.0-116.0-0.0","0","0","22620","","null","","","null","12","","","","","","","","","","","","","","","",""
"","ITI","","html-keyboard-response","88","107990","0.0-1.0-117.0","0","0","22620","","null","","","null","12","","","","","","","","","","","","","","","NaN",""
"","S1","","html-keyboard-response","89","108242","0.0-1.0-119.0","0","0","22620","","null","","","null","13","","","","","","","","","","","","","","","",""
"","ISI","","html-keyboard-response","90","108396","0.0-1.0-120.0","0","0","22620","","null","","","null","13","NaN","","","","","","","","","","","","","","",""
"","S2","","html-keyboard-response","91","108648","0.0-1.0-121.0","0","0","22620","","null","","","null","13","","NaN","","","","","","","","","","","","","",""
"","response","","html-keyboard-response","92","108703","0.0-1.0-122.0-0.0","0","0","22620","","53","","","75","13","","","1","13","training","adjacent","DC","4","3","R.jpg","O.jpg","0","0","1","",""
"","feedback","","html-keyboard-response","93","109705","0.0-1.0-123.0-0.0","0","0","22620","","null","","","null","13","","","","","","","","","","","","","","","",""
"","ITI","","html-keyboard-response","94","110708","0.0-1.0-126.0","0","0","22620","","null","","","null","13","","","","","","","","","","","","","","","NaN",""
"","S1","","html-keyboard-response","95","110970","0.0-1.0-128.0","0","0","22620","","null","","","null","14","","","","","","","","","","","","","","","",""
"","ISI","","html-keyboard-response","96","111123","0.0-1.0-129.0","0","0","22620","","null","","","null","14","NaN","","","","","","","","","","","","","","",""
"","S2","","html-keyboard-response","97","111375","0.0-1.0-130.0","0","0","22620","","null","","","null","14","","NaN","","","","","","","","","","","","","",""
"","response","","html-keyboard-response","98","111655","0.0-1.0-131.0-0.0","0","0","22620","","279","","","75","14","","","1","14","training","adjacent","FE","6","5","L.jpg","M.jpg","0","0","1","",""
"","feedback","","html-keyboard-response","99","112658","0.0-1.0-132.0-0.0","0","0","22620","","null","","","null","14","","","","","","","","","","","","","","","",""
"","ITI","","html-keyboard-response","100","113659","0.0-1.0-135.0","0","0","22620","","null","","","null","14","","","","","","","","","","","","","","","NaN",""
"","S1","","html-keyboard-response","101","113913","0.0-1.0-137.0","0","0","22620","","null","","","null","15","","","","","","","","","","","","","","","",""
"","ISI","","html-keyboard-response","102","114065","0.0-1.0-138.0","0","0","22620","","null","","","null","15","NaN","","","","","","","","","","","","","","",""
"","S2","","html-keyboard-response","103","114318","0.0-1.0-139.0","0","0","22620","","null","","","null","15","","NaN","","","","","","","","","","","","","",""
"","response","","html-keyboard-response","104","114591","0.0-1.0-140.0-0.0","0","0","22620","","272","","","75","15","","","1","15","training","adjacent","GF","7","6","N.jpg","L.jpg","0","0","1","",""
"","feedback","","html-keyboard-response","105","115594","0.0-1.0-141.0-0.0","0","0","22620","","null","","","null","15","","","","","","","","","","","","","","","",""
"","ITI","","html-keyboard-response","106","116597","0.0-1.0-144.0","0","0","22620","","null","","","null","15","","","","","","","","","","","","","","","NaN",""
"","S1","","html-keyboard-response","107","116849","0.0-1.0-146.0","0","0","22620","","null","","","null","16","","","","","","","","","","","","","","","",""
"","ISI","","html-keyboard-response","108","117007","0.0-1.0-147.0","0","0","22620","","null","","","null","16","NaN","","","","","","","","","","","","","","",""
"","S2","","html-keyboard-response","109","117259","0.0-1.0-148.0","0","0","22620","","null","","","null","16","","NaN","","","","","","","","","","","","","",""
"","response","","html-keyboard-response","110","117488","0.0-1.0-149.0-0.0","0","0","22620","","226","","","75","16","","","1","16","training","adjacent","CD","3","4","O.jpg","R.jpg","0","1","0","",""
"","feedback","","html-keyboard-response","111","118490","0.0-1.0-150.0-0.0","0","0","22620","","null","","","null","16","","","","","","","","","","","","","","","",""
"","time_out","","html-keyboard-response","112","120493","0.0-1.0-152.0-0.0","0","0","22620","","null","","","null","16","","","","","","","","","","","","","","","",""
"","ITI","","html-keyboard-response","113","121504","0.0-1.0-153.0","0","0","22620","","null","","","null","16","","","","","","","","","","","","","","","NaN",""
"","S1","","html-keyboard-response","114","121757","0.0-1.0-155.0","0","0","22620","","null","","","null","17","","","","","","","","","","","","","","","",""
"","ISI","","html-keyboard-response","115","121909","0.0-1.0-156.0","0","0","22620","","81","","","75","17","k","","","","","","","","","","","","","","",""
"","S2","","html-keyboard-response","116","122162","0.0-1.0-157.0","0","0","22620","","null","","","null","17","","NaN","","","","","","","","","","","","","",""
"","response","","html-keyboard-response","117","122303","0.0-1.0-158.0-0.0","0","0","22620","","140","","","75","17","","","1","17","training","adjacent","GF","7","6","N.jpg","L.jpg","0","0","1","",""
"","feedback","","html-keyboard-response","118","123306","0.0-1.0-159.0-0.0","0","0","22620","","null","","","null","17","","","","","","","","","","","","","","","",""
"","ITI","","html-keyboard-response","119","124310","0.0-1.0-162.0","0","0","22620","","null","","","null","17","","","","","","","","","","","","","","","NaN",""
"","S1","","html-keyboard-response","120","124563","0.0-1.0-164.0","0","0","22620","","null","","","null","18","","","","","","","","","","","","","","","",""
"","ISI","","html-keyboard-response","121","124716","0.0-1.0-165.0","0","0","22620","","null","","","null","18","NaN","","","","","","","","","","","","","","",""
"","S2","","html-keyboard-response","122","124969","0.0-1.0-166.0","0","0","22620","","null","","","null","18","","NaN","","","","","","","","","","","","","",""
"","response","","html-keyboard-response","123","125071","0.0-1.0-167.0-0.0","0","0","22620","","101","","","75","18","","","1","18","training","adjacent","AB","1","2","Q.jpg","P.jpg","0","1","0","",""
"","feedback","","html-keyboard-response","124","126074","0.0-1.0-168.0-0.0","0","0","22620","","null","","","null","18","","","","","","","","","","","","","","","",""
"","time_out","","html-keyboard-response","125","128076","0.0-1.0-170.0-0.0","0","0","22620","","null","","","null","18","","","","","","","","","","","","","","","",""
"","ITI","","html-keyboard-response","126","129079","0.0-1.0-171.0","0","0","22620","","null","","","null","18","","","","","","","","","","","","","","","NaN",""
"","S1","","html-keyboard-response","127","129332","0.0-1.0-173.0","0","0","22620","","null","","","null","19","","","","","","","","","","","","","","","",""
"","ISI","","html-keyboard-response","128","129484","0.0-1.0-174.0","0","0","22620","","null","","","null","19","NaN","","","","","","","","","","","","","","",""
"","S2","","html-keyboard-response","129","129639","0.0-1.0-175.0","0","0","22620","","153","","","75","19","","k","1","19","training","adjacent","BA","2","1","P.jpg","Q.jpg","0","0","1","",""
"","feedback","","html-keyboard-response","130","130642","0.0-1.0-177.0-0.0","0","0","22620","","null","","","null","19","","","","","","","","","","","","","","","",""
"","ITI","","html-keyboard-response","131","131644","0.0-1.0-180.0","0","0","22620","","null","","","null","19","","","","","","","","","","","","","","","NaN",""
"","S1","","html-keyboard-response","132","131897","0.0-1.0-182.0","0","0","22620","","null","","","null","20","","","","","","","","","","","","","","","",""
"","ISI","","html-keyboard-response","133","132049","0.0-1.0-183.0","0","0","22620","","null","","","null","20","NaN","","","","","","","","","","","","","","",""
"","S2","","html-keyboard-response","134","132302","0.0-1.0-184.0","0","0","22620","","null","","","null","20","","NaN","","","","","","","","","","","","","",""
"","response","","html-keyboard-response","135","132759","0.0-1.0-185.0-0.0","0","0","22620","","455","","","75","20","","","1","20","training","adjacent","CD","3","4","O.jpg","R.jpg","0","1","0","",""
"","feedback","","html-keyboard-response","136","133762","0.0-1.0-186.0-0.0","0","0","22620","","null","","","null","20","","","","","","","","","","","","","","","",""
"","time_out","","html-keyboard-response","137","135764","0.0-1.0-188.0-0.0","0","0","22620","","null","","","null","20","","","","","","","","","","","","","","","",""
"","ITI","","html-keyboard-response","138","136766","0.0-1.0-189.0","0","0","22620","","577","","","68","20","","","","","","","","","","","","","","","d",""
"","S1","","html-keyboard-response","139","137019","0.0-1.0-191.0","0","0","22620","","null","","","null","21","","","","","","","","","","","","","","","",""
"","ISI","","html-keyboard-response","140","137172","0.0-1.0-192.0","0","0","22620","","3","","","68","21","d","","","","","","","","","","","","","","",""
"","S2","","html-keyboard-response","141","137425","0.0-1.0-193.0","0","0","22620","","null","","","null","21","","NaN","","","","","","","","","","","","","",""
"","response","","html-keyboard-response","142","137575","0.0-1.0-194.0-0.0","0","0","22620","","149","","","68","21","","","1","21","training","adjacent","CB","3","2","O.jpg","P.jpg","1","0","0","",""
"","feedback","","html-keyboard-response","143","138577","0.0-1.0-195.0-0.0","0","0","22620","","null","","","null","21","","","","","","","","","","","","","","","",""
"","time_out","","html-keyboard-response","144","140579","0.0-1.0-197.0-0.0","0","0","22620","","null","","","null","21","","","","","","","","","","","","","","","",""
"","ITI","","html-keyboard-response","145","141582","0.0-1.0-198.0","0","0","22620","","null","","","null","21","","","","","","","","","","","","","","","NaN",""
"","S1","","html-keyboard-response","146","141835","0.0-1.0-200.0","0","0","22620","","null","","","null","22","","","","","","","","","","","","","","","",""
"","ISI","","html-keyboard-response","147","141987","0.0-1.0-201.0","0","0","22620","","null","","","null","22","NaN","","","","","","","","","","","","","","",""
"","S2","","html-keyboard-response","148","142239","0.0-1.0-202.0","0","0","22620","","null","","","null","22","","NaN","","","","","","","","","","","","","",""
"","response","","html-keyboard-response","149","142647","0.0-1.0-203.0-0.0","0","0","22620","","406","","","75","22","","","1","22","training","adjacent","AB","1","2","Q.jpg","P.jpg","0","1","0","",""
"","feedback","","html-keyboard-response","150","143649","0.0-1.0-204.0-0.0","0","0","22620","","null","","","null","22","","","","","","","","","","","","","","","",""
"","time_out","","html-keyboard-response","151","145652","0.0-1.0-206.0-0.0","0","0","22620","","null","","","null","22","","","","","","","","","","","","","","","",""
"","ITI","","html-keyboard-response","152","146655","0.0-1.0-207.0","0","0","22620","","null","","","null","22","","","","","","","","","","","","","","","NaN",""
"","S1","","html-keyboard-response","153","146908","0.0-1.0-209.0","0","0","22620","","null","","","null","23","","","","","","","","","","","","","","","",""
"","ISI","","html-keyboard-response","154","147067","0.0-1.0-210.0","0","0","22620","","null","","","null","23","NaN","","","","","","","","","","","","","","",""
"","S2","","html-keyboard-response","155","147319","0.0-1.0-211.0","0","0","22620","","null","","","null","23","","NaN","","","","","","","","","","","","","",""
"","response","","html-keyboard-response","156","147511","0.0-1.0-212.0-0.0","0","0","22620","","190","","","75","23","","","1","23","training","adjacent","FE","6","5","L.jpg","M.jpg","0","0","1","",""
"","feedback","","html-keyboard-response","157","148514","0.0-1.0-213.0-0.0","0","0","22620","","null","","","null","23","","","","","","","","","","","","","","","",""
"","ITI","","html-keyboard-response","158","149517","0.0-1.0-216.0","0","0","22620","","null","","","null","23","","","","","","","","","","","","","","","NaN",""
"","S1","","html-keyboard-response","159","149769","0.0-1.0-218.0","0","0","22620","","null","","","null","24","","","","","","","","","","","","","","","",""
"","ISI","","html-keyboard-response","160","149924","0.0-1.0-219.0","0","0","22620","","null","","","null","24","NaN","","","","","","","","","","","","","","",""
"","S2","","html-keyboard-response","161","150177","0.0-1.0-220.0","0","0","22620","","null","","","null","24","","NaN","","","","","","","","","","","","","",""
"","response","","html-keyboard-response","162","150567","0.0-1.0-221.0-0.0","0","0","22620","","389","","","75","24","","","1","24","training","adjacent","FG","6","7","L.jpg","N.jpg","0","1","0","",""
"","feedback","","html-keyboard-response","163","151570","0.0-1.0-222.0-0.0","0","0","22620","","null","","","null","24","","","","","","","","","","","","","","","",""
"","time_out","","html-keyboard-response","164","153572","0.0-1.0-224.0-0.0","0","0","22620","","null","","","null","24","","","","","","","","","","","","","","","",""
"","ITI","","html-keyboard-response","165","154575","0.0-1.0-225.0","0","0","22620","","null","","","null","24","","","","","","","","","","","","","","","NaN",""
"","S1","","html-keyboard-response","166","154827","0.0-1.0-227.0","0","0","22620","","null","","","null","25","","","","","","","","","","","","","","","",""
"","ISI","","html-keyboard-response","167","154979","0.0-1.0-228.0","0","0","22620","","null","","","null","25","NaN","","","","","","","","","","","","","","",""
"","S2","","html-keyboard-response","168","155246","0.0-1.0-229.0","0","0","22620","","null","","","null","25","","NaN","","","","","","","","","","","","","",""
"","response","","html-keyboard-response","169","155294","0.0-1.0-230.0-0.0","0","0","22620","","46","","","68","25","","","1","25","training","adjacent","ED","5","4","M.jpg","R.jpg","1","0","0","",""
"","feedback","","html-keyboard-response","170","156297","0.0-1.0-231.0-0.0","0","0","22620","","null","","","null","25","","","","","","","","","","","","","","","",""
"","time_out","","html-keyboard-response","171","158299","0.0-1.0-233.0-0.0","0","0","22620","","null","","","null","25","","","","","","","","","","","","","","","",""
"","ITI","","html-keyboard-response","172","159302","0.0-1.0-234.0","0","0","22620","","null","","","null","25","","","","","","","","","","","","","","","NaN",""
"","S1","","html-keyboard-response","173","159555","0.0-1.0-236.0","0","0","22620","","null","","","null","26","","","","","","","","","","","","","","","",""
"","ISI","","html-keyboard-response","174","159707","0.0-1.0-237.0","0","0","22620","","null","","","null","26","NaN","","","","","","","","","","","","","","",""
"","S2","","html-keyboard-response","175","159962","0.0-1.0-238.0","0","0","22620","","null","","","null","26","","NaN","","","","","","","","","","","","","",""
"","response","","html-keyboard-response","176","160151","0.0-1.0-239.0-0.0","0","0","22620","","188","","","75","26","","","1","26","training","adjacent","FG","6","7","L.jpg","N.jpg","0","1","0","",""
"","feedback","","html-keyboard-response","177","161154","0.0-1.0-240.0-0.0","0","0","22620","","null","","","null","26","","","","","","","","","","","","","","","",""
"","time_out","","html-keyboard-response","178","163157","0.0-1.0-242.0-0.0","0","0","22620","","null","","","null","26","","","","","","","","","","","","","","","",""
"","ITI","","html-keyboard-response","179","164160","0.0-1.0-243.0","0","0","22620","","null","","","null","26","","","","","","","","","","","","","","","NaN",""
"","S1","","html-keyboard-response","180","164413","0.0-1.0-245.0","0","0","22620","","null","","","null","27","","","","","","","","","","","","","","","",""
"","ISI","","html-keyboard-response","181","164565","0.0-1.0-246.0","0","0","22620","","null","","","null","27","NaN","","","","","","","","","","","","","","",""
"","S2","","html-keyboard-response","182","164818","0.0-1.0-247.0","0","0","22620","","null","","","null","27","","NaN","","","","","","","","","","","","","",""
"","response","","html-keyboard-response","183","165414","0.0-1.0-248.0-0.0","0","0","22620","","595","","","68","27","","","1","27","training","adjacent","BC","2","3","P.jpg","O.jpg","1","1","1","",""
"","feedback","","html-keyboard-response","184","166416","0.0-1.0-249.0-0.0","0","0","22620","","null","","","null","27","","","","","","","","","","","","","","","",""
"","ITI","","html-keyboard-response","185","167419","0.0-1.0-252.0","0","0","22620","","null","","","null","27","","","","","","","","","","","","","","","NaN",""
"","S1","","html-keyboard-response","186","167672","0.0-1.0-254.0","0","0","22620","","null","","","null","28","","","","","","","","","","","","","","","",""
"","ISI","","html-keyboard-response","187","167824","0.0-1.0-255.0","0","0","22620","","86","","","68","28","d","","","","","","","","","","","","","","",""
"","S2","","html-keyboard-response","188","168076","0.0-1.0-256.0","0","0","22620","","null","","","null","28","","NaN","","","","","","","","","","","","","",""
"","response","","html-keyboard-response","189","168350","0.0-1.0-257.0-0.0","0","0","22620","","272","","","68","28","","","1","28","training","adjacent","EF","5","6","M.jpg","L.jpg","1","1","1","",""
"","feedback","","html-keyboard-response","190","169353","0.0-1.0-258.0-0.0","0","0","22620","","null","","","null","28","","","","","","","","","","","","","","","",""
"","ITI","","html-keyboard-response","191","170355","0.0-1.0-261.0","0","0","22620","","null","","","null","28","","","","","","","","","","","","","","","NaN",""
"","S1","","html-keyboard-response","192","170607","0.0-1.0-263.0","0","0","22620","","null","","","null","29","","","","","","","","","","","","","","","",""
"","ISI","","html-keyboard-response","193","170759","0.0-1.0-264.0","0","0","22620","","null","","","null","29","NaN","","","","","","","","","","","","","","",""
"","S2","","html-keyboard-response","194","171012","0.0-1.0-265.0","0","0","22620","","null","","","null","29","","NaN","","","","","","","","","","","","","",""
"","response","","html-keyboard-response","195","171326","0.0-1.0-266.0-0.0","0","0","22620","","313","","","68","29","","","1","29","training","adjacent","BC","2","3","P.jpg","O.jpg","1","1","1","",""
"","feedback","","html-keyboard-response","196","172330","0.0-1.0-267.0-0.0","0","0","22620","","null","","","null","29","","","","","","","","","","","","","","","",""
"","ITI","","html-keyboard-response","197","173332","0.0-1.0-270.0","0","0","22620","","null","","","null","29","","","","","","","","","","","","","","","NaN",""
"","S1","","html-keyboard-response","198","173585","0.0-1.0-272.0","0","0","22620","","null","","","null","30","","","","","","","","","","","","","","","",""
"","ISI","","html-keyboard-response","199","173737","0.0-1.0-273.0","0","0","22620","","null","","","null","30","NaN","","","","","","","","","","","","","","",""
"","S2","","html-keyboard-response","200","173991","0.0-1.0-274.0","0","0","22620","","null","","","null","30","","NaN","","","","","","","","","","","","","",""
"","response","","html-keyboard-response","201","174342","0.0-1.0-275.0-0.0","0","0","22620","","350","","","68","30","","","1","30","training","adjacent","EF","5","6","M.jpg","L.jpg","1","1","1","",""
"","feedback","","html-keyboard-response","202","175345","0.0-1.0-276.0-0.0","0","0","22620","","null","","","null","30","","","","","","","","","","","","","","","",""
"","ITI","","html-keyboard-response","203","176348","0.0-1.0-279.0","0","0","22620","","null","","","null","30","","","","","","","","","","","","","","","NaN",""
"","S1","","html-keyboard-response","204","176613","0.0-1.0-281.0","0","0","22620","","null","","","null","31","","","","","","","","","","","","","","","",""
"","ISI","","html-keyboard-response","205","176766","0.0-1.0-282.0","0","0","22620","","null","","","null","31","NaN","","","","","","","","","","","","","","",""
"","S2","","html-keyboard-response","206","177019","0.0-1.0-283.0","0","0","22620","","null","","","null","31","","NaN","","","","","","","","","","","","","",""
"","response","","html-keyboard-response","207","177302","0.0-1.0-284.0-0.0","0","0","22620","","281","","","68","31","","","1","31","training","adjacent","CD","3","4","O.jpg","R.jpg","1","1","1","",""
"","feedback","","html-keyboard-response","208","178305","0.0-1.0-285.0-0.0","0","0","22620","","null","","","null","31","","","","","","","","","","","","","","","",""
"","ITI","","html-keyboard-response","209","179307","0.0-1.0-288.0","0","0","22620","","null","","","null","31","","","","","","","","","","","","","","","NaN",""
"","S1","","html-keyboard-response","210","179559","0.0-1.0-290.0","0","0","22620","","null","","","null","32","","","","","","","","","","","","","","","",""
"","ISI","","html-keyboard-response","211","179711","0.0-1.0-291.0","0","0","22620","","null","","","null","32","NaN","","","","","","","","","","","","","","",""
"","S2","","html-keyboard-response","212","179964","0.0-1.0-292.0","0","0","22620","","null","","","null","32","","NaN","","","","","","","","","","","","","",""
"","response","","html-keyboard-response","213","180406","0.0-1.0-293.0-0.0","0","0","22620","","441","","","75","32","","","1","32","training","adjacent","BC","2","3","P.jpg","O.jpg","0","1","0","",""
"","feedback","","html-keyboard-response","214","181409","0.0-1.0-294.0-0.0","0","0","22620","","null","","","null","32","","","","","","","","","","","","","","","",""
"","time_out","","html-keyboard-response","215","183412","0.0-1.0-296.0-0.0","0","0","22620","","null","","","null","32","","","","","","","","","","","","","","","",""
"","ITI","","html-keyboard-response","216","184415","0.0-1.0-297.0","0","0","22620","","null","","","null","32","","","","","","","","","","","","","","","NaN",""
"","S1","","html-keyboard-response","217","184667","0.0-1.0-299.0","0","0","22620","","null","","","null","33","","","","","","","","","","","","","","","",""
"","ISI","","html-keyboard-response","218","184820","0.0-1.0-300.0","0","0","22620","","null","","","null","33","NaN","","","","","","","","","","","","","","",""
"","S2","","html-keyboard-response","219","185073","0.0-1.0-301.0","0","0","22620","","null","","","null","33","","NaN","","","","","","","","","","","","","",""
"","response","","html-keyboard-response","220","185415","0.0-1.0-302.0-0.0","0","0","22620","","340","","","68","33","","","1","33","training","adjacent","DC","4","3","R.jpg","O.jpg","1","0","0","",""
"","feedback","","html-keyboard-response","221","186417","0.0-1.0-303.0-0.0","0","0","22620","","null","","","null","33","","","","","","","","","","","","","","","",""
"","time_out","","html-keyboard-response","222","188423","0.0-1.0-305.0-0.0","0","0","22620","","null","","","null","33","","","","","","","","","","","","","","","",""
"","ITI","","html-keyboard-response","223","189425","0.0-1.0-306.0","0","0","22620","","null","","","null","33","","","","","","","","","","","","","","","NaN",""
"","S1","","html-keyboard-response","224","189677","0.0-1.0-308.0","0","0","22620","","null","","","null","34","","","","","","","","","","","","","","","",""
"","ISI","","html-keyboard-response","225","189831","0.0-1.0-309.0","0","0","22620","","null","","","null","34","NaN","","","","","","","","","","","","","","",""
"","S2","","html-keyboard-response","226","190085","0.0-1.0-310.0","0","0","22620","","null","","","null","34","","NaN","","","","","","","","","","","","","",""
"","response","","html-keyboard-response","227","190342","0.0-1.0-311.0-0.0","0","0","22620","","256","","","68","34","","","1","34","training","adjacent","DE","4","5","R.jpg","M.jpg","1","1","1","",""
"","feedback","","html-keyboard-response","228","191345","0.0-1.0-312.0-0.0","0","0","22620","","null","","","null","34","","","","","","","","","","","","","","","",""
"","ITI","","html-keyboard-response","229","192348","0.0-1.0-315.0","0","0","22620","","null","","","null","34","","","","","","","","","","","","","","","NaN",""
"","S1","","html-keyboard-response","230","192601","0.0-1.0-317.0","0","0","22620","","null","","","null","35","","","","","","","","","","","","","","","",""
"","ISI","","html-keyboard-response","231","192753","0.0-1.0-318.0","0","0","22620","","null","","","null","35","NaN","","","","","","","","","","","","","","",""
"","S2","","html-keyboard-response","232","193005","0.0-1.0-319.0","0","0","22620","","null","","","null","35","","NaN","","","","","","","","","","","","","",""
"","response","","html-keyboard-response","233","193390","0.0-1.0-320.0-0.0","0","0","22620","","383","","","68","35","","","1","35","training","adjacent","ED","5","4","M.jpg","R.jpg","1","0","0","",""
"","feedback","","html-keyboard-response","234","194392","0.0-1.0-321.0-0.0","0","0","22620","","null","","","null","35","","","","","","","","","","","","","","","",""
"","time_out","","html-keyboard-response","235","196395","0.0-1.0-323.0-0.0","0","0","22620","","null","","","null","35","","","","","","","","","","","","","","","",""
"","ITI","","html-keyboard-response","236","197397","0.0-1.0-324.0","0","0","22620","","null","","","null","35","","","","","","","","","","","","","","","NaN",""
"","S1","","html-keyboard-response","237","197657","0.0-1.0-326.0","0","0","22620","","null","","","null","36","","","","","","","","","","","","","","","",""
"","ISI","","html-keyboard-response","238","197809","0.0-1.0-327.0","0","0","22620","","null","","","null","36","NaN","","","","","","","","","","","","","","",""
"","S2","","html-keyboard-response","239","198062","0.0-1.0-328.0","0","0","22620","","null","","","null","36","","NaN","","","","","","","","","","","","","",""
"","response","","html-keyboard-response","240","198439","0.0-1.0-329.0-0.0","0","0","22620","","375","","","75","36","","","1","36","training","adjacent","ED","5","4","M.jpg","R.jpg","0","0","1","",""
"","feedback","","html-keyboard-response","241","199445","0.0-1.0-330.0-0.0","0","0","22620","","null","","","null","36","","","","","","","","","","","","","","","",""
"","ITI","","html-keyboard-response","242","200448","0.0-1.0-333.0","0","0","22620","","null","","","null","36","","","","","","","","","","","","","","","NaN",""
"","S1","","html-keyboard-response","243","200715","0.0-1.0-335.0","0","0","22620","","null","","","null","37","","","","","","","","","","","","","","","",""
"","ISI","","html-keyboard-response","244","200867","0.0-1.0-336.0","0","0","22620","","null","","","null","37","NaN","","","","","","","","","","","","","","",""
"","S2","","html-keyboard-response","245","201119","0.0-1.0-337.0","0","0","22620","","null","","","null","37","","NaN","","","","","","","","","","","","","",""
"","response","","html-keyboard-response","246","201534","0.0-1.0-338.0-0.0","0","0","22620","","413","","","68","37","","","1","37","training","adjacent","DC","4","3","R.jpg","O.jpg","1","0","0","",""
"","feedback","","html-keyboard-response","247","202537","0.0-1.0-339.0-0.0","0","0","22620","","null","","","null","37","","","","","","","","","","","","","","","",""
"","time_out","","html-keyboard-response","248","204539","0.0-1.0-341.0-0.0","0","0","22620","","null","","","null","37","","","","","","","","","","","","","","","",""
"","ITI","","html-keyboard-response","249","205541","0.0-1.0-342.0","0","0","22620","","null","","","null","37","","","","","","","","","","","","","","","NaN",""
"","S1","","html-keyboard-response","250","205794","0.0-1.0-344.0","0","0","22620","","null","","","null","38","","","","","","","","","","","","","","","",""
"","ISI","","html-keyboard-response","251","205946","0.0-1.0-345.0","0","0","22620","","null","","","null","38","NaN","","","","","","","","","","","","","","",""
"","S2","","html-keyboard-response","252","206199","0.0-1.0-346.0","0","0","22620","","null","","","null","38","","NaN","","","","","","","","","","","","","",""
"","response","","html-keyboard-response","253","206342","0.0-1.0-347.0-0.0","0","0","22620","","142","","","75","38","","","1","38","training","adjacent","ED","5","4","M.jpg","R.jpg","0","0","1","",""
"","feedback","","html-keyboard-response","254","207344","0.0-1.0-348.0-0.0","0","0","22620","","null","","","null","38","","","","","","","","","","","","","","","",""
"","ITI","","html-keyboard-response","255","208347","0.0-1.0-351.0","0","0","22620","","null","","","null","38","","","","","","","","","","","","","","","NaN",""
"","S1","","html-keyboard-response","256","208600","0.0-1.0-353.0","0","0","22620","","null","","","null","39","","","","","","","","","","","","","","","",""
"","ISI","","html-keyboard-response","257","208753","0.0-1.0-354.0","0","0","22620","","null","","","null","39","NaN","","","","","","","","","","","","","","",""
"","S2","","html-keyboard-response","258","209005","0.0-1.0-355.0","0","0","22620","","null","","","null","39","","NaN","","","","","","","","","","","","","",""
"","response","","html-keyboard-response","259","210279","0.0-1.0-356.0-0.0","0","0","22620","","1271","","","75","39","","","1","39","training","adjacent","CB","3","2","O.jpg","P.jpg","0","0","1","",""
"","feedback","","html-keyboard-response","260","211281","0.0-1.0-357.0-0.0","0","0","22620","","null","","","null","39","","","","","","","","","","","","","","","",""
"","ITI","","html-keyboard-response","261","212284","0.0-1.0-360.0","0","0","22620","","null","","","null","39","","","","","","","","","","","","","","","NaN",""
"","S1","","html-keyboard-response","262","212537","0.0-1.0-362.0","0","0","22620","","null","","","null","40","","","","","","","","","","","","","","","",""
"","ISI","","html-keyboard-response","263","212689","0.0-1.0-363.0","0","0","22620","","null","","","null","40","NaN","","","","","","","","","","","","","","",""
"","S2","","html-keyboard-response","264","212942","0.0-1.0-364.0","0","0","22620","","null","","","null","40","","NaN","","","","","","","","","","","","","",""
"","response","","html-keyboard-response","265","213246","0.0-1.0-365.0-0.0","0","0","22620","","303","","","75","40","","","1","40","training","adjacent","DE","4","5","R.jpg","M.jpg","0","1","0","",""
"","feedback","","html-keyboard-response","266","214249","0.0-1.0-366.0-0.0","0","0","22620","","null","","","null","40","","","","","","","","","","","","","","","",""
"","time_out","","html-keyboard-response","267","216252","0.0-1.0-368.0-0.0","0","0","22620","","null","","","null","40","","","","","","","","","","","","","","","",""
"","ITI","","html-keyboard-response","268","217254","0.0-1.0-369.0","0","0","22620","","null","","","null","40","","","","","","","","","","","","","","","NaN",""
"","S1","","html-keyboard-response","269","217507","0.0-1.0-371.0","0","0","22620","","null","","","null","41","","","","","","","","","","","","","","","",""
"","ISI","","html-keyboard-response","270","217660","0.0-1.0-372.0","0","0","22620","","null","","","null","41","NaN","","","","","","","","","","","","","","",""
"","S2","","html-keyboard-response","271","217854","0.0-1.0-373.0","0","0","22620","","192","","","68","41","","d","1","41","training","adjacent","FG","6","7","L.jpg","N.jpg","1","1","1","",""
"","feedback","","html-keyboard-response","272","218857","0.0-1.0-375.0-0.0","0","0","22620","","null","","","null","41","","","","","","","","","","","","","","","",""
"","ITI","","html-keyboard-response","273","219860","0.0-1.0-378.0","0","0","22620","","null","","","null","41","","","","","","","","","","","","","","","NaN",""
"","S1","","html-keyboard-response","274","220113","0.0-1.0-380.0","0","0","22620","","null","","","null","42","","","","","","","","","","","","","","","",""
"","ISI","","html-keyboard-response","275","220266","0.0-1.0-381.0","0","0","22620","","null","","","null","42","NaN","","","","","","","","","","","","","","",""
"","S2","","html-keyboard-response","276","220519","0.0-1.0-382.0","0","0","22620","","null","","","null","42","","NaN","","","","","","","","","","","","","",""
"","response","","html-keyboard-response","277","220854","0.0-1.0-383.0-0.0","0","0","22620","","334","","","68","42","","","1","42","training","adjacent","AB","1","2","Q.jpg","P.jpg","1","1","1","",""
"","feedback","","html-keyboard-response","278","221857","0.0-1.0-384.0-0.0","0","0","22620","","null","","","null","42","","","","","","","","","","","","","","","",""
"","ITI","","html-keyboard-response","279","222860","0.0-1.0-387.0","0","0","22620","","null","","","null","42","","","","","","","","","","","","","","","NaN",""
"","S1","","html-keyboard-response","280","223113","0.0-1.0-389.0","0","0","22620","","null","","","null","43","","","","","","","","","","","","","","","",""
"","ISI","","html-keyboard-response","281","223265","0.0-1.0-390.0","0","0","22620","","null","","","null","43","NaN","","","","","","","","","","","","","","",""
"","S2","","html-keyboard-response","282","223518","0.0-1.0-391.0","0","0","22620","","null","","","null","43","","NaN","","","","","","","","","","","","","",""
"","response","","html-keyboard-response","283","223854","0.0-1.0-392.0-0.0","0","0","22620","","335","","","68","43","","","1","43","training","adjacent","CD","3","4","O.jpg","R.jpg","1","1","1","",""
"","feedback","","html-keyboard-response","284","224857","0.0-1.0-393.0-0.0","0","0","22620","","null","","","null","43","","","","","","","","","","","","","","","",""
"","ITI","","html-keyboard-response","285","225860","0.0-1.0-396.0","0","0","22620","","null","","","null","43","","","","","","","","","","","","","","","NaN",""
"","S1","","html-keyboard-response","286","226113","0.0-1.0-398.0","0","0","22620","","null","","","null","44","","","","","","","","","","","","","","","",""
"","ISI","","html-keyboard-response","287","226264","0.0-1.0-399.0","0","0","22620","","null","","","null","44","NaN","","","","","","","","","","","","","","",""
"","S2","","html-keyboard-response","288","226517","0.0-1.0-400.0","0","0","22620","","null","","","null","44","","NaN","","","","","","","","","","","","","",""
"","response","","html-keyboard-response","289","226831","0.0-1.0-401.0-0.0","0","0","22620","","313","","","68","44","","","1","44","training","adjacent","BC","2","3","P.jpg","O.jpg","1","1","1","",""
"","feedback","","html-keyboard-response","290","227836","0.0-1.0-402.0-0.0","0","0","22620","","null","","","null","44","","","","","","","","","","","","","","","",""
"","ITI","","html-keyboard-response","291","228838","0.0-1.0-405.0","0","0","22620","","null","","","null","44","","","","","","","","","","","","","","","NaN",""
"","S1","","html-keyboard-response","292","229094","0.0-1.0-407.0","0","0","22620","","null","","","null","45","","","","","","","","","","","","","","","",""
"","ISI","","html-keyboard-response","293","229246","0.0-1.0-408.0","0","0","22620","","null","","","null","45","NaN","","","","","","","","","","","","","","",""
"","S2","","html-keyboard-response","294","229500","0.0-1.0-409.0","0","0","22620","","null","","","null","45","","NaN","","","","","","","","","","","","","",""
"","response","","html-keyboard-response","295","229808","0.0-1.0-410.0-0.0","0","0","22620","","306","","","75","45","","","1","45","training","adjacent","CB","3","2","O.jpg","P.jpg","0","0","1","",""
"","feedback","","html-keyboard-response","296","230810","0.0-1.0-411.0-0.0","0","0","22620","","null","","","null","45","","","","","","","","","","","","","","","",""
"","ITI","","html-keyboard-response","297","231812","0.0-1.0-414.0","0","0","22620","","null","","","null","45","","","","","","","","","","","","","","","NaN",""
"","S1","","html-keyboard-response","298","232065","0.0-1.0-416.0","0","0","22620","","null","","","null","46","","","","","","","","","","","","","","","",""
"","ISI","","html-keyboard-response","299","232218","0.0-1.0-417.0","0","0","22620","","null","","","null","46","NaN","","","","","","","","","","","","","","",""
"","S2","","html-keyboard-response","300","232471","0.0-1.0-418.0","0","0","22620","","null","","","null","46","","NaN","","","","","","","","","","","","","",""
"","response","","html-keyboard-response","301","232887","0.0-1.0-419.0-0.0","0","0","22620","","415","","","75","46","","","1","46","training","adjacent","BA","2","1","P.jpg","Q.jpg","0","0","1","",""
"","feedback","","html-keyboard-response","302","233890","0.0-1.0-420.0-0.0","0","0","22620","","null","","","null","46","","","","","","","","","","","","","","","",""
"","ITI","","html-keyboard-response","303","234892","0.0-1.0-423.0","0","0","22620","","null","","","null","46","","","","","","","","","","","","","","","NaN",""
"","S1","","html-keyboard-response","304","235145","0.0-1.0-425.0","0","0","22620","","null","","","null","47","","","","","","","","","","","","","","","",""
"","ISI","","html-keyboard-response","305","235298","0.0-1.0-426.0","0","0","22620","","null","","","null","47","NaN","","","","","","","","","","","","","","",""
"","S2","","html-keyboard-response","306","235550","0.0-1.0-427.0","0","0","22620","","null","","","null","47","","NaN","","","","","","","","","","","","","",""
"","response","","html-keyboard-response","307","235855","0.0-1.0-428.0-0.0","0","0","22620","","304","","","75","47","","","1","47","training","adjacent","CB","3","2","O.jpg","P.jpg","0","0","1","",""
"","feedback","","html-keyboard-response","308","236858","0.0-1.0-429.0-0.0","0","0","22620","","null","","","null","47","","","","","","","","","","","","","","","",""
"","ITI","","html-keyboard-response","309","237862","0.0-1.0-432.0","0","0","22620","","null","","","null","47","","","","","","","","","","","","","","","NaN",""
"","block_over","","html-keyboard-response","310","240239","0.0-1.0-433.0-0.0","0","0","22620","","2375","","","32","47","","","","","","","","","","","","","","","",""
"","S1","","html-keyboard-response","311","240492","0.0-1.0-434.0","0","0","22620","","null","","","null","48","","","","","","","","","","","","","","","",""
"","ISI","","html-keyboard-response","312","240645","0.0-1.0-435.0","0","0","22620","","null","","","null","48","NaN","","","","","","","","","","","","","","",""
"","S2","","html-keyboard-response","313","240898","0.0-1.0-436.0","0","0","22620","","null","","","null","48","","NaN","","","","","","","","","","","","","",""
"","response","","html-keyboard-response","314","241296","0.0-1.0-437.0-0.0","0","0","22620","","395","","","68","48","","","2","48","training","adjacent","FE","6","5","L.jpg","M.jpg","1","0","0","",""
"","feedback","","html-keyboard-response","315","242298","0.0-1.0-438.0-0.0","0","0","22620","","null","","","null","48","","","","","","","","","","","","","","","",""
"","time_out","","html-keyboard-response","316","244300","0.0-1.0-440.0-0.0","0","0","22620","","null","","","null","48","","","","","","","","","","","","","","","",""
"","ITI","","html-keyboard-response","317","245303","0.0-1.0-441.0","0","0","22620","","null","","","null","48","","","","","","","","","","","","","","","NaN",""
"","S1","","html-keyboard-response","318","245555","0.0-1.0-443.0","0","0","22620","","null","","","null","49","","","","","","","","","","","","","","","",""
"","ISI","","html-keyboard-response","319","245707","0.0-1.0-444.0","0","0","22620","","null","","","null","49","NaN","","","","","","","","","","","","","","",""
"","S2","","html-keyboard-response","320","245961","0.0-1.0-445.0","0","0","22620","","null","","","null","49","","NaN","","","","","","","","","","","","","",""
"","response","","html-keyboard-response","321","246072","0.0-1.0-446.0-0.0","0","0","22620","","108","","","75","49","","","2","49","training","adjacent","FE","6","5","L.jpg","M.jpg","0","0","1","",""
"","feedback","","html-keyboard-response","322","247078","0.0-1.0-447.0-0.0","0","0","22620","","null","","","null","49","","","","","","","","","","","","","","","",""
"","ITI","","html-keyboard-response","323","248081","0.0-1.0-450.0","0","0","22620","","null","","","null","49","","","","","","","","","","","","","","","NaN",""
"","S1","","html-keyboard-response","324","248335","0.0-1.0-452.0","0","0","22620","","null","","","null","50","","","","","","","","","","","","","","","",""
"","ISI","","html-keyboard-response","325","248487","0.0-1.0-453.0","0","0","22620","","null","","","null","50","NaN","","","","","","","","","","","","","","",""
"","S2","","html-keyboard-response","326","248740","0.0-1.0-454.0","0","0","22620","","null","","","null","50","","NaN","","","","","","","","","","","","","",""
"","response","","html-keyboard-response","327","249095","0.0-1.0-455.0-0.0","0","0","22620","","354","","","75","50","","","2","50","training","adjacent","BA","2","1","P.jpg","Q.jpg","0","0","1","",""
"","feedback","","html-keyboard-response","328","250098","0.0-1.0-456.0-0.0","0","0","22620","","null","","","null","50","","","","","","","","","","","","","","","",""
"","ITI","","html-keyboard-response","329","251102","0.0-1.0-459.0","0","0","22620","","null","","","null","50","","","","","","","","","","","","","","","NaN",""
"","S1","","html-keyboard-response","330","251354","0.0-1.0-461.0","0","0","22620","","null","","","null","51","","","","","","","","","","","","","","","",""
"","ISI","","html-keyboard-response","331","251506","0.0-1.0-462.0","0","0","22620","","null","","","null","51","NaN","","","","","","","","","","","","","","",""
"","S2","","html-keyboard-response","332","251759","0.0-1.0-463.0","0","0","22620","","null","","","null","51","","NaN","","","","","","","","","","","","","",""
"","response","","html-keyboard-response","333","252088","0.0-1.0-464.0-0.0","0","0","22620","","326","","","75","51","","","2","51","training","adjacent","EF","5","6","M.jpg","L.jpg","0","1","0","",""
"","feedback","","html-keyboard-response","334","253090","0.0-1.0-465.0-0.0","0","0","22620","","null","","","null","51","","","","","","","","","","","","","","","",""
"","time_out","","html-keyboard-response","335","255092","0.0-1.0-467.0-0.0","0","0","22620","","null","","","null","51","","","","","","","","","","","","","","","",""
"","ITI","","html-keyboard-response","336","256095","0.0-1.0-468.0","0","0","22620","","null","","","null","51","","","","","","","","","","","","","","","NaN",""
"","S1","","html-keyboard-response","337","256348","0.0-1.0-470.0","0","0","22620","","null","","","null","52","","","","","","","","","","","","","","","",""
"","ISI","","html-keyboard-response","338","256500","0.0-1.0-471.0","0","0","22620","","null","","","null","52","NaN","","","","","","","","","","","","","","",""
"","S2","","html-keyboard-response","339","256752","0.0-1.0-472.0","0","0","22620","","null","","","null","52","","NaN","","","","","","","","","","","","","",""
"","response","","html-keyboard-response","340","257047","0.0-1.0-473.0-0.0","0","0","22620","","293","","","68","52","","","2","52","training","adjacent","BC","2","3","P.jpg","O.jpg","1","1","1","",""
"","feedback","","html-keyboard-response","341","258050","0.0-1.0-474.0-0.0","0","0","22620","","null","","","null","52","","","","","","","","","","","","","","","",""
"","ITI","","html-keyboard-response","342","259053","0.0-1.0-477.0","0","0","22620","","null","","","null","52","","","","","","","","","","","","","","","NaN",""
"","S1","","html-keyboard-response","343","259305","0.0-1.0-479.0","0","0","22620","","null","","","null","53","","","","","","","","","","","","","","","",""
"","ISI","","html-keyboard-response","344","259458","0.0-1.0-480.0","0","0","22620","","null","","","null","53","NaN","","","","","","","","","","","","","","",""
"","S2","","html-keyboard-response","345","259711","0.0-1.0-481.0","0","0","22620","","null","","","null","53","","NaN","","","","","","","","","","","","","",""
"","response","","html-keyboard-response","346","260039","0.0-1.0-482.0-0.0","0","0","22620","","326","","","75","53","","","2","53","training","adjacent","FG","6","7","L.jpg","N.jpg","0","1","0","",""
"","feedback","","html-keyboard-response","347","261042","0.0-1.0-483.0-0.0","0","0","22620","","null","","","null","53","","","","","","","","","","","","","","","",""
"","time_out","","html-keyboard-response","348","263045","0.0-1.0-485.0-0.0","0","0","22620","","null","","","null","53","","","","","","","","","","","","","","","",""
"","ITI","","html-keyboard-response","349","264048","0.0-1.0-486.0","0","0","22620","","null","","","null","53","","","","","","","","","","","","","","","NaN",""
"","S1","","html-keyboard-response","350","264300","0.0-1.0-488.0","0","0","22620","","null","","","null","54","","","","","","","","","","","","","","","",""
"","ISI","","html-keyboard-response","351","264453","0.0-1.0-489.0","0","0","22620","","null","","","null","54","NaN","","","","","","","","","","","","","","",""
"","S2","","html-keyboard-response","352","264705","0.0-1.0-490.0","0","0","22620","","null","","","null","54","","NaN","","","","","","","","","","","","","",""
"","response","","html-keyboard-response","353","265087","0.0-1.0-491.0-0.0","0","0","22620","","381","","","75","54","","","2","54","training","adjacent","BA","2","1","P.jpg","Q.jpg","0","0","1","",""
"","feedback","","html-keyboard-response","354","266089","0.0-1.0-492.0-0.0","0","0","22620","","null","","","null","54","","","","","","","","","","","","","","","",""
"","ITI","","html-keyboard-response","355","267092","0.0-1.0-495.0","0","0","22620","","null","","","null","54","","","","","","","","","","","","","","","NaN",""
"","S1","","html-keyboard-response","356","267345","0.0-1.0-497.0","0","0","22620","","null","","","null","55","","","","","","","","","","","","","","","",""
"","ISI","","html-keyboard-response","357","267497","0.0-1.0-498.0","0","0","22620","","null","","","null","55","NaN","","","","","","","","","","","","","","",""
"","S2","","html-keyboard-response","358","267751","0.0-1.0-499.0","0","0","22620","","null","","","null","55","","NaN","","","","","","","","","","","","","",""
"","response","","html-keyboard-response","359","268103","0.0-1.0-500.0-0.0","0","0","22620","","351","","","75","55","","","2","55","training","adjacent","CB","3","2","O.jpg","P.jpg","0","0","1","",""
"","feedback","","html-keyboard-response","360","269106","0.0-1.0-501.0-0.0","0","0","22620","","null","","","null","55","","","","","","","","","","","","","","","",""
"","ITI","","html-keyboard-response","361","270108","0.0-1.0-504.0","0","0","22620","","null","","","null","55","","","","","","","","","","","","","","","NaN",""
"","S1","","html-keyboard-response","362","270361","0.0-1.0-506.0","0","0","22620","","null","","","null","56","","","","","","","","","","","","","","","",""
"","ISI","","html-keyboard-response","363","270513","0.0-1.0-507.0","0","0","22620","","null","","","null","56","NaN","","","","","","","","","","","","","","",""
"","S2","","html-keyboard-response","364","270765","0.0-1.0-508.0","0","0","22620","","null","","","null","56","","NaN","","","","","","","","","","","","","",""
"","response","","html-keyboard-response","365","271071","0.0-1.0-509.0-0.0","0","0","22620","","304","","","68","56","","","2","56","training","adjacent","DE","4","5","R.jpg","M.jpg","1","1","1","",""
"","feedback","","html-keyboard-response","366","272074","0.0-1.0-510.0-0.0","0","0","22620","","null","","","null","56","","","","","","","","","","","","","","","",""
"","ITI","","html-keyboard-response","367","273076","0.0-1.0-513.0","0","0","22620","","null","","","null","56","","","","","","","","","","","","","","","NaN",""
"","S1","","html-keyboard-response","368","273328","0.0-1.0-515.0","0","0","22620","","null","","","null","57","","","","","","","","","","","","","","","",""
"","ISI","","html-keyboard-response","369","273482","0.0-1.0-516.0","0","0","22620","","null","","","null","57","NaN","","","","","","","","","","","","","","",""
"","S2","","html-keyboard-response","370","273734","0.0-1.0-517.0","0","0","22620","","null","","","null","57","","NaN","","","","","","","","","","","","","",""
"","response","","html-keyboard-response","371","274023","0.0-1.0-518.0-0.0","0","0","22620","","287","","","68","57","","","2","57","training","adjacent","CD","3","4","O.jpg","R.jpg","1","1","1","",""
"","feedback","","html-keyboard-response","372","275026","0.0-1.0-519.0-0.0","0","0","22620","","null","","","null","57","","","","","","","","","","","","","","","",""
"","ITI","","html-keyboard-response","373","276028","0.0-1.0-522.0","0","0","22620","","null","","","null","57","","","","","","","","","","","","","","","NaN",""
"","S1","","html-keyboard-response","374","276280","0.0-1.0-524.0","0","0","22620","","null","","","null","58","","","","","","","","","","","","","","","",""
"","ISI","","html-keyboard-response","375","276433","0.0-1.0-525.0","0","0","22620","","null","","","null","58","NaN","","","","","","","","","","","","","","",""
"","S2","","html-keyboard-response","376","276687","0.0-1.0-526.0","0","0","22620","","null","","","null","58","","NaN","","","","","","","","","","","","","",""
"","response","","html-keyboard-response","377","276975","0.0-1.0-527.0-0.0","0","0","22620","","287","","","75","58","","","2","58","training","adjacent","DC","4","3","R.jpg","O.jpg","0","0","1","",""
"","feedback","","html-keyboard-response","378","277978","0.0-1.0-528.0-0.0","0","0","22620","","null","","","null","58","","","","","","","","","","","","","","","",""
"","ITI","","html-keyboard-response","379","278981","0.0-1.0-531.0","0","0","22620","","null","","","null","58","","","","","","","","","","","","","","","NaN",""
"","S1","","html-keyboard-response","380","279233","0.0-1.0-533.0","0","0","22620","","null","","","null","59","","","","","","","","","","","","","","","",""
"","ISI","","html-keyboard-response","381","279385","0.0-1.0-534.0","0","0","22620","","null","","","null","59","NaN","","","","","","","","","","","","","","",""
"","S2","","html-keyboard-response","382","279638","0.0-1.0-535.0","0","0","22620","","null","","","null","59","","NaN","","","","","","","","","","","","","",""
"","response","","html-keyboard-response","383","279927","0.0-1.0-536.0-0.0","0","0","22620","","288","","","75","59","","","2","59","training","adjacent","CD","3","4","O.jpg","R.jpg","0","1","0","",""
"","feedback","","html-keyboard-response","384","280930","0.0-1.0-537.0-0.0","0","0","22620","","null","","","null","59","","","","","","","","","","","","","","","",""
"","time_out","","html-keyboard-response","385","282933","0.0-1.0-539.0-0.0","0","0","22620","","null","","","null","59","","","","","","","","","","","","","","","",""
"","ITI","","html-keyboard-response","386","283935","0.0-1.0-540.0","0","0","22620","","null","","","null","59","","","","","","","","","","","","","","","NaN",""
"","S1","","html-keyboard-response","387","284187","0.0-1.0-542.0","0","0","22620","","null","","","null","60","","","","","","","","","","","","","","","",""
"","ISI","","html-keyboard-response","388","284339","0.0-1.0-543.0","0","0","22620","","null","","","null","60","NaN","","","","","","","","","","","","","","",""
"","S2","","html-keyboard-response","389","284606","0.0-1.0-544.0","0","0","22620","","null","","","null","60","","NaN","","","","","","","","","","","","","",""
"","response","","html-keyboard-response","390","284815","0.0-1.0-545.0-0.0","0","0","22620","","208","","","68","60","","","2","60","training","adjacent","DE","4","5","R.jpg","M.jpg","1","1","1","",""
"","feedback","","html-keyboard-response","391","285818","0.0-1.0-546.0-0.0","0","0","22620","","null","","","null","60","","","","","","","","","","","","","","","",""
"","ITI","","html-keyboard-response","392","286820","0.0-1.0-549.0","0","0","22620","","null","","","null","60","","","","","","","","","","","","","","","NaN",""
"","S1","","html-keyboard-response","393","287080","0.0-1.0-551.0","0","0","22620","","null","","","null","61","","","","","","","","","","","","","","","",""
"","ISI","","html-keyboard-response","394","287235","0.0-1.0-552.0","0","0","22620","","null","","","null","61","NaN","","","","","","","","","","","","","","",""
"","S2","","html-keyboard-response","395","287487","0.0-1.0-553.0","0","0","22620","","null","","","null","61","","NaN","","","","","","","","","","","","","",""
"","response","","html-keyboard-response","396","287743","0.0-1.0-554.0-0.0","0","0","22620","","254","","","75","61","","","2","61","training","adjacent","DC","4","3","R.jpg","O.jpg","0","0","1","",""
"","feedback","","html-keyboard-response","397","288746","0.0-1.0-555.0-0.0","0","0","22620","","null","","","null","61","","","","","","","","","","","","","","","",""
"","ITI","","html-keyboard-response","398","289749","0.0-1.0-558.0","0","0","22620","","null","","","null","61","","","","","","","","","","","","","","","NaN",""
"","S1","","html-keyboard-response","399","290002","0.0-1.0-560.0","0","0","22620","","null","","","null","62","","","","","","","","","","","","","","","",""
"","ISI","","html-keyboard-response","400","290154","0.0-1.0-561.0","0","0","22620","","null","","","null","62","NaN","","","","","","","","","","","","","","",""
"","S2","","html-keyboard-response","401","290406","0.0-1.0-562.0","0","0","22620","","null","","","null","62","","NaN","","","","","","","","","","","","","",""
"","response","","html-keyboard-response","402","290719","0.0-1.0-563.0-0.0","0","0","22620","","311","","","68","62","","","2","62","training","adjacent","BC","2","3","P.jpg","O.jpg","1","1","1","",""
"","feedback","","html-keyboard-response","403","291723","0.0-1.0-564.0-0.0","0","0","22620","","null","","","null","62","","","","","","","","","","","","","","","",""
"","ITI","","html-keyboard-response","404","292725","0.0-1.0-567.0","0","0","22620","","null","","","null","62","","","","","","","","","","","","","","","NaN",""
"","S1","","html-keyboard-response","405","292978","0.0-1.0-569.0","0","0","22620","","null","","","null","63","","","","","","","","","","","","","","","",""
"","ISI","","html-keyboard-response","406","293130","0.0-1.0-570.0","0","0","22620","","null","","","null","63","NaN","","","","","","","","","","","","","","",""
"","S2","","html-keyboard-response","407","293383","0.0-1.0-571.0","0","0","22620","","null","","","null","63","","NaN","","","","","","","","","","","","","",""
"","response","","html-keyboard-response","408","293895","0.0-1.0-572.0-0.0","0","0","22620","","511","","","75","63","","","2","63","training","adjacent","ED","5","4","M.jpg","R.jpg","0","0","1","",""
"","feedback","","html-keyboard-response","409","294898","0.0-1.0-573.0-0.0","0","0","22620","","null","","","null","63","","","","","","","","","","","","","","","",""
"","ITI","","html-keyboard-response","410","295900","0.0-1.0-576.0","0","0","22620","","null","","","null","63","","","","","","","","","","","","","","","NaN",""
"","S1","","html-keyboard-response","411","296153","0.0-1.0-578.0","0","0","22620","","null","","","null","64","","","","","","","","","","","","","","","",""
"","ISI","","html-keyboard-response","412","296305","0.0-1.0-579.0","0","0","22620","","null","","","null","64","NaN","","","","","","","","","","","","","","",""
"","S2","","html-keyboard-response","413","296558","0.0-1.0-580.0","0","0","22620","","null","","","null","64","","NaN","","","","","","","","","","","","","",""
"","response","","html-keyboard-response","414","296887","0.0-1.0-581.0-0.0","0","0","22620","","328","","","68","64","","","2","64","training","adjacent","AB","1","2","Q.jpg","P.jpg","1","1","1","",""
"","feedback","","html-keyboard-response","415","297890","0.0-1.0-582.0-0.0","0","0","22620","","null","","","null","64","","","","","","","","","","","","","","","",""
"","ITI","","html-keyboard-response","416","298893","0.0-1.0-585.0","0","0","22620","","null","","","null","64","","","","","","","","","","","","","","","NaN",""
"","S1","","html-keyboard-response","417","299145","0.0-1.0-587.0","0","0","22620","","null","","","null","65","","","","","","","","","","","","","","","",""
"","ISI","","html-keyboard-response","418","299298","0.0-1.0-588.0","0","0","22620","","null","","","null","65","NaN","","","","","","","","","","","","","","",""
"","S2","","html-keyboard-response","419","299550","0.0-1.0-589.0","0","0","22620","","null","","","null","65","","NaN","","","","","","","","","","","","","",""
"","response","","html-keyboard-response","420","299920","0.0-1.0-590.0-0.0","0","0","22620","","368","","","75","65","","","2","65","training","adjacent","GF","7","6","N.jpg","L.jpg","0","0","1","",""
"","feedback","","html-keyboard-response","421","300923","0.0-1.0-591.0-0.0","0","0","22620","","null","","","null","65","","","","","","","","","","","","","","","",""
"","ITI","","html-keyboard-response","422","301926","0.0-1.0-594.0","0","0","22620","","null","","","null","65","","","","","","","","","","","","","","","NaN",""
"","S1","","html-keyboard-response","423","302179","0.0-1.0-596.0","0","0","22620","","null","","","null","66","","","","","","","","","","","","","","","",""
"","ISI","","html-keyboard-response","424","302331","0.0-1.0-597.0","0","0","22620","","null","","","null","66","NaN","","","","","","","","","","","","","","",""
"","S2","","html-keyboard-response","425","302583","0.0-1.0-598.0","0","0","22620","","null","","","null","66","","NaN","","","","","","","","","","","","","",""
"","response","","html-keyboard-response","426","303255","0.0-1.0-599.0-0.0","0","0","22620","","671","","","68","66","","","2","66","training","adjacent","BA","2","1","P.jpg","Q.jpg","1","0","0","",""
"","feedback","","html-keyboard-response","427","304258","0.0-1.0-600.0-0.0","0","0","22620","","null","","","null","66","","","","","","","","","","","","","","","",""
"","time_out","","html-keyboard-response","428","306262","0.0-1.0-602.0-0.0","0","0","22620","","null","","","null","66","","","","","","","","","","","","","","","",""
"","ITI","","html-keyboard-response","429","307265","0.0-1.0-603.0","0","0","22620","","null","","","null","66","","","","","","","","","","","","","","","NaN",""
"","S1","","html-keyboard-response","430","307531","0.0-1.0-605.0","0","0","22620","","null","","","null","67","","","","","","","","","","","","","","","",""
"","ISI","","html-keyboard-response","431","307683","0.0-1.0-606.0","0","0","22620","","null","","","null","67","NaN","","","","","","","","","","","","","","",""
"","S2","","html-keyboard-response","432","307937","0.0-1.0-607.0","0","0","22620","","null","","","null","67","","NaN","","","","","","","","","","","","","",""
"","response","","html-keyboard-response","433","308207","0.0-1.0-608.0-0.0","0","0","22620","","269","","","75","67","","","2","67","training","adjacent","ED","5","4","M.jpg","R.jpg","0","0","1","",""
"","feedback","","html-keyboard-response","434","309210","0.0-1.0-609.0-0.0","0","0","22620","","null","","","null","67","","","","","","","","","","","","","","","",""
"","ITI","","html-keyboard-response","435","310213","0.0-1.0-612.0","0","0","22620","","null","","","null","67","","","","","","","","","","","","","","","NaN",""
"","S1","","html-keyboard-response","436","310466","0.0-1.0-614.0","0","0","22620","","null","","","null","68","","","","","","","","","","","","","","","",""
"","ISI","","html-keyboard-response","437","310618","0.0-1.0-615.0","0","0","22620","","null","","","null","68","NaN","","","","","","","","","","","","","","",""
"","S2","","html-keyboard-response","438","310871","0.0-1.0-616.0","0","0","22620","","null","","","null","68","","NaN","","","","","","","","","","","","","",""
"","response","","html-keyboard-response","439","311263","0.0-1.0-617.0-0.0","0","0","22620","","391","","","75","68","","","2","68","training","adjacent","FE","6","5","L.jpg","M.jpg","0","0","1","",""
"","feedback","","html-keyboard-response","440","312266","0.0-1.0-618.0-0.0","0","0","22620","","null","","","null","68","","","","","","","","","","","","","","","",""
"","ITI","","html-keyboard-response","441","313269","0.0-1.0-621.0","0","0","22620","","null","","","null","68","","","","","","","","","","","","","","","NaN",""
"","S1","","html-keyboard-response","442","313522","0.0-1.0-623.0","0","0","22620","","null","","","null","69","","","","","","","","","","","","","","","",""
"","ISI","","html-keyboard-response","443","313674","0.0-1.0-624.0","0","0","22620","","null","","","null","69","NaN","","","","","","","","","","","","","","",""
"","S2","","html-keyboard-response","444","313927","0.0-1.0-625.0","0","0","22620","","null","","","null","69","","NaN","","","","","","","","","","","","","",""
"","response","","html-keyboard-response","445","314272","0.0-1.0-626.0-0.0","0","0","22620","","343","","","68","69","","","2","69","training","adjacent","AB","1","2","Q.jpg","P.jpg","1","1","1","",""
"","feedback","","html-keyboard-response","446","315275","0.0-1.0-627.0-0.0","0","0","22620","","null","","","null","69","","","","","","","","","","","","","","","",""
"","ITI","","html-keyboard-response","447","316277","0.0-1.0-630.0","0","0","22620","","null","","","null","69","","","","","","","","","","","","","","","NaN",""
"","S1","","html-keyboard-response","448","316530","0.0-1.0-632.0","0","0","22620","","null","","","null","70","","","","","","","","","","","","","","","",""
"","ISI","","html-keyboard-response","449","316695","0.0-1.0-633.0","0","0","22620","","null","","","null","70","NaN","","","","","","","","","","","","","","",""
"","S2","","html-keyboard-response","450","316947","0.0-1.0-634.0","0","0","22620","","null","","","null","70","","NaN","","","","","","","","","","","","","",""
"","response","","html-keyboard-response","451","317559","0.0-1.0-635.0-0.0","0","0","22620","","611","","","68","70","","","2","70","training","adjacent","CB","3","2","O.jpg","P.jpg","1","0","0","",""
"","feedback","","html-keyboard-response","452","318562","0.0-1.0-636.0-0.0","0","0","22620","","null","","","null","70","","","","","","","","","","","","","","","",""
"","time_out","","html-keyboard-response","453","320565","0.0-1.0-638.0-0.0","0","0","22620","","null","","","null","70","","","","","","","","","","","","","","","",""
"","ITI","","html-keyboard-response","454","321567","0.0-1.0-639.0","0","0","22620","","null","","","null","70","","","","","","","","","","","","","","","NaN",""
"","S1","","html-keyboard-response","455","321820","0.0-1.0-641.0","0","0","22620","","null","","","null","71","","","","","","","","","","","","","","","",""
"","ISI","","html-keyboard-response","456","321973","0.0-1.0-642.0","0","0","22620","","18","","","75","71","k","","","","","","","","","","","","","","",""
"","S2","","html-keyboard-response","457","322226","0.0-1.0-643.0","0","0","22620","","null","","","null","71","","NaN","","","","","","","","","","","","","",""
"","response","","html-keyboard-response","458","322511","0.0-1.0-644.0-0.0","0","0","22620","","283","","","75","71","","","2","71","training","adjacent","CD","3","4","O.jpg","R.jpg","0","1","0","",""
"","feedback","","html-keyboard-response","459","323514","0.0-1.0-645.0-0.0","0","0","22620","","null","","","null","71","","","","","","","","","","","","","","","",""
"","time_out","","html-keyboard-response","460","325518","0.0-1.0-647.0-0.0","0","0","22620","","null","","","null","71","","","","","","","","","","","","","","","",""
"","ITI","","html-keyboard-response","461","326520","0.0-1.0-648.0","0","0","22620","","null","","","null","71","","","","","","","","","","","","","","","NaN",""
"","S1","","html-keyboard-response","462","326773","0.0-1.0-650.0","0","0","22620","","null","","","null","72","","","","","","","","","","","","","","","",""
"","ISI","","html-keyboard-response","463","326925","0.0-1.0-651.0","0","0","22620","","null","","","null","72","NaN","","","","","","","","","","","","","","",""
"","S2","","html-keyboard-response","464","327177","0.0-1.0-652.0","0","0","22620","","null","","","null","72","","NaN","","","","","","","","","","","","","",""
"","response","","html-keyboard-response","465","327391","0.0-1.0-653.0-0.0","0","0","22620","","212","","","68","72","","","2","72","training","adjacent","GF","7","6","N.jpg","L.jpg","1","0","0","",""
"","feedback","","html-keyboard-response","466","328394","0.0-1.0-654.0-0.0","0","0","22620","","null","","","null","72","","","","","","","","","","","","","","","",""
"","time_out","","html-keyboard-response","467","330397","0.0-1.0-656.0-0.0","0","0","22620","","null","","","null","72","","","","","","","","","","","","","","","",""
"","ITI","","html-keyboard-response","468","331400","0.0-1.0-657.0","0","0","22620","","null","","","null","72","","","","","","","","","","","","","","","NaN",""
"","S1","","html-keyboard-response","469","331653","0.0-1.0-659.0","0","0","22620","","null","","","null","73","","","","","","","","","","","","","","","",""
"","ISI","","html-keyboard-response","470","331805","0.0-1.0-660.0","0","0","22620","","null","","","null","73","NaN","","","","","","","","","","","","","","",""
"","S2","","html-keyboard-response","471","332058","0.0-1.0-661.0","0","0","22620","","null","","","null","73","","NaN","","","","","","","","","","","","","",""
"","response","","html-keyboard-response","472","332351","0.0-1.0-662.0-0.0","0","0","22620","","292","","","68","73","","","2","73","training","adjacent","EF","5","6","M.jpg","L.jpg","1","1","1","",""
"","feedback","","html-keyboard-response","473","333365","0.0-1.0-663.0-0.0","0","0","22620","","null","","","null","73","","","","","","","","","","","","","","","",""
"","ITI","","html-keyboard-response","474","334367","0.0-1.0-666.0","0","0","22620","","null","","","null","73","","","","","","","","","","","","","","","NaN",""
"","S1","","html-keyboard-response","475","334620","0.0-1.0-668.0","0","0","22620","","null","","","null","74","","","","","","","","","","","","","","","",""
"","ISI","","html-keyboard-response","476","334772","0.0-1.0-669.0","0","0","22620","","null","","","null","74","NaN","","","","","","","","","","","","","","",""
"","S2","","html-keyboard-response","477","335024","0.0-1.0-670.0","0","0","22620","","null","","","null","74","","NaN","","","","","","","","","","","","","",""
"","response","","html-keyboard-response","478","335367","0.0-1.0-671.0-0.0","0","0","22620","","341","","","75","74","","","2","74","training","adjacent","DE","4","5","R.jpg","M.jpg","0","1","0","",""
"","feedback","","html-keyboard-response","479","336370","0.0-1.0-672.0-0.0","0","0","22620","","null","","","null","74","","","","","","","","","","","","","","","",""
"","time_out","","html-keyboard-response","480","338372","0.0-1.0-674.0-0.0","0","0","22620","","null","","","null","74","","","","","","","","","","","","","","","",""
"","ITI","","html-keyboard-response","481","339374","0.0-1.0-675.0","0","0","22620","","null","","","null","74","","","","","","","","","","","","","","","NaN",""
"","S1","","html-keyboard-response","482","339632","0.0-1.0-677.0","0","0","22620","","null","","","null","75","","","","","","","","","","","","","","","",""
"","ISI","","html-keyboard-response","483","339785","0.0-1.0-678.0","0","0","22620","","null","","","null","75","NaN","","","","","","","","","","","","","","",""
"","S2","","html-keyboard-response","484","340037","0.0-1.0-679.0","0","0","22620","","null","","","null","75","","NaN","","","","","","","","","","","","","",""
"","response","","html-keyboard-response","485","340135","0.0-1.0-680.0-0.0","0","0","22620","","96","","","75","75","","","2","75","training","adjacent","DC","4","3","R.jpg","O.jpg","0","0","1","",""
"","feedback","","html-keyboard-response","486","341139","0.0-1.0-681.0-0.0","0","0","22620","","null","","","null","75","","","","","","","","","","","","","","","",""
"","ITI","","html-keyboard-response","487","342141","0.0-1.0-684.0","0","0","22620","","null","","","null","75","","","","","","","","","","","","","","","NaN",""
"","S1","","html-keyboard-response","488","342393","0.0-1.0-686.0","0","0","22620","","null","","","null","76","","","","","","","","","","","","","","","",""
"","ISI","","html-keyboard-response","489","342545","0.0-1.0-687.0","0","0","22620","","null","","","null","76","NaN","","","","","","","","","","","","","","",""
"","S2","","html-keyboard-response","490","342797","0.0-1.0-688.0","0","0","22620","","null","","","null","76","","NaN","","","","","","","","","","","","","",""
"","response","","html-keyboard-response","491","343231","0.0-1.0-689.0-0.0","0","0","22620","","432","","","75","76","","","2","76","training","adjacent","BA","2","1","P.jpg","Q.jpg","0","0","1","",""
"","feedback","","html-keyboard-response","492","344234","0.0-1.0-690.0-0.0","0","0","22620","","null","","","null","76","","","","","","","","","","","","","","","",""
"","ITI","","html-keyboard-response","493","345236","0.0-1.0-693.0","0","0","22620","","null","","","null","76","","","","","","","","","","","","","","","NaN",""
"","S1","","html-keyboard-response","494","345488","0.0-1.0-695.0","0","0","22620","","null","","","null","77","","","","","","","","","","","","","","","",""
"","ISI","","html-keyboard-response","495","345641","0.0-1.0-696.0","0","0","22620","","null","","","null","77","NaN","","","","","","","","","","","","","","",""
"","S2","","html-keyboard-response","496","345894","0.0-1.0-697.0","0","0","22620","","null","","","null","77","","NaN","","","","","","","","","","","","","",""
"","response","","html-keyboard-response","497","346263","0.0-1.0-698.0-0.0","0","0","22620","","367","","","68","77","","","2","77","training","adjacent","BC","2","3","P.jpg","O.jpg","1","1","1","",""
"","feedback","","html-keyboard-response","498","347265","0.0-1.0-699.0-0.0","0","0","22620","","null","","","null","77","","","","","","","","","","","","","","","",""
"","ITI","","html-keyboard-response","499","348269","0.0-1.0-702.0","0","0","22620","","null","","","null","77","","","","","","","","","","","","","","","NaN",""
"","S1","","html-keyboard-response","500","348521","0.0-1.0-704.0","0","0","22620","","null","","","null","78","","","","","","","","","","","","","","","",""
"","ISI","","html-keyboard-response","501","348673","0.0-1.0-705.0","0","0","22620","","null","","","null","78","NaN","","","","","","","","","","","","","","",""
"","S2","","html-keyboard-response","502","348925","0.0-1.0-706.0","0","0","22620","","null","","","null","78","","NaN","","","","","","","","","","","","","",""
"","response","","html-keyboard-response","503","349239","0.0-1.0-707.0-0.0","0","0","22620","","312","","","68","78","","","2","78","training","adjacent","AB","1","2","Q.jpg","P.jpg","1","1","1","",""
"","feedback","","html-keyboard-response","504","350242","0.0-1.0-708.0-0.0","0","0","22620","","null","","","null","78","","","","","","","","","","","","","","","",""
"","ITI","","html-keyboard-response","505","351245","0.0-1.0-711.0","0","0","22620","","null","","","null","78","","","","","","","","","","","","","","","NaN",""
"","S1","","html-keyboard-response","506","351498","0.0-1.0-713.0","0","0","22620","","null","","","null","79","","","","","","","","","","","","","","","",""
"","ISI","","html-keyboard-response","507","351650","0.0-1.0-714.0","0","0","22620","","null","","","null","79","NaN","","","","","","","","","","","","","","",""
"","S2","","html-keyboard-response","508","351902","0.0-1.0-715.0","0","0","22620","","null","","","null","79","","NaN","","","","","","","","","","","","","",""
"","response","","html-keyboard-response","509","352471","0.0-1.0-716.0-0.0","0","0","22620","","567","","","75","79","","","2","79","training","adjacent","DC","4","3","R.jpg","O.jpg","0","0","1","",""
"","feedback","","html-keyboard-response","510","353474","0.0-1.0-717.0-0.0","0","0","22620","","null","","","null","79","","","","","","","","","","","","","","","",""
"","ITI","","html-keyboard-response","511","354476","0.0-1.0-720.0","0","0","22620","","null","","","null","79","","","","","","","","","","","","","","","NaN",""
"","S1","","html-keyboard-response","512","354728","0.0-1.0-722.0","0","0","22620","","null","","","null","80","","","","","","","","","","","","","","","",""
"","ISI","","html-keyboard-response","513","354885","0.0-1.0-723.0","0","0","22620","","null","","","null","80","NaN","","","","","","","","","","","","","","",""
"","S2","","html-keyboard-response","514","355138","0.0-1.0-724.0","0","0","22620","","null","","","null","80","","NaN","","","","","","","","","","","","","",""
"","response","","html-keyboard-response","515","355368","0.0-1.0-725.0-0.0","0","0","22620","","228","","","75","80","","","2","80","training","adjacent","DE","4","5","R.jpg","M.jpg","0","1","0","",""
"","feedback","","html-keyboard-response","516","356371","0.0-1.0-726.0-0.0","0","0","22620","","null","","","null","80","","","","","","","","","","","","","","","",""
"","time_out","","html-keyboard-response","517","358374","0.0-1.0-728.0-0.0","0","0","22620","","null","","","null","80","","","","","","","","","","","","","","","",""
"","ITI","","html-keyboard-response","518","359377","0.0-1.0-729.0","0","0","22620","","null","","","null","80","","","","","","","","","","","","","","","NaN",""
"","S1","","html-keyboard-response","519","359630","0.0-1.0-731.0","0","0","22620","","null","","","null","81","","","","","","","","","","","","","","","",""
"","ISI","","html-keyboard-response","520","359784","0.0-1.0-732.0","0","0","22620","","null","","","null","81","NaN","","","","","","","","","","","","","","",""
"","S2","","html-keyboard-response","521","360037","0.0-1.0-733.0","0","0","22620","","null","","","null","81","","NaN","","","","","","","","","","","","","",""
"","response","","html-keyboard-response","522","360135","0.0-1.0-734.0-0.0","0","0","22620","","96","","","75","81","","","2","81","training","adjacent","CB","3","2","O.jpg","P.jpg","0","0","1","",""
"","feedback","","html-keyboard-response","523","361137","0.0-1.0-735.0-0.0","0","0","22620","","null","","","null","81","","","","","","","","","","","","","","","",""
"","ITI","","html-keyboard-response","524","362139","0.0-1.0-738.0","0","0","22620","","null","","","null","81","","","","","","","","","","","","","","","NaN",""
"","S1","","html-keyboard-response","525","362392","0.0-1.0-740.0","0","0","22620","","null","","","null","82","","","","","","","","","","","","","","","",""
"","ISI","","html-keyboard-response","526","362544","0.0-1.0-741.0","0","0","22620","","null","","","null","82","NaN","","","","","","","","","","","","","","",""
"","S2","","html-keyboard-response","527","362796","0.0-1.0-742.0","0","0","22620","","null","","","null","82","","NaN","","","","","","","","","","","","","",""
"","response","","html-keyboard-response","528","362831","0.0-1.0-743.0-0.0","0","0","22620","","33","","","68","82","","","2","82","training","adjacent","AB","1","2","Q.jpg","P.jpg","1","1","1","",""
"","feedback","","html-keyboard-response","529","363834","0.0-1.0-744.0-0.0","0","0","22620","","null","","","null","82","","","","","","","","","","","","","","","",""
"","ITI","","html-keyboard-response","530","364837","0.0-1.0-747.0","0","0","22620","","null","","","null","82","","","","","","","","","","","","","","","NaN",""
"","S1","","html-keyboard-response","531","365090","0.0-1.0-749.0","0","0","22620","","null","","","null","83","","","","","","","","","","","","","","","",""
"","ISI","","html-keyboard-response","532","365253","0.0-1.0-750.0","0","0","22620","","null","","","null","83","NaN","","","","","","","","","","","","","","",""
"","S2","","html-keyboard-response","533","365515","0.0-1.0-751.0","0","0","22620","","null","","","null","83","","NaN","","","","","","","","","","","","","",""
"","response","","html-keyboard-response","534","365935","0.0-1.0-752.0-0.0","0","0","22620","","418","","","75","83","","","2","83","training","adjacent","FG","6","7","L.jpg","N.jpg","0","1","0","",""
"","feedback","","html-keyboard-response","535","366938","0.0-1.0-753.0-0.0","0","0","22620","","null","","","null","83","","","","","","","","","","","","","","","",""
"","time_out","","html-keyboard-response","536","368941","0.0-1.0-755.0-0.0","0","0","22620","","null","","","null","83","","","","","","","","","","","","","","","",""
"","ITI","","html-keyboard-response","537","369944","0.0-1.0-756.0","0","0","22620","","null","","","null","83","","","","","","","","","","","","","","","NaN",""
"","S1","","html-keyboard-response","538","370196","0.0-1.0-758.0","0","0","22620","","null","","","null","84","","","","","","","","","","","","","","","",""
"","ISI","","html-keyboard-response","539","370348","0.0-1.0-759.0","0","0","22620","","null","","","null","84","NaN","","","","","","","","","","","","","","",""
"","S2","","html-keyboard-response","540","370601","0.0-1.0-760.0","0","0","22620","","null","","","null","84","","NaN","","","","","","","","","","","","","",""
"","response","","html-keyboard-response","541","370999","0.0-1.0-761.0-0.0","0","0","22620","","397","","","75","84","","","2","84","training","adjacent","FG","6","7","L.jpg","N.jpg","0","1","0","",""
"","feedback","","html-keyboard-response","542","372002","0.0-1.0-762.0-0.0","0","0","22620","","null","","","null","84","","","","","","","","","","","","","","","",""
"","time_out","","html-keyboard-response","543","374005","0.0-1.0-764.0-0.0","0","0","22620","","null","","","null","84","","","","","","","","","","","","","","","",""
"","ITI","","html-keyboard-response","544","375008","0.0-1.0-765.0","0","0","22620","","null","","","null","84","","","","","","","","","","","","","","","NaN",""
"","S1","","html-keyboard-response","545","375260","0.0-1.0-767.0","0","0","22620","","null","","","null","85","","","","","","","","","","","","","","","",""
"","ISI","","html-keyboard-response","546","375413","0.0-1.0-768.0","0","0","22620","","null","","","null","85","NaN","","","","","","","","","","","","","","",""
"","S2","","html-keyboard-response","547","375666","0.0-1.0-769.0","0","0","22620","","null","","","null","85","","NaN","","","","","","","","","","","","","",""
"","response","","html-keyboard-response","548","375991","0.0-1.0-770.0-0.0","0","0","22620","","324","","","75","85","","","2","85","training","adjacent","FE","6","5","L.jpg","M.jpg","0","0","1","",""
"","feedback","","html-keyboard-response","549","376995","0.0-1.0-771.0-0.0","0","0","22620","","null","","","null","85","","","","","","","","","","","","","","","",""
"","ITI","","html-keyboard-response","550","377998","0.0-1.0-774.0","0","0","22620","","null","","","null","85","","","","","","","","","","","","","","","NaN",""
"","S1","","html-keyboard-response","551","378250","0.0-1.0-776.0","0","0","22620","","null","","","null","86","","","","","","","","","","","","","","","",""
"","ISI","","html-keyboard-response","552","378402","0.0-1.0-777.0","0","0","22620","","null","","","null","86","NaN","","","","","","","","","","","","","","",""
"","S2","","html-keyboard-response","553","378655","0.0-1.0-778.0","0","0","22620","","null","","","null","86","","NaN","","","","","","","","","","","","","",""
"","response","","html-keyboard-response","554","379031","0.0-1.0-779.0-0.0","0","0","22620","","375","","","75","86","","","2","86","training","adjacent","GF","7","6","N.jpg","L.jpg","0","0","1","",""
"","feedback","","html-keyboard-response","555","380034","0.0-1.0-780.0-0.0","0","0","22620","","null","","","null","86","","","","","","","","","","","","","","","",""
"","ITI","","html-keyboard-response","556","381036","0.0-1.0-783.0","0","0","22620","","null","","","null","86","","","","","","","","","","","","","","","NaN",""
"","S1","","html-keyboard-response","557","381288","0.0-1.0-785.0","0","0","22620","","null","","","null","87","","","","","","","","","","","","","","","",""
"","ISI","","html-keyboard-response","558","381441","0.0-1.0-786.0","0","0","22620","","null","","","null","87","NaN","","","","","","","","","","","","","","",""
"","S2","","html-keyboard-response","559","381694","0.0-1.0-787.0","0","0","22620","","null","","","null","87","","NaN","","","","","","","","","","","","","",""
"","response","","html-keyboard-response","560","382031","0.0-1.0-788.0-0.0","0","0","22620","","336","","","68","87","","","2","87","training","adjacent","GF","7","6","N.jpg","L.jpg","1","0","0","",""
"","feedback","","html-keyboard-response","561","383034","0.0-1.0-789.0-0.0","0","0","22620","","null","","","null","87","","","","","","","","","","","","","","","",""
"","time_out","","html-keyboard-response","562","385037","0.0-1.0-791.0-0.0","0","0","22620","","null","","","null","87","","","","","","","","","","","","","","","",""
"","ITI","","html-keyboard-response","563","386038","0.0-1.0-792.0","0","0","22620","","null","","","null","87","","","","","","","","","","","","","","","NaN",""
"","S1","","html-keyboard-response","564","386302","0.0-1.0-794.0","0","0","22620","","null","","","null","88","","","","","","","","","","","","","","","",""
"","ISI","","html-keyboard-response","565","386454","0.0-1.0-795.0","0","0","22620","","null","","","null","88","NaN","","","","","","","","","","","","","","",""
"","S2","","html-keyboard-response","566","386707","0.0-1.0-796.0","0","0","22620","","null","","","null","88","","NaN","","","","","","","","","","","","","",""
"","response","","html-keyboard-response","567","386831","0.0-1.0-797.0-0.0","0","0","22620","","123","","","75","88","","","2","88","training","adjacent","BC","2","3","P.jpg","O.jpg","0","1","0","",""
"","feedback","","html-keyboard-response","568","387834","0.0-1.0-798.0-0.0","0","0","22620","","null","","","null","88","","","","","","","","","","","","","","","",""
"","time_out","","html-keyboard-response","569","389837","0.0-1.0-800.0-0.0","0","0","22620","","null","","","null","88","","","","","","","","","","","","","","","",""
"","ITI","","html-keyboard-response","570","390839","0.0-1.0-801.0","0","0","22620","","null","","","null","88","","","","","","","","","","","","","","","NaN",""
"","S1","","html-keyboard-response","571","391093","0.0-1.0-803.0","0","0","22620","","null","","","null","89","","","","","","","","","","","","","","","",""
"","ISI","","html-keyboard-response","572","391245","0.0-1.0-804.0","0","0","22620","","null","","","null","89","NaN","","","","","","","","","","","","","","",""
"","S2","","html-keyboard-response","573","391498","0.0-1.0-805.0","0","0","22620","","null","","","null","89","","NaN","","","","","","","","","","","","","",""
"","response","","html-keyboard-response","574","391783","0.0-1.0-806.0-0.0","0","0","22620","","283","","","68","89","","","2","89","training","adjacent","CD","3","4","O.jpg","R.jpg","1","1","1","",""
"","feedback","","html-keyboard-response","575","392786","0.0-1.0-807.0-0.0","0","0","22620","","null","","","null","89","","","","","","","","","","","","","","","",""
"","ITI","","html-keyboard-response","576","393788","0.0-1.0-810.0","0","0","22620","","null","","","null","89","","","","","","","","","","","","","","","NaN",""
"","S1","","html-keyboard-response","577","394043","0.0-1.0-812.0","0","0","22620","","null","","","null","90","","","","","","","","","","","","","","","",""
"","ISI","","html-keyboard-response","578","394196","0.0-1.0-813.0","0","0","22620","","null","","","null","90","NaN","","","","","","","","","","","","","","",""
"","S2","","html-keyboard-response","579","394449","0.0-1.0-814.0","0","0","22620","","null","","","null","90","","NaN","","","","","","","","","","","","","",""
"","response","","html-keyboard-response","580","396202","0.0-1.0-815.0-0.0","0","0","22620","","null","","","null","90","","","2","90","training","adjacent","FG","6","7","L.jpg","N.jpg","NaN","1","0","",""
"","too_slow_prompt","","html-keyboard-response","581","397204","0.0-1.0-817.0-0.0","1","0","22620","","null","","","null","","","","","","","","","","","","","","","","",""
"","time_out","","html-keyboard-response","582","399206","0.0-1.0-818.0-0.0","0","0","22620","","null","","","null","90","","","","","","","","","","","","","","","",""
"","ITI","","html-keyboard-response","583","400209","0.0-1.0-819.0","0","0","22620","","null","","","null","90","","","","","","","","","","","","","","","NaN",""
