"success","ttype","start_time","trial_type","trial_index","time_elapsed","internal_node_id","warning","missed_checkup","PID","view_history","rt","responses","repeat_instructions","key_press","index","keypress_isi","keypress_S2","block","trial_num","phase","group_type","pair_type","S1_stim","S2_stim","S1_img","S2_img","S1_chosen","S1_higher","accuracy","keypress_iti","total_bonus_tally"
"true","full_screen","d03082023hr1537","fullscreen","0","11464","0.0-0.0","0","0","78061","","","","","","","","","","","","","","","","","","","","","",""
"","instructions","","instructions","1","35761","0.0-1.0-0.0-0.0","0","0","78061","[{""page_index"":0,""viewing_time"":3366},{""page_index"":1,""viewing_time"":12956},{""page_index"":2,""viewing_time"":6205},{""page_index"":3,""viewing_time"":1768}]","24296","","","","","","","","","","","","","","","","","","","",""
"","comprehension_check","","survey-multi-choice","2","49040","0.0-1.0-0.0-1.0","0","0","78061","","13276","{""Q0"":""True"",""Q1"":""K"",""Q2"":""Only when the screen 'MAKE A CHOICE' is shown"",""Q3"":""Green mark"",""Q4"":""either D or K""}","1","","","","","","","","","","","","","","","","","",""
"","missed_instruction_checkup","","html-keyboard-response","3","50460","0.0-1.0-0.0-2.0-0.0","0","1","78061","","1418","","","32","","","","","","","","","","","","","","","","",""
"","instructions","","instructions","4","64944","0.0-1.0-0.1-0.1","0","0","78061","[{""page_index"":0,""viewing_time"":6782},{""page_index"":1,""viewing_time"":5576},{""page_index"":2,""viewing_time"":1519},{""page_index"":3,""viewing_time"":606}]","14483","","","","","","","","","","","","","","","","","","","",""
"","comprehension_check","","survey-multi-choice","5","73958","0.0-1.0-0.1-1.1","0","0","78061","","9011","{""Q0"":""True"",""Q1"":""K"",""Q2"":""Once the second image appears and while the screen 'MAKE A CHOICE' is shown"",""Q3"":""Green mark"",""Q4"":""either D or K""}","0","","","","","","","","","","","","","","","","","",""
"","start_exp","","html-keyboard-response","6","74907","0.0-1.0-1.0","0","0","78061","","947","","","32","","","","","","","","","","","","","","","","",""
"","S1","","html-keyboard-response","7","75159","0.0-1.0-2.0","0","0","78061","","null","","","null","0","","","","","","","","","","","","","","","",""
"","ISI","","html-keyboard-response","8","75310","0.0-1.0-3.0","0","0","78061","","null","","","null","0","NaN","","","","","","","","","","","","","","",""
"","S2","","html-keyboard-response","9","75564","0.0-1.0-4.0","0","0","78061","","null","","","null","0","","NaN","","","","","","","","","","","","","",""
"","response","","html-keyboard-response","10","76661","0.0-1.0-5.0-0.0","0","0","78061","","1096","","","75","0","","","1","0","training","adjacent","ED","5","4","M.jpg","R.jpg","1","0","0","",""
"","feedback","","html-keyboard-response","11","77670","0.0-1.0-6.0-0.0","0","0","78061","","null","","","null","0","","","","","","","","","","","","","","","",""
"","time_out","","html-keyboard-response","12","79676","0.0-1.0-8.0-0.0","0","0","78061","","null","","","null","0","","","","","","","","","","","","","","","",""
"","ITI","","html-keyboard-response","13","80685","0.0-1.0-9.0","0","0","78061","","null","","","null","0","","","","","","","","","","","","","","","NaN",""
"","S1","","html-keyboard-response","14","80940","0.0-1.0-11.0","0","0","78061","","null","","","null","1","","","","","","","","","","","","","","","",""
"","ISI","","html-keyboard-response","15","81094","0.0-1.0-12.0","0","0","78061","","null","","","null","1","NaN","","","","","","","","","","","","","","",""
"","S2","","html-keyboard-response","16","81350","0.0-1.0-13.0","0","0","78061","","null","","","null","1","","NaN","","","","","","","","","","","","","",""
"","response","","html-keyboard-response","17","81923","0.0-1.0-14.0-0.0","0","0","78061","","572","","","75","1","","","1","1","training","adjacent","EF","5","6","M.jpg","N.jpg","1","1","1","",""
"","feedback","","html-keyboard-response","18","82934","0.0-1.0-15.0-0.0","0","0","78061","","null","","","null","1","","","","","","","","","","","","","","","",""
"","ITI","","html-keyboard-response","19","83942","0.0-1.0-18.0","0","0","78061","","null","","","null","1","","","","","","","","","","","","","","","NaN",""
"","S1","","html-keyboard-response","20","84199","0.0-1.0-20.0","0","0","78061","","null","","","null","2","","","","","","","","","","","","","","","",""
"","ISI","","html-keyboard-response","21","84358","0.0-1.0-21.0","0","0","78061","","null","","","null","2","NaN","","","","","","","","","","","","","","",""
"","S2","","html-keyboard-response","22","84615","0.0-1.0-22.0","0","0","78061","","null","","","null","2","","NaN","","","","","","","","","","","","","",""
"","response","","html-keyboard-response","23","85445","0.0-1.0-23.0-0.0","0","0","78061","","829","","","68","2","","","1","2","training","adjacent","DE","4","5","R.jpg","M.jpg","0","1","0","",""
"","feedback","","html-keyboard-response","24","86454","0.0-1.0-24.0-0.0","0","0","78061","","null","","","null","2","","","","","","","","","","","","","","","",""
"","time_out","","html-keyboard-response","25","88460","0.0-1.0-26.0-0.0","0","0","78061","","null","","","null","2","","","","","","","","","","","","","","","",""
"","ITI","","html-keyboard-response","26","89469","0.0-1.0-27.0","0","0","78061","","null","","","null","2","","","","","","","","","","","","","","","NaN",""
"","S1","","html-keyboard-response","27","89724","0.0-1.0-29.0","0","0","78061","","null","","","null","3","","","","","","","","","","","","","","","",""
"","ISI","","html-keyboard-response","28","89878","0.0-1.0-30.0","0","0","78061","","null","","","null","3","NaN","","","","","","","","","","","","","","",""
"","S2","","html-keyboard-response","29","90134","0.0-1.0-31.0","0","0","78061","","null","","","null","3","","NaN","","","","","","","","","","","","","",""
"","response","","html-keyboard-response","30","90448","0.0-1.0-32.0-0.0","0","0","78061","","312","","","75","3","","","1","3","training","adjacent","BA","2","1","L.jpg","P.jpg","1","0","0","",""
"","feedback","","html-keyboard-response","31","91452","0.0-1.0-33.0-0.0","0","0","78061","","null","","","null","3","","","","","","","","","","","","","","","",""
"","time_out","","html-keyboard-response","32","93463","0.0-1.0-35.0-0.0","0","0","78061","","null","","","null","3","","","","","","","","","","","","","","","",""
"","ITI","","html-keyboard-response","33","94470","0.0-1.0-36.0","0","0","78061","","null","","","null","3","","","","","","","","","","","","","","","NaN",""
"","S1","","html-keyboard-response","34","94726","0.0-1.0-38.0","0","0","78061","","null","","","null","4","","","","","","","","","","","","","","","",""
"","ISI","","html-keyboard-response","35","94887","0.0-1.0-39.0","0","0","78061","","null","","","null","4","NaN","","","","","","","","","","","","","","",""
"","S2","","html-keyboard-response","36","95143","0.0-1.0-40.0","0","0","78061","","null","","","null","4","","NaN","","","","","","","","","","","","","",""
"","response","","html-keyboard-response","37","95477","0.0-1.0-41.0-0.0","0","0","78061","","333","","","75","4","","","1","4","training","adjacent","FG","6","7","N.jpg","O.jpg","1","1","1","",""
"","feedback","","html-keyboard-response","38","96486","0.0-1.0-42.0-0.0","0","0","78061","","null","","","null","4","","","","","","","","","","","","","","","",""
"","ITI","","html-keyboard-response","39","97494","0.0-1.0-45.0","0","0","78061","","null","","","null","4","","","","","","","","","","","","","","","NaN",""
"","S1","","html-keyboard-response","40","97750","0.0-1.0-47.0","0","0","78061","","null","","","null","5","","","","","","","","","","","","","","","",""
"","ISI","","html-keyboard-response","41","97910","0.0-1.0-48.0","0","0","78061","","null","","","null","5","NaN","","","","","","","","","","","","","","",""
"","S2","","html-keyboard-response","42","98167","0.0-1.0-49.0","0","0","78061","","null","","","null","5","","NaN","","","","","","","","","","","","","",""
"","response","","html-keyboard-response","43","98813","0.0-1.0-50.0-0.0","0","0","78061","","645","","","68","5","","","1","5","training","adjacent","EF","5","6","M.jpg","N.jpg","0","1","0","",""
"","feedback","","html-keyboard-response","44","99820","0.0-1.0-51.0-0.0","0","0","78061","","null","","","null","5","","","","","","","","","","","","","","","",""
"","time_out","","html-keyboard-response","45","101830","0.0-1.0-53.0-0.0","0","0","78061","","null","","","null","5","","","","","","","","","","","","","","","",""
"","ITI","","html-keyboard-response","46","102839","0.0-1.0-54.0","0","0","78061","","null","","","null","5","","","","","","","","","","","","","","","NaN",""
"","S1","","html-keyboard-response","47","103094","0.0-1.0-56.0","0","0","78061","","null","","","null","6","","","","","","","","","","","","","","","",""
"","ISI","","html-keyboard-response","48","103255","0.0-1.0-57.0","0","0","78061","","null","","","null","6","NaN","","","","","","","","","","","","","","",""
"","S2","","html-keyboard-response","49","103510","0.0-1.0-58.0","0","0","78061","","null","","","null","6","","NaN","","","","","","","","","","","","","",""
"","response","","html-keyboard-response","50","103742","0.0-1.0-59.0-0.0","0","0","78061","","230","","","68","6","","","1","6","training","adjacent","BC","2","3","L.jpg","Q.jpg","0","1","0","",""
"","feedback","","html-keyboard-response","51","104748","0.0-1.0-60.0-0.0","0","0","78061","","null","","","null","6","","","","","","","","","","","","","","","",""
"","time_out","","html-keyboard-response","52","106758","0.0-1.0-62.0-0.0","0","0","78061","","null","","","null","6","","","","","","","","","","","","","","","",""
"","ITI","","html-keyboard-response","53","107766","0.0-1.0-63.0","0","0","78061","","null","","","null","6","","","","","","","","","","","","","","","NaN",""
"","S1","","html-keyboard-response","54","108023","0.0-1.0-65.0","0","0","78061","","null","","","null","7","","","","","","","","","","","","","","","",""
"","ISI","","html-keyboard-response","55","108183","0.0-1.0-66.0","0","0","78061","","null","","","null","7","NaN","","","","","","","","","","","","","","",""
"","S2","","html-keyboard-response","56","108438","0.0-1.0-67.0","0","0","78061","","null","","","null","7","","NaN","","","","","","","","","","","","","",""
"","response","","html-keyboard-response","57","109507","0.0-1.0-68.0-0.0","0","0","78061","","1068","","","68","7","","","1","7","training","adjacent","FG","6","7","N.jpg","O.jpg","0","1","0","",""
"","feedback","","html-keyboard-response","58","110518","0.0-1.0-69.0-0.0","0","0","78061","","null","","","null","7","","","","","","","","","","","","","","","",""
"","time_out","","html-keyboard-response","59","112526","0.0-1.0-71.0-0.0","0","0","78061","","null","","","null","7","","","","","","","","","","","","","","","",""
"","ITI","","html-keyboard-response","60","113532","0.0-1.0-72.0","0","0","78061","","null","","","null","7","","","","","","","","","","","","","","","NaN",""
"","S1","","html-keyboard-response","61","113788","0.0-1.0-74.0","0","0","78061","","null","","","null","8","","","","","","","","","","","","","","","",""
"","ISI","","html-keyboard-response","62","113942","0.0-1.0-75.0","0","0","78061","","null","","","null","8","NaN","","","","","","","","","","","","","","",""
"","S2","","html-keyboard-response","63","114198","0.0-1.0-76.0","0","0","78061","","null","","","null","8","","NaN","","","","","","","","","","","","","",""
"","response","","html-keyboard-response","64","114865","0.0-1.0-77.0-0.0","0","0","78061","","666","","","68","8","","","1","8","training","adjacent","GF","7","6","O.jpg","N.jpg","0","0","1","",""
"","feedback","","html-keyboard-response","65","115868","0.0-1.0-78.0-0.0","0","0","78061","","null","","","null","8","","","","","","","","","","","","","","","",""
"","ITI","","html-keyboard-response","66","116875","0.0-1.0-81.0","0","0","78061","","null","","","null","8","","","","","","","","","","","","","","","NaN",""
"","S1","","html-keyboard-response","67","117132","0.0-1.0-83.0","0","0","78061","","null","","","null","9","","","","","","","","","","","","","","","",""
"","ISI","","html-keyboard-response","68","117286","0.0-1.0-84.0","0","0","78061","","null","","","null","9","NaN","","","","","","","","","","","","","","",""
"","S2","","html-keyboard-response","69","117542","0.0-1.0-85.0","0","0","78061","","null","","","null","9","","NaN","","","","","","","","","","","","","",""
"","response","","html-keyboard-response","70","117873","0.0-1.0-86.0-0.0","0","0","78061","","329","","","75","9","","","1","9","training","adjacent","ED","5","4","M.jpg","R.jpg","1","0","0","",""
"","feedback","","html-keyboard-response","71","118876","0.0-1.0-87.0-0.0","0","0","78061","","null","","","null","9","","","","","","","","","","","","","","","",""
"","time_out","","html-keyboard-response","72","120887","0.0-1.0-89.0-0.0","0","0","78061","","null","","","null","9","","","","","","","","","","","","","","","",""
"","ITI","","html-keyboard-response","73","121894","0.0-1.0-90.0","0","0","78061","","null","","","null","9","","","","","","","","","","","","","","","NaN",""
"","S1","","html-keyboard-response","74","122150","0.0-1.0-92.0","0","0","78061","","null","","","null","10","","","","","","","","","","","","","","","",""
"","ISI","","html-keyboard-response","75","122312","0.0-1.0-93.0","0","0","78061","","null","","","null","10","NaN","","","","","","","","","","","","","","",""
"","S2","","html-keyboard-response","76","122566","0.0-1.0-94.0","0","0","78061","","null","","","null","10","","NaN","","","","","","","","","","","","","",""
"","response","","html-keyboard-response","77","123222","0.0-1.0-95.0-0.0","0","0","78061","","654","","","68","10","","","1","10","training","adjacent","CB","3","2","Q.jpg","L.jpg","0","0","1","",""
"","feedback","","html-keyboard-response","78","124230","0.0-1.0-96.0-0.0","0","0","78061","","null","","","null","10","","","","","","","","","","","","","","","",""
"","ITI","","html-keyboard-response","79","125238","0.0-1.0-99.0","0","0","78061","","null","","","null","10","","","","","","","","","","","","","","","NaN",""
"","S1","","html-keyboard-response","80","125495","0.0-1.0-101.0","0","0","78061","","null","","","null","11","","","","","","","","","","","","","","","",""
"","ISI","","html-keyboard-response","81","125654","0.0-1.0-102.0","0","0","78061","","null","","","null","11","NaN","","","","","","","","","","","","","","",""
"","S2","","html-keyboard-response","82","125910","0.0-1.0-103.0","0","0","78061","","null","","","null","11","","NaN","","","","","","","","","","","","","",""
"","response","","html-keyboard-response","83","126553","0.0-1.0-104.0-0.0","0","0","78061","","641","","","75","11","","","1","11","training","adjacent","CB","3","2","Q.jpg","L.jpg","1","0","0","",""
"","feedback","","html-keyboard-response","84","127559","0.0-1.0-105.0-0.0","0","0","78061","","null","","","null","11","","","","","","","","","","","","","","","",""
"","time_out","","html-keyboard-response","85","129564","0.0-1.0-107.0-0.0","0","0","78061","","null","","","null","11","","","","","","","","","","","","","","","",""
"","ITI","","html-keyboard-response","86","130572","0.0-1.0-108.0","0","0","78061","","null","","","null","11","","","","","","","","","","","","","","","NaN",""
"","S1","","html-keyboard-response","87","130827","0.0-1.0-110.0","0","0","78061","","null","","","null","12","","","","","","","","","","","","","","","",""
"","ISI","","html-keyboard-response","88","130982","0.0-1.0-111.0","0","0","78061","","null","","","null","12","NaN","","","","","","","","","","","","","","",""
"","S2","","html-keyboard-response","89","131238","0.0-1.0-112.0","0","0","78061","","null","","","null","12","","NaN","","","","","","","","","","","","","",""
"","response","","html-keyboard-response","90","131666","0.0-1.0-113.0-0.0","0","0","78061","","428","","","75","12","","","1","12","training","adjacent","FE","6","5","N.jpg","M.jpg","1","0","0","",""
"","feedback","","html-keyboard-response","91","132678","0.0-1.0-114.0-0.0","0","0","78061","","null","","","null","12","","","","","","","","","","","","","","","",""
"","time_out","","html-keyboard-response","92","134684","0.0-1.0-116.0-0.0","0","0","78061","","null","","","null","12","","","","","","","","","","","","","","","",""
"","ITI","","html-keyboard-response","93","135692","0.0-1.0-117.0","0","0","78061","","null","","","null","12","","","","","","","","","","","","","","","NaN",""
"","S1","","html-keyboard-response","94","135948","0.0-1.0-119.0","0","0","78061","","null","","","null","13","","","","","","","","","","","","","","","",""
"","ISI","","html-keyboard-response","95","136102","0.0-1.0-120.0","0","0","78061","","null","","","null","13","NaN","","","","","","","","","","","","","","",""
"","S2","","html-keyboard-response","96","136358","0.0-1.0-121.0","0","0","78061","","null","","","null","13","","NaN","","","","","","","","","","","","","",""
"","response","","html-keyboard-response","97","136707","0.0-1.0-122.0-0.0","0","0","78061","","348","","","75","13","","","1","13","training","adjacent","DE","4","5","R.jpg","M.jpg","1","1","1","",""
"","feedback","","html-keyboard-response","98","137715","0.0-1.0-123.0-0.0","0","0","78061","","null","","","null","13","","","","","","","","","","","","","","","",""
"","ITI","","html-keyboard-response","99","138723","0.0-1.0-126.0","0","0","78061","","null","","","null","13","","","","","","","","","","","","","","","NaN",""
"","S1","","html-keyboard-response","100","138982","0.0-1.0-128.0","0","0","78061","","null","","","null","14","","","","","","","","","","","","","","","",""
"","ISI","","html-keyboard-response","101","139142","0.0-1.0-129.0","0","0","78061","","null","","","null","14","NaN","","","","","","","","","","","","","","",""
"","S2","","html-keyboard-response","102","139398","0.0-1.0-130.0","0","0","78061","","null","","","null","14","","NaN","","","","","","","","","","","","","",""
"","response","","html-keyboard-response","103","139623","0.0-1.0-131.0-0.0","0","0","78061","","224","","","75","14","","","1","14","training","adjacent","ED","5","4","M.jpg","R.jpg","1","0","0","",""
"","feedback","","html-keyboard-response","104","140631","0.0-1.0-132.0-0.0","0","0","78061","","null","","","null","14","","","","","","","","","","","","","","","",""
"","time_out","","html-keyboard-response","105","142636","0.0-1.0-134.0-0.0","0","0","78061","","null","","","null","14","","","","","","","","","","","","","","","",""
"","ITI","","html-keyboard-response","106","143644","0.0-1.0-135.0","0","0","78061","","null","","","null","14","","","","","","","","","","","","","","","NaN",""
"","S1","","html-keyboard-response","107","143899","0.0-1.0-137.0","0","0","78061","","null","","","null","15","","","","","","","","","","","","","","","",""
"","ISI","","html-keyboard-response","108","144054","0.0-1.0-138.0","0","0","78061","","null","","","null","15","NaN","","","","","","","","","","","","","","",""
"","S2","","html-keyboard-response","109","144310","0.0-1.0-139.0","0","0","78061","","null","","","null","15","","NaN","","","","","","","","","","","","","",""
"","response","","html-keyboard-response","110","144897","0.0-1.0-140.0-0.0","0","0","78061","","585","","","68","15","","","1","15","training","adjacent","AB","1","2","P.jpg","L.jpg","0","1","0","",""
"","feedback","","html-keyboard-response","111","145899","0.0-1.0-141.0-0.0","0","0","78061","","null","","","null","15","","","","","","","","","","","","","","","",""
"","time_out","","html-keyboard-response","112","147910","0.0-1.0-143.0-0.0","0","0","78061","","null","","","null","15","","","","","","","","","","","","","","","",""
"","ITI","","html-keyboard-response","113","148918","0.0-1.0-144.0","0","0","78061","","null","","","null","15","","","","","","","","","","","","","","","NaN",""
"","S1","","html-keyboard-response","114","149174","0.0-1.0-146.0","0","0","78061","","null","","","null","16","","","","","","","","","","","","","","","",""
"","ISI","","html-keyboard-response","115","149334","0.0-1.0-147.0","0","0","78061","","null","","","null","16","NaN","","","","","","","","","","","","","","",""
"","S2","","html-keyboard-response","116","149591","0.0-1.0-148.0","0","0","78061","","null","","","null","16","","NaN","","","","","","","","","","","","","",""
"","response","","html-keyboard-response","117","150261","0.0-1.0-149.0-0.0","0","0","78061","","670","","","75","16","","","1","16","training","adjacent","AB","1","2","P.jpg","L.jpg","1","1","1","",""
"","feedback","","html-keyboard-response","118","151271","0.0-1.0-150.0-0.0","0","0","78061","","null","","","null","16","","","","","","","","","","","","","","","",""
"","ITI","","html-keyboard-response","119","152279","0.0-1.0-153.0","0","0","78061","","null","","","null","16","","","","","","","","","","","","","","","NaN",""
"","S1","","html-keyboard-response","120","152534","0.0-1.0-155.0","0","0","78061","","null","","","null","17","","","","","","","","","","","","","","","",""
"","ISI","","html-keyboard-response","121","152694","0.0-1.0-156.0","0","0","78061","","null","","","null","17","NaN","","","","","","","","","","","","","","",""
"","S2","","html-keyboard-response","122","152950","0.0-1.0-157.0","0","0","78061","","null","","","null","17","","NaN","","","","","","","","","","","","","",""
"","response","","html-keyboard-response","123","153299","0.0-1.0-158.0-0.0","0","0","78061","","348","","","75","17","","","1","17","training","adjacent","CD","3","4","Q.jpg","R.jpg","1","1","1","",""
"","feedback","","html-keyboard-response","124","154311","0.0-1.0-159.0-0.0","0","0","78061","","null","","","null","17","","","","","","","","","","","","","","","",""
"","ITI","","html-keyboard-response","125","155318","0.0-1.0-162.0","0","0","78061","","null","","","null","17","","","","","","","","","","","","","","","NaN",""
"","S1","","html-keyboard-response","126","155575","0.0-1.0-164.0","0","0","78061","","null","","","null","18","","","","","","","","","","","","","","","",""
"","ISI","","html-keyboard-response","127","155734","0.0-1.0-165.0","0","0","78061","","null","","","null","18","NaN","","","","","","","","","","","","","","",""
"","S2","","html-keyboard-response","128","155990","0.0-1.0-166.0","0","0","78061","","null","","","null","18","","NaN","","","","","","","","","","","","","",""
"","response","","html-keyboard-response","129","156248","0.0-1.0-167.0-0.0","0","0","78061","","257","","","75","18","","","1","18","training","adjacent","FE","6","5","N.jpg","M.jpg","1","0","0","",""
"","feedback","","html-keyboard-response","130","157254","0.0-1.0-168.0-0.0","0","0","78061","","null","","","null","18","","","","","","","","","","","","","","","",""
"","time_out","","html-keyboard-response","131","159260","0.0-1.0-170.0-0.0","0","0","78061","","null","","","null","18","","","","","","","","","","","","","","","",""
"","ITI","","html-keyboard-response","132","160268","0.0-1.0-171.0","0","0","78061","","null","","","null","18","","","","","","","","","","","","","","","NaN",""
"","S1","","html-keyboard-response","133","160523","0.0-1.0-173.0","0","0","78061","","null","","","null","19","","","","","","","","","","","","","","","",""
"","ISI","","html-keyboard-response","134","160678","0.0-1.0-174.0","0","0","78061","","null","","","null","19","NaN","","","","","","","","","","","","","","",""
"","S2","","html-keyboard-response","135","160934","0.0-1.0-175.0","0","0","78061","","null","","","null","19","","NaN","","","","","","","","","","","","","",""
"","response","","html-keyboard-response","136","161319","0.0-1.0-176.0-0.0","0","0","78061","","384","","","68","19","","","1","19","training","adjacent","AB","1","2","P.jpg","L.jpg","0","1","0","",""
"","feedback","","html-keyboard-response","137","162326","0.0-1.0-177.0-0.0","0","0","78061","","null","","","null","19","","","","","","","","","","","","","","","",""
"","time_out","","html-keyboard-response","138","164331","0.0-1.0-179.0-0.0","0","0","78061","","null","","","null","19","","","","","","","","","","","","","","","",""
"","ITI","","html-keyboard-response","139","165339","0.0-1.0-180.0","0","0","78061","","null","","","null","19","","","","","","","","","","","","","","","NaN",""
"","S1","","html-keyboard-response","140","165595","0.0-1.0-182.0","0","0","78061","","null","","","null","20","","","","","","","","","","","","","","","",""
"","ISI","","html-keyboard-response","141","165750","0.0-1.0-183.0","0","0","78061","","null","","","null","20","NaN","","","","","","","","","","","","","","",""
"","S2","","html-keyboard-response","142","166006","0.0-1.0-184.0","0","0","78061","","null","","","null","20","","NaN","","","","","","","","","","","","","",""
"","response","","html-keyboard-response","143","166211","0.0-1.0-185.0-0.0","0","0","78061","","204","","","75","20","","","1","20","training","adjacent","FE","6","5","N.jpg","M.jpg","1","0","0","",""
"","feedback","","html-keyboard-response","144","167222","0.0-1.0-186.0-0.0","0","0","78061","","null","","","null","20","","","","","","","","","","","","","","","",""
"","time_out","","html-keyboard-response","145","169227","0.0-1.0-188.0-0.0","0","0","78061","","null","","","null","20","","","","","","","","","","","","","","","",""
"","ITI","","html-keyboard-response","146","170236","0.0-1.0-189.0","0","0","78061","","null","","","null","20","","","","","","","","","","","","","","","NaN",""
"","S1","","html-keyboard-response","147","170491","0.0-1.0-191.0","0","0","78061","","null","","","null","21","","","","","","","","","","","","","","","",""
"","ISI","","html-keyboard-response","148","170646","0.0-1.0-192.0","0","0","78061","","null","","","null","21","NaN","","","","","","","","","","","","","","",""
"","S2","","html-keyboard-response","149","170902","0.0-1.0-193.0","0","0","78061","","null","","","null","21","","NaN","","","","","","","","","","","","","",""
"","response","","html-keyboard-response","150","171119","0.0-1.0-194.0-0.0","0","0","78061","","217","","","75","21","","","1","21","training","adjacent","DE","4","5","R.jpg","M.jpg","1","1","1","",""
"","feedback","","html-keyboard-response","151","172123","0.0-1.0-195.0-0.0","0","0","78061","","null","","","null","21","","","","","","","","","","","","","","","",""
"","ITI","","html-keyboard-response","152","173131","0.0-1.0-198.0","0","0","78061","","null","","","null","21","","","","","","","","","","","","","","","NaN",""
"","S1","","html-keyboard-response","153","173387","0.0-1.0-200.0","0","0","78061","","null","","","null","22","","","","","","","","","","","","","","","",""
"","ISI","","html-keyboard-response","154","173542","0.0-1.0-201.0","0","0","78061","","null","","","null","22","NaN","","","","","","","","","","","","","","",""
"","S2","","html-keyboard-response","155","173799","0.0-1.0-202.0","0","0","78061","","null","","","null","22","","NaN","","","","","","","","","","","","","",""
"","response","","html-keyboard-response","156","173956","0.0-1.0-203.0-0.0","0","0","78061","","155","","","75","22","","","1","22","training","adjacent","GF","7","6","O.jpg","N.jpg","1","0","0","",""
"","feedback","","html-keyboard-response","157","174966","0.0-1.0-204.0-0.0","0","0","78061","","null","","","null","22","","","","","","","","","","","","","","","",""
"","time_out","","html-keyboard-response","158","176971","0.0-1.0-206.0-0.0","0","0","78061","","null","","","null","22","","","","","","","","","","","","","","","",""
"","ITI","","html-keyboard-response","159","177979","0.0-1.0-207.0","0","0","78061","","null","","","null","22","","","","","","","","","","","","","","","NaN",""
"","S1","","html-keyboard-response","160","178236","0.0-1.0-209.0","0","0","78061","","null","","","null","23","","","","","","","","","","","","","","","",""
"","ISI","","html-keyboard-response","161","178390","0.0-1.0-210.0","0","0","78061","","null","","","null","23","NaN","","","","","","","","","","","","","","",""
"","S2","","html-keyboard-response","162","178646","0.0-1.0-211.0","0","0","78061","","null","","","null","23","","NaN","","","","","","","","","","","","","",""
"","response","","html-keyboard-response","163","178774","0.0-1.0-212.0-0.0","0","0","78061","","126","","","75","23","","","1","23","training","adjacent","EF","5","6","M.jpg","N.jpg","1","1","1","",""
"","feedback","","html-keyboard-response","164","179782","0.0-1.0-213.0-0.0","0","0","78061","","null","","","null","23","","","","","","","","","","","","","","","",""
"","ITI","","html-keyboard-response","165","180790","0.0-1.0-216.0","0","0","78061","","null","","","null","23","","","","","","","","","","","","","","","NaN",""
"","S1","","html-keyboard-response","166","181046","0.0-1.0-218.0","0","0","78061","","null","","","null","24","","","","","","","","","","","","","","","",""
"","ISI","","html-keyboard-response","167","181206","0.0-1.0-219.0","0","0","78061","","null","","","null","24","NaN","","","","","","","","","","","","","","",""
"","S2","","html-keyboard-response","168","181462","0.0-1.0-220.0","0","0","78061","","null","","","null","24","","NaN","","","","","","","","","","","","","",""
"","response","","html-keyboard-response","169","181588","0.0-1.0-221.0-0.0","0","0","78061","","125","","","75","24","","","1","24","training","adjacent","DC","4","3","R.jpg","Q.jpg","1","0","0","",""
"","feedback","","html-keyboard-response","170","182598","0.0-1.0-222.0-0.0","0","0","78061","","null","","","null","24","","","","","","","","","","","","","","","",""
"","time_out","","html-keyboard-response","171","184603","0.0-1.0-224.0-0.0","0","0","78061","","null","","","null","24","","","","","","","","","","","","","","","",""
"","ITI","","html-keyboard-response","172","185611","0.0-1.0-225.0","0","0","78061","","null","","","null","24","","","","","","","","","","","","","","","NaN",""
"","S1","","html-keyboard-response","173","185868","0.0-1.0-227.0","0","0","78061","","null","","","null","25","","","","","","","","","","","","","","","",""
"","ISI","","html-keyboard-response","174","186022","0.0-1.0-228.0","0","0","78061","","null","","","null","25","NaN","","","","","","","","","","","","","","",""
"","S2","","html-keyboard-response","175","186279","0.0-1.0-229.0","0","0","78061","","null","","","null","25","","NaN","","","","","","","","","","","","","",""
"","response","","html-keyboard-response","176","186647","0.0-1.0-230.0-0.0","0","0","78061","","367","","","75","25","","","1","25","training","adjacent","FG","6","7","N.jpg","O.jpg","1","1","1","",""
"","feedback","","html-keyboard-response","177","187654","0.0-1.0-231.0-0.0","0","0","78061","","null","","","null","25","","","","","","","","","","","","","","","",""
"","ITI","","html-keyboard-response","178","188663","0.0-1.0-234.0","0","0","78061","","null","","","null","25","","","","","","","","","","","","","","","NaN",""
"","S1","","html-keyboard-response","179","188918","0.0-1.0-236.0","0","0","78061","","null","","","null","26","","","","","","","","","","","","","","","",""
"","ISI","","html-keyboard-response","180","189078","0.0-1.0-237.0","0","0","78061","","null","","","null","26","NaN","","","","","","","","","","","","","","",""
"","S2","","html-keyboard-response","181","189334","0.0-1.0-238.0","0","0","78061","","null","","","null","26","","NaN","","","","","","","","","","","","","",""
"","response","","html-keyboard-response","182","189560","0.0-1.0-239.0-0.0","0","0","78061","","224","","","75","26","","","1","26","training","adjacent","DE","4","5","R.jpg","M.jpg","1","1","1","",""
"","feedback","","html-keyboard-response","183","190566","0.0-1.0-240.0-0.0","0","0","78061","","null","","","null","26","","","","","","","","","","","","","","","",""
"","ITI","","html-keyboard-response","184","191574","0.0-1.0-243.0","0","0","78061","","null","","","null","26","","","","","","","","","","","","","","","NaN",""
"","S1","","html-keyboard-response","185","191830","0.0-1.0-245.0","0","0","78061","","null","","","null","27","","","","","","","","","","","","","","","",""
"","ISI","","html-keyboard-response","186","191990","0.0-1.0-246.0","0","0","78061","","null","","","null","27","NaN","","","","","","","","","","","","","","",""
"","S2","","html-keyboard-response","187","192246","0.0-1.0-247.0","0","0","78061","","null","","","null","27","","NaN","","","","","","","","","","","","","",""
"","response","","html-keyboard-response","188","192469","0.0-1.0-248.0-0.0","0","0","78061","","221","","","75","27","","","1","27","training","adjacent","CB","3","2","Q.jpg","L.jpg","1","0","0","",""
"","feedback","","html-keyboard-response","189","193478","0.0-1.0-249.0-0.0","0","0","78061","","null","","","null","27","","","","","","","","","","","","","","","",""
"","time_out","","html-keyboard-response","190","195484","0.0-1.0-251.0-0.0","0","0","78061","","null","","","null","27","","","","","","","","","","","","","","","",""
"","ITI","","html-keyboard-response","191","196491","0.0-1.0-252.0","0","0","78061","","null","","","null","27","","","","","","","","","","","","","","","NaN",""
"","S1","","html-keyboard-response","192","196747","0.0-1.0-254.0","0","0","78061","","null","","","null","28","","","","","","","","","","","","","","","",""
"","ISI","","html-keyboard-response","193","196902","0.0-1.0-255.0","0","0","78061","","null","","","null","28","NaN","","","","","","","","","","","","","","",""
"","S2","","html-keyboard-response","194","197158","0.0-1.0-256.0","0","0","78061","","null","","","null","28","","NaN","","","","","","","","","","","","","",""
"","response","","html-keyboard-response","195","197390","0.0-1.0-257.0-0.0","0","0","78061","","231","","","75","28","","","1","28","training","adjacent","ED","5","4","M.jpg","R.jpg","1","0","0","",""
"","feedback","","html-keyboard-response","196","198395","0.0-1.0-258.0-0.0","0","0","78061","","null","","","null","28","","","","","","","","","","","","","","","",""
"","time_out","","html-keyboard-response","197","200406","0.0-1.0-260.0-0.0","0","0","78061","","null","","","null","28","","","","","","","","","","","","","","","",""
"","ITI","","html-keyboard-response","198","201414","0.0-1.0-261.0","0","0","78061","","null","","","null","28","","","","","","","","","","","","","","","NaN",""
"","S1","","html-keyboard-response","199","201670","0.0-1.0-263.0","0","0","78061","","null","","","null","29","","","","","","","","","","","","","","","",""
"","ISI","","html-keyboard-response","200","201830","0.0-1.0-264.0","0","0","78061","","null","","","null","29","NaN","","","","","","","","","","","","","","",""
"","S2","","html-keyboard-response","201","202086","0.0-1.0-265.0","0","0","78061","","null","","","null","29","","NaN","","","","","","","","","","","","","",""
"","response","","html-keyboard-response","202","202423","0.0-1.0-266.0-0.0","0","0","78061","","335","","","68","29","","","1","29","training","adjacent","CD","3","4","Q.jpg","R.jpg","0","1","0","",""
"","feedback","","html-keyboard-response","203","203430","0.0-1.0-267.0-0.0","0","0","78061","","null","","","null","29","","","","","","","","","","","","","","","",""
"","time_out","","html-keyboard-response","204","205435","0.0-1.0-269.0-0.0","0","0","78061","","null","","","null","29","","","","","","","","","","","","","","","",""
"","ITI","","html-keyboard-response","205","206443","0.0-1.0-270.0","0","0","78061","","null","","","null","29","","","","","","","","","","","","","","","NaN",""
"","S1","","html-keyboard-response","206","206699","0.0-1.0-272.0","0","0","78061","","null","","","null","30","","","","","","","","","","","","","","","",""
"","ISI","","html-keyboard-response","207","206854","0.0-1.0-273.0","0","0","78061","","null","","","null","30","NaN","","","","","","","","","","","","","","",""
"","S2","","html-keyboard-response","208","207110","0.0-1.0-274.0","0","0","78061","","null","","","null","30","","NaN","","","","","","","","","","","","","",""
"","response","","html-keyboard-response","209","207306","0.0-1.0-275.0-0.0","0","0","78061","","194","","","75","30","","","1","30","training","adjacent","CB","3","2","Q.jpg","L.jpg","1","0","0","",""
"","feedback","","html-keyboard-response","210","208315","0.0-1.0-276.0-0.0","0","0","78061","","null","","","null","30","","","","","","","","","","","","","","","",""
"","time_out","","html-keyboard-response","211","210326","0.0-1.0-278.0-0.0","0","0","78061","","null","","","null","30","","","","","","","","","","","","","","","",""
"","ITI","","html-keyboard-response","212","211334","0.0-1.0-279.0","0","0","78061","","null","","","null","30","","","","","","","","","","","","","","","NaN",""
"","S1","","html-keyboard-response","213","211590","0.0-1.0-281.0","0","0","78061","","null","","","null","31","","","","","","","","","","","","","","","",""
"","ISI","","html-keyboard-response","214","211750","0.0-1.0-282.0","0","0","78061","","null","","","null","31","NaN","","","","","","","","","","","","","","",""
"","S2","","html-keyboard-response","215","212006","0.0-1.0-283.0","0","0","78061","","null","","","null","31","","NaN","","","","","","","","","","","","","",""
"","response","","html-keyboard-response","216","212092","0.0-1.0-284.0-0.0","0","0","78061","","86","","","75","31","","","1","31","training","adjacent","GF","7","6","O.jpg","N.jpg","1","0","0","",""
"","feedback","","html-keyboard-response","217","213099","0.0-1.0-285.0-0.0","0","0","78061","","null","","","null","31","","","","","","","","","","","","","","","",""
"","time_out","","html-keyboard-response","218","215110","0.0-1.0-287.0-0.0","0","0","78061","","null","","","null","31","","","","","","","","","","","","","","","",""
"","ITI","","html-keyboard-response","219","216118","0.0-1.0-288.0","0","0","78061","","null","","","null","31","","","","","","","","","","","","","","","NaN",""
"","S1","","html-keyboard-response","220","216374","0.0-1.0-290.0","0","0","78061","","null","","","null","32","","","","","","","","","","","","","","","",""
"","ISI","","html-keyboard-response","221","216534","0.0-1.0-291.0","0","0","78061","","null","","","null","32","NaN","","","","","","","","","","","","","","",""
"","S2","","html-keyboard-response","222","216790","0.0-1.0-292.0","0","0","78061","","null","","","null","32","","NaN","","","","","","","","","","","","","",""
"","response","","html-keyboard-response","223","216878","0.0-1.0-293.0-0.0","0","0","78061","","88","","","75","32","","","1","32","training","adjacent","AB","1","2","P.jpg","L.jpg","1","1","1","",""
"","feedback","","html-keyboard-response","224","217883","0.0-1.0-294.0-0.0","0","0","78061","","null","","","null","32","","","","","","","","","","","","","","","",""
"","ITI","","html-keyboard-response","225","218891","0.0-1.0-297.0","0","0","78061","","null","","","null","32","","","","","","","","","","","","","","","NaN",""
"","S1","","html-keyboard-response","226","219148","0.0-1.0-299.0","0","0","78061","","null","","","null","33","","","","","","","","","","","","","","","",""
"","ISI","","html-keyboard-response","227","219302","0.0-1.0-300.0","0","0","78061","","null","","","null","33","NaN","","","","","","","","","","","","","","",""
"","S2","","html-keyboard-response","228","219558","0.0-1.0-301.0","0","0","78061","","null","","","null","33","","NaN","","","","","","","","","","","","","",""
"","response","","html-keyboard-response","229","219888","0.0-1.0-302.0-0.0","0","0","78061","","329","","","68","33","","","1","33","training","adjacent","GF","7","6","O.jpg","N.jpg","0","0","1","",""
"","feedback","","html-keyboard-response","230","220891","0.0-1.0-303.0-0.0","0","0","78061","","null","","","null","33","","","","","","","","","","","","","","","",""
"","ITI","","html-keyboard-response","231","221899","0.0-1.0-306.0","0","0","78061","","null","","","null","33","","","","","","","","","","","","","","","NaN",""
"","S1","","html-keyboard-response","232","222155","0.0-1.0-308.0","0","0","78061","","null","","","null","34","","","","","","","","","","","","","","","",""
"","ISI","","html-keyboard-response","233","222310","0.0-1.0-309.0","0","0","78061","","null","","","null","34","NaN","","","","","","","","","","","","","","",""
"","S2","","html-keyboard-response","234","222566","0.0-1.0-310.0","0","0","78061","","null","","","null","34","","NaN","","","","","","","","","","","","","",""
"","response","","html-keyboard-response","235","222818","0.0-1.0-311.0-0.0","0","0","78061","","251","","","68","34","","","1","34","training","adjacent","BC","2","3","L.jpg","Q.jpg","0","1","0","",""
"","feedback","","html-keyboard-response","236","223830","0.0-1.0-312.0-0.0","0","0","78061","","null","","","null","34","","","","","","","","","","","","","","","",""
"","time_out","","html-keyboard-response","237","225835","0.0-1.0-314.0-0.0","0","0","78061","","null","","","null","34","","","","","","","","","","","","","","","",""
"","ITI","","html-keyboard-response","238","226843","0.0-1.0-315.0","0","0","78061","","null","","","null","34","","","","","","","","","","","","","","","NaN",""
"","S1","","html-keyboard-response","239","227099","0.0-1.0-317.0","0","0","78061","","null","","","null","35","","","","","","","","","","","","","","","",""
"","ISI","","html-keyboard-response","240","227254","0.0-1.0-318.0","0","0","78061","","null","","","null","35","NaN","","","","","","","","","","","","","","",""
"","S2","","html-keyboard-response","241","227510","0.0-1.0-319.0","0","0","78061","","null","","","null","35","","NaN","","","","","","","","","","","","","",""
"","response","","html-keyboard-response","242","227661","0.0-1.0-320.0-0.0","0","0","78061","","150","","","68","35","","","1","35","training","adjacent","BA","2","1","L.jpg","P.jpg","0","0","1","",""
"","feedback","","html-keyboard-response","243","228667","0.0-1.0-321.0-0.0","0","0","78061","","null","","","null","35","","","","","","","","","","","","","","","",""
"","ITI","","html-keyboard-response","244","229675","0.0-1.0-324.0","0","0","78061","","null","","","null","35","","","","","","","","","","","","","","","NaN",""
"","S1","","html-keyboard-response","245","229931","0.0-1.0-326.0","0","0","78061","","null","","","null","36","","","","","","","","","","","","","","","",""
"","ISI","","html-keyboard-response","246","230086","0.0-1.0-327.0","0","0","78061","","null","","","null","36","NaN","","","","","","","","","","","","","","",""
"","S2","","html-keyboard-response","247","230341","0.0-1.0-328.0","0","0","78061","","null","","","null","36","","NaN","","","","","","","","","","","","","",""
"","response","","html-keyboard-response","248","230774","0.0-1.0-329.0-0.0","0","0","78061","","431","","","75","36","","","1","36","training","adjacent","CD","3","4","Q.jpg","R.jpg","1","1","1","",""
"","feedback","","html-keyboard-response","249","231782","0.0-1.0-330.0-0.0","0","0","78061","","null","","","null","36","","","","","","","","","","","","","","","",""
"","ITI","","html-keyboard-response","250","232790","0.0-1.0-333.0","0","0","78061","","null","","","null","36","","","","","","","","","","","","","","","NaN",""
"","S1","","html-keyboard-response","251","233046","0.0-1.0-335.0","0","0","78061","","null","","","null","37","","","","","","","","","","","","","","","",""
"","ISI","","html-keyboard-response","252","233206","0.0-1.0-336.0","0","0","78061","","null","","","null","37","NaN","","","","","","","","","","","","","","",""
"","S2","","html-keyboard-response","253","233462","0.0-1.0-337.0","0","0","78061","","null","","","null","37","","NaN","","","","","","","","","","","","","",""
"","response","","html-keyboard-response","254","233613","0.0-1.0-338.0-0.0","0","0","78061","","151","","","68","37","","","1","37","training","adjacent","EF","5","6","M.jpg","N.jpg","0","1","0","",""
"","feedback","","html-keyboard-response","255","234619","0.0-1.0-339.0-0.0","0","0","78061","","null","","","null","37","","","","","","","","","","","","","","","",""
"","time_out","","html-keyboard-response","256","236630","0.0-1.0-341.0-0.0","0","0","78061","","null","","","null","37","","","","","","","","","","","","","","","",""
"","ITI","","html-keyboard-response","257","237638","0.0-1.0-342.0","0","0","78061","","null","","","null","37","","","","","","","","","","","","","","","NaN",""
"","S1","","html-keyboard-response","258","237894","0.0-1.0-344.0","0","0","78061","","null","","","null","38","","","","","","","","","","","","","","","",""
"","ISI","","html-keyboard-response","259","238054","0.0-1.0-345.0","0","0","78061","","null","","","null","38","NaN","","","","","","","","","","","","","","",""
"","S2","","html-keyboard-response","260","238310","0.0-1.0-346.0","0","0","78061","","null","","","null","38","","NaN","","","","","","","","","","","","","",""
"","response","","html-keyboard-response","261","238719","0.0-1.0-347.0-0.0","0","0","78061","","407","","","68","38","","","1","38","training","adjacent","FE","6","5","N.jpg","M.jpg","0","0","1","",""
"","feedback","","html-keyboard-response","262","239723","0.0-1.0-348.0-0.0","0","0","78061","","null","","","null","38","","","","","","","","","","","","","","","",""
"","ITI","","html-keyboard-response","263","240731","0.0-1.0-351.0","0","0","78061","","null","","","null","38","","","","","","","","","","","","","","","NaN",""
"","S1","","html-keyboard-response","264","240987","0.0-1.0-353.0","0","0","78061","","null","","","null","39","","","","","","","","","","","","","","","",""
"","ISI","","html-keyboard-response","265","241141","0.0-1.0-354.0","0","0","78061","","null","","","null","39","NaN","","","","","","","","","","","","","","",""
"","S2","","html-keyboard-response","266","241398","0.0-1.0-355.0","0","0","78061","","null","","","null","39","","NaN","","","","","","","","","","","","","",""
"","response","","html-keyboard-response","267","241509","0.0-1.0-356.0-0.0","0","0","78061","","110","","","75","39","","","1","39","training","adjacent","DC","4","3","R.jpg","Q.jpg","1","0","0","",""
"","feedback","","html-keyboard-response","268","242518","0.0-1.0-357.0-0.0","0","0","78061","","null","","","null","39","","","","","","","","","","","","","","","",""
"","time_out","","html-keyboard-response","269","244523","0.0-1.0-359.0-0.0","0","0","78061","","null","","","null","39","","","","","","","","","","","","","","","",""
"","ITI","","html-keyboard-response","270","245535","0.0-1.0-360.0","0","0","78061","","null","","","null","39","","","","","","","","","","","","","","","NaN",""
"","S1","","html-keyboard-response","271","245787","0.0-1.0-362.0","0","0","78061","","null","","","null","40","","","","","","","","","","","","","","","",""
"","ISI","","html-keyboard-response","272","245942","0.0-1.0-363.0","0","0","78061","","null","","","null","40","NaN","","","","","","","","","","","","","","",""
"","S2","","html-keyboard-response","273","246198","0.0-1.0-364.0","0","0","78061","","null","","","null","40","","NaN","","","","","","","","","","","","","",""
"","response","","html-keyboard-response","274","246443","0.0-1.0-365.0-0.0","0","0","78061","","244","","","75","40","","","1","40","training","adjacent","DC","4","3","R.jpg","Q.jpg","1","0","0","",""
"","feedback","","html-keyboard-response","275","247451","0.0-1.0-366.0-0.0","0","0","78061","","null","","","null","40","","","","","","","","","","","","","","","",""
"","time_out","","html-keyboard-response","276","249462","0.0-1.0-368.0-0.0","0","0","78061","","null","","","null","40","","","","","","","","","","","","","","","",""
"","ITI","","html-keyboard-response","277","250470","0.0-1.0-369.0","0","0","78061","","null","","","null","40","","","","","","","","","","","","","","","NaN",""
"","S1","","html-keyboard-response","278","250726","0.0-1.0-371.0","0","0","78061","","null","","","null","41","","","","","","","","","","","","","","","",""
"","ISI","","html-keyboard-response","279","250886","0.0-1.0-372.0","0","0","78061","","null","","","null","41","NaN","","","","","","","","","","","","","","",""
"","S2","","html-keyboard-response","280","251142","0.0-1.0-373.0","0","0","78061","","null","","","null","41","","NaN","","","","","","","","","","","","","",""
"","response","","html-keyboard-response","281","251257","0.0-1.0-374.0-0.0","0","0","78061","","113","","","75","41","","","1","41","training","adjacent","BC","2","3","L.jpg","Q.jpg","1","1","1","",""
"","feedback","","html-keyboard-response","282","252262","0.0-1.0-375.0-0.0","0","0","78061","","null","","","null","41","","","","","","","","","","","","","","","",""
"","ITI","","html-keyboard-response","283","253270","0.0-1.0-378.0","0","0","78061","","null","","","null","41","","","","","","","","","","","","","","","NaN",""
"","S1","","html-keyboard-response","284","253526","0.0-1.0-380.0","0","0","78061","","null","","","null","42","","","","","","","","","","","","","","","",""
"","ISI","","html-keyboard-response","285","253686","0.0-1.0-381.0","0","0","78061","","null","","","null","42","NaN","","","","","","","","","","","","","","",""
"","S2","","html-keyboard-response","286","253942","0.0-1.0-382.0","0","0","78061","","null","","","null","42","","NaN","","","","","","","","","","","","","",""
"","response","","html-keyboard-response","287","254201","0.0-1.0-383.0-0.0","0","0","78061","","259","","","75","42","","","1","42","training","adjacent","CD","3","4","Q.jpg","R.jpg","1","1","1","",""
"","feedback","","html-keyboard-response","288","255206","0.0-1.0-384.0-0.0","0","0","78061","","null","","","null","42","","","","","","","","","","","","","","","",""
"","ITI","","html-keyboard-response","289","256214","0.0-1.0-387.0","0","0","78061","","null","","","null","42","","","","","","","","","","","","","","","NaN",""
"","S1","","html-keyboard-response","290","256470","0.0-1.0-389.0","0","0","78061","","null","","","null","43","","","","","","","","","","","","","","","",""
"","ISI","","html-keyboard-response","291","256629","0.0-1.0-390.0","0","0","78061","","null","","","null","43","NaN","","","","","","","","","","","","","","",""
"","S2","","html-keyboard-response","292","256886","0.0-1.0-391.0","0","0","78061","","null","","","null","43","","NaN","","","","","","","","","","","","","",""
"","response","","html-keyboard-response","293","257234","0.0-1.0-392.0-0.0","0","0","78061","","347","","","68","43","","","1","43","training","adjacent","DC","4","3","R.jpg","Q.jpg","0","0","1","",""
"","feedback","","html-keyboard-response","294","258245","0.0-1.0-393.0-0.0","0","0","78061","","null","","","null","43","","","","","","","","","","","","","","","",""
"","ITI","","html-keyboard-response","295","259254","0.0-1.0-396.0","0","0","78061","","null","","","null","43","","","","","","","","","","","","","","","NaN",""
"","S1","","html-keyboard-response","296","259510","0.0-1.0-398.0","0","0","78061","","null","","","null","44","","","","","","","","","","","","","","","",""
"","ISI","","html-keyboard-response","297","259667","0.0-1.0-399.0","0","0","78061","","null","","","null","44","NaN","","","","","","","","","","","","","","",""
"","S2","","html-keyboard-response","298","259925","0.0-1.0-400.0","0","0","78061","","null","","","null","44","","NaN","","","","","","","","","","","","","",""
"","response","","html-keyboard-response","299","260066","0.0-1.0-401.0-0.0","0","0","78061","","139","","","68","44","","","1","44","training","adjacent","BC","2","3","L.jpg","Q.jpg","0","1","0","",""
"","feedback","","html-keyboard-response","300","261078","0.0-1.0-402.0-0.0","0","0","78061","","null","","","null","44","","","","","","","","","","","","","","","",""
"","time_out","","html-keyboard-response","301","263083","0.0-1.0-404.0-0.0","0","0","78061","","null","","","null","44","","","","","","","","","","","","","","","",""
"","ITI","","html-keyboard-response","302","264091","0.0-1.0-405.0","0","0","78061","","null","","","null","44","","","","","","","","","","","","","","","NaN",""
"","S1","","html-keyboard-response","303","264347","0.0-1.0-407.0","0","0","78061","","null","","","null","45","","","","","","","","","","","","","","","",""
"","ISI","","html-keyboard-response","304","264501","0.0-1.0-408.0","0","0","78061","","null","","","null","45","NaN","","","","","","","","","","","","","","",""
"","S2","","html-keyboard-response","305","264757","0.0-1.0-409.0","0","0","78061","","null","","","null","45","","NaN","","","","","","","","","","","","","",""
"","response","","html-keyboard-response","306","265386","0.0-1.0-410.0-0.0","0","0","78061","","627","","","68","45","","","1","45","training","adjacent","FG","6","7","N.jpg","O.jpg","0","1","0","",""
"","feedback","","html-keyboard-response","307","266395","0.0-1.0-411.0-0.0","0","0","78061","","null","","","null","45","","","","","","","","","","","","","","","",""
"","time_out","","html-keyboard-response","308","268406","0.0-1.0-413.0-0.0","0","0","78061","","null","","","null","45","","","","","","","","","","","","","","","",""
"","ITI","","html-keyboard-response","309","269413","0.0-1.0-414.0","0","0","78061","","null","","","null","45","","","","","","","","","","","","","","","NaN",""
"","S1","","html-keyboard-response","310","269670","0.0-1.0-416.0","0","0","78061","","null","","","null","46","","","","","","","","","","","","","","","",""
"","ISI","","html-keyboard-response","311","269830","0.0-1.0-417.0","0","0","78061","","null","","","null","46","NaN","","","","","","","","","","","","","","",""
"","S2","","html-keyboard-response","312","270085","0.0-1.0-418.0","0","0","78061","","null","","","null","46","","NaN","","","","","","","","","","","","","",""
"","response","","html-keyboard-response","313","270273","0.0-1.0-419.0-0.0","0","0","78061","","186","","","68","46","","","1","46","training","adjacent","BA","2","1","L.jpg","P.jpg","0","0","1","",""
"","feedback","","html-keyboard-response","314","271275","0.0-1.0-420.0-0.0","0","0","78061","","null","","","null","46","","","","","","","","","","","","","","","",""
"","ITI","","html-keyboard-response","315","272283","0.0-1.0-423.0","0","0","78061","","null","","","null","46","","","","","","","","","","","","","","","NaN",""
"","S1","","html-keyboard-response","316","272539","0.0-1.0-425.0","0","0","78061","","null","","","null","47","","","","","","","","","","","","","","","",""
"","ISI","","html-keyboard-response","317","272693","0.0-1.0-426.0","0","0","78061","","null","","","null","47","NaN","","","","","","","","","","","","","","",""
"","S2","","html-keyboard-response","318","272950","0.0-1.0-427.0","0","0","78061","","null","","","null","47","","NaN","","","","","","","","","","","","","",""
"","response","","html-keyboard-response","319","273372","0.0-1.0-428.0-0.0","0","0","78061","","421","","","68","47","","","1","47","training","adjacent","BA","2","1","L.jpg","P.jpg","0","0","1","",""
"","feedback","","html-keyboard-response","320","274379","0.0-1.0-429.0-0.0","0","0","78061","","null","","","null","47","","","","","","","","","","","","","","","",""
"","ITI","","html-keyboard-response","321","275387","0.0-1.0-432.0","0","0","78061","","null","","","null","47","","","","","","","","","","","","","","","NaN",""
"","block_over","","html-keyboard-response","322","277938","0.0-1.0-433.0-0.0","0","0","78061","","2550","","","32","47","","","","","","","","","","","","","","","",""
"","S1","","html-keyboard-response","323","278198","0.0-1.0-434.0","0","0","78061","","null","","","null","48","","","","","","","","","","","","","","","",""
"","ISI","","html-keyboard-response","324","278358","0.0-1.0-435.0","0","0","78061","","null","","","null","48","NaN","","","","","","","","","","","","","","",""
"","S2","","html-keyboard-response","325","278613","0.0-1.0-436.0","0","0","78061","","null","","","null","48","","NaN","","","","","","","","","","","","","",""
"","response","","html-keyboard-response","326","278923","0.0-1.0-437.0-0.0","0","0","78061","","308","","","75","48","","","2","48","training","adjacent","GF","7","6","O.jpg","N.jpg","1","0","0","",""
"","feedback","","html-keyboard-response","327","279932","0.0-1.0-438.0-0.0","0","0","78061","","null","","","null","48","","","","","","","","","","","","","","","",""
"","time_out","","html-keyboard-response","328","281942","0.0-1.0-440.0-0.0","0","0","78061","","null","","","null","48","","","","","","","","","","","","","","","",""
"","ITI","","html-keyboard-response","329","282949","0.0-1.0-441.0","0","0","78061","","null","","","null","48","","","","","","","","","","","","","","","NaN",""
"","S1","","html-keyboard-response","330","283205","0.0-1.0-443.0","0","0","78061","","null","","","null","49","","","","","","","","","","","","","","","",""
"","ISI","","html-keyboard-response","331","283366","0.0-1.0-444.0","0","0","78061","","null","","","null","49","NaN","","","","","","","","","","","","","","",""
"","S2","","html-keyboard-response","332","283621","0.0-1.0-445.0","0","0","78061","","null","","","null","49","","NaN","","","","","","","","","","","","","",""
"","response","","html-keyboard-response","333","283867","0.0-1.0-446.0-0.0","0","0","78061","","245","","","68","49","","","2","49","training","adjacent","EF","5","6","M.jpg","N.jpg","0","1","0","",""
"","feedback","","html-keyboard-response","334","284875","0.0-1.0-447.0-0.0","0","0","78061","","null","","","null","49","","","","","","","","","","","","","","","",""
"","time_out","","html-keyboard-response","335","286886","0.0-1.0-449.0-0.0","0","0","78061","","null","","","null","49","","","","","","","","","","","","","","","",""
"","ITI","","html-keyboard-response","336","287893","0.0-1.0-450.0","0","0","78061","","null","","","null","49","","","","","","","","","","","","","","","NaN",""
"","S1","","html-keyboard-response","337","288149","0.0-1.0-452.0","0","0","78061","","null","","","null","50","","","","","","","","","","","","","","","",""
"","ISI","","html-keyboard-response","338","288310","0.0-1.0-453.0","0","0","78061","","null","","","null","50","NaN","","","","","","","","","","","","","","",""
"","S2","","html-keyboard-response","339","288565","0.0-1.0-454.0","0","0","78061","","null","","","null","50","","NaN","","","","","","","","","","","","","",""
"","response","","html-keyboard-response","340","289036","0.0-1.0-455.0-0.0","0","0","78061","","469","","","75","50","","","2","50","training","adjacent","CB","3","2","Q.jpg","L.jpg","1","0","0","",""
"","feedback","","html-keyboard-response","341","290043","0.0-1.0-456.0-0.0","0","0","78061","","null","","","null","50","","","","","","","","","","","","","","","",""
"","time_out","","html-keyboard-response","342","292053","0.0-1.0-458.0-0.0","0","0","78061","","null","","","null","50","","","","","","","","","","","","","","","",""
"","ITI","","html-keyboard-response","343","293061","0.0-1.0-459.0","0","0","78061","","null","","","null","50","","","","","","","","","","","","","","","NaN",""
"","S1","","html-keyboard-response","344","293317","0.0-1.0-461.0","0","0","78061","","null","","","null","51","","","","","","","","","","","","","","","",""
"","ISI","","html-keyboard-response","345","293477","0.0-1.0-462.0","0","0","78061","","null","","","null","51","NaN","","","","","","","","","","","","","","",""
"","S2","","html-keyboard-response","346","293734","0.0-1.0-463.0","0","0","78061","","null","","","null","51","","NaN","","","","","","","","","","","","","",""
"","response","","html-keyboard-response","347","293959","0.0-1.0-464.0-0.0","0","0","78061","","224","","","75","51","","","2","51","training","adjacent","EF","5","6","M.jpg","N.jpg","1","1","1","",""
"","feedback","","html-keyboard-response","348","294965","0.0-1.0-465.0-0.0","0","0","78061","","null","","","null","51","","","","","","","","","","","","","","","",""
"","ITI","","html-keyboard-response","349","295973","0.0-1.0-468.0","0","0","78061","","null","","","null","51","","","","","","","","","","","","","","","NaN",""
"","S1","","html-keyboard-response","350","296229","0.0-1.0-470.0","0","0","78061","","null","","","null","52","","","","","","","","","","","","","","","",""
"","ISI","","html-keyboard-response","351","296389","0.0-1.0-471.0","0","0","78061","","null","","","null","52","NaN","","","","","","","","","","","","","","",""
"","S2","","html-keyboard-response","352","296645","0.0-1.0-472.0","0","0","78061","","null","","","null","52","","NaN","","","","","","","","","","","","","",""
"","response","","html-keyboard-response","353","296901","0.0-1.0-473.0-0.0","0","0","78061","","255","","","68","52","","","2","52","training","adjacent","BA","2","1","L.jpg","P.jpg","0","0","1","",""
"","feedback","","html-keyboard-response","354","297909","0.0-1.0-474.0-0.0","0","0","78061","","null","","","null","52","","","","","","","","","","","","","","","",""
"","ITI","","html-keyboard-response","355","298917","0.0-1.0-477.0","0","0","78061","","null","","","null","52","","","","","","","","","","","","","","","NaN",""
"","S1","","html-keyboard-response","356","299173","0.0-1.0-479.0","0","0","78061","","null","","","null","53","","","","","","","","","","","","","","","",""
"","ISI","","html-keyboard-response","357","299333","0.0-1.0-480.0","0","0","78061","","null","","","null","53","NaN","","","","","","","","","","","","","","",""
"","S2","","html-keyboard-response","358","299590","0.0-1.0-481.0","0","0","78061","","null","","","null","53","","NaN","","","","","","","","","","","","","",""
"","response","","html-keyboard-response","359","300088","0.0-1.0-482.0-0.0","0","0","78061","","497","","","68","53","","","2","53","training","adjacent","FG","6","7","N.jpg","O.jpg","0","1","0","",""
"","feedback","","html-keyboard-response","360","301093","0.0-1.0-483.0-0.0","0","0","78061","","null","","","null","53","","","","","","","","","","","","","","","",""
"","time_out","","html-keyboard-response","361","303103","0.0-1.0-485.0-0.0","0","0","78061","","null","","","null","53","","","","","","","","","","","","","","","",""
"","ITI","","html-keyboard-response","362","304107","0.0-1.0-486.0","0","0","78061","","null","","","null","53","","","","","","","","","","","","","","","NaN",""
"","S1","","html-keyboard-response","363","304362","0.0-1.0-488.0","0","0","78061","","null","","","null","54","","","","","","","","","","","","","","","",""
"","ISI","","html-keyboard-response","364","304517","0.0-1.0-489.0","0","0","78061","","null","","","null","54","NaN","","","","","","","","","","","","","","",""
"","S2","","html-keyboard-response","365","304773","0.0-1.0-490.0","0","0","78061","","null","","","null","54","","NaN","","","","","","","","","","","","","",""
"","response","","html-keyboard-response","366","305189","0.0-1.0-491.0-0.0","0","0","78061","","414","","","68","54","","","2","54","training","adjacent","FE","6","5","N.jpg","M.jpg","0","0","1","",""
"","feedback","","html-keyboard-response","367","306197","0.0-1.0-492.0-0.0","0","0","78061","","null","","","null","54","","","","","","","","","","","","","","","",""
"","ITI","","html-keyboard-response","368","307205","0.0-1.0-495.0","0","0","78061","","null","","","null","54","","","","","","","","","","","","","","","NaN",""
"","S1","","html-keyboard-response","369","307461","0.0-1.0-497.0","0","0","78061","","null","","","null","55","","","","","","","","","","","","","","","",""
"","ISI","","html-keyboard-response","370","307622","0.0-1.0-498.0","0","0","78061","","null","","","null","55","NaN","","","","","","","","","","","","","","",""
"","S2","","html-keyboard-response","371","307877","0.0-1.0-499.0","0","0","78061","","null","","","null","55","","NaN","","","","","","","","","","","","","",""
"","response","","html-keyboard-response","372","308099","0.0-1.0-500.0-0.0","0","0","78061","","220","","","75","55","","","2","55","training","adjacent","AB","1","2","P.jpg","L.jpg","1","1","1","",""
"","feedback","","html-keyboard-response","373","309109","0.0-1.0-501.0-0.0","0","0","78061","","null","","","null","55","","","","","","","","","","","","","","","",""
"","ITI","","html-keyboard-response","374","310117","0.0-1.0-504.0","0","0","78061","","null","","","null","55","","","","","","","","","","","","","","","NaN",""
"","S1","","html-keyboard-response","375","310373","0.0-1.0-506.0","0","0","78061","","null","","","null","56","","","","","","","","","","","","","","","",""
"","ISI","","html-keyboard-response","376","310533","0.0-1.0-507.0","0","0","78061","","null","","","null","56","NaN","","","","","","","","","","","","","","",""
"","S2","","html-keyboard-response","377","310789","0.0-1.0-508.0","0","0","78061","","null","","","null","56","","NaN","","","","","","","","","","","","","",""
"","response","","html-keyboard-response","378","311232","0.0-1.0-509.0-0.0","0","0","78061","","441","","","68","56","","","2","56","training","adjacent","CD","3","4","Q.jpg","R.jpg","0","1","0","",""
"","feedback","","html-keyboard-response","379","312235","0.0-1.0-510.0-0.0","0","0","78061","","null","","","null","56","","","","","","","","","","","","","","","",""
"","time_out","","html-keyboard-response","380","314245","0.0-1.0-512.0-0.0","0","0","78061","","null","","","null","56","","","","","","","","","","","","","","","",""
"","ITI","","html-keyboard-response","381","315253","0.0-1.0-513.0","0","0","78061","","null","","","null","56","","","","","","","","","","","","","","","NaN",""
"","S1","","html-keyboard-response","382","315509","0.0-1.0-515.0","0","0","78061","","null","","","null","57","","","","","","","","","","","","","","","",""
"","ISI","","html-keyboard-response","383","315669","0.0-1.0-516.0","0","0","78061","","null","","","null","57","NaN","","","","","","","","","","","","","","",""
"","S2","","html-keyboard-response","384","315926","0.0-1.0-517.0","0","0","78061","","null","","","null","57","","NaN","","","","","","","","","","","","","",""
"","response","","html-keyboard-response","385","316309","0.0-1.0-518.0-0.0","0","0","78061","","382","","","75","57","","","2","57","training","adjacent","FG","6","7","N.jpg","O.jpg","1","1","1","",""
"","feedback","","html-keyboard-response","386","317317","0.0-1.0-519.0-0.0","0","0","78061","","null","","","null","57","","","","","","","","","","","","","","","",""
"","ITI","","html-keyboard-response","387","318325","0.0-1.0-522.0","0","0","78061","","null","","","null","57","","","","","","","","","","","","","","","NaN",""
"","S1","","html-keyboard-response","388","318581","0.0-1.0-524.0","0","0","78061","","null","","","null","58","","","","","","","","","","","","","","","",""
"","ISI","","html-keyboard-response","389","318742","0.0-1.0-525.0","0","0","78061","","null","","","null","58","NaN","","","","","","","","","","","","","","",""
"","S2","","html-keyboard-response","390","318997","0.0-1.0-526.0","0","0","78061","","null","","","null","58","","NaN","","","","","","","","","","","","","",""
"","response","","html-keyboard-response","391","319672","0.0-1.0-527.0-0.0","0","0","78061","","673","","","75","58","","","2","58","training","adjacent","DE","4","5","R.jpg","M.jpg","1","1","1","",""
"","feedback","","html-keyboard-response","392","320677","0.0-1.0-528.0-0.0","0","0","78061","","null","","","null","58","","","","","","","","","","","","","","","",""
"","ITI","","html-keyboard-response","393","321685","0.0-1.0-531.0","0","0","78061","","null","","","null","58","","","","","","","","","","","","","","","NaN",""
"","S1","","html-keyboard-response","394","321941","0.0-1.0-533.0","0","0","78061","","null","","","null","59","","","","","","","","","","","","","","","",""
"","ISI","","html-keyboard-response","395","322101","0.0-1.0-534.0","0","0","78061","","null","","","null","59","NaN","","","","","","","","","","","","","","",""
"","S2","","html-keyboard-response","396","322357","0.0-1.0-535.0","0","0","78061","","null","","","null","59","","NaN","","","","","","","","","","","","","",""
"","response","","html-keyboard-response","397","322525","0.0-1.0-536.0-0.0","0","0","78061","","166","","","75","59","","","2","59","training","adjacent","AB","1","2","P.jpg","L.jpg","1","1","1","",""
"","feedback","","html-keyboard-response","398","323530","0.0-1.0-537.0-0.0","0","0","78061","","null","","","null","59","","","","","","","","","","","","","","","",""
"","ITI","","html-keyboard-response","399","324539","0.0-1.0-540.0","0","0","78061","","null","","","null","59","","","","","","","","","","","","","","","NaN",""
"","S1","","html-keyboard-response","400","324795","0.0-1.0-542.0","0","0","78061","","null","","","null","60","","","","","","","","","","","","","","","",""
"","ISI","","html-keyboard-response","401","324950","0.0-1.0-543.0","0","0","78061","","null","","","null","60","NaN","","","","","","","","","","","","","","",""
"","S2","","html-keyboard-response","402","325206","0.0-1.0-544.0","0","0","78061","","null","","","null","60","","NaN","","","","","","","","","","","","","",""
"","response","","html-keyboard-response","403","325388","0.0-1.0-545.0-0.0","0","0","78061","","181","","","68","60","","","2","60","training","adjacent","CB","3","2","Q.jpg","L.jpg","0","0","1","",""
"","feedback","","html-keyboard-response","404","326395","0.0-1.0-546.0-0.0","0","0","78061","","null","","","null","60","","","","","","","","","","","","","","","",""
"","ITI","","html-keyboard-response","405","327403","0.0-1.0-549.0","0","0","78061","","null","","","null","60","","","","","","","","","","","","","","","NaN",""
"","S1","","html-keyboard-response","406","327659","0.0-1.0-551.0","0","0","78061","","null","","","null","61","","","","","","","","","","","","","","","",""
"","ISI","","html-keyboard-response","407","327813","0.0-1.0-552.0","0","0","78061","","null","","","null","61","NaN","","","","","","","","","","","","","","",""
"","S2","","html-keyboard-response","408","328069","0.0-1.0-553.0","0","0","78061","","null","","","null","61","","NaN","","","","","","","","","","","","","",""
"","response","","html-keyboard-response","409","328496","0.0-1.0-554.0-0.0","0","0","78061","","426","","","75","61","","","2","61","training","adjacent","CD","3","4","Q.jpg","R.jpg","1","1","1","",""
"","feedback","","html-keyboard-response","410","329498","0.0-1.0-555.0-0.0","0","0","78061","","null","","","null","61","","","","","","","","","","","","","","","",""
"","ITI","","html-keyboard-response","411","330507","0.0-1.0-558.0","0","0","78061","","null","","","null","61","","","","","","","","","","","","","","","NaN",""
"","S1","","html-keyboard-response","412","330762","0.0-1.0-560.0","0","0","78061","","null","","","null","62","","","","","","","","","","","","","","","",""
"","ISI","","html-keyboard-response","413","330917","0.0-1.0-561.0","0","0","78061","","null","","","null","62","NaN","","","","","","","","","","","","","","",""
"","S2","","html-keyboard-response","414","331173","0.0-1.0-562.0","0","0","78061","","null","","","null","62","","NaN","","","","","","","","","","","","","",""
"","response","","html-keyboard-response","415","331419","0.0-1.0-563.0-0.0","0","0","78061","","245","","","68","62","","","2","62","training","adjacent","BC","2","3","L.jpg","Q.jpg","0","1","0","",""
"","feedback","","html-keyboard-response","416","332427","0.0-1.0-564.0-0.0","0","0","78061","","null","","","null","62","","","","","","","","","","","","","","","",""
"","time_out","","html-keyboard-response","417","334437","0.0-1.0-566.0-0.0","0","0","78061","","null","","","null","62","","","","","","","","","","","","","","","",""
"","ITI","","html-keyboard-response","418","335446","0.0-1.0-567.0","0","0","78061","","null","","","null","62","","","","","","","","","","","","","","","NaN",""
"","S1","","html-keyboard-response","419","335702","0.0-1.0-569.0","0","0","78061","","null","","","null","63","","","","","","","","","","","","","","","",""
"","ISI","","html-keyboard-response","420","335861","0.0-1.0-570.0","0","0","78061","","null","","","null","63","NaN","","","","","","","","","","","","","","",""
"","S2","","html-keyboard-response","421","336117","0.0-1.0-571.0","0","0","78061","","null","","","null","63","","NaN","","","","","","","","","","","","","",""
"","response","","html-keyboard-response","422","336436","0.0-1.0-572.0-0.0","0","0","78061","","317","","","68","63","","","2","63","training","adjacent","CB","3","2","Q.jpg","L.jpg","0","0","1","",""
"","feedback","","html-keyboard-response","423","337446","0.0-1.0-573.0-0.0","0","0","78061","","null","","","null","63","","","","","","","","","","","","","","","",""
"","ITI","","html-keyboard-response","424","338453","0.0-1.0-576.0","0","0","78061","","null","","","null","63","","","","","","","","","","","","","","","NaN",""
"","S1","","html-keyboard-response","425","338709","0.0-1.0-578.0","0","0","78061","","null","","","null","64","","","","","","","","","","","","","","","",""
"","ISI","","html-keyboard-response","426","338869","0.0-1.0-579.0","0","0","78061","","null","","","null","64","NaN","","","","","","","","","","","","","","",""
"","S2","","html-keyboard-response","427","339125","0.0-1.0-580.0","0","0","78061","","null","","","null","64","","NaN","","","","","","","","","","","","","",""
"","response","","html-keyboard-response","428","339234","0.0-1.0-581.0-0.0","0","0","78061","","108","","","68","64","","","2","64","training","adjacent","CB","3","2","Q.jpg","L.jpg","0","0","1","",""
"","feedback","","html-keyboard-response","429","340246","0.0-1.0-582.0-0.0","0","0","78061","","null","","","null","64","","","","","","","","","","","","","","","",""
"","ITI","","html-keyboard-response","430","341253","0.0-1.0-585.0","0","0","78061","","null","","","null","64","","","","","","","","","","","","","","","NaN",""
"","S1","","html-keyboard-response","431","341509","0.0-1.0-587.0","0","0","78061","","null","","","null","65","","","","","","","","","","","","","","","",""
"","ISI","","html-keyboard-response","432","341669","0.0-1.0-588.0","0","0","78061","","null","","","null","65","NaN","","","","","","","","","","","","","","",""
"","S2","","html-keyboard-response","433","341925","0.0-1.0-589.0","0","0","78061","","null","","","null","65","","NaN","","","","","","","","","","","","","",""
"","response","","html-keyboard-response","434","342070","0.0-1.0-590.0-0.0","0","0","78061","","144","","","75","65","","","2","65","training","adjacent","DE","4","5","R.jpg","M.jpg","1","1","1","",""
"","feedback","","html-keyboard-response","435","343077","0.0-1.0-591.0-0.0","0","0","78061","","null","","","null","65","","","","","","","","","","","","","","","",""
"","ITI","","html-keyboard-response","436","344085","0.0-1.0-594.0","0","0","78061","","null","","","null","65","","","","","","","","","","","","","","","NaN",""
"","S1","","html-keyboard-response","437","344341","0.0-1.0-596.0","0","0","78061","","null","","","null","66","","","","","","","","","","","","","","","",""
"","ISI","","html-keyboard-response","438","344501","0.0-1.0-597.0","0","0","78061","","null","","","null","66","NaN","","","","","","","","","","","","","","",""
"","S2","","html-keyboard-response","439","344757","0.0-1.0-598.0","0","0","78061","","null","","","null","66","","NaN","","","","","","","","","","","","","",""
"","response","","html-keyboard-response","440","345223","0.0-1.0-599.0-0.0","0","0","78061","","466","","","75","66","","","2","66","training","adjacent","DE","4","5","R.jpg","M.jpg","1","1","1","",""
"","feedback","","html-keyboard-response","441","346229","0.0-1.0-600.0-0.0","0","0","78061","","null","","","null","66","","","","","","","","","","","","","","","",""
"","ITI","","html-keyboard-response","442","347237","0.0-1.0-603.0","0","0","78061","","null","","","null","66","","","","","","","","","","","","","","","NaN",""
"","S1","","html-keyboard-response","443","347493","0.0-1.0-605.0","0","0","78061","","null","","","null","67","","","","","","","","","","","","","","","",""
"","ISI","","html-keyboard-response","444","347653","0.0-1.0-606.0","0","0","78061","","null","","","null","67","NaN","","","","","","","","","","","","","","",""
"","S2","","html-keyboard-response","445","347909","0.0-1.0-607.0","0","0","78061","","null","","","null","67","","NaN","","","","","","","","","","","","","",""
"","response","","html-keyboard-response","446","348082","0.0-1.0-608.0-0.0","0","0","78061","","172","","","75","67","","","2","67","training","adjacent","FE","6","5","N.jpg","M.jpg","1","0","0","",""
"","feedback","","html-keyboard-response","447","349093","0.0-1.0-609.0-0.0","0","0","78061","","null","","","null","67","","","","","","","","","","","","","","","",""
"","time_out","","html-keyboard-response","448","351099","0.0-1.0-611.0-0.0","0","0","78061","","null","","","null","67","","","","","","","","","","","","","","","",""
"","ITI","","html-keyboard-response","449","352106","0.0-1.0-612.0","0","0","78061","","null","","","null","67","","","","","","","","","","","","","","","NaN",""
"","S1","","html-keyboard-response","450","352362","0.0-1.0-614.0","0","0","78061","","null","","","null","68","","","","","","","","","","","","","","","",""
"","ISI","","html-keyboard-response","451","352517","0.0-1.0-615.0","0","0","78061","","null","","","null","68","NaN","","","","","","","","","","","","","","",""
"","S2","","html-keyboard-response","452","352774","0.0-1.0-616.0","0","0","78061","","null","","","null","68","","NaN","","","","","","","","","","","","","",""
"","response","","html-keyboard-response","453","352982","0.0-1.0-617.0-0.0","0","0","78061","","207","","","68","68","","","2","68","training","adjacent","ED","5","4","M.jpg","R.jpg","0","0","1","",""
"","feedback","","html-keyboard-response","454","353989","0.0-1.0-618.0-0.0","0","0","78061","","null","","","null","68","","","","","","","","","","","","","","","",""
"","ITI","","html-keyboard-response","455","354997","0.0-1.0-621.0","0","0","78061","","null","","","null","68","","","","","","","","","","","","","","","NaN",""
"","S1","","html-keyboard-response","456","355253","0.0-1.0-623.0","0","0","78061","","null","","","null","69","","","","","","","","","","","","","","","",""
"","ISI","","html-keyboard-response","457","355413","0.0-1.0-624.0","0","0","78061","","null","","","null","69","NaN","","","","","","","","","","","","","","",""
"","S2","","html-keyboard-response","458","355669","0.0-1.0-625.0","0","0","78061","","null","","","null","69","","NaN","","","","","","","","","","","","","",""
"","response","","html-keyboard-response","459","355781","0.0-1.0-626.0-0.0","0","0","78061","","111","","","68","69","","","2","69","training","adjacent","BA","2","1","L.jpg","P.jpg","0","0","1","",""
"","feedback","","html-keyboard-response","460","356790","0.0-1.0-627.0-0.0","0","0","78061","","null","","","null","69","","","","","","","","","","","","","","","",""
"","ITI","","html-keyboard-response","461","357797","0.0-1.0-630.0","0","0","78061","","null","","","null","69","","","","","","","","","","","","","","","NaN",""
"","S1","","html-keyboard-response","462","358053","0.0-1.0-632.0","0","0","78061","","null","","","null","70","","","","","","","","","","","","","","","",""
"","ISI","","html-keyboard-response","463","358213","0.0-1.0-633.0","0","0","78061","","null","","","null","70","NaN","","","","","","","","","","","","","","",""
"","S2","","html-keyboard-response","464","358469","0.0-1.0-634.0","0","0","78061","","null","","","null","70","","NaN","","","","","","","","","","","","","",""
"","response","","html-keyboard-response","465","358564","0.0-1.0-635.0-0.0","0","0","78061","","93","","","75","70","","","2","70","training","adjacent","BC","2","3","L.jpg","Q.jpg","1","1","1","",""
"","feedback","","html-keyboard-response","466","359573","0.0-1.0-636.0-0.0","0","0","78061","","null","","","null","70","","","","","","","","","","","","","","","",""
"","ITI","","html-keyboard-response","467","360581","0.0-1.0-639.0","0","0","78061","","null","","","null","70","","","","","","","","","","","","","","","NaN",""
"","S1","","html-keyboard-response","468","360838","0.0-1.0-641.0","0","0","78061","","null","","","null","71","","","","","","","","","","","","","","","",""
"","ISI","","html-keyboard-response","469","360997","0.0-1.0-642.0","0","0","78061","","null","","","null","71","NaN","","","","","","","","","","","","","","",""
"","S2","","html-keyboard-response","470","361254","0.0-1.0-643.0","0","0","78061","","null","","","null","71","","NaN","","","","","","","","","","","","","",""
"","response","","html-keyboard-response","471","361310","0.0-1.0-644.0-0.0","0","0","78061","","56","","","75","71","","","2","71","training","adjacent","AB","1","2","P.jpg","L.jpg","1","1","1","",""
"","feedback","","html-keyboard-response","472","362315","0.0-1.0-645.0-0.0","0","0","78061","","null","","","null","71","","","","","","","","","","","","","","","",""
"","ITI","","html-keyboard-response","473","363323","0.0-1.0-648.0","0","0","78061","","null","","","null","71","","","","","","","","","","","","","","","NaN",""
"","S1","","html-keyboard-response","474","363579","0.0-1.0-650.0","0","0","78061","","null","","","null","72","","","","","","","","","","","","","","","",""
"","ISI","","html-keyboard-response","475","363739","0.0-1.0-651.0","0","0","78061","","null","","","null","72","NaN","","","","","","","","","","","","","","",""
"","S2","","html-keyboard-response","476","363995","0.0-1.0-652.0","0","0","78061","","null","","","null","72","","NaN","","","","","","","","","","","","","",""
"","response","","html-keyboard-response","477","364197","0.0-1.0-653.0-0.0","0","0","78061","","201","","","68","72","","","2","72","training","adjacent","CD","3","4","Q.jpg","R.jpg","0","1","0","",""
"","feedback","","html-keyboard-response","478","365206","0.0-1.0-654.0-0.0","0","0","78061","","null","","","null","72","","","","","","","","","","","","","","","",""
"","time_out","","html-keyboard-response","479","367211","0.0-1.0-656.0-0.0","0","0","78061","","null","","","null","72","","","","","","","","","","","","","","","",""
"","ITI","","html-keyboard-response","480","368220","0.0-1.0-657.0","0","0","78061","","null","","","null","72","","","","","","","","","","","","","","","NaN",""
"","S1","","html-keyboard-response","481","368474","0.0-1.0-659.0","0","0","78061","","null","","","null","73","","","","","","","","","","","","","","","",""
"","ISI","","html-keyboard-response","482","368629","0.0-1.0-660.0","0","0","78061","","null","","","null","73","NaN","","","","","","","","","","","","","","",""
"","S2","","html-keyboard-response","483","368885","0.0-1.0-661.0","0","0","78061","","null","","","null","73","","NaN","","","","","","","","","","","","","",""
"","response","","html-keyboard-response","484","369233","0.0-1.0-662.0-0.0","0","0","78061","","346","","","68","73","","","2","73","training","adjacent","BA","2","1","L.jpg","P.jpg","0","0","1","",""
"","feedback","","html-keyboard-response","485","370242","0.0-1.0-663.0-0.0","0","0","78061","","null","","","null","73","","","","","","","","","","","","","","","",""
"","ITI","","html-keyboard-response","486","371251","0.0-1.0-666.0","0","0","78061","","null","","","null","73","","","","","","","","","","","","","","","NaN",""
"","S1","","html-keyboard-response","487","371509","0.0-1.0-668.0","0","0","78061","","null","","","null","74","","","","","","","","","","","","","","","",""
"","ISI","","html-keyboard-response","488","371669","0.0-1.0-669.0","0","0","78061","","null","","","null","74","NaN","","","","","","","","","","","","","","",""
"","S2","","html-keyboard-response","489","371925","0.0-1.0-670.0","0","0","78061","","null","","","null","74","","NaN","","","","","","","","","","","","","",""
"","response","","html-keyboard-response","490","371971","0.0-1.0-671.0-0.0","0","0","78061","","45","","","75","74","","","2","74","training","adjacent","DC","4","3","R.jpg","Q.jpg","1","0","0","",""
"","feedback","","html-keyboard-response","491","372982","0.0-1.0-672.0-0.0","0","0","78061","","null","","","null","74","","","","","","","","","","","","","","","",""
"","time_out","","html-keyboard-response","492","374987","0.0-1.0-674.0-0.0","0","0","78061","","null","","","null","74","","","","","","","","","","","","","","","",""
"","ITI","","html-keyboard-response","493","375995","0.0-1.0-675.0","0","0","78061","","null","","","null","74","","","","","","","","","","","","","","","NaN",""
"","S1","","html-keyboard-response","494","376251","0.0-1.0-677.0","0","0","78061","","null","","","null","75","","","","","","","","","","","","","","","",""
"","ISI","","html-keyboard-response","495","376411","0.0-1.0-678.0","0","0","78061","","null","","","null","75","NaN","","","","","","","","","","","","","","",""
"","S2","","html-keyboard-response","496","376666","0.0-1.0-679.0","0","0","78061","","null","","","null","75","","NaN","","","","","","","","","","","","","",""
"","response","","html-keyboard-response","497","376790","0.0-1.0-680.0-0.0","0","0","78061","","122","","","68","75","","","2","75","training","adjacent","FG","6","7","N.jpg","O.jpg","0","1","0","",""
"","feedback","","html-keyboard-response","498","377797","0.0-1.0-681.0-0.0","0","0","78061","","null","","","null","75","","","","","","","","","","","","","","","",""
"","time_out","","html-keyboard-response","499","379803","0.0-1.0-683.0-0.0","0","0","78061","","null","","","null","75","","","","","","","","","","","","","","","",""
"","ITI","","html-keyboard-response","500","380811","0.0-1.0-684.0","0","0","78061","","null","","","null","75","","","","","","","","","","","","","","","NaN",""
"","S1","","html-keyboard-response","501","381067","0.0-1.0-686.0","0","0","78061","","null","","","null","76","","","","","","","","","","","","","","","",""
"","ISI","","html-keyboard-response","502","381221","0.0-1.0-687.0","0","0","78061","","null","","","null","76","NaN","","","","","","","","","","","","","","",""
"","S2","","html-keyboard-response","503","381474","0.0-1.0-688.0","0","0","78061","","null","","","null","76","","NaN","","","","","","","","","","","","","",""
"","response","","html-keyboard-response","504","381568","0.0-1.0-689.0-0.0","0","0","78061","","93","","","75","76","","","2","76","training","adjacent","DC","4","3","R.jpg","Q.jpg","1","0","0","",""
"","feedback","","html-keyboard-response","505","382571","0.0-1.0-690.0-0.0","0","0","78061","","null","","","null","76","","","","","","","","","","","","","","","",""
"","time_out","","html-keyboard-response","506","384582","0.0-1.0-692.0-0.0","0","0","78061","","null","","","null","76","","","","","","","","","","","","","","","",""
"","ITI","","html-keyboard-response","507","385590","0.0-1.0-693.0","0","0","78061","","null","","","null","76","","","","","","","","","","","","","","","NaN",""
"","S1","","html-keyboard-response","508","385846","0.0-1.0-695.0","0","0","78061","","null","","","null","77","","","","","","","","","","","","","","","",""
"","ISI","","html-keyboard-response","509","386006","0.0-1.0-696.0","0","0","78061","","null","","","null","77","NaN","","","","","","","","","","","","","","",""
"","S2","","html-keyboard-response","510","386261","0.0-1.0-697.0","0","0","78061","","null","","","null","77","","NaN","","","","","","","","","","","","","",""
"","response","","html-keyboard-response","511","386382","0.0-1.0-698.0-0.0","0","0","78061","","119","","","75","77","","","2","77","training","adjacent","GF","7","6","O.jpg","N.jpg","1","0","0","",""
"","feedback","","html-keyboard-response","512","387387","0.0-1.0-699.0-0.0","0","0","78061","","null","","","null","77","","","","","","","","","","","","","","","",""
"","time_out","","html-keyboard-response","513","389398","0.0-1.0-701.0-0.0","0","0","78061","","null","","","null","77","","","","","","","","","","","","","","","",""
"","ITI","","html-keyboard-response","514","390406","0.0-1.0-702.0","0","0","78061","","null","","","null","77","","","","","","","","","","","","","","","NaN",""
"","S1","","html-keyboard-response","515","390662","0.0-1.0-704.0","0","0","78061","","null","","","null","78","","","","","","","","","","","","","","","",""
"","ISI","","html-keyboard-response","516","390822","0.0-1.0-705.0","0","0","78061","","null","","","null","78","NaN","","","","","","","","","","","","","","",""
"","S2","","html-keyboard-response","517","391078","0.0-1.0-706.0","0","0","78061","","null","","","null","78","","NaN","","","","","","","","","","","","","",""
"","response","","html-keyboard-response","518","391303","0.0-1.0-707.0-0.0","0","0","78061","","224","","","68","78","","","2","78","training","adjacent","FG","6","7","N.jpg","O.jpg","0","1","0","",""
"","feedback","","html-keyboard-response","519","392309","0.0-1.0-708.0-0.0","0","0","78061","","null","","","null","78","","","","","","","","","","","","","","","",""
"","time_out","","html-keyboard-response","520","394315","0.0-1.0-710.0-0.0","0","0","78061","","null","","","null","78","","","","","","","","","","","","","","","",""
"","ITI","","html-keyboard-response","521","395323","0.0-1.0-711.0","0","0","78061","","null","","","null","78","","","","","","","","","","","","","","","NaN",""
"","S1","","html-keyboard-response","522","395579","0.0-1.0-713.0","0","0","78061","","null","","","null","79","","","","","","","","","","","","","","","",""
"","ISI","","html-keyboard-response","523","395739","0.0-1.0-714.0","0","0","78061","","null","","","null","79","NaN","","","","","","","","","","","","","","",""
"","S2","","html-keyboard-response","524","395995","0.0-1.0-715.0","0","0","78061","","null","","","null","79","","NaN","","","","","","","","","","","","","",""
"","response","","html-keyboard-response","525","396097","0.0-1.0-716.0-0.0","0","0","78061","","100","","","68","79","","","2","79","training","adjacent","BC","2","3","L.jpg","Q.jpg","0","1","0","",""
"","feedback","","html-keyboard-response","526","397109","0.0-1.0-717.0-0.0","0","0","78061","","null","","","null","79","","","","","","","","","","","","","","","",""
"","time_out","","html-keyboard-response","527","399114","0.0-1.0-719.0-0.0","0","0","78061","","null","","","null","79","","","","","","","","","","","","","","","",""
"","ITI","","html-keyboard-response","528","400123","0.0-1.0-720.0","0","0","78061","","null","","","null","79","","","","","","","","","","","","","","","NaN",""
"","S1","","html-keyboard-response","529","400379","0.0-1.0-722.0","0","0","78061","","null","","","null","80","","","","","","","","","","","","","","","",""
"","ISI","","html-keyboard-response","530","400539","0.0-1.0-723.0","0","0","78061","","null","","","null","80","NaN","","","","","","","","","","","","","","",""
"","S2","","html-keyboard-response","531","400795","0.0-1.0-724.0","0","0","78061","","null","","","null","80","","NaN","","","","","","","","","","","","","",""
"","response","","html-keyboard-response","532","400920","0.0-1.0-725.0-0.0","0","0","78061","","124","","","75","80","","","2","80","training","adjacent","ED","5","4","M.jpg","R.jpg","1","0","0","",""
"","feedback","","html-keyboard-response","533","401931","0.0-1.0-726.0-0.0","0","0","78061","","null","","","null","80","","","","","","","","","","","","","","","",""
"","time_out","","html-keyboard-response","534","403942","0.0-1.0-728.0-0.0","0","0","78061","","null","","","null","80","","","","","","","","","","","","","","","",""
"","ITI","","html-keyboard-response","535","404950","0.0-1.0-729.0","0","0","78061","","null","","","null","80","","","","","","","","","","","","","","","NaN",""
"","S1","","html-keyboard-response","536","405205","0.0-1.0-731.0","0","0","78061","","null","","","null","81","","","","","","","","","","","","","","","",""
"","ISI","","html-keyboard-response","537","405365","0.0-1.0-732.0","0","0","78061","","null","","","null","81","NaN","","","","","","","","","","","","","","",""
"","S2","","html-keyboard-response","538","405622","0.0-1.0-733.0","0","0","78061","","null","","","null","81","","NaN","","","","","","","","","","","","","",""
"","response","","html-keyboard-response","539","405687","0.0-1.0-734.0-0.0","0","0","78061","","64","","","75","81","","","2","81","training","adjacent","EF","5","6","M.jpg","N.jpg","1","1","1","",""
"","feedback","","html-keyboard-response","540","406694","0.0-1.0-735.0-0.0","0","0","78061","","null","","","null","81","","","","","","","","","","","","","","","",""
"","ITI","","html-keyboard-response","541","407702","0.0-1.0-738.0","0","0","78061","","null","","","null","81","","","","","","","","","","","","","","","NaN",""
"","S1","","html-keyboard-response","542","407958","0.0-1.0-740.0","0","0","78061","","null","","","null","82","","","","","","","","","","","","","","","",""
"","ISI","","html-keyboard-response","543","408118","0.0-1.0-741.0","0","0","78061","","null","","","null","82","NaN","","","","","","","","","","","","","","",""
"","S2","","html-keyboard-response","544","408373","0.0-1.0-742.0","0","0","78061","","null","","","null","82","","NaN","","","","","","","","","","","","","",""
"","response","","html-keyboard-response","545","408418","0.0-1.0-743.0-0.0","0","0","78061","","43","","","75","82","","","2","82","training","adjacent","ED","5","4","M.jpg","R.jpg","1","0","0","",""
"","feedback","","html-keyboard-response","546","409430","0.0-1.0-744.0-0.0","0","0","78061","","null","","","null","82","","","","","","","","","","","","","","","",""
"","time_out","","html-keyboard-response","547","411435","0.0-1.0-746.0-0.0","0","0","78061","","null","","","null","82","","","","","","","","","","","","","","","",""
"","ITI","","html-keyboard-response","548","412443","0.0-1.0-747.0","0","0","78061","","null","","","null","82","","","","","","","","","","","","","","","NaN",""
"","S1","","html-keyboard-response","549","412699","0.0-1.0-749.0","0","0","78061","","null","","","null","83","","","","","","","","","","","","","","","",""
"","ISI","","html-keyboard-response","550","412859","0.0-1.0-750.0","0","0","78061","","null","","","null","83","NaN","","","","","","","","","","","","","","",""
"","S2","","html-keyboard-response","551","413115","0.0-1.0-751.0","0","0","78061","","null","","","null","83","","NaN","","","","","","","","","","","","","",""
"","response","","html-keyboard-response","552","413208","0.0-1.0-752.0-0.0","0","0","78061","","92","","","68","83","","","2","83","training","adjacent","GF","7","6","O.jpg","N.jpg","0","0","1","",""
"","feedback","","html-keyboard-response","553","414214","0.0-1.0-753.0-0.0","0","0","78061","","null","","","null","83","","","","","","","","","","","","","","","",""
"","ITI","","html-keyboard-response","554","415221","0.0-1.0-756.0","0","0","78061","","null","","","null","83","","","","","","","","","","","","","","","NaN",""
"","S1","","html-keyboard-response","555","415477","0.0-1.0-758.0","0","0","78061","","null","","","null","84","","","","","","","","","","","","","","","",""
"","ISI","","html-keyboard-response","556","415638","0.0-1.0-759.0","0","0","78061","","null","","","null","84","NaN","","","","","","","","","","","","","","",""
"","S2","","html-keyboard-response","557","415894","0.0-1.0-760.0","0","0","78061","","null","","","null","84","","NaN","","","","","","","","","","","","","",""
"","response","","html-keyboard-response","558","415969","0.0-1.0-761.0-0.0","0","0","78061","","74","","","68","84","","","2","84","training","adjacent","AB","1","2","P.jpg","L.jpg","0","1","0","",""
"","feedback","","html-keyboard-response","559","416981","0.0-1.0-762.0-0.0","0","0","78061","","null","","","null","84","","","","","","","","","","","","","","","",""
"","time_out","","html-keyboard-response","560","418987","0.0-1.0-764.0-0.0","0","0","78061","","null","","","null","84","","","","","","","","","","","","","","","",""
"","ITI","","html-keyboard-response","561","419995","0.0-1.0-765.0","0","0","78061","","null","","","null","84","","","","","","","","","","","","","","","NaN",""
"","S1","","html-keyboard-response","562","420250","0.0-1.0-767.0","0","0","78061","","null","","","null","85","","","","","","","","","","","","","","","",""
"","ISI","","html-keyboard-response","563","420405","0.0-1.0-768.0","0","0","78061","","null","","","null","85","NaN","","","","","","","","","","","","","","",""
"","S2","","html-keyboard-response","564","420662","0.0-1.0-769.0","0","0","78061","","null","","","null","85","","NaN","","","","","","","","","","","","","",""
"","response","","html-keyboard-response","565","420735","0.0-1.0-770.0-0.0","0","0","78061","","71","","","68","85","","","2","85","training","adjacent","DE","4","5","R.jpg","M.jpg","0","1","0","",""
"","feedback","","html-keyboard-response","566","421739","0.0-1.0-771.0-0.0","0","0","78061","","null","","","null","85","","","","","","","","","","","","","","","",""
"","time_out","","html-keyboard-response","567","423750","0.0-1.0-773.0-0.0","0","0","78061","","null","","","null","85","","","","","","","","","","","","","","","",""
"","ITI","","html-keyboard-response","568","424758","0.0-1.0-774.0","0","0","78061","","null","","","null","85","","","","","","","","","","","","","","","NaN",""
"","S1","","html-keyboard-response","569","425014","0.0-1.0-776.0","0","0","78061","","null","","","null","86","","","","","","","","","","","","","","","",""
"","ISI","","html-keyboard-response","570","425173","0.0-1.0-777.0","0","0","78061","","null","","","null","86","NaN","","","","","","","","","","","","","","",""
"","S2","","html-keyboard-response","571","425430","0.0-1.0-778.0","0","0","78061","","null","","","null","86","","NaN","","","","","","","","","","","","","",""
"","response","","html-keyboard-response","572","425512","0.0-1.0-779.0-0.0","0","0","78061","","81","","","68","86","","","2","86","training","adjacent","DC","4","3","R.jpg","Q.jpg","0","0","1","",""
"","feedback","","html-keyboard-response","573","426518","0.0-1.0-780.0-0.0","0","0","78061","","null","","","null","86","","","","","","","","","","","","","","","",""
"","ITI","","html-keyboard-response","574","427526","0.0-1.0-783.0","0","0","78061","","null","","","null","86","","","","","","","","","","","","","","","NaN",""
"","S1","","html-keyboard-response","575","427782","0.0-1.0-785.0","0","0","78061","","null","","","null","87","","","","","","","","","","","","","","","",""
"","ISI","","html-keyboard-response","576","427942","0.0-1.0-786.0","0","0","78061","","null","","","null","87","NaN","","","","","","","","","","","","","","",""
"","S2","","html-keyboard-response","577","428197","0.0-1.0-787.0","0","0","78061","","null","","","null","87","","NaN","","","","","","","","","","","","","",""
"","response","","html-keyboard-response","578","428475","0.0-1.0-788.0-0.0","0","0","78061","","276","","","75","87","","","2","87","training","adjacent","CD","3","4","Q.jpg","R.jpg","1","1","1","",""
"","feedback","","html-keyboard-response","579","429483","0.0-1.0-789.0-0.0","0","0","78061","","null","","","null","87","","","","","","","","","","","","","","","",""
"","ITI","","html-keyboard-response","580","430491","0.0-1.0-792.0","0","0","78061","","null","","","null","87","","","","","","","","","","","","","","","NaN",""
"","S1","","html-keyboard-response","581","430747","0.0-1.0-794.0","0","0","78061","","null","","","null","88","","","","","","","","","","","","","","","",""
