"success","ttype","start_time","trial_type","trial_index","time_elapsed","internal_node_id","warning","missed_checkup","PID","view_history","rt","responses","repeat_instructions","key_press","index","keypress_isi","keypress_S2","block","trial_num","phase","group_type","pair_type","S1_stim","S2_stim","S1_img","S2_img","S1_chosen","S1_higher","accuracy","keypress_iti","total_bonus_tally"
"true","full_screen","d04142023hr0155","fullscreen","0","165769","0.0-0.0","0","0","13622","","","","","","","","","","","","","","","","","","","","","",""
"","instructions","","instructions","1","381518","0.0-1.0-0.0-0.0","0","0","13622","[{""page_index"":0,""viewing_time"":3915},{""page_index"":1,""viewing_time"":48576},{""page_index"":2,""viewing_time"":161216},{""page_index"":3,""viewing_time"":2039}]","215747","","","","","","","","","","","","","","","","","","","",""
"","comprehension_check","","survey-multi-choice","2","446486","0.0-1.0-0.0-1.0","0","0","13622","","64965","{""Q0"":""True"",""Q1"":""D"",""Q2"":""Once the second image appears and while the screen 'MAKE A CHOICE' is shown"",""Q3"":""Green mark"",""Q4"":""either D or K""}","0","","","","","","","","","","","","","","","","","",""
"","start_exp","","html-keyboard-response","3","469200","0.0-1.0-1.0","0","0","13622","","22711","","","32","","","","","","","","","","","","","","","","",""
"","S1","","html-keyboard-response","4","469452","0.0-1.0-2.0","0","0","13622","","null","","","null","0","","","","","","","","","","","","","","","",""
"","ISI","","html-keyboard-response","5","470455","0.0-1.0-3.0","0","0","13622","","null","","","null","0","NaN","","","","","","","","","","","","","","",""
"","S2","","html-keyboard-response","6","470707","0.0-1.0-4.0","0","0","13622","","null","","","null","0","","NaN","","","","","","","","","","","","","",""
"","response","","html-keyboard-response","7","471836","0.0-1.0-5.0-0.0","0","0","13622","","1127","","","68","0","","","1","0","training","adjacent","AB","1","2","M.jpg","R.jpg","1","1","1","",""
"","feedback","","html-keyboard-response","8","472839","0.0-1.0-6.0-0.0","0","0","13622","","null","","","null","0","","","","","","","","","","","","","","","",""
"","ITI","","html-keyboard-response","9","473842","0.0-1.0-9.0","0","0","13622","","null","","","null","0","","","","","","","","","","","","","","","NaN",""
"","S1","","html-keyboard-response","10","474094","0.0-1.0-11.0","0","0","13622","","null","","","null","1","","","","","","","","","","","","","","","",""
"","ISI","","html-keyboard-response","11","475096","0.0-1.0-12.0","0","0","13622","","null","","","null","1","NaN","","","","","","","","","","","","","","",""
"","S2","","html-keyboard-response","12","475349","0.0-1.0-13.0","0","0","13622","","null","","","null","1","","NaN","","","","","","","","","","","","","",""
"","response","","html-keyboard-response","13","475519","0.0-1.0-14.0-0.0","0","0","13622","","169","","","68","1","","","1","1","training","adjacent","FE","6","5","L.jpg","O.jpg","1","0","0","",""
"","feedback","","html-keyboard-response","14","476522","0.0-1.0-15.0-0.0","0","0","13622","","null","","","null","1","","","","","","","","","","","","","","","",""
"","time_out","","html-keyboard-response","15","478524","0.0-1.0-17.0-0.0","0","0","13622","","null","","","null","1","","","","","","","","","","","","","","","",""
"","ITI","","html-keyboard-response","16","479526","0.0-1.0-18.0","0","0","13622","","null","","","null","1","","","","","","","","","","","","","","","NaN",""
"","S1","","html-keyboard-response","17","479779","0.0-1.0-20.0","0","0","13622","","null","","","null","2","","","","","","","","","","","","","","","",""
"","ISI","","html-keyboard-response","18","480781","0.0-1.0-21.0","0","0","13622","","null","","","null","2","NaN","","","","","","","","","","","","","","",""
"","S2","","html-keyboard-response","19","481033","0.0-1.0-22.0","0","0","13622","","null","","","null","2","","NaN","","","","","","","","","","","","","",""
"","response","","html-keyboard-response","20","481096","0.0-1.0-23.0-0.0","0","0","13622","","61","","","75","2","","","1","2","training","adjacent","BA","2","1","R.jpg","M.jpg","0","0","1","",""
"","feedback","","html-keyboard-response","21","482099","0.0-1.0-24.0-0.0","0","0","13622","","null","","","null","2","","","","","","","","","","","","","","","",""
"","ITI","","html-keyboard-response","22","483101","0.0-1.0-27.0","0","0","13622","","null","","","null","2","","","","","","","","","","","","","","","NaN",""
"","S1","","html-keyboard-response","23","483353","0.0-1.0-29.0","0","0","13622","","null","","","null","3","","","","","","","","","","","","","","","",""
"","ISI","","html-keyboard-response","24","484355","0.0-1.0-30.0","0","0","13622","","null","","","null","3","NaN","","","","","","","","","","","","","","",""
"","S2","","html-keyboard-response","25","484608","0.0-1.0-31.0","0","0","13622","","null","","","null","3","","NaN","","","","","","","","","","","","","",""
"","response","","html-keyboard-response","26","484810","0.0-1.0-32.0-0.0","0","0","13622","","200","","","75","3","","","1","3","training","adjacent","ED","5","4","O.jpg","P.jpg","0","0","1","",""
"","feedback","","html-keyboard-response","27","485813","0.0-1.0-33.0-0.0","0","0","13622","","null","","","null","3","","","","","","","","","","","","","","","",""
"","ITI","","html-keyboard-response","28","486816","0.0-1.0-36.0","0","0","13622","","null","","","null","3","","","","","","","","","","","","","","","NaN",""
"","S1","","html-keyboard-response","29","487068","0.0-1.0-38.0","0","0","13622","","null","","","null","4","","","","","","","","","","","","","","","",""
"","ISI","","html-keyboard-response","30","488071","0.0-1.0-39.0","0","0","13622","","null","","","null","4","NaN","","","","","","","","","","","","","","",""
"","S2","","html-keyboard-response","31","488323","0.0-1.0-40.0","0","0","13622","","null","","","null","4","","NaN","","","","","","","","","","","","","",""
"","response","","html-keyboard-response","32","488720","0.0-1.0-41.0-0.0","0","0","13622","","396","","","68","4","","","1","4","training","adjacent","DE","4","5","P.jpg","O.jpg","1","1","1","",""
"","feedback","","html-keyboard-response","33","489723","0.0-1.0-42.0-0.0","0","0","13622","","null","","","null","4","","","","","","","","","","","","","","","",""
"","ITI","","html-keyboard-response","34","490724","0.0-1.0-45.0","0","0","13622","","null","","","null","4","","","","","","","","","","","","","","","NaN",""
"","S1","","html-keyboard-response","35","490977","0.0-1.0-47.0","0","0","13622","","null","","","null","5","","","","","","","","","","","","","","","",""
"","ISI","","html-keyboard-response","36","491980","0.0-1.0-48.0","0","0","13622","","null","","","null","5","NaN","","","","","","","","","","","","","","",""
"","S2","","html-keyboard-response","37","492233","0.0-1.0-49.0","0","0","13622","","null","","","null","5","","NaN","","","","","","","","","","","","","",""
"","response","","html-keyboard-response","38","492792","0.0-1.0-50.0-0.0","0","0","13622","","558","","","75","5","","","1","5","training","adjacent","FG","6","7","L.jpg","N.jpg","0","1","0","",""
"","feedback","","html-keyboard-response","39","493794","0.0-1.0-51.0-0.0","0","0","13622","","null","","","null","5","","","","","","","","","","","","","","","",""
"","time_out","","html-keyboard-response","40","495796","0.0-1.0-53.0-0.0","0","0","13622","","null","","","null","5","","","","","","","","","","","","","","","",""
"","ITI","","html-keyboard-response","41","496798","0.0-1.0-54.0","0","0","13622","","null","","","null","5","","","","","","","","","","","","","","","NaN",""
"","S1","","html-keyboard-response","42","497052","0.0-1.0-56.0","0","0","13622","","null","","","null","6","","","","","","","","","","","","","","","",""
"","ISI","","html-keyboard-response","43","498054","0.0-1.0-57.0","0","0","13622","","null","","","null","6","NaN","","","","","","","","","","","","","","",""
"","S2","","html-keyboard-response","44","498306","0.0-1.0-58.0","0","0","13622","","null","","","null","6","","NaN","","","","","","","","","","","","","",""
"","response","","html-keyboard-response","45","498979","0.0-1.0-59.0-0.0","0","0","13622","","672","","","68","6","","","1","6","training","adjacent","FG","6","7","L.jpg","N.jpg","1","1","1","",""
"","feedback","","html-keyboard-response","46","499982","0.0-1.0-60.0-0.0","0","0","13622","","null","","","null","6","","","","","","","","","","","","","","","",""
"","ITI","","html-keyboard-response","47","500984","0.0-1.0-63.0","0","0","13622","","null","","","null","6","","","","","","","","","","","","","","","NaN",""
"","S1","","html-keyboard-response","48","501236","0.0-1.0-65.0","0","0","13622","","null","","","null","7","","","","","","","","","","","","","","","",""
"","ISI","","html-keyboard-response","49","502243","0.0-1.0-66.0","0","0","13622","","null","","","null","7","NaN","","","","","","","","","","","","","","",""
"","S2","","html-keyboard-response","50","502497","0.0-1.0-67.0","0","0","13622","","null","","","null","7","","NaN","","","","","","","","","","","","","",""
"","response","","html-keyboard-response","51","502776","0.0-1.0-68.0-0.0","0","0","13622","","277","","","68","7","","","1","7","training","adjacent","AB","1","2","M.jpg","R.jpg","1","1","1","",""
"","feedback","","html-keyboard-response","52","503779","0.0-1.0-69.0-0.0","0","0","13622","","null","","","null","7","","","","","","","","","","","","","","","",""
"","ITI","","html-keyboard-response","53","504782","0.0-1.0-72.0","0","0","13622","","null","","","null","7","","","","","","","","","","","","","","","NaN",""
"","S1","","html-keyboard-response","54","505036","0.0-1.0-74.0","0","0","13622","","null","","","null","8","","","","","","","","","","","","","","","",""
"","ISI","","html-keyboard-response","55","506039","0.0-1.0-75.0","0","0","13622","","null","","","null","8","NaN","","","","","","","","","","","","","","",""
"","S2","","html-keyboard-response","56","506291","0.0-1.0-76.0","0","0","13622","","null","","","null","8","","NaN","","","","","","","","","","","","","",""
"","response","","html-keyboard-response","57","506597","0.0-1.0-77.0-0.0","0","0","13622","","305","","","68","8","","","1","8","training","adjacent","DE","4","5","P.jpg","O.jpg","1","1","1","",""
"","feedback","","html-keyboard-response","58","507600","0.0-1.0-78.0-0.0","0","0","13622","","null","","","null","8","","","","","","","","","","","","","","","",""
"","ITI","","html-keyboard-response","59","508603","0.0-1.0-81.0","0","0","13622","","null","","","null","8","","","","","","","","","","","","","","","NaN",""
"","S1","","html-keyboard-response","60","508855","0.0-1.0-83.0","0","0","13622","","null","","","null","9","","","","","","","","","","","","","","","",""
"","ISI","","html-keyboard-response","61","509858","0.0-1.0-84.0","0","0","13622","","null","","","null","9","NaN","","","","","","","","","","","","","","",""
"","S2","","html-keyboard-response","62","510110","0.0-1.0-85.0","0","0","13622","","null","","","null","9","","NaN","","","","","","","","","","","","","",""
"","response","","html-keyboard-response","63","510811","0.0-1.0-86.0-0.0","0","0","13622","","701","","","68","9","","","1","9","training","adjacent","FG","6","7","L.jpg","N.jpg","1","1","1","",""
"","feedback","","html-keyboard-response","64","511814","0.0-1.0-87.0-0.0","0","0","13622","","null","","","null","9","","","","","","","","","","","","","","","",""
"","ITI","","html-keyboard-response","65","512827","0.0-1.0-90.0","0","0","13622","","null","","","null","9","","","","","","","","","","","","","","","NaN",""
"","S1","","html-keyboard-response","66","513078","0.0-1.0-92.0","0","0","13622","","null","","","null","10","","","","","","","","","","","","","","","",""
"","ISI","","html-keyboard-response","67","514080","0.0-1.0-93.0","0","0","13622","","null","","","null","10","NaN","","","","","","","","","","","","","","",""
"","S2","","html-keyboard-response","68","514332","0.0-1.0-94.0","0","0","13622","","null","","","null","10","","NaN","","","","","","","","","","","","","",""
"","response","","html-keyboard-response","69","514635","0.0-1.0-95.0-0.0","0","0","13622","","301","","","68","10","","","1","10","training","adjacent","AB","1","2","M.jpg","R.jpg","1","1","1","",""
"","feedback","","html-keyboard-response","70","515637","0.0-1.0-96.0-0.0","0","0","13622","","null","","","null","10","","","","","","","","","","","","","","","",""
"","ITI","","html-keyboard-response","71","516651","0.0-1.0-99.0","0","0","13622","","null","","","null","10","","","","","","","","","","","","","","","NaN",""
"","S1","","html-keyboard-response","72","516903","0.0-1.0-101.0","0","0","13622","","null","","","null","11","","","","","","","","","","","","","","","",""
"","ISI","","html-keyboard-response","73","517906","0.0-1.0-102.0","0","0","13622","","null","","","null","11","NaN","","","","","","","","","","","","","","",""
"","S2","","html-keyboard-response","74","518159","0.0-1.0-103.0","0","0","13622","","null","","","null","11","","NaN","","","","","","","","","","","","","",""
"","response","","html-keyboard-response","75","518496","0.0-1.0-104.0-0.0","0","0","13622","","336","","","75","11","","","1","11","training","adjacent","BA","2","1","R.jpg","M.jpg","0","0","1","",""
"","feedback","","html-keyboard-response","76","519499","0.0-1.0-105.0-0.0","0","0","13622","","null","","","null","11","","","","","","","","","","","","","","","",""
"","ITI","","html-keyboard-response","77","520502","0.0-1.0-108.0","0","0","13622","","null","","","null","11","","","","","","","","","","","","","","","NaN",""
"","S1","","html-keyboard-response","78","520754","0.0-1.0-110.0","0","0","13622","","null","","","null","12","","","","","","","","","","","","","","","",""
"","ISI","","html-keyboard-response","79","521756","0.0-1.0-111.0","0","0","13622","","null","","","null","12","NaN","","","","","","","","","","","","","","",""
"","S2","","html-keyboard-response","80","522008","0.0-1.0-112.0","0","0","13622","","null","","","null","12","","NaN","","","","","","","","","","","","","",""
"","response","","html-keyboard-response","81","522216","0.0-1.0-113.0-0.0","0","0","13622","","207","","","68","12","","","1","12","training","adjacent","GF","7","6","N.jpg","L.jpg","1","0","0","",""
"","feedback","","html-keyboard-response","82","523217","0.0-1.0-114.0-0.0","0","0","13622","","null","","","null","12","","","","","","","","","","","","","","","",""
"","time_out","","html-keyboard-response","83","525220","0.0-1.0-116.0-0.0","0","0","13622","","null","","","null","12","","","","","","","","","","","","","","","",""
"","ITI","","html-keyboard-response","84","526223","0.0-1.0-117.0","0","0","13622","","null","","","null","12","","","","","","","","","","","","","","","NaN",""
"","S1","","html-keyboard-response","85","526475","0.0-1.0-119.0","0","0","13622","","null","","","null","13","","","","","","","","","","","","","","","",""
"","ISI","","html-keyboard-response","86","527476","0.0-1.0-120.0","0","0","13622","","null","","","null","13","NaN","","","","","","","","","","","","","","",""
"","S2","","html-keyboard-response","87","527729","0.0-1.0-121.0","0","0","13622","","null","","","null","13","","NaN","","","","","","","","","","","","","",""
"","response","","html-keyboard-response","88","528424","0.0-1.0-122.0-0.0","0","0","13622","","694","","","68","13","","","1","13","training","adjacent","DC","4","3","P.jpg","Q.jpg","1","0","0","",""
"","feedback","","html-keyboard-response","89","529426","0.0-1.0-123.0-0.0","0","0","13622","","null","","","null","13","","","","","","","","","","","","","","","",""
"","time_out","","html-keyboard-response","90","531428","0.0-1.0-125.0-0.0","0","0","13622","","null","","","null","13","","","","","","","","","","","","","","","",""
"","ITI","","html-keyboard-response","91","532431","0.0-1.0-126.0","0","0","13622","","null","","","null","13","","","","","","","","","","","","","","","NaN",""
"","S1","","html-keyboard-response","92","532684","0.0-1.0-128.0","0","0","13622","","null","","","null","14","","","","","","","","","","","","","","","",""
"","ISI","","html-keyboard-response","93","533686","0.0-1.0-129.0","0","0","13622","","null","","","null","14","NaN","","","","","","","","","","","","","","",""
"","S2","","html-keyboard-response","94","533939","0.0-1.0-130.0","0","0","13622","","null","","","null","14","","NaN","","","","","","","","","","","","","",""
"","response","","html-keyboard-response","95","534105","0.0-1.0-131.0-0.0","0","0","13622","","164","","","75","14","","","1","14","training","adjacent","EF","5","6","O.jpg","L.jpg","0","1","0","",""
"","feedback","","html-keyboard-response","96","535107","0.0-1.0-132.0-0.0","0","0","13622","","null","","","null","14","","","","","","","","","","","","","","","",""
"","time_out","","html-keyboard-response","97","537109","0.0-1.0-134.0-0.0","0","0","13622","","null","","","null","14","","","","","","","","","","","","","","","",""
"","ITI","","html-keyboard-response","98","538111","0.0-1.0-135.0","0","0","13622","","null","","","null","14","","","","","","","","","","","","","","","NaN",""
"","S1","","html-keyboard-response","99","538363","0.0-1.0-137.0","0","0","13622","","null","","","null","15","","","","","","","","","","","","","","","",""
"","ISI","","html-keyboard-response","100","539365","0.0-1.0-138.0","0","0","13622","","null","","","null","15","NaN","","","","","","","","","","","","","","",""
"","S2","","html-keyboard-response","101","539617","0.0-1.0-139.0","0","0","13622","","null","","","null","15","","NaN","","","","","","","","","","","","","",""
"","response","","html-keyboard-response","102","540423","0.0-1.0-140.0-0.0","0","0","13622","","806","","","75","15","","","1","15","training","adjacent","CB","3","2","Q.jpg","R.jpg","0","0","1","",""
"","feedback","","html-keyboard-response","103","541426","0.0-1.0-141.0-0.0","0","0","13622","","null","","","null","15","","","","","","","","","","","","","","","",""
"","ITI","","html-keyboard-response","104","542428","0.0-1.0-144.0","0","0","13622","","null","","","null","15","","","","","","","","","","","","","","","NaN",""
"","S1","","html-keyboard-response","105","542681","0.0-1.0-146.0","0","0","13622","","null","","","null","16","","","","","","","","","","","","","","","",""
"","ISI","","html-keyboard-response","106","543684","0.0-1.0-147.0","0","0","13622","","null","","","null","16","NaN","","","","","","","","","","","","","","",""
"","S2","","html-keyboard-response","107","543950","0.0-1.0-148.0","0","0","13622","","null","","","null","16","","NaN","","","","","","","","","","","","","",""
"","response","","html-keyboard-response","108","544433","0.0-1.0-149.0-0.0","0","0","13622","","481","","","68","16","","","1","16","training","adjacent","BC","2","3","R.jpg","Q.jpg","1","1","1","",""
"","feedback","","html-keyboard-response","109","545439","0.0-1.0-150.0-0.0","0","0","13622","","null","","","null","16","","","","","","","","","","","","","","","",""
"","ITI","","html-keyboard-response","110","546442","0.0-1.0-153.0","0","0","13622","","null","","","null","16","","","","","","","","","","","","","","","NaN",""
"","S1","","html-keyboard-response","111","546694","0.0-1.0-155.0","0","0","13622","","null","","","null","17","","","","","","","","","","","","","","","",""
"","ISI","","html-keyboard-response","112","547696","0.0-1.0-156.0","0","0","13622","","null","","","null","17","NaN","","","","","","","","","","","","","","",""
"","S2","","html-keyboard-response","113","547948","0.0-1.0-157.0","0","0","13622","","null","","","null","17","","NaN","","","","","","","","","","","","","",""
"","response","","html-keyboard-response","114","547964","0.0-1.0-158.0-0.0","0","0","13622","","15","","","75","17","","","1","17","training","adjacent","ED","5","4","O.jpg","P.jpg","0","0","1","",""
"","feedback","","html-keyboard-response","115","548967","0.0-1.0-159.0-0.0","0","0","13622","","null","","","null","17","","","","","","","","","","","","","","","",""
"","ITI","","html-keyboard-response","116","549969","0.0-1.0-162.0","0","0","13622","","null","","","null","17","","","","","","","","","","","","","","","NaN",""
"","S1","","html-keyboard-response","117","550222","0.0-1.0-164.0","0","0","13622","","null","","","null","18","","","","","","","","","","","","","","","",""
"","ISI","","html-keyboard-response","118","551224","0.0-1.0-165.0","0","0","13622","","null","","","null","18","NaN","","","","","","","","","","","","","","",""
"","S2","","html-keyboard-response","119","551476","0.0-1.0-166.0","0","0","13622","","null","","","null","18","","NaN","","","","","","","","","","","","","",""
"","response","","html-keyboard-response","120","551604","0.0-1.0-167.0-0.0","0","0","13622","","127","","","75","18","","","1","18","training","adjacent","GF","7","6","N.jpg","L.jpg","0","0","1","",""
"","feedback","","html-keyboard-response","121","552607","0.0-1.0-168.0-0.0","0","0","13622","","null","","","null","18","","","","","","","","","","","","","","","",""
"","ITI","","html-keyboard-response","122","553609","0.0-1.0-171.0","0","0","13622","","null","","","null","18","","","","","","","","","","","","","","","NaN",""
"","S1","","html-keyboard-response","123","553861","0.0-1.0-173.0","0","0","13622","","null","","","null","19","","","","","","","","","","","","","","","",""
"","ISI","","html-keyboard-response","124","554877","0.0-1.0-174.0","0","0","13622","","null","","","null","19","NaN","","","","","","","","","","","","","","",""
"","S2","","html-keyboard-response","125","555129","0.0-1.0-175.0","0","0","13622","","null","","","null","19","","NaN","","","","","","","","","","","","","",""
"","response","","html-keyboard-response","126","555384","0.0-1.0-176.0-0.0","0","0","13622","","253","","","68","19","","","1","19","training","adjacent","AB","1","2","M.jpg","R.jpg","1","1","1","",""
"","feedback","","html-keyboard-response","127","556386","0.0-1.0-177.0-0.0","0","0","13622","","null","","","null","19","","","","","","","","","","","","","","","",""
"","ITI","","html-keyboard-response","128","557389","0.0-1.0-180.0","0","0","13622","","null","","","null","19","","","","","","","","","","","","","","","NaN",""
"","S1","","html-keyboard-response","129","557641","0.0-1.0-182.0","0","0","13622","","null","","","null","20","","","","","","","","","","","","","","","",""
"","ISI","","html-keyboard-response","130","558643","0.0-1.0-183.0","0","0","13622","","null","","","null","20","NaN","","","","","","","","","","","","","","",""
"","S2","","html-keyboard-response","131","558895","0.0-1.0-184.0","0","0","13622","","null","","","null","20","","NaN","","","","","","","","","","","","","",""
"","response","","html-keyboard-response","132","559215","0.0-1.0-185.0-0.0","0","0","13622","","318","","","75","20","","","1","20","training","adjacent","ED","5","4","O.jpg","P.jpg","0","0","1","",""
"","feedback","","html-keyboard-response","133","560217","0.0-1.0-186.0-0.0","0","0","13622","","null","","","null","20","","","","","","","","","","","","","","","",""
"","ITI","","html-keyboard-response","134","561220","0.0-1.0-189.0","0","0","13622","","null","","","null","20","","","","","","","","","","","","","","","NaN",""
"","S1","","html-keyboard-response","135","561473","0.0-1.0-191.0","0","0","13622","","null","","","null","21","","","","","","","","","","","","","","","",""
"","ISI","","html-keyboard-response","136","562475","0.0-1.0-192.0","0","0","13622","","null","","","null","21","NaN","","","","","","","","","","","","","","",""
"","S2","","html-keyboard-response","137","562728","0.0-1.0-193.0","0","0","13622","","null","","","null","21","","NaN","","","","","","","","","","","","","",""
"","response","","html-keyboard-response","138","563395","0.0-1.0-194.0-0.0","0","0","13622","","666","","","75","21","","","1","21","training","adjacent","EF","5","6","O.jpg","L.jpg","0","1","0","",""
"","feedback","","html-keyboard-response","139","564398","0.0-1.0-195.0-0.0","0","0","13622","","null","","","null","21","","","","","","","","","","","","","","","",""
"","time_out","","html-keyboard-response","140","566401","0.0-1.0-197.0-0.0","0","0","13622","","null","","","null","21","","","","","","","","","","","","","","","",""
"","ITI","","html-keyboard-response","141","567404","0.0-1.0-198.0","0","0","13622","","null","","","null","21","","","","","","","","","","","","","","","NaN",""
"","S1","","html-keyboard-response","142","567662","0.0-1.0-200.0","0","0","13622","","null","","","null","22","","","","","","","","","","","","","","","",""
"","ISI","","html-keyboard-response","143","568678","0.0-1.0-201.0","0","0","13622","","null","","","null","22","NaN","","","","","","","","","","","","","","",""
"","S2","","html-keyboard-response","144","568931","0.0-1.0-202.0","0","0","13622","","null","","","null","22","","NaN","","","","","","","","","","","","","",""
"","response","","html-keyboard-response","145","569724","0.0-1.0-203.0-0.0","0","0","13622","","792","","","68","22","","","1","22","training","adjacent","CB","3","2","Q.jpg","R.jpg","1","0","0","",""
"","feedback","","html-keyboard-response","146","570726","0.0-1.0-204.0-0.0","0","0","13622","","null","","","null","22","","","","","","","","","","","","","","","",""
"","time_out","","html-keyboard-response","147","572730","0.0-1.0-206.0-0.0","0","0","13622","","null","","","null","22","","","","","","","","","","","","","","","",""
"","ITI","","html-keyboard-response","148","573732","0.0-1.0-207.0","0","0","13622","","null","","","null","22","","","","","","","","","","","","","","","NaN",""
"","S1","","html-keyboard-response","149","573985","0.0-1.0-209.0","0","0","13622","","null","","","null","23","","","","","","","","","","","","","","","",""
"","ISI","","html-keyboard-response","150","575001","0.0-1.0-210.0","0","0","13622","","null","","","null","23","NaN","","","","","","","","","","","","","","",""
"","S2","","html-keyboard-response","151","575254","0.0-1.0-211.0","0","0","13622","","null","","","null","23","","NaN","","","","","","","","","","","","","",""
"","response","","html-keyboard-response","152","575320","0.0-1.0-212.0-0.0","0","0","13622","","65","","","75","23","","","1","23","training","adjacent","GF","7","6","N.jpg","L.jpg","0","0","1","",""
"","feedback","","html-keyboard-response","153","576321","0.0-1.0-213.0-0.0","0","0","13622","","null","","","null","23","","","","","","","","","","","","","","","",""
"","ITI","","html-keyboard-response","154","577324","0.0-1.0-216.0","0","0","13622","","null","","","null","23","","","","","","","","","","","","","","","NaN",""
"","S1","","html-keyboard-response","155","577576","0.0-1.0-218.0","0","0","13622","","null","","","null","24","","","","","","","","","","","","","","","",""
"","ISI","","html-keyboard-response","156","578578","0.0-1.0-219.0","0","0","13622","","null","","","null","24","NaN","","","","","","","","","","","","","","",""
"","S2","","html-keyboard-response","157","578831","0.0-1.0-220.0","0","0","13622","","null","","","null","24","","NaN","","","","","","","","","","","","","",""
"","response","","html-keyboard-response","158","578907","0.0-1.0-221.0-0.0","0","0","13622","","75","","","75","24","","","1","24","training","adjacent","EF","5","6","O.jpg","L.jpg","0","1","0","",""
"","feedback","","html-keyboard-response","159","579910","0.0-1.0-222.0-0.0","0","0","13622","","null","","","null","24","","","","","","","","","","","","","","","",""
"","time_out","","html-keyboard-response","160","581912","0.0-1.0-224.0-0.0","0","0","13622","","null","","","null","24","","","","","","","","","","","","","","","",""
"","ITI","","html-keyboard-response","161","582915","0.0-1.0-225.0","0","0","13622","","null","","","null","24","","","","","","","","","","","","","","","NaN",""
"","S1","","html-keyboard-response","162","583168","0.0-1.0-227.0","0","0","13622","","null","","","null","25","","","","","","","","","","","","","","","",""
"","ISI","","html-keyboard-response","163","584170","0.0-1.0-228.0","0","0","13622","","null","","","null","25","NaN","","","","","","","","","","","","","","",""
"","S2","","html-keyboard-response","164","584423","0.0-1.0-229.0","0","0","13622","","null","","","null","25","","NaN","","","","","","","","","","","","","",""
"","response","","html-keyboard-response","165","584444","0.0-1.0-230.0-0.0","0","0","13622","","20","","","75","25","","","1","25","training","adjacent","GF","7","6","N.jpg","L.jpg","0","0","1","",""
"","feedback","","html-keyboard-response","166","585447","0.0-1.0-231.0-0.0","0","0","13622","","null","","","null","25","","","","","","","","","","","","","","","",""
"","ITI","","html-keyboard-response","167","586450","0.0-1.0-234.0","0","0","13622","","null","","","null","25","","","","","","","","","","","","","","","NaN",""
"","S1","","html-keyboard-response","168","586703","0.0-1.0-236.0","0","0","13622","","null","","","null","26","","","","","","","","","","","","","","","",""
"","ISI","","html-keyboard-response","169","587705","0.0-1.0-237.0","0","0","13622","","null","","","null","26","NaN","","","","","","","","","","","","","","",""
"","S2","","html-keyboard-response","170","587958","0.0-1.0-238.0","0","0","13622","","null","","","null","26","","NaN","","","","","","","","","","","","","",""
"","response","","html-keyboard-response","171","588384","0.0-1.0-239.0-0.0","0","0","13622","","425","","","75","26","","","1","26","training","adjacent","ED","5","4","O.jpg","P.jpg","0","0","1","",""
"","feedback","","html-keyboard-response","172","589386","0.0-1.0-240.0-0.0","0","0","13622","","null","","","null","26","","","","","","","","","","","","","","","",""
"","ITI","","html-keyboard-response","173","590389","0.0-1.0-243.0","0","0","13622","","null","","","null","26","","","","","","","","","","","","","","","NaN",""
"","S1","","html-keyboard-response","174","590642","0.0-1.0-245.0","0","0","13622","","null","","","null","27","","","","","","","","","","","","","","","",""
"","ISI","","html-keyboard-response","175","591644","0.0-1.0-246.0","0","0","13622","","null","","","null","27","NaN","","","","","","","","","","","","","","",""
"","S2","","html-keyboard-response","176","591897","0.0-1.0-247.0","0","0","13622","","null","","","null","27","","NaN","","","","","","","","","","","","","",""
"","response","","html-keyboard-response","177","592104","0.0-1.0-248.0-0.0","0","0","13622","","206","","","75","27","","","1","27","training","adjacent","BA","2","1","R.jpg","M.jpg","0","0","1","",""
"","feedback","","html-keyboard-response","178","593106","0.0-1.0-249.0-0.0","0","0","13622","","null","","","null","27","","","","","","","","","","","","","","","",""
"","ITI","","html-keyboard-response","179","594109","0.0-1.0-252.0","0","0","13622","","null","","","null","27","","","","","","","","","","","","","","","NaN",""
"","S1","","html-keyboard-response","180","594362","0.0-1.0-254.0","0","0","13622","","null","","","null","28","","","","","","","","","","","","","","","",""
"","ISI","","html-keyboard-response","181","595365","0.0-1.0-255.0","0","0","13622","","null","","","null","28","NaN","","","","","","","","","","","","","","",""
"","S2","","html-keyboard-response","182","595618","0.0-1.0-256.0","0","0","13622","","null","","","null","28","","NaN","","","","","","","","","","","","","",""
"","response","","html-keyboard-response","183","595728","0.0-1.0-257.0-0.0","0","0","13622","","109","","","75","28","","","1","28","training","adjacent","EF","5","6","O.jpg","L.jpg","0","1","0","",""
"","feedback","","html-keyboard-response","184","596732","0.0-1.0-258.0-0.0","0","0","13622","","null","","","null","28","","","","","","","","","","","","","","","",""
"","time_out","","html-keyboard-response","185","598734","0.0-1.0-260.0-0.0","0","0","13622","","null","","","null","28","","","","","","","","","","","","","","","",""
"","ITI","","html-keyboard-response","186","599737","0.0-1.0-261.0","0","0","13622","","null","","","null","28","","","","","","","","","","","","","","","NaN",""
"","S1","","html-keyboard-response","187","599989","0.0-1.0-263.0","0","0","13622","","null","","","null","29","","","","","","","","","","","","","","","",""
"","ISI","","html-keyboard-response","188","600992","0.0-1.0-264.0","0","0","13622","","null","","","null","29","NaN","","","","","","","","","","","","","","",""
"","S2","","html-keyboard-response","189","601244","0.0-1.0-265.0","0","0","13622","","null","","","null","29","","NaN","","","","","","","","","","","","","",""
"","response","","html-keyboard-response","190","601803","0.0-1.0-266.0-0.0","0","0","13622","","559","","","75","29","","","1","29","training","adjacent","CB","3","2","Q.jpg","R.jpg","0","0","1","",""
"","feedback","","html-keyboard-response","191","602805","0.0-1.0-267.0-0.0","0","0","13622","","null","","","null","29","","","","","","","","","","","","","","","",""
"","ITI","","html-keyboard-response","192","603808","0.0-1.0-270.0","0","0","13622","","null","","","null","29","","","","","","","","","","","","","","","NaN",""
"","S1","","html-keyboard-response","193","604061","0.0-1.0-272.0","0","0","13622","","null","","","null","30","","","","","","","","","","","","","","","",""
"","ISI","","html-keyboard-response","194","605064","0.0-1.0-273.0","0","0","13622","","null","","","null","30","NaN","","","","","","","","","","","","","","",""
"","S2","","html-keyboard-response","195","605316","0.0-1.0-274.0","0","0","13622","","null","","","null","30","","NaN","","","","","","","","","","","","","",""
"","response","","html-keyboard-response","196","605956","0.0-1.0-275.0-0.0","0","0","13622","","639","","","75","30","","","1","30","training","adjacent","CD","3","4","Q.jpg","P.jpg","0","1","0","",""
"","feedback","","html-keyboard-response","197","606959","0.0-1.0-276.0-0.0","0","0","13622","","null","","","null","30","","","","","","","","","","","","","","","",""
"","time_out","","html-keyboard-response","198","608961","0.0-1.0-278.0-0.0","0","0","13622","","null","","","null","30","","","","","","","","","","","","","","","",""
"","ITI","","html-keyboard-response","199","609963","0.0-1.0-279.0","0","0","13622","","null","","","null","30","","","","","","","","","","","","","","","NaN",""
"","S1","","html-keyboard-response","200","610215","0.0-1.0-281.0","0","0","13622","","null","","","null","31","","","","","","","","","","","","","","","",""
"","ISI","","html-keyboard-response","201","611218","0.0-1.0-282.0","0","0","13622","","null","","","null","31","NaN","","","","","","","","","","","","","","",""
"","S2","","html-keyboard-response","202","611471","0.0-1.0-283.0","0","0","13622","","null","","","null","31","","NaN","","","","","","","","","","","","","",""
"","response","","html-keyboard-response","203","611752","0.0-1.0-284.0-0.0","0","0","13622","","280","","","68","31","","","1","31","training","adjacent","FE","6","5","L.jpg","O.jpg","1","0","0","",""
"","feedback","","html-keyboard-response","204","612754","0.0-1.0-285.0-0.0","0","0","13622","","null","","","null","31","","","","","","","","","","","","","","","",""
"","time_out","","html-keyboard-response","205","614756","0.0-1.0-287.0-0.0","0","0","13622","","null","","","null","31","","","","","","","","","","","","","","","",""
"","ITI","","html-keyboard-response","206","615758","0.0-1.0-288.0","0","0","13622","","null","","","null","31","","","","","","","","","","","","","","","NaN",""
"","S1","","html-keyboard-response","207","616011","0.0-1.0-290.0","0","0","13622","","null","","","null","32","","","","","","","","","","","","","","","",""
"","ISI","","html-keyboard-response","208","617013","0.0-1.0-291.0","0","0","13622","","null","","","null","32","NaN","","","","","","","","","","","","","","",""
"","S2","","html-keyboard-response","209","617265","0.0-1.0-292.0","0","0","13622","","null","","","null","32","","NaN","","","","","","","","","","","","","",""
"","response","","html-keyboard-response","210","617488","0.0-1.0-293.0-0.0","0","0","13622","","222","","","68","32","","","1","32","training","adjacent","DC","4","3","P.jpg","Q.jpg","1","0","0","",""
"","feedback","","html-keyboard-response","211","618490","0.0-1.0-294.0-0.0","0","0","13622","","null","","","null","32","","","","","","","","","","","","","","","",""
"","time_out","","html-keyboard-response","212","620492","0.0-1.0-296.0-0.0","0","0","13622","","null","","","null","32","","","","","","","","","","","","","","","",""
"","ITI","","html-keyboard-response","213","621502","0.0-1.0-297.0","0","0","13622","","null","","","null","32","","","","","","","","","","","","","","","NaN",""
"","S1","","html-keyboard-response","214","621755","0.0-1.0-299.0","0","0","13622","","null","","","null","33","","","","","","","","","","","","","","","",""
"","ISI","","html-keyboard-response","215","622758","0.0-1.0-300.0","0","0","13622","","298","","","75","33","k","","","","","","","","","","","","","","",""
"","S2","","html-keyboard-response","216","623011","0.0-1.0-301.0","0","0","13622","","null","","","null","33","","NaN","","","","","","","","","","","","","",""
"","response","","html-keyboard-response","217","623975","0.0-1.0-302.0-0.0","0","0","13622","","964","","","68","33","","","1","33","training","adjacent","FE","6","5","L.jpg","O.jpg","1","0","0","",""
"","feedback","","html-keyboard-response","218","624978","0.0-1.0-303.0-0.0","0","0","13622","","null","","","null","33","","","","","","","","","","","","","","","",""
"","time_out","","html-keyboard-response","219","626981","0.0-1.0-305.0-0.0","0","0","13622","","null","","","null","33","","","","","","","","","","","","","","","",""
"","ITI","","html-keyboard-response","220","627983","0.0-1.0-306.0","0","0","13622","","null","","","null","33","","","","","","","","","","","","","","","NaN",""
"","S1","","html-keyboard-response","221","628236","0.0-1.0-308.0","0","0","13622","","null","","","null","34","","","","","","","","","","","","","","","",""
"","ISI","","html-keyboard-response","222","629237","0.0-1.0-309.0","0","0","13622","","null","","","null","34","NaN","","","","","","","","","","","","","","",""
"","S2","","html-keyboard-response","223","629490","0.0-1.0-310.0","0","0","13622","","null","","","null","34","","NaN","","","","","","","","","","","","","",""
"","response","","html-keyboard-response","224","630160","0.0-1.0-311.0-0.0","0","0","13622","","669","","","75","34","","","1","34","training","adjacent","BA","2","1","R.jpg","M.jpg","0","0","1","",""
"","feedback","","html-keyboard-response","225","631163","0.0-1.0-312.0-0.0","0","0","13622","","null","","","null","34","","","","","","","","","","","","","","","",""
"","ITI","","html-keyboard-response","226","632165","0.0-1.0-315.0","0","0","13622","","null","","","null","34","","","","","","","","","","","","","","","NaN",""
"","S1","","html-keyboard-response","227","632418","0.0-1.0-317.0","0","0","13622","","null","","","null","35","","","","","","","","","","","","","","","",""
"","ISI","","html-keyboard-response","228","633420","0.0-1.0-318.0","0","0","13622","","null","","","null","35","NaN","","","","","","","","","","","","","","",""
"","S2","","html-keyboard-response","229","633671","0.0-1.0-319.0","0","0","13622","","null","","","null","35","","NaN","","","","","","","","","","","","","",""
"","response","","html-keyboard-response","230","634187","0.0-1.0-320.0-0.0","0","0","13622","","514","","","75","35","","","1","35","training","adjacent","CD","3","4","Q.jpg","P.jpg","0","1","0","",""
"","feedback","","html-keyboard-response","231","635189","0.0-1.0-321.0-0.0","0","0","13622","","null","","","null","35","","","","","","","","","","","","","","","",""
"","time_out","","html-keyboard-response","232","637191","0.0-1.0-323.0-0.0","0","0","13622","","null","","","null","35","","","","","","","","","","","","","","","",""
"","ITI","","html-keyboard-response","233","638193","0.0-1.0-324.0","0","0","13622","","null","","","null","35","","","","","","","","","","","","","","","NaN",""
"","S1","","html-keyboard-response","234","638445","0.0-1.0-326.0","0","0","13622","","null","","","null","36","","","","","","","","","","","","","","","",""
"","ISI","","html-keyboard-response","235","639448","0.0-1.0-327.0","0","0","13622","","null","","","null","36","NaN","","","","","","","","","","","","","","",""
"","S2","","html-keyboard-response","236","639700","0.0-1.0-328.0","0","0","13622","","null","","","null","36","","NaN","","","","","","","","","","","","","",""
"","response","","html-keyboard-response","237","639807","0.0-1.0-329.0-0.0","0","0","13622","","106","","","68","36","","","1","36","training","adjacent","DE","4","5","P.jpg","O.jpg","1","1","1","",""
"","feedback","","html-keyboard-response","238","640809","0.0-1.0-330.0-0.0","0","0","13622","","null","","","null","36","","","","","","","","","","","","","","","",""
"","ITI","","html-keyboard-response","239","641812","0.0-1.0-333.0","0","0","13622","","null","","","null","36","","","","","","","","","","","","","","","NaN",""
"","S1","","html-keyboard-response","240","642065","0.0-1.0-335.0","0","0","13622","","null","","","null","37","","","","","","","","","","","","","","","",""
"","ISI","","html-keyboard-response","241","643068","0.0-1.0-336.0","0","0","13622","","null","","","null","37","NaN","","","","","","","","","","","","","","",""
"","S2","","html-keyboard-response","242","643320","0.0-1.0-337.0","0","0","13622","","null","","","null","37","","NaN","","","","","","","","","","","","","",""
"","response","","html-keyboard-response","243","643744","0.0-1.0-338.0-0.0","0","0","13622","","423","","","68","37","","","1","37","training","adjacent","DC","4","3","P.jpg","Q.jpg","1","0","0","",""
"","feedback","","html-keyboard-response","244","644746","0.0-1.0-339.0-0.0","0","0","13622","","null","","","null","37","","","","","","","","","","","","","","","",""
"","time_out","","html-keyboard-response","245","646748","0.0-1.0-341.0-0.0","0","0","13622","","null","","","null","37","","","","","","","","","","","","","","","",""
"","ITI","","html-keyboard-response","246","647751","0.0-1.0-342.0","0","0","13622","","null","","","null","37","","","","","","","","","","","","","","","NaN",""
"","S1","","html-keyboard-response","247","648004","0.0-1.0-344.0","0","0","13622","","null","","","null","38","","","","","","","","","","","","","","","",""
"","ISI","","html-keyboard-response","248","649006","0.0-1.0-345.0","0","0","13622","","null","","","null","38","NaN","","","","","","","","","","","","","","",""
"","S2","","html-keyboard-response","249","649258","0.0-1.0-346.0","0","0","13622","","null","","","null","38","","NaN","","","","","","","","","","","","","",""
"","response","","html-keyboard-response","250","649468","0.0-1.0-347.0-0.0","0","0","13622","","208","","","75","38","","","1","38","training","adjacent","BC","2","3","R.jpg","Q.jpg","0","1","0","",""
"","feedback","","html-keyboard-response","251","650471","0.0-1.0-348.0-0.0","0","0","13622","","null","","","null","38","","","","","","","","","","","","","","","",""
"","time_out","","html-keyboard-response","252","652477","0.0-1.0-350.0-0.0","0","0","13622","","null","","","null","38","","","","","","","","","","","","","","","",""
"","ITI","","html-keyboard-response","253","653479","0.0-1.0-351.0","0","0","13622","","null","","","null","38","","","","","","","","","","","","","","","NaN",""
"","S1","","html-keyboard-response","254","653732","0.0-1.0-353.0","0","0","13622","","null","","","null","39","","","","","","","","","","","","","","","",""
"","ISI","","html-keyboard-response","255","654735","0.0-1.0-354.0","0","0","13622","","null","","","null","39","NaN","","","","","","","","","","","","","","",""
"","S2","","html-keyboard-response","256","654987","0.0-1.0-355.0","0","0","13622","","null","","","null","39","","NaN","","","","","","","","","","","","","",""
"","response","","html-keyboard-response","257","655368","0.0-1.0-356.0-0.0","0","0","13622","","379","","","68","39","","","1","39","training","adjacent","DC","4","3","P.jpg","Q.jpg","1","0","0","",""
"","feedback","","html-keyboard-response","258","656371","0.0-1.0-357.0-0.0","0","0","13622","","null","","","null","39","","","","","","","","","","","","","","","",""
"","time_out","","html-keyboard-response","259","658373","0.0-1.0-359.0-0.0","0","0","13622","","null","","","null","39","","","","","","","","","","","","","","","",""
"","ITI","","html-keyboard-response","260","659385","0.0-1.0-360.0","0","0","13622","","null","","","null","39","","","","","","","","","","","","","","","NaN",""
"","S1","","html-keyboard-response","261","659638","0.0-1.0-362.0","0","0","13622","","null","","","null","40","","","","","","","","","","","","","","","",""
"","ISI","","html-keyboard-response","262","660640","0.0-1.0-363.0","0","0","13622","","null","","","null","40","NaN","","","","","","","","","","","","","","",""
"","S2","","html-keyboard-response","263","660892","0.0-1.0-364.0","0","0","13622","","null","","","null","40","","NaN","","","","","","","","","","","","","",""
"","response","","html-keyboard-response","264","661132","0.0-1.0-365.0-0.0","0","0","13622","","239","","","75","40","","","1","40","training","adjacent","CD","3","4","Q.jpg","P.jpg","0","1","0","",""
"","feedback","","html-keyboard-response","265","662134","0.0-1.0-366.0-0.0","0","0","13622","","null","","","null","40","","","","","","","","","","","","","","","",""
"","time_out","","html-keyboard-response","266","664136","0.0-1.0-368.0-0.0","0","0","13622","","null","","","null","40","","","","","","","","","","","","","","","",""
"","ITI","","html-keyboard-response","267","665138","0.0-1.0-369.0","0","0","13622","","null","","","null","40","","","","","","","","","","","","","","","NaN",""
"","S1","","html-keyboard-response","268","665390","0.0-1.0-371.0","0","0","13622","","null","","","null","41","","","","","","","","","","","","","","","",""
"","ISI","","html-keyboard-response","269","666393","0.0-1.0-372.0","0","0","13622","","null","","","null","41","NaN","","","","","","","","","","","","","","",""
"","S2","","html-keyboard-response","270","666645","0.0-1.0-373.0","0","0","13622","","null","","","null","41","","NaN","","","","","","","","","","","","","",""
"","response","","html-keyboard-response","271","667128","0.0-1.0-374.0-0.0","0","0","13622","","482","","","68","41","","","1","41","training","adjacent","DE","4","5","P.jpg","O.jpg","1","1","1","",""
"","feedback","","html-keyboard-response","272","668130","0.0-1.0-375.0-0.0","0","0","13622","","null","","","null","41","","","","","","","","","","","","","","","",""
"","ITI","","html-keyboard-response","273","669133","0.0-1.0-378.0","0","0","13622","","null","","","null","41","","","","","","","","","","","","","","","NaN",""
"","S1","","html-keyboard-response","274","669385","0.0-1.0-380.0","0","0","13622","","null","","","null","42","","","","","","","","","","","","","","","",""
"","ISI","","html-keyboard-response","275","670388","0.0-1.0-381.0","0","0","13622","","null","","","null","42","NaN","","","","","","","","","","","","","","",""
"","S2","","html-keyboard-response","276","670639","0.0-1.0-382.0","0","0","13622","","null","","","null","42","","NaN","","","","","","","","","","","","","",""
"","response","","html-keyboard-response","277","671115","0.0-1.0-383.0-0.0","0","0","13622","","475","","","75","42","","","1","42","training","adjacent","CD","3","4","Q.jpg","P.jpg","0","1","0","",""
"","feedback","","html-keyboard-response","278","672118","0.0-1.0-384.0-0.0","0","0","13622","","null","","","null","42","","","","","","","","","","","","","","","",""
"","time_out","","html-keyboard-response","279","674127","0.0-1.0-386.0-0.0","0","0","13622","","null","","","null","42","","","","","","","","","","","","","","","",""
"","ITI","","html-keyboard-response","280","675130","0.0-1.0-387.0","0","0","13622","","null","","","null","42","","","","","","","","","","","","","","","NaN",""
"","S1","","html-keyboard-response","281","675382","0.0-1.0-389.0","0","0","13622","","null","","","null","43","","","","","","","","","","","","","","","",""
"","ISI","","html-keyboard-response","282","676386","0.0-1.0-390.0","0","0","13622","","null","","","null","43","NaN","","","","","","","","","","","","","","",""
"","S2","","html-keyboard-response","283","676638","0.0-1.0-391.0","0","0","13622","","null","","","null","43","","NaN","","","","","","","","","","","","","",""
"","response","","html-keyboard-response","284","677103","0.0-1.0-392.0-0.0","0","0","13622","","465","","","68","43","","","1","43","training","adjacent","FG","6","7","L.jpg","N.jpg","1","1","1","",""
"","feedback","","html-keyboard-response","285","678107","0.0-1.0-393.0-0.0","0","0","13622","","null","","","null","43","","","","","","","","","","","","","","","",""
"","ITI","","html-keyboard-response","286","679109","0.0-1.0-396.0","0","0","13622","","null","","","null","43","","","","","","","","","","","","","","","NaN",""
"","S1","","html-keyboard-response","287","679362","0.0-1.0-398.0","0","0","13622","","null","","","null","44","","","","","","","","","","","","","","","",""
"","ISI","","html-keyboard-response","288","680365","0.0-1.0-399.0","0","0","13622","","null","","","null","44","NaN","","","","","","","","","","","","","","",""
"","S2","","html-keyboard-response","289","680628","0.0-1.0-400.0","0","0","13622","","null","","","null","44","","NaN","","","","","","","","","","","","","",""
"","response","","html-keyboard-response","290","681061","0.0-1.0-401.0-0.0","0","0","13622","","431","","","68","44","","","1","44","training","adjacent","BC","2","3","R.jpg","Q.jpg","1","1","1","",""
"","feedback","","html-keyboard-response","291","682063","0.0-1.0-402.0-0.0","0","0","13622","","null","","","null","44","","","","","","","","","","","","","","","",""
"","ITI","","html-keyboard-response","292","683067","0.0-1.0-405.0","0","0","13622","","null","","","null","44","","","","","","","","","","","","","","","NaN",""
"","S1","","html-keyboard-response","293","683320","0.0-1.0-407.0","0","0","13622","","null","","","null","45","","","","","","","","","","","","","","","",""
"","ISI","","html-keyboard-response","294","684322","0.0-1.0-408.0","0","0","13622","","null","","","null","45","NaN","","","","","","","","","","","","","","",""
"","S2","","html-keyboard-response","295","684575","0.0-1.0-409.0","0","0","13622","","null","","","null","45","","NaN","","","","","","","","","","","","","",""
"","response","","html-keyboard-response","296","685280","0.0-1.0-410.0-0.0","0","0","13622","","703","","","75","45","","","1","45","training","adjacent","BC","2","3","R.jpg","Q.jpg","0","1","0","",""
"","feedback","","html-keyboard-response","297","686282","0.0-1.0-411.0-0.0","0","0","13622","","null","","","null","45","","","","","","","","","","","","","","","",""
"","time_out","","html-keyboard-response","298","688284","0.0-1.0-413.0-0.0","0","0","13622","","null","","","null","45","","","","","","","","","","","","","","","",""
"","ITI","","html-keyboard-response","299","689287","0.0-1.0-414.0","0","0","13622","","null","","","null","45","","","","","","","","","","","","","","","NaN",""
"","S1","","html-keyboard-response","300","689539","0.0-1.0-416.0","0","0","13622","","null","","","null","46","","","","","","","","","","","","","","","",""
"","ISI","","html-keyboard-response","301","690542","0.0-1.0-417.0","0","0","13622","","null","","","null","46","NaN","","","","","","","","","","","","","","",""
"","S2","","html-keyboard-response","302","690794","0.0-1.0-418.0","0","0","13622","","null","","","null","46","","NaN","","","","","","","","","","","","","",""
"","response","","html-keyboard-response","303","691273","0.0-1.0-419.0-0.0","0","0","13622","","478","","","68","46","","","1","46","training","adjacent","CB","3","2","Q.jpg","R.jpg","1","0","0","",""
"","feedback","","html-keyboard-response","304","692275","0.0-1.0-420.0-0.0","0","0","13622","","null","","","null","46","","","","","","","","","","","","","","","",""
"","time_out","","html-keyboard-response","305","694280","0.0-1.0-422.0-0.0","0","0","13622","","null","","","null","46","","","","","","","","","","","","","","","",""
"","ITI","","html-keyboard-response","306","695282","0.0-1.0-423.0","0","0","13622","","null","","","null","46","","","","","","","","","","","","","","","NaN",""
"","S1","","html-keyboard-response","307","695534","0.0-1.0-425.0","0","0","13622","","null","","","null","47","","","","","","","","","","","","","","","",""
"","ISI","","html-keyboard-response","308","696537","0.0-1.0-426.0","0","0","13622","","null","","","null","47","NaN","","","","","","","","","","","","","","",""
"","S2","","html-keyboard-response","309","696789","0.0-1.0-427.0","0","0","13622","","null","","","null","47","","NaN","","","","","","","","","","","","","",""
"","response","","html-keyboard-response","310","697360","0.0-1.0-428.0-0.0","0","0","13622","","570","","","68","47","","","1","47","training","adjacent","FE","6","5","L.jpg","O.jpg","1","0","0","",""
"","feedback","","html-keyboard-response","311","698363","0.0-1.0-429.0-0.0","0","0","13622","","null","","","null","47","","","","","","","","","","","","","","","",""
"","time_out","","html-keyboard-response","312","700365","0.0-1.0-431.0-0.0","0","0","13622","","null","","","null","47","","","","","","","","","","","","","","","",""
"","ITI","","html-keyboard-response","313","701367","0.0-1.0-432.0","0","0","13622","","null","","","null","47","","","","","","","","","","","","","","","NaN",""
"","block_over","","html-keyboard-response","314","1256186","0.0-1.0-433.0-0.0","0","0","13622","","554816","","","32","47","","","","","","","","","","","","","","","",""
"","S1","","html-keyboard-response","315","1256439","0.0-1.0-434.0","0","0","13622","","null","","","null","48","","","","","","","","","","","","","","","",""
"","ISI","","html-keyboard-response","316","1257441","0.0-1.0-435.0","0","0","13622","","null","","","null","48","NaN","","","","","","","","","","","","","","",""
"","S2","","html-keyboard-response","317","1257694","0.0-1.0-436.0","0","0","13622","","null","","","null","48","","NaN","","","","","","","","","","","","","",""
"","response","","html-keyboard-response","318","1258627","0.0-1.0-437.0-0.0","0","0","13622","","931","","","68","48","","","2","48","training","adjacent","DC","4","3","P.jpg","Q.jpg","1","0","0","",""
"","feedback","","html-keyboard-response","319","1259630","0.0-1.0-438.0-0.0","0","0","13622","","null","","","null","48","","","","","","","","","","","","","","","",""
"","time_out","","html-keyboard-response","320","1261633","0.0-1.0-440.0-0.0","0","0","13622","","null","","","null","48","","","","","","","","","","","","","","","",""
"","ITI","","html-keyboard-response","321","1262636","0.0-1.0-441.0","0","0","13622","","null","","","null","48","","","","","","","","","","","","","","","NaN",""
"","S1","","html-keyboard-response","322","1262888","0.0-1.0-443.0","0","0","13622","","null","","","null","49","","","","","","","","","","","","","","","",""
"","ISI","","html-keyboard-response","323","1263891","0.0-1.0-444.0","0","0","13622","","null","","","null","49","NaN","","","","","","","","","","","","","","",""
"","S2","","html-keyboard-response","324","1264144","0.0-1.0-445.0","0","0","13622","","null","","","null","49","","NaN","","","","","","","","","","","","","",""
"","response","","html-keyboard-response","325","1264743","0.0-1.0-446.0-0.0","0","0","13622","","598","","","75","49","","","2","49","training","adjacent","EF","5","6","O.jpg","L.jpg","0","1","0","",""
"","feedback","","html-keyboard-response","326","1265747","0.0-1.0-447.0-0.0","0","0","13622","","null","","","null","49","","","","","","","","","","","","","","","",""
"","time_out","","html-keyboard-response","327","1267750","0.0-1.0-449.0-0.0","0","0","13622","","null","","","null","49","","","","","","","","","","","","","","","",""
"","ITI","","html-keyboard-response","328","1268753","0.0-1.0-450.0","0","0","13622","","null","","","null","49","","","","","","","","","","","","","","","NaN",""
"","S1","","html-keyboard-response","329","1269005","0.0-1.0-452.0","0","0","13622","","null","","","null","50","","","","","","","","","","","","","","","",""
"","ISI","","html-keyboard-response","330","1270011","0.0-1.0-453.0","0","0","13622","","null","","","null","50","NaN","","","","","","","","","","","","","","",""
"","S2","","html-keyboard-response","331","1270264","0.0-1.0-454.0","0","0","13622","","null","","","null","50","","NaN","","","","","","","","","","","","","",""
"","response","","html-keyboard-response","332","1270753","0.0-1.0-455.0-0.0","0","0","13622","","488","","","68","50","","","2","50","training","adjacent","GF","7","6","N.jpg","L.jpg","1","0","0","",""
"","feedback","","html-keyboard-response","333","1271756","0.0-1.0-456.0-0.0","0","0","13622","","null","","","null","50","","","","","","","","","","","","","","","",""
"","time_out","","html-keyboard-response","334","1273758","0.0-1.0-458.0-0.0","0","0","13622","","null","","","null","50","","","","","","","","","","","","","","","",""
"","ITI","","html-keyboard-response","335","1274761","0.0-1.0-459.0","0","0","13622","","null","","","null","50","","","","","","","","","","","","","","","NaN",""
"","S1","","html-keyboard-response","336","1275014","0.0-1.0-461.0","0","0","13622","","null","","","null","51","","","","","","","","","","","","","","","",""
"","ISI","","html-keyboard-response","337","1276017","0.0-1.0-462.0","0","0","13622","","null","","","null","51","NaN","","","","","","","","","","","","","","",""
"","S2","","html-keyboard-response","338","1276271","0.0-1.0-463.0","0","0","13622","","null","","","null","51","","NaN","","","","","","","","","","","","","",""
"","response","","html-keyboard-response","339","1276800","0.0-1.0-464.0-0.0","0","0","13622","","528","","","68","51","","","2","51","training","adjacent","FE","6","5","L.jpg","O.jpg","1","0","0","",""
"","feedback","","html-keyboard-response","340","1277815","0.0-1.0-465.0-0.0","0","0","13622","","null","","","null","51","","","","","","","","","","","","","","","",""
"","time_out","","html-keyboard-response","341","1279817","0.0-1.0-467.0-0.0","0","0","13622","","null","","","null","51","","","","","","","","","","","","","","","",""
"","ITI","","html-keyboard-response","342","1280820","0.0-1.0-468.0","0","0","13622","","null","","","null","51","","","","","","","","","","","","","","","NaN",""
"","S1","","html-keyboard-response","343","1281073","0.0-1.0-470.0","0","0","13622","","null","","","null","52","","","","","","","","","","","","","","","",""
"","ISI","","html-keyboard-response","344","1282075","0.0-1.0-471.0","0","0","13622","","null","","","null","52","NaN","","","","","","","","","","","","","","",""
"","S2","","html-keyboard-response","345","1282328","0.0-1.0-472.0","0","0","13622","","null","","","null","52","","NaN","","","","","","","","","","","","","",""
"","response","","html-keyboard-response","346","1282880","0.0-1.0-473.0-0.0","0","0","13622","","551","","","75","52","","","2","52","training","adjacent","GF","7","6","N.jpg","L.jpg","0","0","1","",""
"","feedback","","html-keyboard-response","347","1283884","0.0-1.0-474.0-0.0","0","0","13622","","null","","","null","52","","","","","","","","","","","","","","","",""
"","ITI","","html-keyboard-response","348","1284887","0.0-1.0-477.0","0","0","13622","","null","","","null","52","","","","","","","","","","","","","","","NaN",""
"","S1","","html-keyboard-response","349","1285139","0.0-1.0-479.0","0","0","13622","","null","","","null","53","","","","","","","","","","","","","","","",""
"","ISI","","html-keyboard-response","350","1286141","0.0-1.0-480.0","0","0","13622","","null","","","null","53","NaN","","","","","","","","","","","","","","",""
"","S2","","html-keyboard-response","351","1286394","0.0-1.0-481.0","0","0","13622","","null","","","null","53","","NaN","","","","","","","","","","","","","",""
"","response","","html-keyboard-response","352","1287152","0.0-1.0-482.0-0.0","0","0","13622","","756","","","68","53","","","2","53","training","adjacent","BC","2","3","R.jpg","Q.jpg","1","1","1","",""
"","feedback","","html-keyboard-response","353","1288155","0.0-1.0-483.0-0.0","0","0","13622","","null","","","null","53","","","","","","","","","","","","","","","",""
"","ITI","","html-keyboard-response","354","1289159","0.0-1.0-486.0","0","0","13622","","null","","","null","53","","","","","","","","","","","","","","","NaN",""
"","S1","","html-keyboard-response","355","1289411","0.0-1.0-488.0","0","0","13622","","null","","","null","54","","","","","","","","","","","","","","","",""
"","ISI","","html-keyboard-response","356","1290414","0.0-1.0-489.0","0","0","13622","","null","","","null","54","NaN","","","","","","","","","","","","","","",""
"","S2","","html-keyboard-response","357","1290667","0.0-1.0-490.0","0","0","13622","","null","","","null","54","","NaN","","","","","","","","","","","","","",""
"","response","","html-keyboard-response","358","1291140","0.0-1.0-491.0-0.0","0","0","13622","","471","","","75","54","","","2","54","training","adjacent","BA","2","1","R.jpg","M.jpg","0","0","1","",""
"","feedback","","html-keyboard-response","359","1292143","0.0-1.0-492.0-0.0","0","0","13622","","null","","","null","54","","","","","","","","","","","","","","","",""
"","ITI","","html-keyboard-response","360","1293144","0.0-1.0-495.0","0","0","13622","","null","","","null","54","","","","","","","","","","","","","","","NaN",""
"","S1","","html-keyboard-response","361","1293397","0.0-1.0-497.0","0","0","13622","","null","","","null","55","","","","","","","","","","","","","","","",""
"","ISI","","html-keyboard-response","362","1294400","0.0-1.0-498.0","0","0","13622","","null","","","null","55","NaN","","","","","","","","","","","","","","",""
"","S2","","html-keyboard-response","363","1294653","0.0-1.0-499.0","0","0","13622","","null","","","null","55","","NaN","","","","","","","","","","","","","",""
"","response","","html-keyboard-response","364","1295312","0.0-1.0-500.0-0.0","0","0","13622","","658","","","75","55","","","2","55","training","adjacent","EF","5","6","O.jpg","L.jpg","0","1","0","",""
"","feedback","","html-keyboard-response","365","1296316","0.0-1.0-501.0-0.0","0","0","13622","","null","","","null","55","","","","","","","","","","","","","","","",""
"","time_out","","html-keyboard-response","366","1298318","0.0-1.0-503.0-0.0","0","0","13622","","null","","","null","55","","","","","","","","","","","","","","","",""
"","ITI","","html-keyboard-response","367","1299321","0.0-1.0-504.0","0","0","13622","","null","","","null","55","","","","","","","","","","","","","","","NaN",""
"","S1","","html-keyboard-response","368","1299574","0.0-1.0-506.0","0","0","13622","","null","","","null","56","","","","","","","","","","","","","","","",""
"","ISI","","html-keyboard-response","369","1300577","0.0-1.0-507.0","0","0","13622","","null","","","null","56","NaN","","","","","","","","","","","","","","",""
"","S2","","html-keyboard-response","370","1300831","0.0-1.0-508.0","0","0","13622","","null","","","null","56","","NaN","","","","","","","","","","","","","",""
"","response","","html-keyboard-response","371","1301703","0.0-1.0-509.0-0.0","0","0","13622","","871","","","68","56","","","2","56","training","adjacent","AB","1","2","M.jpg","R.jpg","1","1","1","",""
"","feedback","","html-keyboard-response","372","1302708","0.0-1.0-510.0-0.0","0","0","13622","","null","","","null","56","","","","","","","","","","","","","","","",""
"","ITI","","html-keyboard-response","373","1303718","0.0-1.0-513.0","0","0","13622","","null","","","null","56","","","","","","","","","","","","","","","NaN",""
"","S1","","html-keyboard-response","374","1303971","0.0-1.0-515.0","0","0","13622","","null","","","null","57","","","","","","","","","","","","","","","",""
"","ISI","","html-keyboard-response","375","1304974","0.0-1.0-516.0","0","0","13622","","null","","","null","57","NaN","","","","","","","","","","","","","","",""
"","S2","","html-keyboard-response","376","1305236","0.0-1.0-517.0","0","0","13622","","null","","","null","57","","NaN","","","","","","","","","","","","","",""
"","response","","html-keyboard-response","377","1305773","0.0-1.0-518.0-0.0","0","0","13622","","536","","","75","57","","","2","57","training","adjacent","CD","3","4","Q.jpg","P.jpg","0","1","0","",""
"","feedback","","html-keyboard-response","378","1306776","0.0-1.0-519.0-0.0","0","0","13622","","null","","","null","57","","","","","","","","","","","","","","","",""
"","time_out","","html-keyboard-response","379","1308779","0.0-1.0-521.0-0.0","0","0","13622","","null","","","null","57","","","","","","","","","","","","","","","",""
"","ITI","","html-keyboard-response","380","1309782","0.0-1.0-522.0","0","0","13622","","null","","","null","57","","","","","","","","","","","","","","","NaN",""
"","S1","","html-keyboard-response","381","1310035","0.0-1.0-524.0","0","0","13622","","null","","","null","58","","","","","","","","","","","","","","","",""
"","ISI","","html-keyboard-response","382","1311037","0.0-1.0-525.0","0","0","13622","","null","","","null","58","NaN","","","","","","","","","","","","","","",""
"","S2","","html-keyboard-response","383","1311290","0.0-1.0-526.0","0","0","13622","","null","","","null","58","","NaN","","","","","","","","","","","","","",""
"","response","","html-keyboard-response","384","1311548","0.0-1.0-527.0-0.0","0","0","13622","","255","","","75","58","","","2","58","training","adjacent","CB","3","2","Q.jpg","R.jpg","0","0","1","",""
"","feedback","","html-keyboard-response","385","1312561","0.0-1.0-528.0-0.0","0","0","13622","","null","","","null","58","","","","","","","","","","","","","","","",""
"","ITI","","html-keyboard-response","386","1313564","0.0-1.0-531.0","0","0","13622","","null","","","null","58","","","","","","","","","","","","","","","NaN",""
"","S1","","html-keyboard-response","387","1313817","0.0-1.0-533.0","0","0","13622","","null","","","null","59","","","","","","","","","","","","","","","",""
"","ISI","","html-keyboard-response","388","1314819","0.0-1.0-534.0","0","0","13622","","null","","","null","59","NaN","","","","","","","","","","","","","","",""
"","S2","","html-keyboard-response","389","1315072","0.0-1.0-535.0","0","0","13622","","null","","","null","59","","NaN","","","","","","","","","","","","","",""
"","response","","html-keyboard-response","390","1315655","0.0-1.0-536.0-0.0","0","0","13622","","582","","","68","59","","","2","59","training","adjacent","DC","4","3","P.jpg","Q.jpg","1","0","0","",""
"","feedback","","html-keyboard-response","391","1316658","0.0-1.0-537.0-0.0","0","0","13622","","null","","","null","59","","","","","","","","","","","","","","","",""
"","time_out","","html-keyboard-response","392","1318660","0.0-1.0-539.0-0.0","0","0","13622","","null","","","null","59","","","","","","","","","","","","","","","",""
"","ITI","","html-keyboard-response","393","1319663","0.0-1.0-540.0","0","0","13622","","null","","","null","59","","","","","","","","","","","","","","","NaN",""
"","S1","","html-keyboard-response","394","1319919","0.0-1.0-542.0","0","0","13622","","null","","","null","60","","","","","","","","","","","","","","","",""
"","ISI","","html-keyboard-response","395","1320922","0.0-1.0-543.0","0","0","13622","","null","","","null","60","NaN","","","","","","","","","","","","","","",""
"","S2","","html-keyboard-response","396","1321175","0.0-1.0-544.0","0","0","13622","","null","","","null","60","","NaN","","","","","","","","","","","","","",""
"","response","","html-keyboard-response","397","1321788","0.0-1.0-545.0-0.0","0","0","13622","","612","","","75","60","","","2","60","training","adjacent","CD","3","4","Q.jpg","P.jpg","0","1","0","",""
"","feedback","","html-keyboard-response","398","1322792","0.0-1.0-546.0-0.0","0","0","13622","","null","","","null","60","","","","","","","","","","","","","","","",""
"","time_out","","html-keyboard-response","399","1324794","0.0-1.0-548.0-0.0","0","0","13622","","null","","","null","60","","","","","","","","","","","","","","","",""
"","ITI","","html-keyboard-response","400","1325797","0.0-1.0-549.0","0","0","13622","","null","","","null","60","","","","","","","","","","","","","","","NaN",""
"","S1","","html-keyboard-response","401","1326050","0.0-1.0-551.0","0","0","13622","","null","","","null","61","","","","","","","","","","","","","","","",""
"","ISI","","html-keyboard-response","402","1327052","0.0-1.0-552.0","0","0","13622","","null","","","null","61","NaN","","","","","","","","","","","","","","",""
"","S2","","html-keyboard-response","403","1327306","0.0-1.0-553.0","0","0","13622","","null","","","null","61","","NaN","","","","","","","","","","","","","",""
"","response","","html-keyboard-response","404","1327784","0.0-1.0-554.0-0.0","0","0","13622","","477","","","68","61","","","2","61","training","adjacent","FE","6","5","L.jpg","O.jpg","1","0","0","",""
"","feedback","","html-keyboard-response","405","1328787","0.0-1.0-555.0-0.0","0","0","13622","","null","","","null","61","","","","","","","","","","","","","","","",""
"","time_out","","html-keyboard-response","406","1330790","0.0-1.0-557.0-0.0","0","0","13622","","null","","","null","61","","","","","","","","","","","","","","","",""
"","ITI","","html-keyboard-response","407","1331792","0.0-1.0-558.0","0","0","13622","","null","","","null","61","","","","","","","","","","","","","","","NaN",""
"","S1","","html-keyboard-response","408","1332044","0.0-1.0-560.0","0","0","13622","","null","","","null","62","","","","","","","","","","","","","","","",""
"","ISI","","html-keyboard-response","409","1333047","0.0-1.0-561.0","0","0","13622","","null","","","null","62","NaN","","","","","","","","","","","","","","",""
"","S2","","html-keyboard-response","410","1333300","0.0-1.0-562.0","0","0","13622","","null","","","null","62","","NaN","","","","","","","","","","","","","",""
"","response","","html-keyboard-response","411","1334181","0.0-1.0-563.0-0.0","0","0","13622","","880","","","75","62","","","2","62","training","adjacent","FE","6","5","L.jpg","O.jpg","0","0","1","",""
"","feedback","","html-keyboard-response","412","1335184","0.0-1.0-564.0-0.0","0","0","13622","","null","","","null","62","","","","","","","","","","","","","","","",""
"","ITI","","html-keyboard-response","413","1336186","0.0-1.0-567.0","0","0","13622","","null","","","null","62","","","","","","","","","","","","","","","NaN",""
"","S1","","html-keyboard-response","414","1336438","0.0-1.0-569.0","0","0","13622","","null","","","null","63","","","","","","","","","","","","","","","",""
"","ISI","","html-keyboard-response","415","1337442","0.0-1.0-570.0","0","0","13622","","null","","","null","63","NaN","","","","","","","","","","","","","","",""
"","S2","","html-keyboard-response","416","1337694","0.0-1.0-571.0","0","0","13622","","null","","","null","63","","NaN","","","","","","","","","","","","","",""
"","response","","html-keyboard-response","417","1338279","0.0-1.0-572.0-0.0","0","0","13622","","583","","","75","63","","","2","63","training","adjacent","AB","1","2","M.jpg","R.jpg","0","1","0","",""
"","feedback","","html-keyboard-response","418","1339282","0.0-1.0-573.0-0.0","0","0","13622","","null","","","null","63","","","","","","","","","","","","","","","",""
"","time_out","","html-keyboard-response","419","1341285","0.0-1.0-575.0-0.0","0","0","13622","","null","","","null","63","","","","","","","","","","","","","","","",""
"","ITI","","html-keyboard-response","420","1342288","0.0-1.0-576.0","0","0","13622","","null","","","null","63","","","","","","","","","","","","","","","NaN",""
"","S1","","html-keyboard-response","421","1342542","0.0-1.0-578.0","0","0","13622","","null","","","null","64","","","","","","","","","","","","","","","",""
"","ISI","","html-keyboard-response","422","1343544","0.0-1.0-579.0","0","0","13622","","null","","","null","64","NaN","","","","","","","","","","","","","","",""
"","S2","","html-keyboard-response","423","1343797","0.0-1.0-580.0","0","0","13622","","null","","","null","64","","NaN","","","","","","","","","","","","","",""
"","response","","html-keyboard-response","424","1345320","0.0-1.0-581.0-0.0","0","0","13622","","1521","","","68","64","","","2","64","training","adjacent","DE","4","5","P.jpg","O.jpg","1","1","1","",""
"","feedback","","html-keyboard-response","425","1346323","0.0-1.0-582.0-0.0","0","0","13622","","null","","","null","64","","","","","","","","","","","","","","","",""
"","ITI","","html-keyboard-response","426","1347326","0.0-1.0-585.0","0","0","13622","","null","","","null","64","","","","","","","","","","","","","","","NaN",""
"","S1","","html-keyboard-response","427","1347579","0.0-1.0-587.0","0","0","13622","","null","","","null","65","","","","","","","","","","","","","","","",""
"","ISI","","html-keyboard-response","428","1348582","0.0-1.0-588.0","0","0","13622","","null","","","null","65","NaN","","","","","","","","","","","","","","",""
"","S2","","html-keyboard-response","429","1348835","0.0-1.0-589.0","0","0","13622","","null","","","null","65","","NaN","","","","","","","","","","","","","",""
"","response","","html-keyboard-response","430","1349627","0.0-1.0-590.0-0.0","0","0","13622","","791","","","68","65","","","2","65","training","adjacent","DE","4","5","P.jpg","O.jpg","1","1","1","",""
"","feedback","","html-keyboard-response","431","1350630","0.0-1.0-591.0-0.0","0","0","13622","","null","","","null","65","","","","","","","","","","","","","","","",""
"","ITI","","html-keyboard-response","432","1351633","0.0-1.0-594.0","0","0","13622","","null","","","null","65","","","","","","","","","","","","","","","NaN",""
"","S1","","html-keyboard-response","433","1351893","0.0-1.0-596.0","0","0","13622","","null","","","null","66","","","","","","","","","","","","","","","",""
"","ISI","","html-keyboard-response","434","1352895","0.0-1.0-597.0","0","0","13622","","null","","","null","66","NaN","","","","","","","","","","","","","","",""
"","S2","","html-keyboard-response","435","1353148","0.0-1.0-598.0","0","0","13622","","null","","","null","66","","NaN","","","","","","","","","","","","","",""
"","response","","html-keyboard-response","436","1353707","0.0-1.0-599.0-0.0","0","0","13622","","558","","","75","66","","","2","66","training","adjacent","FG","6","7","L.jpg","N.jpg","0","1","0","",""
"","feedback","","html-keyboard-response","437","1354710","0.0-1.0-600.0-0.0","0","0","13622","","null","","","null","66","","","","","","","","","","","","","","","",""
"","time_out","","html-keyboard-response","438","1356713","0.0-1.0-602.0-0.0","0","0","13622","","null","","","null","66","","","","","","","","","","","","","","","",""
"","ITI","","html-keyboard-response","439","1357715","0.0-1.0-603.0","0","0","13622","","null","","","null","66","","","","","","","","","","","","","","","NaN",""
"","S1","","html-keyboard-response","440","1357968","0.0-1.0-605.0","0","0","13622","","null","","","null","67","","","","","","","","","","","","","","","",""
"","ISI","","html-keyboard-response","441","1358971","0.0-1.0-606.0","0","0","13622","","null","","","null","67","NaN","","","","","","","","","","","","","","",""
"","S2","","html-keyboard-response","442","1359224","0.0-1.0-607.0","0","0","13622","","null","","","null","67","","NaN","","","","","","","","","","","","","",""
"","response","","html-keyboard-response","443","1359844","0.0-1.0-608.0-0.0","0","0","13622","","618","","","68","67","","","2","67","training","adjacent","BC","2","3","R.jpg","Q.jpg","1","1","1","",""
"","feedback","","html-keyboard-response","444","1360848","0.0-1.0-609.0-0.0","0","0","13622","","null","","","null","67","","","","","","","","","","","","","","","",""
"","ITI","","html-keyboard-response","445","1361850","0.0-1.0-612.0","0","0","13622","","null","","","null","67","","","","","","","","","","","","","","","NaN",""
"","S1","","html-keyboard-response","446","1362104","0.0-1.0-614.0","0","0","13622","","null","","","null","68","","","","","","","","","","","","","","","",""
"","ISI","","html-keyboard-response","447","1363106","0.0-1.0-615.0","0","0","13622","","null","","","null","68","NaN","","","","","","","","","","","","","","",""
"","S2","","html-keyboard-response","448","1363360","0.0-1.0-616.0","0","0","13622","","null","","","null","68","","NaN","","","","","","","","","","","","","",""
"","response","","html-keyboard-response","449","1363855","0.0-1.0-617.0-0.0","0","0","13622","","493","","","75","68","","","2","68","training","adjacent","CB","3","2","Q.jpg","R.jpg","0","0","1","",""
"","feedback","","html-keyboard-response","450","1364859","0.0-1.0-618.0-0.0","0","0","13622","","null","","","null","68","","","","","","","","","","","","","","","",""
"","ITI","","html-keyboard-response","451","1365862","0.0-1.0-621.0","0","0","13622","","null","","","null","68","","","","","","","","","","","","","","","NaN",""
"","S1","","html-keyboard-response","452","1366114","0.0-1.0-623.0","0","0","13622","","null","","","null","69","","","","","","","","","","","","","","","",""
"","ISI","","html-keyboard-response","453","1367118","0.0-1.0-624.0","0","0","13622","","null","","","null","69","NaN","","","","","","","","","","","","","","",""
"","S2","","html-keyboard-response","454","1367370","0.0-1.0-625.0","0","0","13622","","null","","","null","69","","NaN","","","","","","","","","","","","","",""
"","response","","html-keyboard-response","455","1367955","0.0-1.0-626.0-0.0","0","0","13622","","583","","","75","69","","","2","69","training","adjacent","BA","2","1","R.jpg","M.jpg","0","0","1","",""
"","feedback","","html-keyboard-response","456","1368958","0.0-1.0-627.0-0.0","0","0","13622","","null","","","null","69","","","","","","","","","","","","","","","",""
"","ITI","","html-keyboard-response","457","1369962","0.0-1.0-630.0","0","0","13622","","null","","","null","69","","","","","","","","","","","","","","","NaN",""
"","S1","","html-keyboard-response","458","1370214","0.0-1.0-632.0","0","0","13622","","null","","","null","70","","","","","","","","","","","","","","","",""
"","ISI","","html-keyboard-response","459","1371217","0.0-1.0-633.0","0","0","13622","","null","","","null","70","NaN","","","","","","","","","","","","","","",""
"","S2","","html-keyboard-response","460","1371470","0.0-1.0-634.0","0","0","13622","","null","","","null","70","","NaN","","","","","","","","","","","","","",""
"","response","","html-keyboard-response","461","1371960","0.0-1.0-635.0-0.0","0","0","13622","","489","","","75","70","","","2","70","training","adjacent","EF","5","6","O.jpg","L.jpg","0","1","0","",""
"","feedback","","html-keyboard-response","462","1372964","0.0-1.0-636.0-0.0","0","0","13622","","null","","","null","70","","","","","","","","","","","","","","","",""
"","time_out","","html-keyboard-response","463","1374967","0.0-1.0-638.0-0.0","0","0","13622","","null","","","null","70","","","","","","","","","","","","","","","",""
"","ITI","","html-keyboard-response","464","1375969","0.0-1.0-639.0","0","0","13622","","null","","","null","70","","","","","","","","","","","","","","","NaN",""
"","S1","","html-keyboard-response","465","1376222","0.0-1.0-641.0","0","0","13622","","null","","","null","71","","","","","","","","","","","","","","","",""
"","ISI","","html-keyboard-response","466","1377224","0.0-1.0-642.0","0","0","13622","","null","","","null","71","NaN","","","","","","","","","","","","","","",""
"","S2","","html-keyboard-response","467","1377481","0.0-1.0-643.0","0","0","13622","","null","","","null","71","","NaN","","","","","","","","","","","","","",""
"","response","","html-keyboard-response","468","1377967","0.0-1.0-644.0-0.0","0","0","13622","","485","","","68","71","","","2","71","training","adjacent","BA","2","1","R.jpg","M.jpg","1","0","0","",""
"","feedback","","html-keyboard-response","469","1378970","0.0-1.0-645.0-0.0","0","0","13622","","null","","","null","71","","","","","","","","","","","","","","","",""
"","time_out","","html-keyboard-response","470","1380973","0.0-1.0-647.0-0.0","0","0","13622","","null","","","null","71","","","","","","","","","","","","","","","",""
"","ITI","","html-keyboard-response","471","1381975","0.0-1.0-648.0","0","0","13622","","null","","","null","71","","","","","","","","","","","","","","","NaN",""
"","S1","","html-keyboard-response","472","1382229","0.0-1.0-650.0","0","0","13622","","null","","","null","72","","","","","","","","","","","","","","","",""
"","ISI","","html-keyboard-response","473","1383232","0.0-1.0-651.0","0","0","13622","","null","","","null","72","NaN","","","","","","","","","","","","","","",""
"","S2","","html-keyboard-response","474","1383485","0.0-1.0-652.0","0","0","13622","","null","","","null","72","","NaN","","","","","","","","","","","","","",""
"","response","","html-keyboard-response","475","1384040","0.0-1.0-653.0-0.0","0","0","13622","","554","","","75","72","","","2","72","training","adjacent","EF","5","6","O.jpg","L.jpg","0","1","0","",""
"","feedback","","html-keyboard-response","476","1385043","0.0-1.0-654.0-0.0","0","0","13622","","null","","","null","72","","","","","","","","","","","","","","","",""
"","time_out","","html-keyboard-response","477","1387046","0.0-1.0-656.0-0.0","0","0","13622","","null","","","null","72","","","","","","","","","","","","","","","",""
"","ITI","","html-keyboard-response","478","1388049","0.0-1.0-657.0","0","0","13622","","null","","","null","72","","","","","","","","","","","","","","","NaN",""
"","S1","","html-keyboard-response","479","1388301","0.0-1.0-659.0","0","0","13622","","null","","","null","73","","","","","","","","","","","","","","","",""
"","ISI","","html-keyboard-response","480","1389304","0.0-1.0-660.0","0","0","13622","","null","","","null","73","NaN","","","","","","","","","","","","","","",""
"","S2","","html-keyboard-response","481","1389564","0.0-1.0-661.0","0","0","13622","","null","","","null","73","","NaN","","","","","","","","","","","","","",""
"","response","","html-keyboard-response","482","1390011","0.0-1.0-662.0-0.0","0","0","13622","","445","","","68","73","","","2","73","training","adjacent","FE","6","5","L.jpg","O.jpg","1","0","0","",""
"","feedback","","html-keyboard-response","483","1391015","0.0-1.0-663.0-0.0","0","0","13622","","null","","","null","73","","","","","","","","","","","","","","","",""
"","time_out","","html-keyboard-response","484","1393017","0.0-1.0-665.0-0.0","0","0","13622","","null","","","null","73","","","","","","","","","","","","","","","",""
"","ITI","","html-keyboard-response","485","1394020","0.0-1.0-666.0","0","0","13622","","null","","","null","73","","","","","","","","","","","","","","","NaN",""
"","S1","","html-keyboard-response","486","1394272","0.0-1.0-668.0","0","0","13622","","null","","","null","74","","","","","","","","","","","","","","","",""
"","ISI","","html-keyboard-response","487","1395275","0.0-1.0-669.0","0","0","13622","","null","","","null","74","NaN","","","","","","","","","","","","","","",""
"","S2","","html-keyboard-response","488","1395527","0.0-1.0-670.0","0","0","13622","","null","","","null","74","","NaN","","","","","","","","","","","","","",""
"","response","","html-keyboard-response","489","1396240","0.0-1.0-671.0-0.0","0","0","13622","","712","","","68","74","","","2","74","training","adjacent","BC","2","3","R.jpg","Q.jpg","1","1","1","",""
"","feedback","","html-keyboard-response","490","1397242","0.0-1.0-672.0-0.0","0","0","13622","","null","","","null","74","","","","","","","","","","","","","","","",""
"","ITI","","html-keyboard-response","491","1398249","0.0-1.0-675.0","0","0","13622","","null","","","null","74","","","","","","","","","","","","","","","NaN",""
"","S1","","html-keyboard-response","492","1398501","0.0-1.0-677.0","0","0","13622","","null","","","null","75","","","","","","","","","","","","","","","",""
"","ISI","","html-keyboard-response","493","1399504","0.0-1.0-678.0","0","0","13622","","null","","","null","75","NaN","","","","","","","","","","","","","","",""
"","S2","","html-keyboard-response","494","1399757","0.0-1.0-679.0","0","0","13622","","null","","","null","75","","NaN","","","","","","","","","","","","","",""
"","response","","html-keyboard-response","495","1400323","0.0-1.0-680.0-0.0","0","0","13622","","565","","","75","75","","","2","75","training","adjacent","DE","4","5","P.jpg","O.jpg","0","1","0","",""
"","feedback","","html-keyboard-response","496","1401326","0.0-1.0-681.0-0.0","0","0","13622","","null","","","null","75","","","","","","","","","","","","","","","",""
"","time_out","","html-keyboard-response","497","1403329","0.0-1.0-683.0-0.0","0","0","13622","","null","","","null","75","","","","","","","","","","","","","","","",""
"","ITI","","html-keyboard-response","498","1404331","0.0-1.0-684.0","0","0","13622","","null","","","null","75","","","","","","","","","","","","","","","NaN",""
"","S1","","html-keyboard-response","499","1404584","0.0-1.0-686.0","0","0","13622","","null","","","null","76","","","","","","","","","","","","","","","",""
"","ISI","","html-keyboard-response","500","1405588","0.0-1.0-687.0","0","0","13622","","null","","","null","76","NaN","","","","","","","","","","","","","","",""
"","S2","","html-keyboard-response","501","1405841","0.0-1.0-688.0","0","0","13622","","null","","","null","76","","NaN","","","","","","","","","","","","","",""
"","response","","html-keyboard-response","502","1406488","0.0-1.0-689.0-0.0","0","0","13622","","646","","","68","76","","","2","76","training","adjacent","DC","4","3","P.jpg","Q.jpg","1","0","0","",""
"","feedback","","html-keyboard-response","503","1407491","0.0-1.0-690.0-0.0","0","0","13622","","null","","","null","76","","","","","","","","","","","","","","","",""
"","time_out","","html-keyboard-response","504","1409493","0.0-1.0-692.0-0.0","0","0","13622","","null","","","null","76","","","","","","","","","","","","","","","",""
"","ITI","","html-keyboard-response","505","1410501","0.0-1.0-693.0","0","0","13622","","null","","","null","76","","","","","","","","","","","","","","","NaN",""
"","S1","","html-keyboard-response","506","1410754","0.0-1.0-695.0","0","0","13622","","null","","","null","77","","","","","","","","","","","","","","","",""
"","ISI","","html-keyboard-response","507","1411756","0.0-1.0-696.0","0","0","13622","","null","","","null","77","NaN","","","","","","","","","","","","","","",""
"","S2","","html-keyboard-response","508","1412008","0.0-1.0-697.0","0","0","13622","","null","","","null","77","","NaN","","","","","","","","","","","","","",""
"","response","","html-keyboard-response","509","1412408","0.0-1.0-698.0-0.0","0","0","13622","","398","","","75","77","","","2","77","training","adjacent","ED","5","4","O.jpg","P.jpg","0","0","1","",""
"","feedback","","html-keyboard-response","510","1413411","0.0-1.0-699.0-0.0","0","0","13622","","null","","","null","77","","","","","","","","","","","","","","","",""
"","ITI","","html-keyboard-response","511","1414414","0.0-1.0-702.0","0","0","13622","","null","","","null","77","","","","","","","","","","","","","","","NaN",""
"","S1","","html-keyboard-response","512","1414667","0.0-1.0-704.0","0","0","13622","","null","","","null","78","","","","","","","","","","","","","","","",""
"","ISI","","html-keyboard-response","513","1415669","0.0-1.0-705.0","0","0","13622","","null","","","null","78","NaN","","","","","","","","","","","","","","",""
"","S2","","html-keyboard-response","514","1415922","0.0-1.0-706.0","0","0","13622","","null","","","null","78","","NaN","","","","","","","","","","","","","",""
"","response","","html-keyboard-response","515","1416199","0.0-1.0-707.0-0.0","0","0","13622","","276","","","75","78","","","2","78","training","adjacent","GF","7","6","N.jpg","L.jpg","0","0","1","",""
"","feedback","","html-keyboard-response","516","1417202","0.0-1.0-708.0-0.0","0","0","13622","","null","","","null","78","","","","","","","","","","","","","","","",""
"","ITI","","html-keyboard-response","517","1418206","0.0-1.0-711.0","0","0","13622","","null","","","null","78","","","","","","","","","","","","","","","NaN",""
"","S1","","html-keyboard-response","518","1418459","0.0-1.0-713.0","0","0","13622","","null","","","null","79","","","","","","","","","","","","","","","",""
"","ISI","","html-keyboard-response","519","1419461","0.0-1.0-714.0","0","0","13622","","null","","","null","79","NaN","","","","","","","","","","","","","","",""
"","S2","","html-keyboard-response","520","1419714","0.0-1.0-715.0","0","0","13622","","null","","","null","79","","NaN","","","","","","","","","","","","","",""
"","response","","html-keyboard-response","521","1420173","0.0-1.0-716.0-0.0","0","0","13622","","457","","","68","79","","","2","79","training","adjacent","DE","4","5","P.jpg","O.jpg","1","1","1","",""
"","feedback","","html-keyboard-response","522","1421177","0.0-1.0-717.0-0.0","0","0","13622","","null","","","null","79","","","","","","","","","","","","","","","",""
"","ITI","","html-keyboard-response","523","1422179","0.0-1.0-720.0","0","0","13622","","null","","","null","79","","","","","","","","","","","","","","","NaN",""
"","S1","","html-keyboard-response","524","1422432","0.0-1.0-722.0","0","0","13622","","null","","","null","80","","","","","","","","","","","","","","","",""
"","ISI","","html-keyboard-response","525","1423433","0.0-1.0-723.0","0","0","13622","","null","","","null","80","NaN","","","","","","","","","","","","","","",""
"","S2","","html-keyboard-response","526","1423687","0.0-1.0-724.0","0","0","13622","","null","","","null","80","","NaN","","","","","","","","","","","","","",""
"","response","","html-keyboard-response","527","1424147","0.0-1.0-725.0-0.0","0","0","13622","","459","","","68","80","","","2","80","training","adjacent","AB","1","2","M.jpg","R.jpg","1","1","1","",""
"","feedback","","html-keyboard-response","528","1425151","0.0-1.0-726.0-0.0","0","0","13622","","null","","","null","80","","","","","","","","","","","","","","","",""
"","ITI","","html-keyboard-response","529","1426153","0.0-1.0-729.0","0","0","13622","","null","","","null","80","","","","","","","","","","","","","","","NaN",""
"","S1","","html-keyboard-response","530","1426406","0.0-1.0-731.0","0","0","13622","","null","","","null","81","","","","","","","","","","","","","","","",""
"","ISI","","html-keyboard-response","531","1427409","0.0-1.0-732.0","0","0","13622","","null","","","null","81","NaN","","","","","","","","","","","","","","",""
"","S2","","html-keyboard-response","532","1427662","0.0-1.0-733.0","0","0","13622","","null","","","null","81","","NaN","","","","","","","","","","","","","",""
"","response","","html-keyboard-response","533","1428067","0.0-1.0-734.0-0.0","0","0","13622","","403","","","75","81","","","2","81","training","adjacent","CB","3","2","Q.jpg","R.jpg","0","0","1","",""
"","feedback","","html-keyboard-response","534","1429071","0.0-1.0-735.0-0.0","0","0","13622","","null","","","null","81","","","","","","","","","","","","","","","",""
"","ITI","","html-keyboard-response","535","1430074","0.0-1.0-738.0","0","0","13622","","null","","","null","81","","","","","","","","","","","","","","","NaN",""
"","S1","","html-keyboard-response","536","1430327","0.0-1.0-740.0","0","0","13622","","null","","","null","82","","","","","","","","","","","","","","","",""
"","ISI","","html-keyboard-response","537","1431330","0.0-1.0-741.0","0","0","13622","","null","","","null","82","NaN","","","","","","","","","","","","","","",""
"","S2","","html-keyboard-response","538","1431583","0.0-1.0-742.0","0","0","13622","","null","","","null","82","","NaN","","","","","","","","","","","","","",""
"","response","","html-keyboard-response","539","1431988","0.0-1.0-743.0-0.0","0","0","13622","","404","","","68","82","","","2","82","training","adjacent","BC","2","3","R.jpg","Q.jpg","1","1","1","",""
"","feedback","","html-keyboard-response","540","1432992","0.0-1.0-744.0-0.0","0","0","13622","","null","","","null","82","","","","","","","","","","","","","","","",""
"","ITI","","html-keyboard-response","541","1434001","0.0-1.0-747.0","0","0","13622","","null","","","null","82","","","","","","","","","","","","","","","NaN",""
"","S1","","html-keyboard-response","542","1434253","0.0-1.0-749.0","0","0","13622","","null","","","null","83","","","","","","","","","","","","","","","",""
"","ISI","","html-keyboard-response","543","1435256","0.0-1.0-750.0","0","0","13622","","null","","","null","83","NaN","","","","","","","","","","","","","","",""
"","S2","","html-keyboard-response","544","1435509","0.0-1.0-751.0","0","0","13622","","null","","","null","83","","NaN","","","","","","","","","","","","","",""
"","response","","html-keyboard-response","545","1436091","0.0-1.0-752.0-0.0","0","0","13622","","581","","","68","83","","","2","83","training","adjacent","FG","6","7","L.jpg","N.jpg","1","1","1","",""
"","feedback","","html-keyboard-response","546","1437094","0.0-1.0-753.0-0.0","0","0","13622","","null","","","null","83","","","","","","","","","","","","","","","",""
"","ITI","","html-keyboard-response","547","1438097","0.0-1.0-756.0","0","0","13622","","null","","","null","83","","","","","","","","","","","","","","","NaN",""
"","S1","","html-keyboard-response","548","1438350","0.0-1.0-758.0","0","0","13622","","null","","","null","84","","","","","","","","","","","","","","","",""
"","ISI","","html-keyboard-response","549","1439353","0.0-1.0-759.0","0","0","13622","","null","","","null","84","NaN","","","","","","","","","","","","","","",""
"","S2","","html-keyboard-response","550","1439605","0.0-1.0-760.0","0","0","13622","","null","","","null","84","","NaN","","","","","","","","","","","","","",""
"","response","","html-keyboard-response","551","1440003","0.0-1.0-761.0-0.0","0","0","13622","","396","","","68","84","","","2","84","training","adjacent","FG","6","7","L.jpg","N.jpg","1","1","1","",""
"","feedback","","html-keyboard-response","552","1441006","0.0-1.0-762.0-0.0","0","0","13622","","null","","","null","84","","","","","","","","","","","","","","","",""
"","ITI","","html-keyboard-response","553","1442009","0.0-1.0-765.0","0","0","13622","","null","","","null","84","","","","","","","","","","","","","","","NaN",""
"","S1","","html-keyboard-response","554","1442263","0.0-1.0-767.0","0","0","13622","","null","","","null","85","","","","","","","","","","","","","","","",""
"","ISI","","html-keyboard-response","555","1443265","0.0-1.0-768.0","0","0","13622","","null","","","null","85","NaN","","","","","","","","","","","","","","",""
"","S2","","html-keyboard-response","556","1443518","0.0-1.0-769.0","0","0","13622","","null","","","null","85","","NaN","","","","","","","","","","","","","",""
"","response","","html-keyboard-response","557","1443924","0.0-1.0-770.0-0.0","0","0","13622","","405","","","68","85","","","2","85","training","adjacent","GF","7","6","N.jpg","L.jpg","1","0","0","",""
"","feedback","","html-keyboard-response","558","1444927","0.0-1.0-771.0-0.0","0","0","13622","","null","","","null","85","","","","","","","","","","","","","","","",""
"","time_out","","html-keyboard-response","559","1446931","0.0-1.0-773.0-0.0","0","0","13622","","null","","","null","85","","","","","","","","","","","","","","","",""
"","ITI","","html-keyboard-response","560","1447934","0.0-1.0-774.0","0","0","13622","","null","","","null","85","","","","","","","","","","","","","","","NaN",""
"","S1","","html-keyboard-response","561","1448187","0.0-1.0-776.0","0","0","13622","","null","","","null","86","","","","","","","","","","","","","","","",""
"","ISI","","html-keyboard-response","562","1449190","0.0-1.0-777.0","0","0","13622","","null","","","null","86","NaN","","","","","","","","","","","","","","",""
"","S2","","html-keyboard-response","563","1449443","0.0-1.0-778.0","0","0","13622","","null","","","null","86","","NaN","","","","","","","","","","","","","",""
"","response","","html-keyboard-response","564","1449868","0.0-1.0-779.0-0.0","0","0","13622","","423","","","68","86","","","2","86","training","adjacent","DC","4","3","P.jpg","Q.jpg","1","0","0","",""
"","feedback","","html-keyboard-response","565","1450871","0.0-1.0-780.0-0.0","0","0","13622","","null","","","null","86","","","","","","","","","","","","","","","",""
"","time_out","","html-keyboard-response","566","1452874","0.0-1.0-782.0-0.0","0","0","13622","","null","","","null","86","","","","","","","","","","","","","","","",""
"","ITI","","html-keyboard-response","567","1453877","0.0-1.0-783.0","0","0","13622","","null","","","null","86","","","","","","","","","","","","","","","NaN",""
"","S1","","html-keyboard-response","568","1454130","0.0-1.0-785.0","0","0","13622","","null","","","null","87","","","","","","","","","","","","","","","",""
"","ISI","","html-keyboard-response","569","1455132","0.0-1.0-786.0","0","0","13622","","null","","","null","87","NaN","","","","","","","","","","","","","","",""
"","S2","","html-keyboard-response","570","1455385","0.0-1.0-787.0","0","0","13622","","null","","","null","87","","NaN","","","","","","","","","","","","","",""
"","response","","html-keyboard-response","571","1455608","0.0-1.0-788.0-0.0","0","0","13622","","222","","","75","87","","","2","87","training","adjacent","CB","3","2","Q.jpg","R.jpg","0","0","1","",""
"","feedback","","html-keyboard-response","572","1456611","0.0-1.0-789.0-0.0","0","0","13622","","null","","","null","87","","","","","","","","","","","","","","","",""
"","ITI","","html-keyboard-response","573","1457614","0.0-1.0-792.0","0","0","13622","","null","","","null","87","","","","","","","","","","","","","","","NaN",""
"","S1","","html-keyboard-response","574","1457867","0.0-1.0-794.0","0","0","13622","","null","","","null","88","","","","","","","","","","","","","","","",""
"","ISI","","html-keyboard-response","575","1458871","0.0-1.0-795.0","0","0","13622","","null","","","null","88","NaN","","","","","","","","","","","","","","",""
"","S2","","html-keyboard-response","576","1459124","0.0-1.0-796.0","0","0","13622","","null","","","null","88","","NaN","","","","","","","","","","","","","",""
"","response","","html-keyboard-response","577","1459231","0.0-1.0-797.0-0.0","0","0","13622","","106","","","75","88","","","2","88","training","adjacent","ED","5","4","O.jpg","P.jpg","0","0","1","",""
"","feedback","","html-keyboard-response","578","1460235","0.0-1.0-798.0-0.0","0","0","13622","","null","","","null","88","","","","","","","","","","","","","","","",""
"","ITI","","html-keyboard-response","579","1461237","0.0-1.0-801.0","0","0","13622","","null","","","null","88","","","","","","","","","","","","","","","NaN",""
"","S1","","html-keyboard-response","580","1461490","0.0-1.0-803.0","0","0","13622","","null","","","null","89","","","","","","","","","","","","","","","",""
"","ISI","","html-keyboard-response","581","1462493","0.0-1.0-804.0","0","0","13622","","null","","","null","89","NaN","","","","","","","","","","","","","","",""
