"success","ttype","start_time","trial_type","trial_index","time_elapsed","internal_node_id","warning","missed_checkup","PID","view_history","rt","responses","repeat_instructions","key_press","index","keypress_isi","keypress_S2","block","trial_num","phase","group_type","pair_type","S1_stim","S2_stim","S1_img","S2_img","S1_chosen","S1_higher","accuracy","keypress_iti","total_bonus_tally"
"true","full_screen","d03032023hr2048","fullscreen","0","8877","0.0-0.0","0","0","91244","","","","","","","","","","","","","","","","","","","","","",""
"","instructions","","instructions","1","132839","0.0-1.0-0.0-0.0","0","0","91244","[{""page_index"":0,""viewing_time"":92757},{""page_index"":1,""viewing_time"":19249},{""page_index"":2,""viewing_time"":7080},{""page_index"":3,""viewing_time"":4871}]","123958","","","","","","","","","","","","","","","","","","","",""
"","comprehension_check","","survey-multi-choice","2","178999","0.0-1.0-0.0-1.0","0","0","91244","","46153","{""Q0"":""True"",""Q1"":""D"",""Q2"":""Only when the screen 'MAKE A CHOICE' is shown"",""Q3"":""Green mark"",""Q4"":""either D or K""}","1","","","","","","","","","","","","","","","","","",""
"","missed_instruction_checkup","","html-keyboard-response","3","182359","0.0-1.0-0.0-2.0-0.0","0","1","91244","","3357","","","32","","","","","","","","","","","","","","","","",""
"","instructions","","instructions","4","197840","0.0-1.0-0.1-0.1","0","0","91244","[{""page_index"":0,""viewing_time"":1747},{""page_index"":1,""viewing_time"":9044},{""page_index"":2,""viewing_time"":3365},{""page_index"":3,""viewing_time"":1321}]","15477","","","","","","","","","","","","","","","","","","","",""
"","comprehension_check","","survey-multi-choice","5","210809","0.0-1.0-0.1-1.1","0","0","91244","","12963","{""Q0"":""True"",""Q1"":""D"",""Q2"":""Once the second image appears and while the screen 'MAKE A CHOICE' is shown"",""Q3"":""Green mark"",""Q4"":""either D or K""}","0","","","","","","","","","","","","","","","","","",""
"","start_exp","","html-keyboard-response","6","212859","0.0-1.0-1.0","0","0","91244","","2047","","","32","","","","","","","","","","","","","","","","",""
"","S1","","html-keyboard-response","7","213113","0.0-1.0-2.0","0","0","91244","","null","","","null","0","","","","","","","","","","","","","","","",""
"","ISI","","html-keyboard-response","8","213616","0.0-1.0-3.0","0","0","91244","","null","","","null","0","NaN","","","","","","","","","","","","","","",""
"","S2","","html-keyboard-response","9","213870","0.0-1.0-4.0","0","0","91244","","null","","","null","0","","NaN","","","","","","","","","","","","","",""
"","response","","html-keyboard-response","10","215623","0.0-1.0-5.0-0.0","0","0","91244","","null","","","null","0","","","1","0","training","adjacent","FG","6","7","M.jpg","N.jpg","NaN","1","0","",""
"","too_slow_prompt","","html-keyboard-response","11","216626","0.0-1.0-7.0-0.0","1","0","91244","","null","","","null","","","","","","","","","","","","","","","","",""
"","time_out","","html-keyboard-response","12","218629","0.0-1.0-8.0-0.0","0","0","91244","","null","","","null","0","","","","","","","","","","","","","","","",""
"","ITI","","html-keyboard-response","13","219632","0.0-1.0-9.0","0","0","91244","","null","","","null","0","","","","","","","","","","","","","","","NaN",""
"","S1","","html-keyboard-response","14","219884","0.0-1.0-11.0","0","0","91244","","null","","","null","1","","","","","","","","","","","","","","","",""
"","ISI","","html-keyboard-response","15","220387","0.0-1.0-12.0","0","0","91244","","null","","","null","1","NaN","","","","","","","","","","","","","","",""
"","S2","","html-keyboard-response","16","220639","0.0-1.0-13.0","0","0","91244","","null","","","null","1","","NaN","","","","","","","","","","","","","",""
"","response","","html-keyboard-response","17","221837","0.0-1.0-14.0-0.0","0","0","91244","","1196","","","68","1","","","1","1","training","adjacent","ED","5","4","O.jpg","L.jpg","1","0","0","",""
"","feedback","","html-keyboard-response","18","222840","0.0-1.0-15.0-0.0","0","0","91244","","null","","","null","1","","","","","","","","","","","","","","","",""
"","time_out","","html-keyboard-response","19","224843","0.0-1.0-17.0-0.0","0","0","91244","","null","","","null","1","","","","","","","","","","","","","","","",""
"","ITI","","html-keyboard-response","20","225846","0.0-1.0-18.0","0","0","91244","","null","","","null","1","","","","","","","","","","","","","","","NaN",""
"","S1","","html-keyboard-response","21","226099","0.0-1.0-20.0","0","0","91244","","null","","","null","2","","","","","","","","","","","","","","","",""
"","ISI","","html-keyboard-response","22","226601","0.0-1.0-21.0","0","0","91244","","null","","","null","2","NaN","","","","","","","","","","","","","","",""
"","S2","","html-keyboard-response","23","226853","0.0-1.0-22.0","0","0","91244","","null","","","null","2","","NaN","","","","","","","","","","","","","",""
"","response","","html-keyboard-response","24","228071","0.0-1.0-23.0-0.0","0","0","91244","","1215","","","75","2","","","1","2","training","adjacent","DC","4","3","L.jpg","P.jpg","0","0","1","",""
"","feedback","","html-keyboard-response","25","229072","0.0-1.0-24.0-0.0","0","0","91244","","null","","","null","2","","","","","","","","","","","","","","","",""
"","ITI","","html-keyboard-response","26","230075","0.0-1.0-27.0","0","0","91244","","null","","","null","2","","","","","","","","","","","","","","","NaN",""
"","S1","","html-keyboard-response","27","230329","0.0-1.0-29.0","0","0","91244","","null","","","null","3","","","","","","","","","","","","","","","",""
"","ISI","","html-keyboard-response","28","230831","0.0-1.0-30.0","0","0","91244","","null","","","null","3","NaN","","","","","","","","","","","","","","",""
"","S2","","html-keyboard-response","29","231083","0.0-1.0-31.0","0","0","91244","","null","","","null","3","","NaN","","","","","","","","","","","","","",""
"","response","","html-keyboard-response","30","232388","0.0-1.0-32.0-0.0","0","0","91244","","1303","","","75","3","","","1","3","training","adjacent","CD","3","4","P.jpg","L.jpg","0","1","0","",""
"","feedback","","html-keyboard-response","31","233394","0.0-1.0-33.0-0.0","0","0","91244","","null","","","null","3","","","","","","","","","","","","","","","",""
"","time_out","","html-keyboard-response","32","235395","0.0-1.0-35.0-0.0","0","0","91244","","null","","","null","3","","","","","","","","","","","","","","","",""
"","ITI","","html-keyboard-response","33","236397","0.0-1.0-36.0","0","0","91244","","null","","","null","3","","","","","","","","","","","","","","","NaN",""
"","S1","","html-keyboard-response","34","236681","0.0-1.0-38.0","0","0","91244","","null","","","null","4","","","","","","","","","","","","","","","",""
"","ISI","","html-keyboard-response","35","237184","0.0-1.0-39.0","0","0","91244","","null","","","null","4","NaN","","","","","","","","","","","","","","",""
"","S2","","html-keyboard-response","36","237436","0.0-1.0-40.0","0","0","91244","","null","","","null","4","","NaN","","","","","","","","","","","","","",""
"","response","","html-keyboard-response","37","239200","0.0-1.0-41.0-0.0","0","0","91244","","null","","","null","4","","","1","4","training","adjacent","FG","6","7","M.jpg","N.jpg","NaN","1","0","",""
"","too_slow_prompt","","html-keyboard-response","38","240204","0.0-1.0-43.0-0.0","1","0","91244","","null","","","null","","","","","","","","","","","","","","","","",""
"","time_out","","html-keyboard-response","39","242207","0.0-1.0-44.0-0.0","0","0","91244","","null","","","null","4","","","","","","","","","","","","","","","",""
"","ITI","","html-keyboard-response","40","243209","0.0-1.0-45.0","0","0","91244","","null","","","null","4","","","","","","","","","","","","","","","NaN",""
"","S1","","html-keyboard-response","41","243462","0.0-1.0-47.0","0","0","91244","","null","","","null","5","","","","","","","","","","","","","","","",""
"","ISI","","html-keyboard-response","42","243964","0.0-1.0-48.0","0","0","91244","","null","","","null","5","NaN","","","","","","","","","","","","","","",""
"","S2","","html-keyboard-response","43","244218","0.0-1.0-49.0","0","0","91244","","null","","","null","5","","NaN","","","","","","","","","","","","","",""
"","response","","html-keyboard-response","44","245149","0.0-1.0-50.0-0.0","0","0","91244","","929","","","75","5","","","1","5","training","adjacent","BA","2","1","Q.jpg","R.jpg","0","0","1","",""
"","feedback","","html-keyboard-response","45","246151","0.0-1.0-51.0-0.0","0","0","91244","","null","","","null","5","","","","","","","","","","","","","","","",""
"","ITI","","html-keyboard-response","46","247154","0.0-1.0-54.0","0","0","91244","","null","","","null","5","","","","","","","","","","","","","","","NaN",""
"","S1","","html-keyboard-response","47","247407","0.0-1.0-56.0","0","0","91244","","null","","","null","6","","","","","","","","","","","","","","","",""
"","ISI","","html-keyboard-response","48","247916","0.0-1.0-57.0","0","0","91244","","null","","","null","6","NaN","","","","","","","","","","","","","","",""
"","S2","","html-keyboard-response","49","248169","0.0-1.0-58.0","0","0","91244","","null","","","null","6","","NaN","","","","","","","","","","","","","",""
"","response","","html-keyboard-response","50","249130","0.0-1.0-59.0-0.0","0","0","91244","","958","","","68","6","","","1","6","training","adjacent","FG","6","7","M.jpg","N.jpg","1","1","1","",""
"","feedback","","html-keyboard-response","51","250133","0.0-1.0-60.0-0.0","0","0","91244","","null","","","null","6","","","","","","","","","","","","","","","",""
"","ITI","","html-keyboard-response","52","251134","0.0-1.0-63.0","0","0","91244","","null","","","null","6","","","","","","","","","","","","","","","NaN",""
"","S1","","html-keyboard-response","53","251386","0.0-1.0-65.0","0","0","91244","","null","","","null","7","","","","","","","","","","","","","","","",""
"","ISI","","html-keyboard-response","54","251888","0.0-1.0-66.0","0","0","91244","","null","","","null","7","NaN","","","","","","","","","","","","","","",""
"","S2","","html-keyboard-response","55","252141","0.0-1.0-67.0","0","0","91244","","null","","","null","7","","NaN","","","","","","","","","","","","","",""
"","response","","html-keyboard-response","56","253919","0.0-1.0-68.0-0.0","0","0","91244","","null","","","null","7","","","1","7","training","adjacent","CB","3","2","P.jpg","Q.jpg","NaN","0","0","",""
"","too_slow_prompt","","html-keyboard-response","57","254921","0.0-1.0-70.0-0.0","1","0","91244","","null","","","null","","","","","","","","","","","","","","","","",""
"","time_out","","html-keyboard-response","58","256923","0.0-1.0-71.0-0.0","0","0","91244","","null","","","null","7","","","","","","","","","","","","","","","",""
"","ITI","","html-keyboard-response","59","257924","0.0-1.0-72.0","0","0","91244","","null","","","null","7","","","","","","","","","","","","","","","NaN",""
"","S1","","html-keyboard-response","60","258177","0.0-1.0-74.0","0","0","91244","","null","","","null","8","","","","","","","","","","","","","","","",""
"","ISI","","html-keyboard-response","61","258679","0.0-1.0-75.0","0","0","91244","","null","","","null","8","NaN","","","","","","","","","","","","","","",""
"","S2","","html-keyboard-response","62","258931","0.0-1.0-76.0","0","0","91244","","null","","","null","8","","NaN","","","","","","","","","","","","","",""
"","response","","html-keyboard-response","63","259090","0.0-1.0-77.0-0.0","0","0","91244","","156","","","68","8","","","1","8","training","adjacent","GF","7","6","N.jpg","M.jpg","1","0","0","",""
"","feedback","","html-keyboard-response","64","260098","0.0-1.0-78.0-0.0","0","0","91244","","null","","","null","8","","","","","","","","","","","","","","","",""
"","time_out","","html-keyboard-response","65","262101","0.0-1.0-80.0-0.0","0","0","91244","","null","","","null","8","","","","","","","","","","","","","","","",""
"","ITI","","html-keyboard-response","66","263102","0.0-1.0-81.0","0","0","91244","","null","","","null","8","","","","","","","","","","","","","","","NaN",""
"","S1","","html-keyboard-response","67","263356","0.0-1.0-83.0","0","0","91244","","null","","","null","9","","","","","","","","","","","","","","","",""
"","ISI","","html-keyboard-response","68","263858","0.0-1.0-84.0","0","0","91244","","null","","","null","9","NaN","","","","","","","","","","","","","","",""
"","S2","","html-keyboard-response","69","264111","0.0-1.0-85.0","0","0","91244","","null","","","null","9","","NaN","","","","","","","","","","","","","",""
"","response","","html-keyboard-response","70","264679","0.0-1.0-86.0-0.0","0","0","91244","","566","","","75","9","","","1","9","training","adjacent","ED","5","4","O.jpg","L.jpg","0","0","1","",""
"","feedback","","html-keyboard-response","71","265681","0.0-1.0-87.0-0.0","0","0","91244","","null","","","null","9","","","","","","","","","","","","","","","",""
"","ITI","","html-keyboard-response","72","266683","0.0-1.0-90.0","0","0","91244","","null","","","null","9","","","","","","","","","","","","","","","NaN",""
"","S1","","html-keyboard-response","73","266935","0.0-1.0-92.0","0","0","91244","","null","","","null","10","","","","","","","","","","","","","","","",""
"","ISI","","html-keyboard-response","74","267437","0.0-1.0-93.0","0","0","91244","","null","","","null","10","NaN","","","","","","","","","","","","","","",""
"","S2","","html-keyboard-response","75","267689","0.0-1.0-94.0","0","0","91244","","null","","","null","10","","NaN","","","","","","","","","","","","","",""
"","response","","html-keyboard-response","76","268452","0.0-1.0-95.0-0.0","0","0","91244","","761","","","68","10","","","1","10","training","adjacent","DC","4","3","L.jpg","P.jpg","1","0","0","",""
"","feedback","","html-keyboard-response","77","269454","0.0-1.0-96.0-0.0","0","0","91244","","null","","","null","10","","","","","","","","","","","","","","","",""
"","time_out","","html-keyboard-response","78","271455","0.0-1.0-98.0-0.0","0","0","91244","","null","","","null","10","","","","","","","","","","","","","","","",""
"","ITI","","html-keyboard-response","79","272458","0.0-1.0-99.0","0","0","91244","","null","","","null","10","","","","","","","","","","","","","","","NaN",""
"","S1","","html-keyboard-response","80","272710","0.0-1.0-101.0","0","0","91244","","null","","","null","11","","","","","","","","","","","","","","","",""
"","ISI","","html-keyboard-response","81","273213","0.0-1.0-102.0","0","0","91244","","null","","","null","11","NaN","","","","","","","","","","","","","","",""
"","S2","","html-keyboard-response","82","273466","0.0-1.0-103.0","0","0","91244","","null","","","null","11","","NaN","","","","","","","","","","","","","",""
"","response","","html-keyboard-response","83","273897","0.0-1.0-104.0-0.0","0","0","91244","","430","","","75","11","","","1","11","training","adjacent","FE","6","5","M.jpg","O.jpg","0","0","1","",""
"","feedback","","html-keyboard-response","84","274900","0.0-1.0-105.0-0.0","0","0","91244","","null","","","null","11","","","","","","","","","","","","","","","",""
"","ITI","","html-keyboard-response","85","275901","0.0-1.0-108.0","0","0","91244","","null","","","null","11","","","","","","","","","","","","","","","NaN",""
"","S1","","html-keyboard-response","86","276154","0.0-1.0-110.0","0","0","91244","","null","","","null","12","","","","","","","","","","","","","","","",""
"","ISI","","html-keyboard-response","87","276665","0.0-1.0-111.0","0","0","91244","","null","","","null","12","NaN","","","","","","","","","","","","","","",""
"","S2","","html-keyboard-response","88","276926","0.0-1.0-112.0","0","0","91244","","null","","","null","12","","NaN","","","","","","","","","","","","","",""
"","response","","html-keyboard-response","89","277398","0.0-1.0-113.0-0.0","0","0","91244","","471","","","68","12","","","1","12","training","adjacent","BA","2","1","Q.jpg","R.jpg","1","0","0","",""
"","feedback","","html-keyboard-response","90","278401","0.0-1.0-114.0-0.0","0","0","91244","","null","","","null","12","","","","","","","","","","","","","","","",""
"","time_out","","html-keyboard-response","91","280407","0.0-1.0-116.0-0.0","0","0","91244","","null","","","null","12","","","","","","","","","","","","","","","",""
"","ITI","","html-keyboard-response","92","281429","0.0-1.0-117.0","0","0","91244","","null","","","null","12","","","","","","","","","","","","","","","NaN",""
"","S1","","html-keyboard-response","93","281683","0.0-1.0-119.0","0","0","91244","","null","","","null","13","","","","","","","","","","","","","","","",""
"","ISI","","html-keyboard-response","94","282184","0.0-1.0-120.0","0","0","91244","","null","","","null","13","NaN","","","","","","","","","","","","","","",""
"","S2","","html-keyboard-response","95","282362","0.0-1.0-121.0","0","0","91244","","174","","","75","13","","k","1","13","training","adjacent","BA","2","1","Q.jpg","R.jpg","0","0","1","",""
"","feedback","","html-keyboard-response","96","283366","0.0-1.0-123.0-0.0","0","0","91244","","null","","","null","13","","","","","","","","","","","","","","","",""
"","ITI","","html-keyboard-response","97","284369","0.0-1.0-126.0","0","0","91244","","null","","","null","13","","","","","","","","","","","","","","","NaN",""
"","S1","","html-keyboard-response","98","284622","0.0-1.0-128.0","0","0","91244","","null","","","null","14","","","","","","","","","","","","","","","",""
"","ISI","","html-keyboard-response","99","285135","0.0-1.0-129.0","0","0","91244","","null","","","null","14","NaN","","","","","","","","","","","","","","",""
"","S2","","html-keyboard-response","100","285388","0.0-1.0-130.0","0","0","91244","","null","","","null","14","","NaN","","","","","","","","","","","","","",""
"","response","","html-keyboard-response","101","286276","0.0-1.0-131.0-0.0","0","0","91244","","884","","","68","14","","","1","14","training","adjacent","FG","6","7","M.jpg","N.jpg","1","1","1","",""
"","feedback","","html-keyboard-response","102","287279","0.0-1.0-132.0-0.0","0","0","91244","","null","","","null","14","","","","","","","","","","","","","","","",""
"","ITI","","html-keyboard-response","103","288285","0.0-1.0-135.0","0","0","91244","","null","","","null","14","","","","","","","","","","","","","","","NaN",""
"","S1","","html-keyboard-response","104","288542","0.0-1.0-137.0","0","0","91244","","null","","","null","15","","","","","","","","","","","","","","","",""
"","ISI","","html-keyboard-response","105","289046","0.0-1.0-138.0","0","0","91244","","null","","","null","15","NaN","","","","","","","","","","","","","","",""
"","S2","","html-keyboard-response","106","289298","0.0-1.0-139.0","0","0","91244","","null","","","null","15","","NaN","","","","","","","","","","","","","",""
"","response","","html-keyboard-response","107","289930","0.0-1.0-140.0-0.0","0","0","91244","","630","","","75","15","","","1","15","training","adjacent","FE","6","5","M.jpg","O.jpg","0","0","1","",""
"","feedback","","html-keyboard-response","108","290947","0.0-1.0-141.0-0.0","0","0","91244","","null","","","null","15","","","","","","","","","","","","","","","",""
"","ITI","","html-keyboard-response","109","291950","0.0-1.0-144.0","0","0","91244","","null","","","null","15","","","","","","","","","","","","","","","NaN",""
"","S1","","html-keyboard-response","110","292203","0.0-1.0-146.0","0","0","91244","","null","","","null","16","","","","","","","","","","","","","","","",""
"","ISI","","html-keyboard-response","111","292707","0.0-1.0-147.0","0","0","91244","","null","","","null","16","NaN","","","","","","","","","","","","","","",""
"","S2","","html-keyboard-response","112","292960","0.0-1.0-148.0","0","0","91244","","null","","","null","16","","NaN","","","","","","","","","","","","","",""
"","response","","html-keyboard-response","113","293108","0.0-1.0-149.0-0.0","0","0","91244","","145","","","68","16","","","1","16","training","adjacent","ED","5","4","O.jpg","L.jpg","1","0","0","",""
"","feedback","","html-keyboard-response","114","294111","0.0-1.0-150.0-0.0","0","0","91244","","null","","","null","16","","","","","","","","","","","","","","","",""
"","time_out","","html-keyboard-response","115","296112","0.0-1.0-152.0-0.0","0","0","91244","","null","","","null","16","","","","","","","","","","","","","","","",""
"","ITI","","html-keyboard-response","116","297117","0.0-1.0-153.0","0","0","91244","","null","","","null","16","","","","","","","","","","","","","","","NaN",""
"","S1","","html-keyboard-response","117","297370","0.0-1.0-155.0","0","0","91244","","null","","","null","17","","","","","","","","","","","","","","","",""
"","ISI","","html-keyboard-response","118","297873","0.0-1.0-156.0","0","0","91244","","null","","","null","17","NaN","","","","","","","","","","","","","","",""
"","S2","","html-keyboard-response","119","298125","0.0-1.0-157.0","0","0","91244","","null","","","null","17","","NaN","","","","","","","","","","","","","",""
"","response","","html-keyboard-response","120","298689","0.0-1.0-158.0-0.0","0","0","91244","","562","","","75","17","","","1","17","training","adjacent","ED","5","4","O.jpg","L.jpg","0","0","1","",""
"","feedback","","html-keyboard-response","121","299692","0.0-1.0-159.0-0.0","0","0","91244","","null","","","null","17","","","","","","","","","","","","","","","",""
"","ITI","","html-keyboard-response","122","300694","0.0-1.0-162.0","0","0","91244","","null","","","null","17","","","","","","","","","","","","","","","NaN",""
"","S1","","html-keyboard-response","123","300946","0.0-1.0-164.0","0","0","91244","","null","","","null","18","","","","","","","","","","","","","","","",""
"","ISI","","html-keyboard-response","124","301449","0.0-1.0-165.0","0","0","91244","","null","","","null","18","NaN","","","","","","","","","","","","","","",""
"","S2","","html-keyboard-response","125","301702","0.0-1.0-166.0","0","0","91244","","null","","","null","18","","NaN","","","","","","","","","","","","","",""
"","response","","html-keyboard-response","126","303372","0.0-1.0-167.0-0.0","0","0","91244","","1666","","","68","18","","","1","18","training","adjacent","AB","1","2","R.jpg","Q.jpg","1","1","1","",""
"","feedback","","html-keyboard-response","127","304376","0.0-1.0-168.0-0.0","0","0","91244","","null","","","null","18","","","","","","","","","","","","","","","",""
"","ITI","","html-keyboard-response","128","305378","0.0-1.0-171.0","0","0","91244","","null","","","null","18","","","","","","","","","","","","","","","NaN",""
"","S1","","html-keyboard-response","129","305630","0.0-1.0-173.0","0","0","91244","","null","","","null","19","","","","","","","","","","","","","","","",""
"","ISI","","html-keyboard-response","130","306132","0.0-1.0-174.0","0","0","91244","","null","","","null","19","NaN","","","","","","","","","","","","","","",""
"","S2","","html-keyboard-response","131","306384","0.0-1.0-175.0","0","0","91244","","null","","","null","19","","NaN","","","","","","","","","","","","","",""
"","response","","html-keyboard-response","132","308137","0.0-1.0-176.0-0.0","0","0","91244","","null","","","null","19","","","1","19","training","adjacent","AB","1","2","R.jpg","Q.jpg","NaN","1","0","",""
"","too_slow_prompt","","html-keyboard-response","133","309141","0.0-1.0-178.0-0.0","1","0","91244","","null","","","null","","","","","","","","","","","","","","","","",""
"","time_out","","html-keyboard-response","134","311144","0.0-1.0-179.0-0.0","0","0","91244","","null","","","null","19","","","","","","","","","","","","","","","",""
"","ITI","","html-keyboard-response","135","312146","0.0-1.0-180.0","0","0","91244","","null","","","null","19","","","","","","","","","","","","","","","NaN",""
"","S1","","html-keyboard-response","136","312408","0.0-1.0-182.0","0","0","91244","","null","","","null","20","","","","","","","","","","","","","","","",""
"","ISI","","html-keyboard-response","137","312910","0.0-1.0-183.0","0","0","91244","","null","","","null","20","NaN","","","","","","","","","","","","","","",""
"","S2","","html-keyboard-response","138","313028","0.0-1.0-184.0","0","0","91244","","114","","","68","20","","d","1","20","training","adjacent","CD","3","4","P.jpg","L.jpg","1","1","1","",""
"","feedback","","html-keyboard-response","139","314031","0.0-1.0-186.0-0.0","0","0","91244","","null","","","null","20","","","","","","","","","","","","","","","",""
"","ITI","","html-keyboard-response","140","315032","0.0-1.0-189.0","0","0","91244","","null","","","null","20","","","","","","","","","","","","","","","NaN",""
"","S1","","html-keyboard-response","141","315285","0.0-1.0-191.0","0","0","91244","","null","","","null","21","","","","","","","","","","","","","","","",""
"","ISI","","html-keyboard-response","142","315788","0.0-1.0-192.0","0","0","91244","","null","","","null","21","NaN","","","","","","","","","","","","","","",""
"","S2","","html-keyboard-response","143","316041","0.0-1.0-193.0","0","0","91244","","null","","","null","21","","NaN","","","","","","","","","","","","","",""
"","response","","html-keyboard-response","144","316949","0.0-1.0-194.0-0.0","0","0","91244","","906","","","75","21","","","1","21","training","adjacent","AB","1","2","R.jpg","Q.jpg","0","1","0","",""
"","feedback","","html-keyboard-response","145","317951","0.0-1.0-195.0-0.0","0","0","91244","","null","","","null","21","","","","","","","","","","","","","","","",""
"","time_out","","html-keyboard-response","146","319952","0.0-1.0-197.0-0.0","0","0","91244","","null","","","null","21","","","","","","","","","","","","","","","",""
"","ITI","","html-keyboard-response","147","320954","0.0-1.0-198.0","0","0","91244","","null","","","null","21","","","","","","","","","","","","","","","NaN",""
"","S1","","html-keyboard-response","148","321210","0.0-1.0-200.0","0","0","91244","","null","","","null","22","","","","","","","","","","","","","","","",""
"","ISI","","html-keyboard-response","149","321711","0.0-1.0-201.0","0","0","91244","","null","","","null","22","NaN","","","","","","","","","","","","","","",""
"","S2","","html-keyboard-response","150","321962","0.0-1.0-202.0","0","0","91244","","null","","","null","22","","NaN","","","","","","","","","","","","","",""
"","response","","html-keyboard-response","151","322147","0.0-1.0-203.0-0.0","0","0","91244","","183","","","68","22","","","1","22","training","adjacent","BC","2","3","Q.jpg","P.jpg","1","1","1","",""
"","feedback","","html-keyboard-response","152","323149","0.0-1.0-204.0-0.0","0","0","91244","","null","","","null","22","","","","","","","","","","","","","","","",""
"","ITI","","html-keyboard-response","153","324151","0.0-1.0-207.0","0","0","91244","","null","","","null","22","","","","","","","","","","","","","","","NaN",""
"","S1","","html-keyboard-response","154","324403","0.0-1.0-209.0","0","0","91244","","null","","","null","23","","","","","","","","","","","","","","","",""
"","ISI","","html-keyboard-response","155","324905","0.0-1.0-210.0","0","0","91244","","null","","","null","23","NaN","","","","","","","","","","","","","","",""
"","S2","","html-keyboard-response","156","325156","0.0-1.0-211.0","0","0","91244","","null","","","null","23","","NaN","","","","","","","","","","","","","",""
"","response","","html-keyboard-response","157","325271","0.0-1.0-212.0-0.0","0","0","91244","","113","","","75","23","","","1","23","training","adjacent","DE","4","5","L.jpg","O.jpg","0","1","0","",""
"","feedback","","html-keyboard-response","158","326272","0.0-1.0-213.0-0.0","0","0","91244","","null","","","null","23","","","","","","","","","","","","","","","",""
"","time_out","","html-keyboard-response","159","328273","0.0-1.0-215.0-0.0","0","0","91244","","null","","","null","23","","","","","","","","","","","","","","","",""
"","ITI","","html-keyboard-response","160","329275","0.0-1.0-216.0","0","0","91244","","null","","","null","23","","","","","","","","","","","","","","","NaN",""
"","S1","","html-keyboard-response","161","329527","0.0-1.0-218.0","0","0","91244","","null","","","null","24","","","","","","","","","","","","","","","",""
"","ISI","","html-keyboard-response","162","330028","0.0-1.0-219.0","0","0","91244","","null","","","null","24","NaN","","","","","","","","","","","","","","",""
"","S2","","html-keyboard-response","163","330178","0.0-1.0-220.0","0","0","91244","","148","","","75","24","","k","1","24","training","adjacent","CB","3","2","P.jpg","Q.jpg","0","0","1","",""
"","feedback","","html-keyboard-response","164","331198","0.0-1.0-222.0-0.0","0","0","91244","","null","","","null","24","","","","","","","","","","","","","","","",""
"","ITI","","html-keyboard-response","165","332201","0.0-1.0-225.0","0","0","91244","","null","","","null","24","","","","","","","","","","","","","","","NaN",""
"","S1","","html-keyboard-response","166","332453","0.0-1.0-227.0","0","0","91244","","null","","","null","25","","","","","","","","","","","","","","","",""
"","ISI","","html-keyboard-response","167","332955","0.0-1.0-228.0","0","0","91244","","null","","","null","25","NaN","","","","","","","","","","","","","","",""
"","S2","","html-keyboard-response","168","333157","0.0-1.0-229.0","0","0","91244","","200","","","68","25","","d","1","25","training","adjacent","CD","3","4","P.jpg","L.jpg","1","1","1","",""
"","feedback","","html-keyboard-response","169","334161","0.0-1.0-231.0-0.0","0","0","91244","","null","","","null","25","","","","","","","","","","","","","","","",""
"","ITI","","html-keyboard-response","170","335165","0.0-1.0-234.0","0","0","91244","","null","","","null","25","","","","","","","","","","","","","","","NaN",""
"","S1","","html-keyboard-response","171","335417","0.0-1.0-236.0","0","0","91244","","null","","","null","26","","","","","","","","","","","","","","","",""
"","ISI","","html-keyboard-response","172","335917","0.0-1.0-237.0","0","0","91244","","null","","","null","26","NaN","","","","","","","","","","","","","","",""
"","S2","","html-keyboard-response","173","336169","0.0-1.0-238.0","0","0","91244","","null","","","null","26","","NaN","","","","","","","","","","","","","",""
"","response","","html-keyboard-response","174","336287","0.0-1.0-239.0-0.0","0","0","91244","","115","","","68","26","","","1","26","training","adjacent","DE","4","5","L.jpg","O.jpg","1","1","1","",""
"","feedback","","html-keyboard-response","175","337290","0.0-1.0-240.0-0.0","0","0","91244","","null","","","null","26","","","","","","","","","","","","","","","",""
"","ITI","","html-keyboard-response","176","338294","0.0-1.0-243.0","0","0","91244","","null","","","null","26","","","","","","","","","","","","","","","NaN",""
"","S1","","html-keyboard-response","177","338551","0.0-1.0-245.0","0","0","91244","","null","","","null","27","","","","","","","","","","","","","","","",""
"","ISI","","html-keyboard-response","178","339053","0.0-1.0-246.0","0","0","91244","","null","","","null","27","NaN","","","","","","","","","","","","","","",""
"","S2","","html-keyboard-response","179","339306","0.0-1.0-247.0","0","0","91244","","null","","","null","27","","NaN","","","","","","","","","","","","","",""
"","response","","html-keyboard-response","180","339501","0.0-1.0-248.0-0.0","0","0","91244","","191","","","75","27","","","1","27","training","adjacent","FE","6","5","M.jpg","O.jpg","0","0","1","",""
"","feedback","","html-keyboard-response","181","340504","0.0-1.0-249.0-0.0","0","0","91244","","null","","","null","27","","","","","","","","","","","","","","","",""
"","ITI","","html-keyboard-response","182","341505","0.0-1.0-252.0","0","0","91244","","null","","","null","27","","","","","","","","","","","","","","","NaN",""
"","S1","","html-keyboard-response","183","341758","0.0-1.0-254.0","0","0","91244","","null","","","null","28","","","","","","","","","","","","","","","",""
"","ISI","","html-keyboard-response","184","342261","0.0-1.0-255.0","0","0","91244","","319","","","75","28","k","","","","","","","","","","","","","","",""
"","S2","","html-keyboard-response","185","342514","0.0-1.0-256.0","0","0","91244","","null","","","null","28","","NaN","","","","","","","","","","","","","",""
"","response","","html-keyboard-response","186","343546","0.0-1.0-257.0-0.0","0","0","91244","","1030","","","68","28","","","1","28","training","adjacent","EF","5","6","O.jpg","M.jpg","1","1","1","",""
"","feedback","","html-keyboard-response","187","344548","0.0-1.0-258.0-0.0","0","0","91244","","null","","","null","28","","","","","","","","","","","","","","","",""
"","ITI","","html-keyboard-response","188","345551","0.0-1.0-261.0","0","0","91244","","null","","","null","28","","","","","","","","","","","","","","","NaN",""
"","S1","","html-keyboard-response","189","345804","0.0-1.0-263.0","0","0","91244","","null","","","null","29","","","","","","","","","","","","","","","",""
"","ISI","","html-keyboard-response","190","346307","0.0-1.0-264.0","0","0","91244","","null","","","null","29","NaN","","","","","","","","","","","","","","",""
"","S2","","html-keyboard-response","191","346560","0.0-1.0-265.0","0","0","91244","","null","","","null","29","","NaN","","","","","","","","","","","","","",""
"","response","","html-keyboard-response","192","346628","0.0-1.0-266.0-0.0","0","0","91244","","66","","","75","29","","","1","29","training","adjacent","DC","4","3","L.jpg","P.jpg","0","0","1","",""
"","feedback","","html-keyboard-response","193","347634","0.0-1.0-267.0-0.0","0","0","91244","","null","","","null","29","","","","","","","","","","","","","","","",""
"","ITI","","html-keyboard-response","194","348637","0.0-1.0-270.0","0","0","91244","","null","","","null","29","","","","","","","","","","","","","","","NaN",""
"","S1","","html-keyboard-response","195","348888","0.0-1.0-272.0","0","0","91244","","null","","","null","30","","","","","","","","","","","","","","","",""
"","ISI","","html-keyboard-response","196","349391","0.0-1.0-273.0","0","0","91244","","null","","","null","30","NaN","","","","","","","","","","","","","","",""
"","S2","","html-keyboard-response","197","349590","0.0-1.0-274.0","0","0","91244","","197","","","68","30","","d","1","30","training","adjacent","AB","1","2","R.jpg","Q.jpg","1","1","1","",""
"","feedback","","html-keyboard-response","198","350592","0.0-1.0-276.0-0.0","0","0","91244","","null","","","null","30","","","","","","","","","","","","","","","",""
"","ITI","","html-keyboard-response","199","351595","0.0-1.0-279.0","0","0","91244","","null","","","null","30","","","","","","","","","","","","","","","NaN",""
"","S1","","html-keyboard-response","200","351846","0.0-1.0-281.0","0","0","91244","","null","","","null","31","","","","","","","","","","","","","","","",""
"","ISI","","html-keyboard-response","201","352349","0.0-1.0-282.0","0","0","91244","","null","","","null","31","NaN","","","","","","","","","","","","","","",""
"","S2","","html-keyboard-response","202","352447","0.0-1.0-283.0","0","0","91244","","96","","","75","31","","k","1","31","training","adjacent","EF","5","6","O.jpg","M.jpg","0","1","0","",""
"","feedback","","html-keyboard-response","203","353450","0.0-1.0-285.0-0.0","0","0","91244","","null","","","null","31","","","","","","","","","","","","","","","",""
"","time_out","","html-keyboard-response","204","355455","0.0-1.0-287.0-0.0","0","0","91244","","null","","","null","31","","","","","","","","","","","","","","","",""
"","ITI","","html-keyboard-response","205","356458","0.0-1.0-288.0","0","0","91244","","null","","","null","31","","","","","","","","","","","","","","","NaN",""
"","S1","","html-keyboard-response","206","356712","0.0-1.0-290.0","0","0","91244","","null","","","null","32","","","","","","","","","","","","","","","",""
"","ISI","","html-keyboard-response","207","357214","0.0-1.0-291.0","0","0","91244","","null","","","null","32","NaN","","","","","","","","","","","","","","",""
"","S2","","html-keyboard-response","208","357466","0.0-1.0-292.0","0","0","91244","","null","","","null","32","","NaN","","","","","","","","","","","","","",""
"","response","","html-keyboard-response","209","358629","0.0-1.0-293.0-0.0","0","0","91244","","1160","","","75","32","","","1","32","training","adjacent","DC","4","3","L.jpg","P.jpg","0","0","1","",""
"","feedback","","html-keyboard-response","210","359649","0.0-1.0-294.0-0.0","0","0","91244","","null","","","null","32","","","","","","","","","","","","","","","",""
"","ITI","","html-keyboard-response","211","360652","0.0-1.0-297.0","0","0","91244","","null","","","null","32","","","","","","","","","","","","","","","NaN",""
"","S1","","html-keyboard-response","212","360913","0.0-1.0-299.0","0","0","91244","","null","","","null","33","","","","","","","","","","","","","","","",""
"","ISI","","html-keyboard-response","213","361417","0.0-1.0-300.0","0","0","91244","","null","","","null","33","NaN","","","","","","","","","","","","","","",""
"","S2","","html-keyboard-response","214","361669","0.0-1.0-301.0","0","0","91244","","null","","","null","33","","NaN","","","","","","","","","","","","","",""
"","response","","html-keyboard-response","215","362486","0.0-1.0-302.0-0.0","0","0","91244","","816","","","68","33","","","1","33","training","adjacent","EF","5","6","O.jpg","M.jpg","1","1","1","",""
"","feedback","","html-keyboard-response","216","363488","0.0-1.0-303.0-0.0","0","0","91244","","null","","","null","33","","","","","","","","","","","","","","","",""
"","ITI","","html-keyboard-response","217","364491","0.0-1.0-306.0","0","0","91244","","null","","","null","33","","","","","","","","","","","","","","","NaN",""
"","S1","","html-keyboard-response","218","364743","0.0-1.0-308.0","0","0","91244","","null","","","null","34","","","","","","","","","","","","","","","",""
"","ISI","","html-keyboard-response","219","365256","0.0-1.0-309.0","0","0","91244","","null","","","null","34","NaN","","","","","","","","","","","","","","",""
"","S2","","html-keyboard-response","220","365499","0.0-1.0-310.0","0","0","91244","","240","","","75","34","","k","1","34","training","adjacent","GF","7","6","N.jpg","M.jpg","0","0","1","",""
"","feedback","","html-keyboard-response","221","366503","0.0-1.0-312.0-0.0","0","0","91244","","null","","","null","34","","","","","","","","","","","","","","","",""
"","ITI","","html-keyboard-response","222","367505","0.0-1.0-315.0","0","0","91244","","null","","","null","34","","","","","","","","","","","","","","","NaN",""
"","S1","","html-keyboard-response","223","367757","0.0-1.0-317.0","0","0","91244","","null","","","null","35","","","","","","","","","","","","","","","",""
"","ISI","","html-keyboard-response","224","368264","0.0-1.0-318.0","0","0","91244","","425","","","68","35","d","","","","","","","","","","","","","","",""
"","S2","","html-keyboard-response","225","368518","0.0-1.0-319.0","0","0","91244","","null","","","null","35","","NaN","","","","","","","","","","","","","",""
"","response","","html-keyboard-response","226","370269","0.0-1.0-320.0-0.0","0","0","91244","","null","","","null","35","","","1","35","training","adjacent","DE","4","5","L.jpg","O.jpg","NaN","1","0","",""
"","too_slow_prompt","","html-keyboard-response","227","371273","0.0-1.0-322.0-0.0","1","0","91244","","null","","","null","","","","","","","","","","","","","","","","",""
"","time_out","","html-keyboard-response","228","373276","0.0-1.0-323.0-0.0","0","0","91244","","null","","","null","35","","","","","","","","","","","","","","","",""
"","ITI","","html-keyboard-response","229","374279","0.0-1.0-324.0","0","0","91244","","null","","","null","35","","","","","","","","","","","","","","","NaN",""
"","S1","","html-keyboard-response","230","374531","0.0-1.0-326.0","0","0","91244","","null","","","null","36","","","","","","","","","","","","","","","",""
"","ISI","","html-keyboard-response","231","375032","0.0-1.0-327.0","0","0","91244","","null","","","null","36","NaN","","","","","","","","","","","","","","",""
"","S2","","html-keyboard-response","232","375138","0.0-1.0-328.0","0","0","91244","","104","","","68","36","","d","1","36","training","adjacent","CB","3","2","P.jpg","Q.jpg","1","0","0","",""
"","feedback","","html-keyboard-response","233","376139","0.0-1.0-330.0-0.0","0","0","91244","","null","","","null","36","","","","","","","","","","","","","","","",""
"","time_out","","html-keyboard-response","234","378142","0.0-1.0-332.0-0.0","0","0","91244","","null","","","null","36","","","","","","","","","","","","","","","",""
"","ITI","","html-keyboard-response","235","379144","0.0-1.0-333.0","0","0","91244","","null","","","null","36","","","","","","","","","","","","","","","NaN",""
"","S1","","html-keyboard-response","236","379397","0.0-1.0-335.0","0","0","91244","","null","","","null","37","","","","","","","","","","","","","","","",""
"","ISI","","html-keyboard-response","237","379899","0.0-1.0-336.0","0","0","91244","","null","","","null","37","NaN","","","","","","","","","","","","","","",""
"","S2","","html-keyboard-response","238","379920","0.0-1.0-337.0","0","0","91244","","20","","","75","37","","k","1","37","training","adjacent","EF","5","6","O.jpg","M.jpg","0","1","0","",""
"","feedback","","html-keyboard-response","239","380925","0.0-1.0-339.0-0.0","0","0","91244","","null","","","null","37","","","","","","","","","","","","","","","",""
"","time_out","","html-keyboard-response","240","382929","0.0-1.0-341.0-0.0","0","0","91244","","null","","","null","37","","","","","","","","","","","","","","","",""
"","ITI","","html-keyboard-response","241","383932","0.0-1.0-342.0","0","0","91244","","null","","","null","37","","","","","","","","","","","","","","","NaN",""
"","S1","","html-keyboard-response","242","384185","0.0-1.0-344.0","0","0","91244","","null","","","null","38","","","","","","","","","","","","","","","",""
"","ISI","","html-keyboard-response","243","384687","0.0-1.0-345.0","0","0","91244","","null","","","null","38","NaN","","","","","","","","","","","","","","",""
"","S2","","html-keyboard-response","244","384939","0.0-1.0-346.0","0","0","91244","","null","","","null","38","","NaN","","","","","","","","","","","","","",""
"","response","","html-keyboard-response","245","385480","0.0-1.0-347.0-0.0","0","0","91244","","538","","","68","38","","","1","38","training","adjacent","BA","2","1","Q.jpg","R.jpg","1","0","0","",""
"","feedback","","html-keyboard-response","246","386483","0.0-1.0-348.0-0.0","0","0","91244","","null","","","null","38","","","","","","","","","","","","","","","",""
"","time_out","","html-keyboard-response","247","388484","0.0-1.0-350.0-0.0","0","0","91244","","null","","","null","38","","","","","","","","","","","","","","","",""
"","ITI","","html-keyboard-response","248","389485","0.0-1.0-351.0","0","0","91244","","null","","","null","38","","","","","","","","","","","","","","","NaN",""
"","S1","","html-keyboard-response","249","389748","0.0-1.0-353.0","0","0","91244","","null","","","null","39","","","","","","","","","","","","","","","",""
"","ISI","","html-keyboard-response","250","390252","0.0-1.0-354.0","0","0","91244","","97","","","75","39","k","","","","","","","","","","","","","","",""
"","S2","","html-keyboard-response","251","390505","0.0-1.0-355.0","0","0","91244","","null","","","null","39","","NaN","","","","","","","","","","","","","",""
"","response","","html-keyboard-response","252","391657","0.0-1.0-356.0-0.0","0","0","91244","","1150","","","68","39","","","1","39","training","adjacent","CB","3","2","P.jpg","Q.jpg","1","0","0","",""
"","feedback","","html-keyboard-response","253","392659","0.0-1.0-357.0-0.0","0","0","91244","","null","","","null","39","","","","","","","","","","","","","","","",""
"","time_out","","html-keyboard-response","254","394661","0.0-1.0-359.0-0.0","0","0","91244","","null","","","null","39","","","","","","","","","","","","","","","",""
"","ITI","","html-keyboard-response","255","395663","0.0-1.0-360.0","0","0","91244","","null","","","null","39","","","","","","","","","","","","","","","NaN",""
"","S1","","html-keyboard-response","256","395919","0.0-1.0-362.0","0","0","91244","","null","","","null","40","","","","","","","","","","","","","","","",""
"","ISI","","html-keyboard-response","257","396421","0.0-1.0-363.0","0","0","91244","","499","","","75","40","k","","","","","","","","","","","","","","",""
"","S2","","html-keyboard-response","258","396673","0.0-1.0-364.0","0","0","91244","","null","","","null","40","","NaN","","","","","","","","","","","","","",""
"","response","","html-keyboard-response","259","397827","0.0-1.0-365.0-0.0","0","0","91244","","1152","","","75","40","","","1","40","training","adjacent","GF","7","6","N.jpg","M.jpg","0","0","1","",""
"","feedback","","html-keyboard-response","260","398830","0.0-1.0-366.0-0.0","0","0","91244","","null","","","null","40","","","","","","","","","","","","","","","",""
"","ITI","","html-keyboard-response","261","399833","0.0-1.0-369.0","0","0","91244","","null","","","null","40","","","","","","","","","","","","","","","NaN",""
"","S1","","html-keyboard-response","262","400086","0.0-1.0-371.0","0","0","91244","","null","","","null","41","","","","","","","","","","","","","","","",""
"","ISI","","html-keyboard-response","263","400589","0.0-1.0-372.0","0","0","91244","","null","","","null","41","NaN","","","","","","","","","","","","","","",""
"","S2","","html-keyboard-response","264","400946","0.0-1.0-373.0","0","0","91244","","null","","","null","41","","NaN","","","","","","","","","","","","","",""
"","response","","html-keyboard-response","265","401478","0.0-1.0-374.0-0.0","0","0","91244","","530","","","68","41","","","1","41","training","adjacent","FE","6","5","M.jpg","O.jpg","1","0","0","",""
"","feedback","","html-keyboard-response","266","402479","0.0-1.0-375.0-0.0","0","0","91244","","null","","","null","41","","","","","","","","","","","","","","","",""
"","time_out","","html-keyboard-response","267","404550","0.0-1.0-377.0-0.0","0","0","91244","","null","","","null","41","","","","","","","","","","","","","","","",""
"","ITI","","html-keyboard-response","268","405553","0.0-1.0-378.0","0","0","91244","","256","","","75","41","","","","","","","","","","","","","","","k",""
"","S1","","html-keyboard-response","269","405806","0.0-1.0-380.0","0","0","91244","","null","","","null","42","","","","","","","","","","","","","","","",""
"","ISI","","html-keyboard-response","270","406307","0.0-1.0-381.0","0","0","91244","","null","","","null","42","NaN","","","","","","","","","","","","","","",""
"","S2","","html-keyboard-response","271","406558","0.0-1.0-382.0","0","0","91244","","null","","","null","42","","NaN","","","","","","","","","","","","","",""
"","response","","html-keyboard-response","272","406619","0.0-1.0-383.0-0.0","0","0","91244","","59","","","75","42","","","1","42","training","adjacent","DE","4","5","L.jpg","O.jpg","0","1","0","",""
"","feedback","","html-keyboard-response","273","407621","0.0-1.0-384.0-0.0","0","0","91244","","null","","","null","42","","","","","","","","","","","","","","","",""
"","time_out","","html-keyboard-response","274","409624","0.0-1.0-386.0-0.0","0","0","91244","","null","","","null","42","","","","","","","","","","","","","","","",""
"","ITI","","html-keyboard-response","275","410627","0.0-1.0-387.0","0","0","91244","","null","","","null","42","","","","","","","","","","","","","","","NaN",""
"","S1","","html-keyboard-response","276","410880","0.0-1.0-389.0","0","0","91244","","null","","","null","43","","","","","","","","","","","","","","","",""
"","ISI","","html-keyboard-response","277","411381","0.0-1.0-390.0","0","0","91244","","null","","","null","43","NaN","","","","","","","","","","","","","","",""
"","S2","","html-keyboard-response","278","411636","0.0-1.0-391.0","0","0","91244","","null","","","null","43","","NaN","","","","","","","","","","","","","",""
"","response","","html-keyboard-response","279","412285","0.0-1.0-392.0-0.0","0","0","91244","","647","","","68","43","","","1","43","training","adjacent","BC","2","3","Q.jpg","P.jpg","1","1","1","",""
"","feedback","","html-keyboard-response","280","413288","0.0-1.0-393.0-0.0","0","0","91244","","null","","","null","43","","","","","","","","","","","","","","","",""
"","ITI","","html-keyboard-response","281","414304","0.0-1.0-396.0","0","0","91244","","null","","","null","43","","","","","","","","","","","","","","","NaN",""
"","S1","","html-keyboard-response","282","414556","0.0-1.0-398.0","0","0","91244","","null","","","null","44","","","","","","","","","","","","","","","",""
"","ISI","","html-keyboard-response","283","415059","0.0-1.0-399.0","0","0","91244","","null","","","null","44","NaN","","","","","","","","","","","","","","",""
"","S2","","html-keyboard-response","284","415311","0.0-1.0-400.0","0","0","91244","","246","","","75","44","","k","1","44","training","adjacent","BC","2","3","Q.jpg","P.jpg","0","1","0","",""
"","feedback","","html-keyboard-response","285","416313","0.0-1.0-402.0-0.0","0","0","91244","","null","","","null","44","","","","","","","","","","","","","","","",""
"","time_out","","html-keyboard-response","286","418316","0.0-1.0-404.0-0.0","0","0","91244","","null","","","null","44","","","","","","","","","","","","","","","",""
"","ITI","","html-keyboard-response","287","419318","0.0-1.0-405.0","0","0","91244","","null","","","null","44","","","","","","","","","","","","","","","NaN",""
"","S1","","html-keyboard-response","288","419617","0.0-1.0-407.0","0","0","91244","","null","","","null","45","","","","","","","","","","","","","","","",""
"","ISI","","html-keyboard-response","289","420120","0.0-1.0-408.0","0","0","91244","","489","","","68","45","d","","","","","","","","","","","","","","",""
"","S2","","html-keyboard-response","290","420373","0.0-1.0-409.0","0","0","91244","","null","","","null","45","","NaN","","","","","","","","","","","","","",""
"","response","","html-keyboard-response","291","421167","0.0-1.0-410.0-0.0","0","0","91244","","793","","","68","45","","","1","45","training","adjacent","CD","3","4","P.jpg","L.jpg","1","1","1","",""
"","feedback","","html-keyboard-response","292","422169","0.0-1.0-411.0-0.0","0","0","91244","","null","","","null","45","","","","","","","","","","","","","","","",""
"","ITI","","html-keyboard-response","293","423172","0.0-1.0-414.0","0","0","91244","","null","","","null","45","","","","","","","","","","","","","","","NaN",""
"","S1","","html-keyboard-response","294","423425","0.0-1.0-416.0","0","0","91244","","null","","","null","46","","","","","","","","","","","","","","","",""
"","ISI","","html-keyboard-response","295","423933","0.0-1.0-417.0","0","0","91244","","null","","","null","46","NaN","","","","","","","","","","","","","","",""
"","S2","","html-keyboard-response","296","424195","0.0-1.0-418.0","0","0","91244","","null","","","null","46","","NaN","","","","","","","","","","","","","",""
"","response","","html-keyboard-response","297","424705","0.0-1.0-419.0-0.0","0","0","91244","","509","","","75","46","","","1","46","training","adjacent","BC","2","3","Q.jpg","P.jpg","0","1","0","",""
"","feedback","","html-keyboard-response","298","425708","0.0-1.0-420.0-0.0","0","0","91244","","null","","","null","46","","","","","","","","","","","","","","","",""
"","time_out","","html-keyboard-response","299","427710","0.0-1.0-422.0-0.0","0","0","91244","","null","","","null","46","","","","","","","","","","","","","","","",""
"","ITI","","html-keyboard-response","300","428807","0.0-1.0-423.0","0","0","91244","","null","","","null","46","","","","","","","","","","","","","","","NaN",""
"","S1","","html-keyboard-response","301","429059","0.0-1.0-425.0","0","0","91244","","null","","","null","47","","","","","","","","","","","","","","","",""
"","ISI","","html-keyboard-response","302","429561","0.0-1.0-426.0","0","0","91244","","null","","","null","47","NaN","","","","","","","","","","","","","","",""
"","S2","","html-keyboard-response","303","429588","0.0-1.0-427.0","0","0","91244","","24","","","68","47","","d","1","47","training","adjacent","GF","7","6","N.jpg","M.jpg","1","0","0","",""
"","feedback","","html-keyboard-response","304","430590","0.0-1.0-429.0-0.0","0","0","91244","","null","","","null","47","","","","","","","","","","","","","","","",""
"","time_out","","html-keyboard-response","305","432660","0.0-1.0-431.0-0.0","0","0","91244","","null","","","null","47","","","","","","","","","","","","","","","",""
"","ITI","","html-keyboard-response","306","433662","0.0-1.0-432.0","0","0","91244","","null","","","null","47","","","","","","","","","","","","","","","NaN",""
"","block_over","","html-keyboard-response","307","437428","0.0-1.0-433.0-0.0","0","0","91244","","3765","","","32","47","","","","","","","","","","","","","","","",""
"","S1","","html-keyboard-response","308","437714","0.0-1.0-434.0","0","0","91244","","null","","","null","48","","","","","","","","","","","","","","","",""
"","ISI","","html-keyboard-response","309","438215","0.0-1.0-435.0","0","0","91244","","null","","","null","48","NaN","","","","","","","","","","","","","","",""
"","S2","","html-keyboard-response","310","438468","0.0-1.0-436.0","0","0","91244","","null","","","null","48","","NaN","","","","","","","","","","","","","",""
"","response","","html-keyboard-response","311","439607","0.0-1.0-437.0-0.0","0","0","91244","","1138","","","68","48","","","2","48","training","adjacent","ED","5","4","O.jpg","L.jpg","1","0","0","",""
"","feedback","","html-keyboard-response","312","440610","0.0-1.0-438.0-0.0","0","0","91244","","null","","","null","48","","","","","","","","","","","","","","","",""
"","time_out","","html-keyboard-response","313","442612","0.0-1.0-440.0-0.0","0","0","91244","","null","","","null","48","","","","","","","","","","","","","","","",""
"","ITI","","html-keyboard-response","314","443623","0.0-1.0-441.0","0","0","91244","","null","","","null","48","","","","","","","","","","","","","","","NaN",""
"","S1","","html-keyboard-response","315","443876","0.0-1.0-443.0","0","0","91244","","null","","","null","49","","","","","","","","","","","","","","","",""
"","ISI","","html-keyboard-response","316","444378","0.0-1.0-444.0","0","0","91244","","null","","","null","49","NaN","","","","","","","","","","","","","","",""
"","S2","","html-keyboard-response","317","444437","0.0-1.0-445.0","0","0","91244","","57","","","75","49","","k","2","49","training","adjacent","FE","6","5","M.jpg","O.jpg","0","0","1","",""
"","feedback","","html-keyboard-response","318","445439","0.0-1.0-447.0-0.0","0","0","91244","","null","","","null","49","","","","","","","","","","","","","","","",""
"","ITI","","html-keyboard-response","319","446443","0.0-1.0-450.0","0","0","91244","","null","","","null","49","","","","","","","","","","","","","","","NaN",""
"","S1","","html-keyboard-response","320","446696","0.0-1.0-452.0","0","0","91244","","null","","","null","50","","","","","","","","","","","","","","","",""
"","ISI","","html-keyboard-response","321","447198","0.0-1.0-453.0","0","0","91244","","null","","","null","50","NaN","","","","","","","","","","","","","","",""
"","S2","","html-keyboard-response","322","447451","0.0-1.0-454.0","0","0","91244","","null","","","null","50","","NaN","","","","","","","","","","","","","",""
"","response","","html-keyboard-response","323","448330","0.0-1.0-455.0-0.0","0","0","91244","","878","","","68","50","","","2","50","training","adjacent","AB","1","2","R.jpg","Q.jpg","1","1","1","",""
"","feedback","","html-keyboard-response","324","449333","0.0-1.0-456.0-0.0","0","0","91244","","null","","","null","50","","","","","","","","","","","","","","","",""
"","ITI","","html-keyboard-response","325","450335","0.0-1.0-459.0","0","0","91244","","null","","","null","50","","","","","","","","","","","","","","","NaN",""
"","S1","","html-keyboard-response","326","450587","0.0-1.0-461.0","0","0","91244","","null","","","null","51","","","","","","","","","","","","","","","",""
"","ISI","","html-keyboard-response","327","451090","0.0-1.0-462.0","0","0","91244","","null","","","null","51","NaN","","","","","","","","","","","","","","",""
"","S2","","html-keyboard-response","328","451346","0.0-1.0-463.0","0","0","91244","","null","","","null","51","","NaN","","","","","","","","","","","","","",""
"","response","","html-keyboard-response","329","452129","0.0-1.0-464.0-0.0","0","0","91244","","780","","","75","51","","","2","51","training","adjacent","FG","6","7","M.jpg","N.jpg","0","1","0","",""
"","feedback","","html-keyboard-response","330","453132","0.0-1.0-465.0-0.0","0","0","91244","","null","","","null","51","","","","","","","","","","","","","","","",""
"","time_out","","html-keyboard-response","331","455191","0.0-1.0-467.0-0.0","0","0","91244","","null","","","null","51","","","","","","","","","","","","","","","",""
"","ITI","","html-keyboard-response","332","456193","0.0-1.0-468.0","0","0","91244","","null","","","null","51","","","","","","","","","","","","","","","NaN",""
"","S1","","html-keyboard-response","333","456445","0.0-1.0-470.0","0","0","91244","","null","","","null","52","","","","","","","","","","","","","","","",""
"","ISI","","html-keyboard-response","334","456946","0.0-1.0-471.0","0","0","91244","","null","","","null","52","NaN","","","","","","","","","","","","","","",""
"","S2","","html-keyboard-response","335","456988","0.0-1.0-472.0","0","0","91244","","40","","","68","52","","d","2","52","training","adjacent","AB","1","2","R.jpg","Q.jpg","1","1","1","",""
"","feedback","","html-keyboard-response","336","457990","0.0-1.0-474.0-0.0","0","0","91244","","null","","","null","52","","","","","","","","","","","","","","","",""
"","ITI","","html-keyboard-response","337","458993","0.0-1.0-477.0","0","0","91244","","null","","","null","52","","","","","","","","","","","","","","","NaN",""
"","S1","","html-keyboard-response","338","459245","0.0-1.0-479.0","0","0","91244","","null","","","null","53","","","","","","","","","","","","","","","",""
"","ISI","","html-keyboard-response","339","459747","0.0-1.0-480.0","0","0","91244","","null","","","null","53","NaN","","","","","","","","","","","","","","",""
"","S2","","html-keyboard-response","340","460000","0.0-1.0-481.0","0","0","91244","","null","","","null","53","","NaN","","","","","","","","","","","","","",""
"","response","","html-keyboard-response","341","460540","0.0-1.0-482.0-0.0","0","0","91244","","538","","","75","53","","","2","53","training","adjacent","EF","5","6","O.jpg","M.jpg","0","1","0","",""
"","feedback","","html-keyboard-response","342","461542","0.0-1.0-483.0-0.0","0","0","91244","","null","","","null","53","","","","","","","","","","","","","","","",""
"","time_out","","html-keyboard-response","343","463546","0.0-1.0-485.0-0.0","0","0","91244","","null","","","null","53","","","","","","","","","","","","","","","",""
"","ITI","","html-keyboard-response","344","464549","0.0-1.0-486.0","0","0","91244","","null","","","null","53","","","","","","","","","","","","","","","NaN",""
"","S1","","html-keyboard-response","345","464802","0.0-1.0-488.0","0","0","91244","","null","","","null","54","","","","","","","","","","","","","","","",""
"","ISI","","html-keyboard-response","346","465305","0.0-1.0-489.0","0","0","91244","","null","","","null","54","NaN","","","","","","","","","","","","","","",""
"","S2","","html-keyboard-response","347","465558","0.0-1.0-490.0","0","0","91244","","null","","","null","54","","NaN","","","","","","","","","","","","","",""
"","response","","html-keyboard-response","348","466330","0.0-1.0-491.0-0.0","0","0","91244","","766","","","68","54","","","2","54","training","adjacent","FG","6","7","M.jpg","N.jpg","1","1","1","",""
"","feedback","","html-keyboard-response","349","467334","0.0-1.0-492.0-0.0","0","0","91244","","null","","","null","54","","","","","","","","","","","","","","","",""
"","ITI","","html-keyboard-response","350","468338","0.0-1.0-495.0","0","0","91244","","null","","","null","54","","","","","","","","","","","","","","","NaN",""
"","S1","","html-keyboard-response","351","468590","0.0-1.0-497.0","0","0","91244","","null","","","null","55","","","","","","","","","","","","","","","",""
"","ISI","","html-keyboard-response","352","469091","0.0-1.0-498.0","0","0","91244","","null","","","null","55","NaN","","","","","","","","","","","","","","",""
"","S2","","html-keyboard-response","353","469344","0.0-1.0-499.0","0","0","91244","","null","","","null","55","","NaN","","","","","","","","","","","","","",""
"","response","","html-keyboard-response","354","469548","0.0-1.0-500.0-0.0","0","0","91244","","202","","","75","55","","","2","55","training","adjacent","BA","2","1","Q.jpg","R.jpg","0","0","1","",""
"","feedback","","html-keyboard-response","355","470551","0.0-1.0-501.0-0.0","0","0","91244","","null","","","null","55","","","","","","","","","","","","","","","",""
"","ITI","","html-keyboard-response","356","471552","0.0-1.0-504.0","0","0","91244","","null","","","null","55","","","","","","","","","","","","","","","NaN",""
"","S1","","html-keyboard-response","357","471806","0.0-1.0-506.0","0","0","91244","","null","","","null","56","","","","","","","","","","","","","","","",""
"","ISI","","html-keyboard-response","358","472309","0.0-1.0-507.0","0","0","91244","","null","","","null","56","NaN","","","","","","","","","","","","","","",""
"","S2","","html-keyboard-response","359","472319","0.0-1.0-508.0","0","0","91244","","8","","","68","56","","d","2","56","training","adjacent","DC","4","3","L.jpg","P.jpg","1","0","0","",""
"","feedback","","html-keyboard-response","360","473322","0.0-1.0-510.0-0.0","0","0","91244","","null","","","null","56","","","","","","","","","","","","","","","",""
"","time_out","","html-keyboard-response","361","475323","0.0-1.0-512.0-0.0","0","0","91244","","null","","","null","56","","","","","","","","","","","","","","","",""
"","ITI","","html-keyboard-response","362","476327","0.0-1.0-513.0","0","0","91244","","null","","","null","56","","","","","","","","","","","","","","","NaN",""
"","S1","","html-keyboard-response","363","476580","0.0-1.0-515.0","0","0","91244","","null","","","null","57","","","","","","","","","","","","","","","",""
"","ISI","","html-keyboard-response","364","477081","0.0-1.0-516.0","0","0","91244","","null","","","null","57","NaN","","","","","","","","","","","","","","",""
"","S2","","html-keyboard-response","365","477335","0.0-1.0-517.0","0","0","91244","","null","","","null","57","","NaN","","","","","","","","","","","","","",""
"","response","","html-keyboard-response","366","477960","0.0-1.0-518.0-0.0","0","0","91244","","621","","","75","57","","","2","57","training","adjacent","DE","4","5","L.jpg","O.jpg","0","1","0","",""
"","feedback","","html-keyboard-response","367","478964","0.0-1.0-519.0-0.0","0","0","91244","","null","","","null","57","","","","","","","","","","","","","","","",""
"","time_out","","html-keyboard-response","368","480966","0.0-1.0-521.0-0.0","0","0","91244","","null","","","null","57","","","","","","","","","","","","","","","",""
"","ITI","","html-keyboard-response","369","481968","0.0-1.0-522.0","0","0","91244","","null","","","null","57","","","","","","","","","","","","","","","NaN",""
"","S1","","html-keyboard-response","370","482220","0.0-1.0-524.0","0","0","91244","","null","","","null","58","","","","","","","","","","","","","","","",""
"","ISI","","html-keyboard-response","371","482722","0.0-1.0-525.0","0","0","91244","","null","","","null","58","NaN","","","","","","","","","","","","","","",""
"","S2","","html-keyboard-response","372","482973","0.0-1.0-526.0","0","0","91244","","null","","","null","58","","NaN","","","","","","","","","","","","","",""
"","response","","html-keyboard-response","373","483670","0.0-1.0-527.0-0.0","0","0","91244","","696","","","68","58","","","2","58","training","adjacent","BC","2","3","Q.jpg","P.jpg","1","1","1","",""
"","feedback","","html-keyboard-response","374","484673","0.0-1.0-528.0-0.0","0","0","91244","","null","","","null","58","","","","","","","","","","","","","","","",""
"","ITI","","html-keyboard-response","375","485675","0.0-1.0-531.0","0","0","91244","","null","","","null","58","","","","","","","","","","","","","","","NaN",""
"","S1","","html-keyboard-response","376","485934","0.0-1.0-533.0","0","0","91244","","null","","","null","59","","","","","","","","","","","","","","","",""
"","ISI","","html-keyboard-response","377","486438","0.0-1.0-534.0","0","0","91244","","null","","","null","59","NaN","","","","","","","","","","","","","","",""
"","S2","","html-keyboard-response","378","486690","0.0-1.0-535.0","0","0","91244","","null","","","null","59","","NaN","","","","","","","","","","","","","",""
"","response","","html-keyboard-response","379","487499","0.0-1.0-536.0-0.0","0","0","91244","","805","","","75","59","","","2","59","training","adjacent","CB","3","2","P.jpg","Q.jpg","0","0","1","",""
"","feedback","","html-keyboard-response","380","488500","0.0-1.0-537.0-0.0","0","0","91244","","null","","","null","59","","","","","","","","","","","","","","","",""
"","ITI","","html-keyboard-response","381","489502","0.0-1.0-540.0","0","0","91244","","null","","","null","59","","","","","","","","","","","","","","","NaN",""
"","S1","","html-keyboard-response","382","489759","0.0-1.0-542.0","0","0","91244","","null","","","null","60","","","","","","","","","","","","","","","",""
"","ISI","","html-keyboard-response","383","490262","0.0-1.0-543.0","0","0","91244","","null","","","null","60","NaN","","","","","","","","","","","","","","",""
"","S2","","html-keyboard-response","384","490416","0.0-1.0-544.0","0","0","91244","","152","","","68","60","","d","2","60","training","adjacent","BA","2","1","Q.jpg","R.jpg","1","0","0","",""
"","feedback","","html-keyboard-response","385","491419","0.0-1.0-546.0-0.0","0","0","91244","","null","","","null","60","","","","","","","","","","","","","","","",""
"","time_out","","html-keyboard-response","386","493422","0.0-1.0-548.0-0.0","0","0","91244","","null","","","null","60","","","","","","","","","","","","","","","",""
"","ITI","","html-keyboard-response","387","494425","0.0-1.0-549.0","0","0","91244","","null","","","null","60","","","","","","","","","","","","","","","NaN",""
"","S1","","html-keyboard-response","388","494677","0.0-1.0-551.0","0","0","91244","","null","","","null","61","","","","","","","","","","","","","","","",""
"","ISI","","html-keyboard-response","389","495179","0.0-1.0-552.0","0","0","91244","","null","","","null","61","NaN","","","","","","","","","","","","","","",""
"","S2","","html-keyboard-response","390","495433","0.0-1.0-553.0","0","0","91244","","null","","","null","61","","NaN","","","","","","","","","","","","","",""
"","response","","html-keyboard-response","391","495678","0.0-1.0-554.0-0.0","0","0","91244","","244","","","75","61","","","2","61","training","adjacent","FE","6","5","M.jpg","O.jpg","0","0","1","",""
"","feedback","","html-keyboard-response","392","496681","0.0-1.0-555.0-0.0","0","0","91244","","null","","","null","61","","","","","","","","","","","","","","","",""
"","ITI","","html-keyboard-response","393","497683","0.0-1.0-558.0","0","0","91244","","null","","","null","61","","","","","","","","","","","","","","","NaN",""
"","S1","","html-keyboard-response","394","497936","0.0-1.0-560.0","0","0","91244","","null","","","null","62","","","","","","","","","","","","","","","",""
"","ISI","","html-keyboard-response","395","498437","0.0-1.0-561.0","0","0","91244","","101","","","68","62","d","","","","","","","","","","","","","","",""
"","S2","","html-keyboard-response","396","498762","0.0-1.0-562.0","0","0","91244","","null","","","null","62","","NaN","","","","","","","","","","","","","",""
"","response","","html-keyboard-response","397","499757","0.0-1.0-563.0-0.0","0","0","91244","","993","","","75","62","","","2","62","training","adjacent","DC","4","3","L.jpg","P.jpg","0","0","1","",""
"","feedback","","html-keyboard-response","398","500759","0.0-1.0-564.0-0.0","0","0","91244","","null","","","null","62","","","","","","","","","","","","","","","",""
"","ITI","","html-keyboard-response","399","501762","0.0-1.0-567.0","0","0","91244","","null","","","null","62","","","","","","","","","","","","","","","NaN",""
"","S1","","html-keyboard-response","400","502016","0.0-1.0-569.0","0","0","91244","","null","","","null","63","","","","","","","","","","","","","","","",""
"","ISI","","html-keyboard-response","401","502517","0.0-1.0-570.0","0","0","91244","","null","","","null","63","NaN","","","","","","","","","","","","","","",""
"","S2","","html-keyboard-response","402","502770","0.0-1.0-571.0","0","0","91244","","null","","","null","63","","NaN","","","","","","","","","","","","","",""
"","response","","html-keyboard-response","403","503008","0.0-1.0-572.0-0.0","0","0","91244","","235","","","68","63","","","2","63","training","adjacent","CD","3","4","P.jpg","L.jpg","1","1","1","",""
"","feedback","","html-keyboard-response","404","504011","0.0-1.0-573.0-0.0","0","0","91244","","null","","","null","63","","","","","","","","","","","","","","","",""
"","ITI","","html-keyboard-response","405","505013","0.0-1.0-576.0","0","0","91244","","null","","","null","63","","","","","","","","","","","","","","","NaN",""
"","S1","","html-keyboard-response","406","505267","0.0-1.0-578.0","0","0","91244","","null","","","null","64","","","","","","","","","","","","","","","",""
"","ISI","","html-keyboard-response","407","505769","0.0-1.0-579.0","0","0","91244","","null","","","null","64","NaN","","","","","","","","","","","","","","",""
"","S2","","html-keyboard-response","408","506023","0.0-1.0-580.0","0","0","91244","","null","","","null","64","","NaN","","","","","","","","","","","","","",""
"","response","","html-keyboard-response","409","506290","0.0-1.0-581.0-0.0","0","0","91244","","264","","","75","64","","","2","64","training","adjacent","BC","2","3","Q.jpg","P.jpg","0","1","0","",""
"","feedback","","html-keyboard-response","410","507292","0.0-1.0-582.0-0.0","0","0","91244","","null","","","null","64","","","","","","","","","","","","","","","",""
"","time_out","","html-keyboard-response","411","509294","0.0-1.0-584.0-0.0","0","0","91244","","null","","","null","64","","","","","","","","","","","","","","","",""
"","ITI","","html-keyboard-response","412","510295","0.0-1.0-585.0","0","0","91244","","null","","","null","64","","","","","","","","","","","","","","","NaN",""
"","S1","","html-keyboard-response","413","510547","0.0-1.0-587.0","0","0","91244","","null","","","null","65","","","","","","","","","","","","","","","",""
"","ISI","","html-keyboard-response","414","511051","0.0-1.0-588.0","0","0","91244","","null","","","null","65","NaN","","","","","","","","","","","","","","",""
"","S2","","html-keyboard-response","415","511305","0.0-1.0-589.0","0","0","91244","","null","","","null","65","","NaN","","","","","","","","","","","","","",""
"","response","","html-keyboard-response","416","511508","0.0-1.0-590.0-0.0","0","0","91244","","200","","","75","65","","","2","65","training","adjacent","EF","5","6","O.jpg","M.jpg","0","1","0","",""
"","feedback","","html-keyboard-response","417","512511","0.0-1.0-591.0-0.0","0","0","91244","","null","","","null","65","","","","","","","","","","","","","","","",""
"","time_out","","html-keyboard-response","418","514513","0.0-1.0-593.0-0.0","0","0","91244","","null","","","null","65","","","","","","","","","","","","","","","",""
"","ITI","","html-keyboard-response","419","515515","0.0-1.0-594.0","0","0","91244","","284","","","68","65","","","","","","","","","","","","","","","d",""
"","S1","","html-keyboard-response","420","515767","0.0-1.0-596.0","0","0","91244","","null","","","null","66","","","","","","","","","","","","","","","",""
"","ISI","","html-keyboard-response","421","516269","0.0-1.0-597.0","0","0","91244","","null","","","null","66","NaN","","","","","","","","","","","","","","",""
"","S2","","html-keyboard-response","422","516522","0.0-1.0-598.0","0","0","91244","","null","","","null","66","","NaN","","","","","","","","","","","","","",""
"","response","","html-keyboard-response","423","516880","0.0-1.0-599.0-0.0","0","0","91244","","355","","","75","66","","","2","66","training","adjacent","CB","3","2","P.jpg","Q.jpg","0","0","1","",""
"","feedback","","html-keyboard-response","424","517883","0.0-1.0-600.0-0.0","0","0","91244","","null","","","null","66","","","","","","","","","","","","","","","",""
"","ITI","","html-keyboard-response","425","518886","0.0-1.0-603.0","0","0","91244","","null","","","null","66","","","","","","","","","","","","","","","NaN",""
"","S1","","html-keyboard-response","426","519138","0.0-1.0-605.0","0","0","91244","","null","","","null","67","","","","","","","","","","","","","","","",""
"","ISI","","html-keyboard-response","427","519640","0.0-1.0-606.0","0","0","91244","","null","","","null","67","NaN","","","","","","","","","","","","","","",""
"","S2","","html-keyboard-response","428","519893","0.0-1.0-607.0","0","0","91244","","null","","","null","67","","NaN","","","","","","","","","","","","","",""
"","response","","html-keyboard-response","429","520468","0.0-1.0-608.0-0.0","0","0","91244","","574","","","68","67","","","2","67","training","adjacent","BA","2","1","Q.jpg","R.jpg","1","0","0","",""
"","feedback","","html-keyboard-response","430","521471","0.0-1.0-609.0-0.0","0","0","91244","","null","","","null","67","","","","","","","","","","","","","","","",""
"","time_out","","html-keyboard-response","431","523473","0.0-1.0-611.0-0.0","0","0","91244","","null","","","null","67","","","","","","","","","","","","","","","",""
"","ITI","","html-keyboard-response","432","524476","0.0-1.0-612.0","0","0","91244","","null","","","null","67","","","","","","","","","","","","","","","NaN",""
"","S1","","html-keyboard-response","433","524729","0.0-1.0-614.0","0","0","91244","","null","","","null","68","","","","","","","","","","","","","","","",""
"","ISI","","html-keyboard-response","434","525231","0.0-1.0-615.0","0","0","91244","","null","","","null","68","NaN","","","","","","","","","","","","","","",""
"","S2","","html-keyboard-response","435","525483","0.0-1.0-616.0","0","0","91244","","null","","","null","68","","NaN","","","","","","","","","","","","","",""
"","response","","html-keyboard-response","436","526307","0.0-1.0-617.0-0.0","0","0","91244","","823","","","68","68","","","2","68","training","adjacent","CD","3","4","P.jpg","L.jpg","1","1","1","",""
"","feedback","","html-keyboard-response","437","527310","0.0-1.0-618.0-0.0","0","0","91244","","null","","","null","68","","","","","","","","","","","","","","","",""
"","ITI","","html-keyboard-response","438","528313","0.0-1.0-621.0","0","0","91244","","null","","","null","68","","","","","","","","","","","","","","","NaN",""
"","S1","","html-keyboard-response","439","528566","0.0-1.0-623.0","0","0","91244","","null","","","null","69","","","","","","","","","","","","","","","",""
"","ISI","","html-keyboard-response","440","529069","0.0-1.0-624.0","0","0","91244","","null","","","null","69","NaN","","","","","","","","","","","","","","",""
"","S2","","html-keyboard-response","441","529322","0.0-1.0-625.0","0","0","91244","","null","","","null","69","","NaN","","","","","","","","","","","","","",""
"","response","","html-keyboard-response","442","529520","0.0-1.0-626.0-0.0","0","0","91244","","195","","","75","69","","","2","69","training","adjacent","CD","3","4","P.jpg","L.jpg","0","1","0","",""
"","feedback","","html-keyboard-response","443","530522","0.0-1.0-627.0-0.0","0","0","91244","","null","","","null","69","","","","","","","","","","","","","","","",""
"","time_out","","html-keyboard-response","444","532525","0.0-1.0-629.0-0.0","0","0","91244","","null","","","null","69","","","","","","","","","","","","","","","",""
"","ITI","","html-keyboard-response","445","533527","0.0-1.0-630.0","0","0","91244","","null","","","null","69","","","","","","","","","","","","","","","NaN",""
"","S1","","html-keyboard-response","446","533779","0.0-1.0-632.0","0","0","91244","","null","","","null","70","","","","","","","","","","","","","","","",""
"","ISI","","html-keyboard-response","447","534283","0.0-1.0-633.0","0","0","91244","","null","","","null","70","NaN","","","","","","","","","","","","","","",""
"","S2","","html-keyboard-response","448","534499","0.0-1.0-634.0","0","0","91244","","213","","","68","70","","d","2","70","training","adjacent","BA","2","1","Q.jpg","R.jpg","1","0","0","",""
"","feedback","","html-keyboard-response","449","535502","0.0-1.0-636.0-0.0","0","0","91244","","null","","","null","70","","","","","","","","","","","","","","","",""
"","time_out","","html-keyboard-response","450","537504","0.0-1.0-638.0-0.0","0","0","91244","","null","","","null","70","","","","","","","","","","","","","","","",""
"","ITI","","html-keyboard-response","451","538507","0.0-1.0-639.0","0","0","91244","","531","","","75","70","","","","","","","","","","","","","","","k",""
"","S1","","html-keyboard-response","452","538758","0.0-1.0-641.0","0","0","91244","","null","","","null","71","","","","","","","","","","","","","","","",""
"","ISI","","html-keyboard-response","453","539259","0.0-1.0-642.0","0","0","91244","","null","","","null","71","NaN","","","","","","","","","","","","","","",""
"","S2","","html-keyboard-response","454","539511","0.0-1.0-643.0","0","0","91244","","null","","","null","71","","NaN","","","","","","","","","","","","","",""
"","response","","html-keyboard-response","455","539529","0.0-1.0-644.0-0.0","0","0","91244","","15","","","75","71","","","2","71","training","adjacent","BC","2","3","Q.jpg","P.jpg","0","1","0","",""
"","feedback","","html-keyboard-response","456","540532","0.0-1.0-645.0-0.0","0","0","91244","","null","","","null","71","","","","","","","","","","","","","","","",""
"","time_out","","html-keyboard-response","457","542535","0.0-1.0-647.0-0.0","0","0","91244","","null","","","null","71","","","","","","","","","","","","","","","",""
"","ITI","","html-keyboard-response","458","543537","0.0-1.0-648.0","0","0","91244","","null","","","null","71","","","","","","","","","","","","","","","NaN",""
"","S1","","html-keyboard-response","459","543789","0.0-1.0-650.0","0","0","91244","","null","","","null","72","","","","","","","","","","","","","","","",""
"","ISI","","html-keyboard-response","460","544291","0.0-1.0-651.0","0","0","91244","","null","","","null","72","NaN","","","","","","","","","","","","","","",""
"","S2","","html-keyboard-response","461","544358","0.0-1.0-652.0","0","0","91244","","64","","","75","72","","k","2","72","training","adjacent","FG","6","7","M.jpg","N.jpg","0","1","0","",""
"","feedback","","html-keyboard-response","462","545361","0.0-1.0-654.0-0.0","0","0","91244","","null","","","null","72","","","","","","","","","","","","","","","",""
"","time_out","","html-keyboard-response","463","547364","0.0-1.0-656.0-0.0","0","0","91244","","null","","","null","72","","","","","","","","","","","","","","","",""
"","ITI","","html-keyboard-response","464","548366","0.0-1.0-657.0","0","0","91244","","794","","","75","72","","","","","","","","","","","","","","","k",""
"","S1","","html-keyboard-response","465","548619","0.0-1.0-659.0","0","0","91244","","null","","","null","73","","","","","","","","","","","","","","","",""
"","ISI","","html-keyboard-response","466","549120","0.0-1.0-660.0","0","0","91244","","null","","","null","73","NaN","","","","","","","","","","","","","","",""
"","S2","","html-keyboard-response","467","549388","0.0-1.0-661.0","0","0","91244","","null","","","null","73","","NaN","","","","","","","","","","","","","",""
"","response","","html-keyboard-response","468","549526","0.0-1.0-662.0-0.0","0","0","91244","","136","","","75","73","","","2","73","training","adjacent","EF","5","6","O.jpg","M.jpg","0","1","0","",""
"","feedback","","html-keyboard-response","469","550528","0.0-1.0-663.0-0.0","0","0","91244","","null","","","null","73","","","","","","","","","","","","","","","",""
"","time_out","","html-keyboard-response","470","552534","0.0-1.0-665.0-0.0","0","0","91244","","null","","","null","73","","","","","","","","","","","","","","","",""
"","ITI","","html-keyboard-response","471","553564","0.0-1.0-666.0","0","0","91244","","83","","","68","73","","","","","","","","","","","","","","","d",""
"","S1","","html-keyboard-response","472","553819","0.0-1.0-668.0","0","0","91244","","null","","","null","74","","","","","","","","","","","","","","","",""
"","ISI","","html-keyboard-response","473","554321","0.0-1.0-669.0","0","0","91244","","null","","","null","74","NaN","","","","","","","","","","","","","","",""
"","S2","","html-keyboard-response","474","554527","0.0-1.0-670.0","0","0","91244","","205","","","75","74","","k","2","74","training","adjacent","CB","3","2","P.jpg","Q.jpg","0","0","1","",""
"","feedback","","html-keyboard-response","475","555529","0.0-1.0-672.0-0.0","0","0","91244","","null","","","null","74","","","","","","","","","","","","","","","",""
"","ITI","","html-keyboard-response","476","556532","0.0-1.0-675.0","0","0","91244","","null","","","null","74","","","","","","","","","","","","","","","NaN",""
"","S1","","html-keyboard-response","477","556785","0.0-1.0-677.0","0","0","91244","","null","","","null","75","","","","","","","","","","","","","","","",""
"","ISI","","html-keyboard-response","478","557291","0.0-1.0-678.0","0","0","91244","","472","","","75","75","k","","","","","","","","","","","","","","",""
"","S2","","html-keyboard-response","479","557544","0.0-1.0-679.0","0","0","91244","","null","","","null","75","","NaN","","","","","","","","","","","","","",""
"","response","","html-keyboard-response","480","559297","0.0-1.0-680.0-0.0","0","0","91244","","null","","","null","75","","","2","75","training","adjacent","BC","2","3","Q.jpg","P.jpg","NaN","1","0","",""
"","too_slow_prompt","","html-keyboard-response","481","560302","0.0-1.0-682.0-0.0","1","0","91244","","null","","","null","","","","","","","","","","","","","","","","",""
"","time_out","","html-keyboard-response","482","562305","0.0-1.0-683.0-0.0","0","0","91244","","null","","","null","75","","","","","","","","","","","","","","","",""
"","ITI","","html-keyboard-response","483","563306","0.0-1.0-684.0","0","0","91244","","null","","","null","75","","","","","","","","","","","","","","","NaN",""
"","S1","","html-keyboard-response","484","563558","0.0-1.0-686.0","0","0","91244","","null","","","null","76","","","","","","","","","","","","","","","",""
"","ISI","","html-keyboard-response","485","564061","0.0-1.0-687.0","0","0","91244","","null","","","null","76","NaN","","","","","","","","","","","","","","",""
"","S2","","html-keyboard-response","486","564337","0.0-1.0-688.0","0","0","91244","","null","","","null","76","","NaN","","","","","","","","","","","","","",""
"","response","","html-keyboard-response","487","564652","0.0-1.0-689.0-0.0","0","0","91244","","313","","","68","76","","","2","76","training","adjacent","FE","6","5","M.jpg","O.jpg","1","0","0","",""
"","feedback","","html-keyboard-response","488","565659","0.0-1.0-690.0-0.0","0","0","91244","","null","","","null","76","","","","","","","","","","","","","","","",""
"","time_out","","html-keyboard-response","489","567661","0.0-1.0-692.0-0.0","0","0","91244","","null","","","null","76","","","","","","","","","","","","","","","",""
"","ITI","","html-keyboard-response","490","568662","0.0-1.0-693.0","0","0","91244","","65","","","75","76","","","","","","","","","","","","","","","k",""
"","S1","","html-keyboard-response","491","568920","0.0-1.0-695.0","0","0","91244","","null","","","null","77","","","","","","","","","","","","","","","",""
"","ISI","","html-keyboard-response","492","569423","0.0-1.0-696.0","0","0","91244","","306","","","68","77","d","","","","","","","","","","","","","","",""
"","S2","","html-keyboard-response","493","569674","0.0-1.0-697.0","0","0","91244","","null","","","null","77","","NaN","","","","","","","","","","","","","",""
"","response","","html-keyboard-response","494","570441","0.0-1.0-698.0-0.0","0","0","91244","","763","","","75","77","","","2","77","training","adjacent","DE","4","5","L.jpg","O.jpg","0","1","0","",""
"","feedback","","html-keyboard-response","495","571443","0.0-1.0-699.0-0.0","0","0","91244","","null","","","null","77","","","","","","","","","","","","","","","",""
"","time_out","","html-keyboard-response","496","573446","0.0-1.0-701.0-0.0","0","0","91244","","null","","","null","77","","","","","","","","","","","","","","","",""
"","ITI","","html-keyboard-response","497","574449","0.0-1.0-702.0","0","0","91244","","null","","","null","77","","","","","","","","","","","","","","","NaN",""
"","S1","","html-keyboard-response","498","574700","0.0-1.0-704.0","0","0","91244","","null","","","null","78","","","","","","","","","","","","","","","",""
"","ISI","","html-keyboard-response","499","575202","0.0-1.0-705.0","0","0","91244","","177","","","68","78","d","","","","","","","","","","","","","","",""
"","S2","","html-keyboard-response","500","575453","0.0-1.0-706.0","0","0","91244","","null","","","null","78","","NaN","","","","","","","","","","","","","",""
"","response","","html-keyboard-response","501","576057","0.0-1.0-707.0-0.0","0","0","91244","","602","","","75","78","","","2","78","training","adjacent","AB","1","2","R.jpg","Q.jpg","0","1","0","",""
"","feedback","","html-keyboard-response","502","577059","0.0-1.0-708.0-0.0","0","0","91244","","null","","","null","78","","","","","","","","","","","","","","","",""
"","time_out","","html-keyboard-response","503","579060","0.0-1.0-710.0-0.0","0","0","91244","","null","","","null","78","","","","","","","","","","","","","","","",""
"","ITI","","html-keyboard-response","504","580062","0.0-1.0-711.0","0","0","91244","","null","","","null","78","","","","","","","","","","","","","","","NaN",""
"","S1","","html-keyboard-response","505","580320","0.0-1.0-713.0","0","0","91244","","null","","","null","79","","","","","","","","","","","","","","","",""
"","ISI","","html-keyboard-response","506","580823","0.0-1.0-714.0","0","0","91244","","427","","","75","79","k","","","","","","","","","","","","","","",""
"","S2","","html-keyboard-response","507","581075","0.0-1.0-715.0","0","0","91244","","null","","","null","79","","NaN","","","","","","","","","","","","","",""
"","response","","html-keyboard-response","508","581987","0.0-1.0-716.0-0.0","0","0","91244","","910","","","68","79","","","2","79","training","adjacent","ED","5","4","O.jpg","L.jpg","1","0","0","",""
"","feedback","","html-keyboard-response","509","582991","0.0-1.0-717.0-0.0","0","0","91244","","null","","","null","79","","","","","","","","","","","","","","","",""
"","time_out","","html-keyboard-response","510","584994","0.0-1.0-719.0-0.0","0","0","91244","","null","","","null","79","","","","","","","","","","","","","","","",""
"","ITI","","html-keyboard-response","511","585996","0.0-1.0-720.0","0","0","91244","","null","","","null","79","","","","","","","","","","","","","","","NaN",""
"","S1","","html-keyboard-response","512","586247","0.0-1.0-722.0","0","0","91244","","null","","","null","80","","","","","","","","","","","","","","","",""
"","ISI","","html-keyboard-response","513","586749","0.0-1.0-723.0","0","0","91244","","61","","","75","80","k","","","","","","","","","","","","","","",""
"","S2","","html-keyboard-response","514","587001","0.0-1.0-724.0","0","0","91244","","null","","","null","80","","NaN","","","","","","","","","","","","","",""
"","response","","html-keyboard-response","515","587688","0.0-1.0-725.0-0.0","0","0","91244","","685","","","68","80","","","2","80","training","adjacent","EF","5","6","O.jpg","M.jpg","1","1","1","",""
"","feedback","","html-keyboard-response","516","588691","0.0-1.0-726.0-0.0","0","0","91244","","null","","","null","80","","","","","","","","","","","","","","","",""
"","ITI","","html-keyboard-response","517","589694","0.0-1.0-729.0","0","0","91244","","null","","","null","80","","","","","","","","","","","","","","","NaN",""
"","S1","","html-keyboard-response","518","589946","0.0-1.0-731.0","0","0","91244","","null","","","null","81","","","","","","","","","","","","","","","",""
"","ISI","","html-keyboard-response","519","590448","0.0-1.0-732.0","0","0","91244","","null","","","null","81","NaN","","","","","","","","","","","","","","",""
"","S2","","html-keyboard-response","520","590629","0.0-1.0-733.0","0","0","91244","","175","","","75","81","","k","2","81","training","adjacent","GF","7","6","N.jpg","M.jpg","0","0","1","",""
"","feedback","","html-keyboard-response","521","591632","0.0-1.0-735.0-0.0","0","0","91244","","null","","","null","81","","","","","","","","","","","","","","","",""
"","ITI","","html-keyboard-response","522","592635","0.0-1.0-738.0","0","0","91244","","null","","","null","81","","","","","","","","","","","","","","","NaN",""
"","S1","","html-keyboard-response","523","592888","0.0-1.0-740.0","0","0","91244","","null","","","null","82","","","","","","","","","","","","","","","",""
"","ISI","","html-keyboard-response","524","593390","0.0-1.0-741.0","0","0","91244","","null","","","null","82","NaN","","","","","","","","","","","","","","",""
"","S2","","html-keyboard-response","525","593642","0.0-1.0-742.0","0","0","91244","","null","","","null","82","","NaN","","","","","","","","","","","","","",""
"","response","","html-keyboard-response","526","594177","0.0-1.0-743.0-0.0","0","0","91244","","533","","","68","82","","","2","82","training","adjacent","AB","1","2","R.jpg","Q.jpg","1","1","1","",""
"","feedback","","html-keyboard-response","527","595180","0.0-1.0-744.0-0.0","0","0","91244","","null","","","null","82","","","","","","","","","","","","","","","",""
"","ITI","","html-keyboard-response","528","596195","0.0-1.0-747.0","0","0","91244","","null","","","null","82","","","","","","","","","","","","","","","NaN",""
"","S1","","html-keyboard-response","529","596447","0.0-1.0-749.0","0","0","91244","","null","","","null","83","","","","","","","","","","","","","","","",""
"","ISI","","html-keyboard-response","530","596956","0.0-1.0-750.0","0","0","91244","","161","","","75","83","k","","","","","","","","","","","","","","",""
"","S2","","html-keyboard-response","531","597208","0.0-1.0-751.0","0","0","91244","","null","","","null","83","","NaN","","","","","","","","","","","","","",""
"","response","","html-keyboard-response","532","598388","0.0-1.0-752.0-0.0","0","0","91244","","1178","","","75","83","","","2","83","training","adjacent","DC","4","3","L.jpg","P.jpg","0","0","1","",""
"","feedback","","html-keyboard-response","533","599389","0.0-1.0-753.0-0.0","0","0","91244","","null","","","null","83","","","","","","","","","","","","","","","",""
"","ITI","","html-keyboard-response","534","600391","0.0-1.0-756.0","0","0","91244","","187","","","68","83","","","","","","","","","","","","","","","d",""
"","S1","","html-keyboard-response","535","600654","0.0-1.0-758.0","0","0","91244","","null","","","null","84","","","","","","","","","","","","","","","",""
"","ISI","","html-keyboard-response","536","601156","0.0-1.0-759.0","0","0","91244","","null","","","null","84","NaN","","","","","","","","","","","","","","",""
"","S2","","html-keyboard-response","537","601367","0.0-1.0-760.0","0","0","91244","","208","","","75","84","","k","2","84","training","adjacent","CB","3","2","P.jpg","Q.jpg","0","0","1","",""
"","feedback","","html-keyboard-response","538","602369","0.0-1.0-762.0-0.0","0","0","91244","","null","","","null","84","","","","","","","","","","","","","","","",""
"","ITI","","html-keyboard-response","539","603371","0.0-1.0-765.0","0","0","91244","","536","","","68","84","","","","","","","","","","","","","","","d",""
"","S1","","html-keyboard-response","540","603629","0.0-1.0-767.0","0","0","91244","","null","","","null","85","","","","","","","","","","","","","","","",""
"","ISI","","html-keyboard-response","541","604132","0.0-1.0-768.0","0","0","91244","","376","","","75","85","k","","","","","","","","","","","","","","",""
"","S2","","html-keyboard-response","542","604387","0.0-1.0-769.0","0","0","91244","","null","","","null","85","","NaN","","","","","","","","","","","","","",""
"","response","","html-keyboard-response","543","605468","0.0-1.0-770.0-0.0","0","0","91244","","1079","","","68","85","","","2","85","training","adjacent","CD","3","4","P.jpg","L.jpg","1","1","1","",""
"","feedback","","html-keyboard-response","544","606470","0.0-1.0-771.0-0.0","0","0","91244","","null","","","null","85","","","","","","","","","","","","","","","",""
"","ITI","","html-keyboard-response","545","607472","0.0-1.0-774.0","0","0","91244","","977","","","68","85","","","","","","","","","","","","","","","d",""
"","S1","","html-keyboard-response","546","607725","0.0-1.0-776.0","0","0","91244","","null","","","null","86","","","","","","","","","","","","","","","",""
"","ISI","","html-keyboard-response","547","608228","0.0-1.0-777.0","0","0","91244","","null","","","null","86","NaN","","","","","","","","","","","","","","",""
"","S2","","html-keyboard-response","548","608481","0.0-1.0-778.0","0","0","91244","","null","","","null","86","","NaN","","","","","","","","","","","","","",""
"","response","","html-keyboard-response","549","608789","0.0-1.0-779.0-0.0","0","0","91244","","304","","","68","86","","","2","86","training","adjacent","GF","7","6","N.jpg","M.jpg","1","0","0","",""
"","feedback","","html-keyboard-response","550","609792","0.0-1.0-780.0-0.0","0","0","91244","","null","","","null","86","","","","","","","","","","","","","","","",""
"","time_out","","html-keyboard-response","551","611794","0.0-1.0-782.0-0.0","0","0","91244","","null","","","null","86","","","","","","","","","","","","","","","",""
"","ITI","","html-keyboard-response","552","612799","0.0-1.0-783.0","0","0","91244","","432","","","75","86","","","","","","","","","","","","","","","k",""
"","S1","","html-keyboard-response","553","613052","0.0-1.0-785.0","0","0","91244","","null","","","null","87","","","","","","","","","","","","","","","",""
"","ISI","","html-keyboard-response","554","613555","0.0-1.0-786.0","0","0","91244","","89","","","68","87","d","","","","","","","","","","","","","","",""
"","S2","","html-keyboard-response","555","613809","0.0-1.0-787.0","0","0","91244","","null","","","null","87","","NaN","","","","","","","","","","","","","",""
"","response","","html-keyboard-response","556","614049","0.0-1.0-788.0-0.0","0","0","91244","","237","","","75","87","","","2","87","training","adjacent","GF","7","6","N.jpg","M.jpg","0","0","1","",""
"","feedback","","html-keyboard-response","557","615055","0.0-1.0-789.0-0.0","0","0","91244","","null","","","null","87","","","","","","","","","","","","","","","",""
"","ITI","","html-keyboard-response","558","616059","0.0-1.0-792.0","0","0","91244","","null","","","null","87","","","","","","","","","","","","","","","NaN",""
"","S1","","html-keyboard-response","559","616312","0.0-1.0-794.0","0","0","91244","","null","","","null","88","","","","","","","","","","","","","","","",""
"","ISI","","html-keyboard-response","560","616814","0.0-1.0-795.0","0","0","91244","","null","","","null","88","NaN","","","","","","","","","","","","","","",""
"","S2","","html-keyboard-response","561","616948","0.0-1.0-796.0","0","0","91244","","132","","","68","88","","d","2","88","training","adjacent","ED","5","4","O.jpg","L.jpg","1","0","0","",""
"","feedback","","html-keyboard-response","562","618008","0.0-1.0-798.0-0.0","0","0","91244","","null","","","null","88","","","","","","","","","","","","","","","",""
"","time_out","","html-keyboard-response","563","620010","0.0-1.0-800.0-0.0","0","0","91244","","null","","","null","88","","","","","","","","","","","","","","","",""
"","ITI","","html-keyboard-response","564","621016","0.0-1.0-801.0","0","0","91244","","695","","","75","88","","","","","","","","","","","","","","","k",""
"","S1","","html-keyboard-response","565","621268","0.0-1.0-803.0","0","0","91244","","null","","","null","89","","","","","","","","","","","","","","","",""
"","ISI","","html-keyboard-response","566","621770","0.0-1.0-804.0","0","0","91244","","358","","","68","89","d","","","","","","","","","","","","","","",""
"","S2","","html-keyboard-response","567","622023","0.0-1.0-805.0","0","0","91244","","null","","","null","89","","NaN","","","","","","","","","","","","","",""
"","response","","html-keyboard-response","568","623146","0.0-1.0-806.0-0.0","0","0","91244","","1121","","","75","89","","","2","89","training","adjacent","GF","7","6","N.jpg","M.jpg","0","0","1","",""
"","feedback","","html-keyboard-response","569","624149","0.0-1.0-807.0-0.0","0","0","91244","","null","","","null","89","","","","","","","","","","","","","","","",""
"","ITI","","html-keyboard-response","570","625153","0.0-1.0-810.0","0","0","91244","","null","","","null","89","","","","","","","","","","","","","","","NaN",""
"","S1","","html-keyboard-response","571","625406","0.0-1.0-812.0","0","0","91244","","null","","","null","90","","","","","","","","","","","","","","","",""
"","ISI","","html-keyboard-response","572","625910","0.0-1.0-813.0","0","0","91244","","350","","","75","90","k","","","","","","","","","","","","","","",""
"","S2","","html-keyboard-response","573","626162","0.0-1.0-814.0","0","0","91244","","null","","","null","90","","NaN","","","","","","","","","","","","","",""
"","response","","html-keyboard-response","574","626517","0.0-1.0-815.0-0.0","0","0","91244","","353","","","75","90","","","2","90","training","adjacent","FG","6","7","M.jpg","N.jpg","0","1","0","",""
"","feedback","","html-keyboard-response","575","627520","0.0-1.0-816.0-0.0","0","0","91244","","null","","","null","90","","","","","","","","","","","","","","","",""
"","time_out","","html-keyboard-response","576","629521","0.0-1.0-818.0-0.0","0","0","91244","","null","","","null","90","","","","","","","","","","","","","","","",""
"","ITI","","html-keyboard-response","577","630523","0.0-1.0-819.0","0","0","91244","","195","","","68","90","","","","","","","","","","","","","","","d",""
"","S1","","html-keyboard-response","578","630777","0.0-1.0-821.0","0","0","91244","","null","","","null","91","","","","","","","","","","","","","","","",""
"","ISI","","html-keyboard-response","579","631280","0.0-1.0-822.0","0","0","91244","","34","","","75","91","k","","","","","","","","","","","","","","",""
"","S2","","html-keyboard-response","580","631532","0.0-1.0-823.0","0","0","91244","","null","","","null","91","","NaN","","","","","","","","","","","","","",""
"","response","","html-keyboard-response","581","631901","0.0-1.0-824.0-0.0","0","0","91244","","366","","","68","91","","","2","91","training","adjacent","FE","6","5","M.jpg","O.jpg","1","0","0","",""
