"success","ttype","start_time","trial_type","trial_index","time_elapsed","internal_node_id","warning","missed_checkup","PID","view_history","rt","responses","repeat_instructions","key_press","index","keypress_isi","keypress_S2","block","trial_num","phase","group_type","pair_type","S1_stim","S2_stim","S1_img","S2_img","S1_chosen","S1_higher","accuracy","keypress_iti","total_bonus_tally"
"true","full_screen","d03062023hr1631","fullscreen","0","10107","0.0-0.0","0","0","42091","","","","","","","","","","","","","","","","","","","","","",""
"","instructions","","instructions","1","12618","0.0-1.0-0.0-0.0","0","0","42091","[{""page_index"":0,""viewing_time"":2020},{""page_index"":1,""viewing_time"":168},{""page_index"":2,""viewing_time"":166},{""page_index"":3,""viewing_time"":156}]","2510","","","","","","","","","","","","","","","","","","","",""
"","comprehension_check","","survey-multi-choice","2","19882","0.0-1.0-0.0-1.0","0","0","42091","","7259","{""Q0"":""True"",""Q1"":""D"",""Q2"":""Once the second image appears and while the screen 'MAKE A CHOICE' is shown"",""Q3"":""Green mark"",""Q4"":""either D or K""}","1","","","","","","","","","","","","","","","","","",""
"","missed_instruction_checkup","","html-keyboard-response","3","21260","0.0-1.0-0.0-2.0-0.0","0","1","42091","","1376","","","32","","","","","","","","","","","","","","","","",""
"","instructions","","instructions","4","23828","0.0-1.0-0.1-0.1","0","0","42091","[{""page_index"":0,""viewing_time"":1387},{""page_index"":1,""viewing_time"":178},{""page_index"":2,""viewing_time"":177},{""page_index"":3,""viewing_time"":826}]","2568","","","","","","","","","","","","","","","","","","","",""
"","comprehension_check","","survey-multi-choice","5","30555","0.0-1.0-0.1-1.1","0","0","42091","","6723","{""Q0"":""True"",""Q1"":""K"",""Q2"":""Once the second image appears and while the screen 'MAKE A CHOICE' is shown"",""Q3"":""Green mark"",""Q4"":""either D or K""}","0","","","","","","","","","","","","","","","","","",""
"","start_exp","","html-keyboard-response","6","31920","0.0-1.0-1.0","0","0","42091","","1364","","","32","","","","","","","","","","","","","","","","",""
"","S1","","html-keyboard-response","7","32179","0.0-1.0-2.0","0","0","42091","","null","","","null","0","","","","","","","","","","","","","","","",""
"","ISI","","html-keyboard-response","8","32285","0.0-1.0-3.0","0","0","42091","","null","","","null","0","NaN","","","","","","","","","","","","","","",""
"","S2","","html-keyboard-response","9","32541","0.0-1.0-4.0","0","0","42091","","null","","","null","0","","NaN","","","","","","","","","","","","","",""
"","response","","html-keyboard-response","10","33053","0.0-1.0-5.0-0.0","0","0","42091","","null","","","null","0","","","1","0","training","adjacent","ED","5","4","P.jpg","L.jpg","NaN","0","0","",""
"","too_slow_prompt","","html-keyboard-response","11","34060","0.0-1.0-7.0-0.0","1","0","42091","","null","","","null","","","","","","","","","","","","","","","","",""
"","time_out","","html-keyboard-response","12","34163","0.0-1.0-8.0-0.0","0","0","42091","","null","","","null","0","","","","","","","","","","","","","","","",""
"","ITI","","html-keyboard-response","13","34667","0.0-1.0-9.0","0","0","42091","","67","","","68","0","","","","","","","","","","","","","","","d",""
"","S1","","html-keyboard-response","14","34927","0.0-1.0-11.0","0","0","42091","","null","","","null","1","","","","","","","","","","","","","","","",""
"","ISI","","html-keyboard-response","15","35036","0.0-1.0-12.0","0","0","42091","","5","","","68","1","d","","","","","","","","","","","","","","",""
"","S2","","html-keyboard-response","16","35290","0.0-1.0-13.0","0","0","42091","","null","","","null","1","","NaN","","","","","","","","","","","","","",""
"","response","","html-keyboard-response","17","35548","0.0-1.0-14.0-0.0","0","0","42091","","257","","","68","1","","","1","1","training","adjacent","FG","6","7","O.jpg","N.jpg","0","1","0","",""
"","feedback","","html-keyboard-response","18","35653","0.0-1.0-15.0-0.0","0","0","42091","","null","","","null","1","","","","","","","","","","","","","","","",""
"","time_out","","html-keyboard-response","19","35765","0.0-1.0-17.0-0.0","0","0","42091","","null","","","null","1","","","","","","","","","","","","","","","",""
"","ITI","","html-keyboard-response","20","36270","0.0-1.0-18.0","0","0","42091","","486","","","68","1","","","","","","","","","","","","","","","d",""
"","S1","","html-keyboard-response","21","36525","0.0-1.0-20.0","0","0","42091","","null","","","null","2","","","","","","","","","","","","","","","",""
"","ISI","","html-keyboard-response","22","36630","0.0-1.0-21.0","0","0","42091","","null","","","null","2","NaN","","","","","","","","","","","","","","",""
"","S2","","html-keyboard-response","23","36728","0.0-1.0-22.0","0","0","42091","","96","","","68","2","","d","1","2","training","adjacent","FE","6","5","O.jpg","P.jpg","0","0","1","",""
"","feedback","","html-keyboard-response","24","36838","0.0-1.0-24.0-0.0","0","0","42091","","null","","","null","2","","","","","","","","","","","","","","","",""
"","ITI","","html-keyboard-response","25","37350","0.0-1.0-27.0","0","0","42091","","77","","","68","2","","","","","","","","","","","","","","","d",""
"","S1","","html-keyboard-response","26","37605","0.0-1.0-29.0","0","0","42091","","null","","","null","3","","","","","","","","","","","","","","","",""
"","ISI","","html-keyboard-response","27","37707","0.0-1.0-30.0","0","0","42091","","null","","","null","3","NaN","","","","","","","","","","","","","","",""
"","S2","","html-keyboard-response","28","37767","0.0-1.0-31.0","0","0","42091","","58","","","68","3","","d","1","3","training","adjacent","AB","1","2","R.jpg","M.jpg","0","1","0","",""
"","feedback","","html-keyboard-response","29","37871","0.0-1.0-33.0-0.0","0","0","42091","","null","","","null","3","","","","","","","","","","","","","","","",""
"","time_out","","html-keyboard-response","30","37980","0.0-1.0-35.0-0.0","0","0","42091","","null","","","null","3","","","","","","","","","","","","","","","",""
"","ITI","","html-keyboard-response","31","38484","0.0-1.0-36.0","0","0","42091","","24","","","68","3","","","","","","","","","","","","","","","d",""
"","S1","","html-keyboard-response","32","38742","0.0-1.0-38.0","0","0","42091","","null","","","null","4","","","","","","","","","","","","","","","",""
"","ISI","","html-keyboard-response","33","38854","0.0-1.0-39.0","0","0","42091","","6","","","68","4","d","","","","","","","","","","","","","","",""
"","S2","","html-keyboard-response","34","38991","0.0-1.0-40.0","0","0","42091","","135","","","68","4","","d","1","4","training","adjacent","CB","3","2","Q.jpg","M.jpg","0","0","1","",""
"","feedback","","html-keyboard-response","35","39099","0.0-1.0-42.0-0.0","0","0","42091","","null","","","null","4","","","","","","","","","","","","","","","",""
"","ITI","","html-keyboard-response","36","39606","0.0-1.0-45.0","0","0","42091","","186","","","68","4","","","","","","","","","","","","","","","d",""
"","S1","","html-keyboard-response","37","39859","0.0-1.0-47.0","0","0","42091","","null","","","null","5","","","","","","","","","","","","","","","",""
"","ISI","","html-keyboard-response","38","39962","0.0-1.0-48.0","0","0","42091","","null","","","null","5","NaN","","","","","","","","","","","","","","",""
"","S2","","html-keyboard-response","39","40175","0.0-1.0-49.0","0","0","42091","","213","","","68","5","","d","1","5","training","adjacent","CD","3","4","Q.jpg","L.jpg","0","1","0","",""
"","feedback","","html-keyboard-response","40","40285","0.0-1.0-51.0-0.0","0","0","42091","","null","","","null","5","","","","","","","","","","","","","","","",""
"","time_out","","html-keyboard-response","41","40394","0.0-1.0-53.0-0.0","0","0","42091","","null","","","null","5","","","","","","","","","","","","","","","",""
"","ITI","","html-keyboard-response","42","40901","0.0-1.0-54.0","0","0","42091","","58","","","68","5","","","","","","","","","","","","","","","d",""
"","S1","","html-keyboard-response","43","41159","0.0-1.0-56.0","0","0","42091","","null","","","null","6","","","","","","","","","","","","","","","",""
"","ISI","","html-keyboard-response","44","41267","0.0-1.0-57.0","0","0","42091","","null","","","null","6","NaN","","","","","","","","","","","","","","",""
"","S2","","html-keyboard-response","45","41326","0.0-1.0-58.0","0","0","42091","","57","","","68","6","","d","1","6","training","adjacent","BA","2","1","M.jpg","R.jpg","0","0","1","",""
"","feedback","","html-keyboard-response","46","41435","0.0-1.0-60.0-0.0","0","0","42091","","null","","","null","6","","","","","","","","","","","","","","","",""
"","ITI","","html-keyboard-response","47","41942","0.0-1.0-63.0","0","0","42091","","196","","","68","6","","","","","","","","","","","","","","","d",""
"","S1","","html-keyboard-response","48","42195","0.0-1.0-65.0","0","0","42091","","null","","","null","7","","","","","","","","","","","","","","","",""
"","ISI","","html-keyboard-response","49","42298","0.0-1.0-66.0","0","0","42091","","null","","","null","7","NaN","","","","","","","","","","","","","","",""
"","S2","","html-keyboard-response","50","42427","0.0-1.0-67.0","0","0","42091","","126","","","68","7","","d","1","7","training","adjacent","DE","4","5","L.jpg","P.jpg","0","1","0","",""
"","feedback","","html-keyboard-response","51","42530","0.0-1.0-69.0-0.0","0","0","42091","","null","","","null","7","","","","","","","","","","","","","","","",""
"","time_out","","html-keyboard-response","52","42635","0.0-1.0-71.0-0.0","0","0","42091","","null","","","null","7","","","","","","","","","","","","","","","",""
"","ITI","","html-keyboard-response","53","43139","0.0-1.0-72.0","0","0","42091","","388","","","68","7","","","","","","","","","","","","","","","d",""
"","S1","","html-keyboard-response","54","43395","0.0-1.0-74.0","0","0","42091","","null","","","null","8","","","","","","","","","","","","","","","",""
"","ISI","","html-keyboard-response","55","43502","0.0-1.0-75.0","0","0","42091","","null","","","null","8","NaN","","","","","","","","","","","","","","",""
"","S2","","html-keyboard-response","56","43519","0.0-1.0-76.0","0","0","42091","","15","","","68","8","","d","1","8","training","adjacent","GF","7","6","N.jpg","O.jpg","0","0","1","",""
"","feedback","","html-keyboard-response","57","43630","0.0-1.0-78.0-0.0","0","0","42091","","null","","","null","8","","","","","","","","","","","","","","","",""
"","ITI","","html-keyboard-response","58","44139","0.0-1.0-81.0","0","0","42091","","null","","","null","8","","","","","","","","","","","","","","","NaN",""
"","S1","","html-keyboard-response","59","44399","0.0-1.0-83.0","0","0","42091","","null","","","null","9","","","","","","","","","","","","","","","",""
"","ISI","","html-keyboard-response","60","44507","0.0-1.0-84.0","0","0","42091","","null","","","null","9","NaN","","","","","","","","","","","","","","",""
"","S2","","html-keyboard-response","61","44516","0.0-1.0-85.0","0","0","42091","","7","","","68","9","","d","1","9","training","adjacent","DC","4","3","L.jpg","Q.jpg","0","0","1","",""
"","feedback","","html-keyboard-response","62","44620","0.0-1.0-87.0-0.0","0","0","42091","","null","","","null","9","","","","","","","","","","","","","","","",""
"","ITI","","html-keyboard-response","63","45127","0.0-1.0-90.0","0","0","42091","","305","","","68","9","","","","","","","","","","","","","","","d",""
"","S1","","html-keyboard-response","64","45390","0.0-1.0-92.0","0","0","42091","","null","","","null","10","","","","","","","","","","","","","","","",""
"","ISI","","html-keyboard-response","65","45499","0.0-1.0-93.0","0","0","42091","","null","","","null","10","NaN","","","","","","","","","","","","","","",""
"","S2","","html-keyboard-response","66","45654","0.0-1.0-94.0","0","0","42091","","153","","","68","10","","d","1","10","training","adjacent","BC","2","3","M.jpg","Q.jpg","0","1","0","",""
"","feedback","","html-keyboard-response","67","45768","0.0-1.0-96.0-0.0","0","0","42091","","null","","","null","10","","","","","","","","","","","","","","","",""
"","time_out","","html-keyboard-response","68","45878","0.0-1.0-98.0-0.0","0","0","42091","","null","","","null","10","","","","","","","","","","","","","","","",""
"","ITI","","html-keyboard-response","69","46388","0.0-1.0-99.0","0","0","42091","","80","","","68","10","","","","","","","","","","","","","","","d",""
"","S1","","html-keyboard-response","70","46642","0.0-1.0-101.0","0","0","42091","","null","","","null","11","","","","","","","","","","","","","","","",""
"","ISI","","html-keyboard-response","71","46751","0.0-1.0-102.0","0","0","42091","","3","","","68","11","d","","","","","","","","","","","","","","",""
"","S2","","html-keyboard-response","72","46943","0.0-1.0-103.0","0","0","42091","","189","","","68","11","","d","1","11","training","adjacent","EF","5","6","P.jpg","O.jpg","0","1","0","",""
"","feedback","","html-keyboard-response","73","47052","0.0-1.0-105.0-0.0","0","0","42091","","null","","","null","11","","","","","","","","","","","","","","","",""
"","time_out","","html-keyboard-response","74","47155","0.0-1.0-107.0-0.0","0","0","42091","","null","","","null","11","","","","","","","","","","","","","","","",""
"","ITI","","html-keyboard-response","75","47661","0.0-1.0-108.0","0","0","42091","","130","","","68","11","","","","","","","","","","","","","","","d",""
"","block_over","","html-keyboard-response","76","51072","0.0-1.0-109.0-0.0","0","0","42091","","3409","","","32","11","","","","","","","","","","","","","","","",""
"","S1","","html-keyboard-response","77","51324","0.0-1.0-110.0","0","0","42091","","null","","","null","12","","","","","","","","","","","","","","","",""
"","ISI","","html-keyboard-response","78","51430","0.0-1.0-111.0","0","0","42091","","null","","","null","12","NaN","","","","","","","","","","","","","","",""
"","S2","","html-keyboard-response","79","51683","0.0-1.0-112.0","0","0","42091","","null","","","null","12","","NaN","","","","","","","","","","","","","",""
"","response","","html-keyboard-response","80","52191","0.0-1.0-113.0-0.0","0","0","42091","","null","","","null","12","","","2","12","training","adjacent","FE","6","5","O.jpg","P.jpg","NaN","0","0","",""
"","too_slow_prompt","","html-keyboard-response","81","53197","0.0-1.0-115.0-0.0","1","0","42091","","null","","","null","","","","","","","","","","","","","","","","",""
"","time_out","","html-keyboard-response","82","53308","0.0-1.0-116.0-0.0","0","0","42091","","null","","","null","12","","","","","","","","","","","","","","","",""
"","ITI","","html-keyboard-response","83","53812","0.0-1.0-117.0","0","0","42091","","null","","","null","12","","","","","","","","","","","","","","","NaN",""
"","S1","","html-keyboard-response","84","54070","0.0-1.0-119.0","0","0","42091","","null","","","null","13","","","","","","","","","","","","","","","",""
"","ISI","","html-keyboard-response","85","54180","0.0-1.0-120.0","0","0","42091","","null","","","null","13","NaN","","","","","","","","","","","","","","",""
"","S2","","html-keyboard-response","86","54436","0.0-1.0-121.0","0","0","42091","","null","","","null","13","","NaN","","","","","","","","","","","","","",""
"","response","","html-keyboard-response","87","54943","0.0-1.0-122.0-0.0","0","0","42091","","null","","","null","13","","","2","13","training","adjacent","AB","1","2","R.jpg","M.jpg","NaN","1","0","",""
"","too_slow_prompt","","html-keyboard-response","88","55947","0.0-1.0-124.0-0.0","1","0","42091","","null","","","null","","","","","","","","","","","","","","","","",""
"","time_out","","html-keyboard-response","89","56051","0.0-1.0-125.0-0.0","0","0","42091","","null","","","null","13","","","","","","","","","","","","","","","",""
"","ITI","","html-keyboard-response","90","56559","0.0-1.0-126.0","0","0","42091","","null","","","null","13","","","","","","","","","","","","","","","NaN",""
"","S1","","html-keyboard-response","91","56820","0.0-1.0-128.0","0","0","42091","","null","","","null","14","","","","","","","","","","","","","","","",""
"","ISI","","html-keyboard-response","92","56925","0.0-1.0-129.0","0","0","42091","","null","","","null","14","NaN","","","","","","","","","","","","","","",""
"","S2","","html-keyboard-response","93","57179","0.0-1.0-130.0","0","0","42091","","null","","","null","14","","NaN","","","","","","","","","","","","","",""
"","response","","html-keyboard-response","94","57682","0.0-1.0-131.0-0.0","0","0","42091","","null","","","null","14","","","2","14","training","adjacent","BA","2","1","M.jpg","R.jpg","NaN","0","0","",""
"","too_slow_prompt","","html-keyboard-response","95","58694","0.0-1.0-133.0-0.0","1","0","42091","","null","","","null","","","","","","","","","","","","","","","","",""
"","time_out","","html-keyboard-response","96","58805","0.0-1.0-134.0-0.0","0","0","42091","","null","","","null","14","","","","","","","","","","","","","","","",""
"","ITI","","html-keyboard-response","97","59315","0.0-1.0-135.0","0","0","42091","","null","","","null","14","","","","","","","","","","","","","","","NaN",""
"","S1","","html-keyboard-response","98","59573","0.0-1.0-137.0","0","0","42091","","null","","","null","15","","","","","","","","","","","","","","","",""
"","ISI","","html-keyboard-response","99","59679","0.0-1.0-138.0","0","0","42091","","null","","","null","15","NaN","","","","","","","","","","","","","","",""
"","S2","","html-keyboard-response","100","59943","0.0-1.0-139.0","0","0","42091","","null","","","null","15","","NaN","","","","","","","","","","","","","",""
"","response","","html-keyboard-response","101","60452","0.0-1.0-140.0-0.0","0","0","42091","","null","","","null","15","","","2","15","training","adjacent","DC","4","3","L.jpg","Q.jpg","NaN","0","0","",""
"","too_slow_prompt","","html-keyboard-response","102","61460","0.0-1.0-142.0-0.0","1","0","42091","","null","","","null","","","","","","","","","","","","","","","","",""
"","time_out","","html-keyboard-response","103","61563","0.0-1.0-143.0-0.0","0","0","42091","","null","","","null","15","","","","","","","","","","","","","","","",""
"","ITI","","html-keyboard-response","104","62071","0.0-1.0-144.0","0","0","42091","","null","","","null","15","","","","","","","","","","","","","","","NaN",""
"","S1","","html-keyboard-response","105","62335","0.0-1.0-146.0","0","0","42091","","null","","","null","16","","","","","","","","","","","","","","","",""
"","ISI","","html-keyboard-response","106","62443","0.0-1.0-147.0","0","0","42091","","null","","","null","16","NaN","","","","","","","","","","","","","","",""
"","S2","","html-keyboard-response","107","62702","0.0-1.0-148.0","0","0","42091","","null","","","null","16","","NaN","","","","","","","","","","","","","",""
"","response","","html-keyboard-response","108","63211","0.0-1.0-149.0-0.0","0","0","42091","","null","","","null","16","","","2","16","training","adjacent","ED","5","4","P.jpg","L.jpg","NaN","0","0","",""
"","too_slow_prompt","","html-keyboard-response","109","64222","0.0-1.0-151.0-0.0","1","0","42091","","null","","","null","","","","","","","","","","","","","","","","",""
"","time_out","","html-keyboard-response","110","64334","0.0-1.0-152.0-0.0","0","0","42091","","null","","","null","16","","","","","","","","","","","","","","","",""
"","ITI","","html-keyboard-response","111","64842","0.0-1.0-153.0","0","0","42091","","null","","","null","16","","","","","","","","","","","","","","","NaN",""
"","S1","","html-keyboard-response","112","65100","0.0-1.0-155.0","0","0","42091","","null","","","null","17","","","","","","","","","","","","","","","",""
"","ISI","","html-keyboard-response","113","65204","0.0-1.0-156.0","0","0","42091","","null","","","null","17","NaN","","","","","","","","","","","","","","",""
"","S2","","html-keyboard-response","114","65462","0.0-1.0-157.0","0","0","42091","","null","","","null","17","","NaN","","","","","","","","","","","","","",""
"","response","","html-keyboard-response","115","65974","0.0-1.0-158.0-0.0","0","0","42091","","null","","","null","17","","","2","17","training","adjacent","BC","2","3","M.jpg","Q.jpg","NaN","1","0","",""
"","too_slow_prompt","","html-keyboard-response","116","66980","0.0-1.0-160.0-0.0","1","0","42091","","null","","","null","","","","","","","","","","","","","","","","",""
"","time_out","","html-keyboard-response","117","67085","0.0-1.0-161.0-0.0","0","0","42091","","null","","","null","17","","","","","","","","","","","","","","","",""
"","ITI","","html-keyboard-response","118","67590","0.0-1.0-162.0","0","0","42091","","null","","","null","17","","","","","","","","","","","","","","","NaN",""
"","S1","","html-keyboard-response","119","67842","0.0-1.0-164.0","0","0","42091","","null","","","null","18","","","","","","","","","","","","","","","",""
"","ISI","","html-keyboard-response","120","67946","0.0-1.0-165.0","0","0","42091","","null","","","null","18","NaN","","","","","","","","","","","","","","",""
"","S2","","html-keyboard-response","121","68204","0.0-1.0-166.0","0","0","42091","","null","","","null","18","","NaN","","","","","","","","","","","","","",""
"","response","","html-keyboard-response","122","68709","0.0-1.0-167.0-0.0","0","0","42091","","null","","","null","18","","","2","18","training","adjacent","EF","5","6","P.jpg","O.jpg","NaN","1","0","",""
"","too_slow_prompt","","html-keyboard-response","123","69718","0.0-1.0-169.0-0.0","1","0","42091","","null","","","null","","","","","","","","","","","","","","","","",""
"","time_out","","html-keyboard-response","124","69830","0.0-1.0-170.0-0.0","0","0","42091","","null","","","null","18","","","","","","","","","","","","","","","",""
"","ITI","","html-keyboard-response","125","70344","0.0-1.0-171.0","0","0","42091","","null","","","null","18","","","","","","","","","","","","","","","NaN",""
"","S1","","html-keyboard-response","126","70605","0.0-1.0-173.0","0","0","42091","","null","","","null","19","","","","","","","","","","","","","","","",""
"","ISI","","html-keyboard-response","127","70712","0.0-1.0-174.0","0","0","42091","","null","","","null","19","NaN","","","","","","","","","","","","","","",""
"","S2","","html-keyboard-response","128","70974","0.0-1.0-175.0","0","0","42091","","null","","","null","19","","NaN","","","","","","","","","","","","","",""
"","response","","html-keyboard-response","129","71484","0.0-1.0-176.0-0.0","0","0","42091","","null","","","null","19","","","2","19","training","adjacent","CB","3","2","Q.jpg","M.jpg","NaN","0","0","",""
"","too_slow_prompt","","html-keyboard-response","130","72491","0.0-1.0-178.0-0.0","1","0","42091","","null","","","null","","","","","","","","","","","","","","","","",""
"","time_out","","html-keyboard-response","131","72600","0.0-1.0-179.0-0.0","0","0","42091","","null","","","null","19","","","","","","","","","","","","","","","",""
"","ITI","","html-keyboard-response","132","73108","0.0-1.0-180.0","0","0","42091","","null","","","null","19","","","","","","","","","","","","","","","NaN",""
"","S1","","html-keyboard-response","133","73368","0.0-1.0-182.0","0","0","42091","","null","","","null","20","","","","","","","","","","","","","","","",""
"","ISI","","html-keyboard-response","134","73475","0.0-1.0-183.0","0","0","42091","","null","","","null","20","NaN","","","","","","","","","","","","","","",""
"","S2","","html-keyboard-response","135","73730","0.0-1.0-184.0","0","0","42091","","null","","","null","20","","NaN","","","","","","","","","","","","","",""
"","response","","html-keyboard-response","136","74238","0.0-1.0-185.0-0.0","0","0","42091","","null","","","null","20","","","2","20","training","adjacent","GF","7","6","N.jpg","O.jpg","NaN","0","0","",""
"","too_slow_prompt","","html-keyboard-response","137","75246","0.0-1.0-187.0-0.0","1","0","42091","","null","","","null","","","","","","","","","","","","","","","","",""
"","time_out","","html-keyboard-response","138","75357","0.0-1.0-188.0-0.0","0","0","42091","","null","","","null","20","","","","","","","","","","","","","","","",""
"","ITI","","html-keyboard-response","139","75867","0.0-1.0-189.0","0","0","42091","","null","","","null","20","","","","","","","","","","","","","","","NaN",""
"","S1","","html-keyboard-response","140","76124","0.0-1.0-191.0","0","0","42091","","null","","","null","21","","","","","","","","","","","","","","","",""
"","ISI","","html-keyboard-response","141","76229","0.0-1.0-192.0","0","0","42091","","null","","","null","21","NaN","","","","","","","","","","","","","","",""
"","S2","","html-keyboard-response","142","76483","0.0-1.0-193.0","0","0","42091","","null","","","null","21","","NaN","","","","","","","","","","","","","",""
"","response","","html-keyboard-response","143","76987","0.0-1.0-194.0-0.0","0","0","42091","","null","","","null","21","","","2","21","training","adjacent","DE","4","5","L.jpg","P.jpg","NaN","1","0","",""
"","too_slow_prompt","","html-keyboard-response","144","77995","0.0-1.0-196.0-0.0","1","0","42091","","null","","","null","","","","","","","","","","","","","","","","",""
"","time_out","","html-keyboard-response","145","78100","0.0-1.0-197.0-0.0","0","0","42091","","null","","","null","21","","","","","","","","","","","","","","","",""
"","ITI","","html-keyboard-response","146","78604","0.0-1.0-198.0","0","0","42091","","null","","","null","21","","","","","","","","","","","","","","","NaN",""
"","S1","","html-keyboard-response","147","78864","0.0-1.0-200.0","0","0","42091","","null","","","null","22","","","","","","","","","","","","","","","",""
"","ISI","","html-keyboard-response","148","78971","0.0-1.0-201.0","0","0","42091","","null","","","null","22","NaN","","","","","","","","","","","","","","",""
"","S2","","html-keyboard-response","149","79230","0.0-1.0-202.0","0","0","42091","","null","","","null","22","","NaN","","","","","","","","","","","","","",""
"","response","","html-keyboard-response","150","79744","0.0-1.0-203.0-0.0","0","0","42091","","null","","","null","22","","","2","22","training","adjacent","CD","3","4","Q.jpg","L.jpg","NaN","1","0","",""
"","too_slow_prompt","","html-keyboard-response","151","80749","0.0-1.0-205.0-0.0","1","0","42091","","null","","","null","","","","","","","","","","","","","","","","",""
"","time_out","","html-keyboard-response","152","80855","0.0-1.0-206.0-0.0","0","0","42091","","null","","","null","22","","","","","","","","","","","","","","","",""
"","ITI","","html-keyboard-response","153","81364","0.0-1.0-207.0","0","0","42091","","47","","","68","22","","","","","","","","","","","","","","","d",""
"","S1","","html-keyboard-response","154","81623","0.0-1.0-209.0","0","0","42091","","null","","","null","23","","","","","","","","","","","","","","","",""
"","ISI","","html-keyboard-response","155","81733","0.0-1.0-210.0","0","0","42091","","null","","","null","23","NaN","","","","","","","","","","","","","","",""
"","S2","","html-keyboard-response","156","81800","0.0-1.0-211.0","0","0","42091","","66","","","68","23","","d","2","23","training","adjacent","FG","6","7","O.jpg","N.jpg","0","1","0","",""
"","feedback","","html-keyboard-response","157","81908","0.0-1.0-213.0-0.0","0","0","42091","","null","","","null","23","","","","","","","","","","","","","","","",""
"","time_out","","html-keyboard-response","158","82016","0.0-1.0-215.0-0.0","0","0","42091","","null","","","null","23","","","","","","","","","","","","","","","",""
"","ITI","","html-keyboard-response","159","82528","0.0-1.0-216.0","0","0","42091","","46","","","68","23","","","","","","","","","","","","","","","d",""
"","block_over","","html-keyboard-response","160","85360","0.0-1.0-217.0-0.0","0","0","42091","","2830","","","32","23","","","","","","","","","","","","","","","",""
"","S1","","html-keyboard-response","161","85622","0.0-1.0-218.0","0","0","42091","","null","","","null","24","","","","","","","","","","","","","","","",""
"","ISI","","html-keyboard-response","162","85736","0.0-1.0-219.0","0","0","42091","","null","","","null","24","NaN","","","","","","","","","","","","","","",""
"","S2","","html-keyboard-response","163","85997","0.0-1.0-220.0","0","0","42091","","null","","","null","24","","NaN","","","","","","","","","","","","","",""
"","response","","html-keyboard-response","164","86508","0.0-1.0-221.0-0.0","0","0","42091","","null","","","null","24","","","3","24","training","adjacent","BA","2","1","M.jpg","R.jpg","NaN","0","0","",""
"","too_slow_prompt","","html-keyboard-response","165","87516","0.0-1.0-223.0-0.0","1","0","42091","","null","","","null","","","","","","","","","","","","","","","","",""
"","time_out","","html-keyboard-response","166","87620","0.0-1.0-224.0-0.0","0","0","42091","","null","","","null","24","","","","","","","","","","","","","","","",""
"","ITI","","html-keyboard-response","167","88124","0.0-1.0-225.0","0","0","42091","","null","","","null","24","","","","","","","","","","","","","","","NaN",""
"","S1","","html-keyboard-response","168","88380","0.0-1.0-227.0","0","0","42091","","null","","","null","25","","","","","","","","","","","","","","","",""
"","ISI","","html-keyboard-response","169","88487","0.0-1.0-228.0","0","0","42091","","null","","","null","25","NaN","","","","","","","","","","","","","","",""
"","S2","","html-keyboard-response","170","88750","0.0-1.0-229.0","0","0","42091","","null","","","null","25","","NaN","","","","","","","","","","","","","",""
"","response","","html-keyboard-response","171","89263","0.0-1.0-230.0-0.0","0","0","42091","","null","","","null","25","","","3","25","training","adjacent","ED","5","4","P.jpg","L.jpg","NaN","0","0","",""
"","too_slow_prompt","","html-keyboard-response","172","90267","0.0-1.0-232.0-0.0","1","0","42091","","null","","","null","","","","","","","","","","","","","","","","",""
"","time_out","","html-keyboard-response","173","90371","0.0-1.0-233.0-0.0","0","0","42091","","null","","","null","25","","","","","","","","","","","","","","","",""
"","ITI","","html-keyboard-response","174","90876","0.0-1.0-234.0","0","0","42091","","null","","","null","25","","","","","","","","","","","","","","","NaN",""
"","S1","","html-keyboard-response","175","91131","0.0-1.0-236.0","0","0","42091","","null","","","null","26","","","","","","","","","","","","","","","",""
"","ISI","","html-keyboard-response","176","91234","0.0-1.0-237.0","0","0","42091","","null","","","null","26","NaN","","","","","","","","","","","","","","",""
"","S2","","html-keyboard-response","177","91494","0.0-1.0-238.0","0","0","42091","","null","","","null","26","","NaN","","","","","","","","","","","","","",""
"","response","","html-keyboard-response","178","92007","0.0-1.0-239.0-0.0","0","0","42091","","null","","","null","26","","","3","26","training","adjacent","EF","5","6","P.jpg","O.jpg","NaN","1","0","",""
"","too_slow_prompt","","html-keyboard-response","179","93014","0.0-1.0-241.0-0.0","1","0","42091","","null","","","null","","","","","","","","","","","","","","","","",""
"","time_out","","html-keyboard-response","180","93128","0.0-1.0-242.0-0.0","0","0","42091","","null","","","null","26","","","","","","","","","","","","","","","",""
"","ITI","","html-keyboard-response","181","93635","0.0-1.0-243.0","0","0","42091","","null","","","null","26","","","","","","","","","","","","","","","NaN",""
"","S1","","html-keyboard-response","182","93896","0.0-1.0-245.0","0","0","42091","","null","","","null","27","","","","","","","","","","","","","","","",""
"","ISI","","html-keyboard-response","183","94005","0.0-1.0-246.0","0","0","42091","","null","","","null","27","NaN","","","","","","","","","","","","","","",""
"","S2","","html-keyboard-response","184","94260","0.0-1.0-247.0","0","0","42091","","null","","","null","27","","NaN","","","","","","","","","","","","","",""
"","response","","html-keyboard-response","185","94763","0.0-1.0-248.0-0.0","0","0","42091","","null","","","null","27","","","3","27","training","adjacent","GF","7","6","N.jpg","O.jpg","NaN","0","0","",""
"","too_slow_prompt","","html-keyboard-response","186","95772","0.0-1.0-250.0-0.0","1","0","42091","","null","","","null","","","","","","","","","","","","","","","","",""
"","time_out","","html-keyboard-response","187","95878","0.0-1.0-251.0-0.0","0","0","42091","","null","","","null","27","","","","","","","","","","","","","","","",""
"","ITI","","html-keyboard-response","188","96388","0.0-1.0-252.0","0","0","42091","","null","","","null","27","","","","","","","","","","","","","","","NaN",""
"","S1","","html-keyboard-response","189","96646","0.0-1.0-254.0","0","0","42091","","null","","","null","28","","","","","","","","","","","","","","","",""
"","ISI","","html-keyboard-response","190","96758","0.0-1.0-255.0","0","0","42091","","null","","","null","28","NaN","","","","","","","","","","","","","","",""
"","S2","","html-keyboard-response","191","97011","0.0-1.0-256.0","0","0","42091","","null","","","null","28","","NaN","","","","","","","","","","","","","",""
"","response","","html-keyboard-response","192","97520","0.0-1.0-257.0-0.0","0","0","42091","","null","","","null","28","","","3","28","training","adjacent","CD","3","4","Q.jpg","L.jpg","NaN","1","0","",""
"","too_slow_prompt","","html-keyboard-response","193","98525","0.0-1.0-259.0-0.0","1","0","42091","","null","","","null","","","","","","","","","","","","","","","","",""
"","time_out","","html-keyboard-response","194","98631","0.0-1.0-260.0-0.0","0","0","42091","","null","","","null","28","","","","","","","","","","","","","","","",""
"","ITI","","html-keyboard-response","195","99140","0.0-1.0-261.0","0","0","42091","","38","","","68","28","","","","","","","","","","","","","","","d",""
"","S1","","html-keyboard-response","196","99396","0.0-1.0-263.0","0","0","42091","","null","","","null","29","","","","","","","","","","","","","","","",""
"","ISI","","html-keyboard-response","197","99500","0.0-1.0-264.0","0","0","42091","","null","","","null","29","NaN","","","","","","","","","","","","","","",""
"","S2","","html-keyboard-response","198","99664","0.0-1.0-265.0","0","0","42091","","162","","","68","29","","d","3","29","training","adjacent","AB","1","2","R.jpg","M.jpg","0","1","0","",""
"","feedback","","html-keyboard-response","199","99776","0.0-1.0-267.0-0.0","0","0","42091","","null","","","null","29","","","","","","","","","","","","","","","",""
"","time_out","","html-keyboard-response","200","99886","0.0-1.0-269.0-0.0","0","0","42091","","null","","","null","29","","","","","","","","","","","","","","","",""
"","ITI","","html-keyboard-response","201","100400","0.0-1.0-270.0","0","0","42091","","89","","","68","29","","","","","","","","","","","","","","","d",""
"","S1","","html-keyboard-response","202","100660","0.0-1.0-272.0","0","0","42091","","null","","","null","30","","","","","","","","","","","","","","","",""
"","ISI","","html-keyboard-response","203","100768","0.0-1.0-273.0","0","0","42091","","null","","","null","30","NaN","","","","","","","","","","","","","","",""
"","S2","","html-keyboard-response","204","101031","0.0-1.0-274.0","0","0","42091","","null","","","null","30","","NaN","","","","","","","","","","","","","",""
"","response","","html-keyboard-response","205","101544","0.0-1.0-275.0-0.0","0","0","42091","","null","","","null","30","","","3","30","training","adjacent","CB","3","2","Q.jpg","M.jpg","NaN","0","0","",""
"","too_slow_prompt","","html-keyboard-response","206","102549","0.0-1.0-277.0-0.0","1","0","42091","","null","","","null","","","","","","","","","","","","","","","","",""
"","time_out","","html-keyboard-response","207","102652","0.0-1.0-278.0-0.0","0","0","42091","","null","","","null","30","","","","","","","","","","","","","","","",""
"","ITI","","html-keyboard-response","208","103155","0.0-1.0-279.0","0","0","42091","","null","","","null","30","","","","","","","","","","","","","","","NaN",""
"","S1","","html-keyboard-response","209","103414","0.0-1.0-281.0","0","0","42091","","null","","","null","31","","","","","","","","","","","","","","","",""
"","ISI","","html-keyboard-response","210","103525","0.0-1.0-282.0","0","0","42091","","73","","","68","31","d","","","","","","","","","","","","","","",""
"","S2","","html-keyboard-response","211","103743","0.0-1.0-283.0","0","0","42091","","216","","","68","31","","d","3","31","training","adjacent","FG","6","7","O.jpg","N.jpg","0","1","0","",""
"","feedback","","html-keyboard-response","212","103855","0.0-1.0-285.0-0.0","0","0","42091","","null","","","null","31","","","","","","","","","","","","","","","",""
"","time_out","","html-keyboard-response","213","103958","0.0-1.0-287.0-0.0","0","0","42091","","null","","","null","31","","","","","","","","","","","","","","","",""
"","ITI","","html-keyboard-response","214","104471","0.0-1.0-288.0","0","0","42091","","232","","","68","31","","","","","","","","","","","","","","","d",""
"","S1","","html-keyboard-response","215","104733","0.0-1.0-290.0","0","0","42091","","null","","","null","32","","","","","","","","","","","","","","","",""
"","ISI","","html-keyboard-response","216","104836","0.0-1.0-291.0","0","0","42091","","null","","","null","32","NaN","","","","","","","","","","","","","","",""
"","S2","","html-keyboard-response","217","105096","0.0-1.0-292.0","0","0","42091","","null","","","null","32","","NaN","","","","","","","","","","","","","",""
"","response","","html-keyboard-response","218","105416","0.0-1.0-293.0-0.0","0","0","42091","","318","","","68","32","","","3","32","training","adjacent","FE","6","5","O.jpg","P.jpg","0","0","1","",""
"","feedback","","html-keyboard-response","219","105523","0.0-1.0-294.0-0.0","0","0","42091","","null","","","null","32","","","","","","","","","","","","","","","",""
"","ITI","","html-keyboard-response","220","106031","0.0-1.0-297.0","0","0","42091","","null","","","null","32","","","","","","","","","","","","","","","NaN",""
"","S1","","html-keyboard-response","221","106288","0.0-1.0-299.0","0","0","42091","","null","","","null","33","","","","","","","","","","","","","","","",""
"","ISI","","html-keyboard-response","222","106395","0.0-1.0-300.0","0","0","42091","","87","","","68","33","d","","","","","","","","","","","","","","",""
"","S2","","html-keyboard-response","223","106645","0.0-1.0-301.0","0","0","42091","","250","","","68","33","","d","3","33","training","adjacent","DE","4","5","L.jpg","P.jpg","0","1","0","",""
"","feedback","","html-keyboard-response","224","106748","0.0-1.0-303.0-0.0","0","0","42091","","null","","","null","33","","","","","","","","","","","","","","","",""
"","time_out","","html-keyboard-response","225","106855","0.0-1.0-305.0-0.0","0","0","42091","","null","","","null","33","","","","","","","","","","","","","","","",""
"","ITI","","html-keyboard-response","226","107363","0.0-1.0-306.0","0","0","42091","","null","","","null","33","","","","","","","","","","","","","","","NaN",""
"","S1","","html-keyboard-response","227","107623","0.0-1.0-308.0","0","0","42091","","null","","","null","34","","","","","","","","","","","","","","","",""
"","ISI","","html-keyboard-response","228","107733","0.0-1.0-309.0","0","0","42091","","null","","","null","34","NaN","","","","","","","","","","","","","","",""
"","S2","","html-keyboard-response","229","107990","0.0-1.0-310.0","0","0","42091","","null","","","null","34","","NaN","","","","","","","","","","","","","",""
"","response","","html-keyboard-response","230","108063","0.0-1.0-311.0-0.0","0","0","42091","","71","","","68","34","","","3","34","training","adjacent","BC","2","3","M.jpg","Q.jpg","0","1","0","",""
"","feedback","","html-keyboard-response","231","108175","0.0-1.0-312.0-0.0","0","0","42091","","null","","","null","34","","","","","","","","","","","","","","","",""
"","time_out","","html-keyboard-response","232","108286","0.0-1.0-314.0-0.0","0","0","42091","","null","","","null","34","","","","","","","","","","","","","","","",""
"","ITI","","html-keyboard-response","233","108795","0.0-1.0-315.0","0","0","42091","","165","","","68","34","","","","","","","","","","","","","","","d",""
"","S1","","html-keyboard-response","234","109056","0.0-1.0-317.0","0","0","42091","","null","","","null","35","","","","","","","","","","","","","","","",""
"","ISI","","html-keyboard-response","235","109168","0.0-1.0-318.0","0","0","42091","","null","","","null","35","NaN","","","","","","","","","","","","","","",""
"","S2","","html-keyboard-response","236","109287","0.0-1.0-319.0","0","0","42091","","117","","","68","35","","d","3","35","training","adjacent","DC","4","3","L.jpg","Q.jpg","0","0","1","",""
"","feedback","","html-keyboard-response","237","109398","0.0-1.0-321.0-0.0","0","0","42091","","null","","","null","35","","","","","","","","","","","","","","","",""
"","ITI","","html-keyboard-response","238","109907","0.0-1.0-324.0","0","0","42091","","199","","","68","35","","","","","","","","","","","","","","","d",""
"","block_over","","html-keyboard-response","239","111488","0.0-1.0-325.0-0.0","0","0","42091","","1579","","","32","35","","","","","","","","","","","","","","","",""
"","S1","","html-keyboard-response","240","111751","0.0-1.0-326.0","0","0","42091","","null","","","null","36","","","","","","","","","","","","","","","",""
"","ISI","","html-keyboard-response","241","111861","0.0-1.0-327.0","0","0","42091","","null","","","null","36","NaN","","","","","","","","","","","","","","",""
"","S2","","html-keyboard-response","242","112117","0.0-1.0-328.0","0","0","42091","","null","","","null","36","","NaN","","","","","","","","","","","","","",""
"","response","","html-keyboard-response","243","112384","0.0-1.0-329.0-0.0","0","0","42091","","265","","","68","36","","","4","36","test","non_adjacent","FC","6","3","O.jpg","Q.jpg","0","0","1","",""
"","feedback","","html-keyboard-response","244","112487","0.0-1.0-330.0-0.0","0","0","42091","","null","","","null","36","","","","","","","","","","","","","","","",""
"","ITI","","html-keyboard-response","245","112999","0.0-1.0-333.0","0","0","42091","","135","","","68","36","","","","","","","","","","","","","","","d",""
"","S1","","html-keyboard-response","246","113260","0.0-1.0-335.0","0","0","42091","","null","","","null","37","","","","","","","","","","","","","","","",""
"","ISI","","html-keyboard-response","247","113366","0.0-1.0-336.0","0","0","42091","","null","","","null","37","NaN","","","","","","","","","","","","","","",""
"","S2","","html-keyboard-response","248","113536","0.0-1.0-337.0","0","0","42091","","169","","","68","37","","d","4","37","test","adjacent","DC","4","3","L.jpg","Q.jpg","0","0","1","",""
"","feedback","","html-keyboard-response","249","113644","0.0-1.0-339.0-0.0","0","0","42091","","null","","","null","37","","","","","","","","","","","","","","","",""
"","ITI","","html-keyboard-response","250","114147","0.0-1.0-342.0","0","0","42091","","154","","","68","37","","","","","","","","","","","","","","","d",""
"","S1","","html-keyboard-response","251","114406","0.0-1.0-344.0","0","0","42091","","null","","","null","38","","","","","","","","","","","","","","","",""
"","ISI","","html-keyboard-response","252","114515","0.0-1.0-345.0","0","0","42091","","null","","","null","38","NaN","","","","","","","","","","","","","","",""
"","S2","","html-keyboard-response","253","114775","0.0-1.0-346.0","0","0","42091","","null","","","null","38","","NaN","","","","","","","","","","","","","",""
"","response","","html-keyboard-response","254","114968","0.0-1.0-347.0-0.0","0","0","42091","","191","","","68","38","","","4","38","test","non_adjacent","DB","4","2","L.jpg","M.jpg","0","0","1","",""
"","feedback","","html-keyboard-response","255","115079","0.0-1.0-348.0-0.0","0","0","42091","","null","","","null","38","","","","","","","","","","","","","","","",""
"","ITI","","html-keyboard-response","256","115587","0.0-1.0-351.0","0","0","42091","","343","","","68","38","","","","","","","","","","","","","","","d",""
"","S1","","html-keyboard-response","257","115843","0.0-1.0-353.0","0","0","42091","","null","","","null","39","","","","","","","","","","","","","","","",""
"","ISI","","html-keyboard-response","258","115946","0.0-1.0-354.0","0","0","42091","","20","","","68","39","d","","","","","","","","","","","","","","",""
"","S2","","html-keyboard-response","259","116184","0.0-1.0-355.0","0","0","42091","","236","","","68","39","","d","4","39","test","adjacent","BA","2","1","M.jpg","R.jpg","0","0","1","",""
"","feedback","","html-keyboard-response","260","116292","0.0-1.0-357.0-0.0","0","0","42091","","null","","","null","39","","","","","","","","","","","","","","","",""
"","ITI","","html-keyboard-response","261","116800","0.0-1.0-360.0","0","0","42091","","281","","","68","39","","","","","","","","","","","","","","","d",""
"","S1","","html-keyboard-response","262","117059","0.0-1.0-362.0","0","0","42091","","null","","","null","40","","","","","","","","","","","","","","","",""
"","ISI","","html-keyboard-response","263","117165","0.0-1.0-363.0","0","0","42091","","null","","","null","40","NaN","","","","","","","","","","","","","","",""
"","S2","","html-keyboard-response","264","117231","0.0-1.0-364.0","0","0","42091","","65","","","68","40","","d","4","40","test","adjacent","CB","3","2","Q.jpg","M.jpg","0","0","1","",""
"","feedback","","html-keyboard-response","265","117343","0.0-1.0-366.0-0.0","0","0","42091","","null","","","null","40","","","","","","","","","","","","","","","",""
"","ITI","","html-keyboard-response","266","117851","0.0-1.0-369.0","0","0","42091","","176","","","68","40","","","","","","","","","","","","","","","d",""
"","S1","","html-keyboard-response","267","118112","0.0-1.0-371.0","0","0","42091","","null","","","null","41","","","","","","","","","","","","","","","",""
"","ISI","","html-keyboard-response","268","118224","0.0-1.0-372.0","0","0","42091","","null","","","null","41","NaN","","","","","","","","","","","","","","",""
"","S2","","html-keyboard-response","269","118230","0.0-1.0-373.0","0","0","42091","","5","","","68","41","","d","4","41","test","non_adjacent","FB","6","2","O.jpg","M.jpg","0","0","1","",""
"","feedback","","html-keyboard-response","270","118334","0.0-1.0-375.0-0.0","0","0","42091","","null","","","null","41","","","","","","","","","","","","","","","",""
"","ITI","","html-keyboard-response","271","118845","0.0-1.0-378.0","0","0","42091","","144","","","68","41","","","","","","","","","","","","","","","d",""
"","S1","","html-keyboard-response","272","119100","0.0-1.0-380.0","0","0","42091","","null","","","null","42","","","","","","","","","","","","","","","",""
"","ISI","","html-keyboard-response","273","119208","0.0-1.0-381.0","0","0","42091","","33","","","68","42","d","","","","","","","","","","","","","","",""
"","S2","","html-keyboard-response","274","119415","0.0-1.0-382.0","0","0","42091","","205","","","68","42","","d","4","42","test","non_adjacent","GB","7","2","N.jpg","M.jpg","0","0","1","",""
"","feedback","","html-keyboard-response","275","119524","0.0-1.0-384.0-0.0","0","0","42091","","null","","","null","42","","","","","","","","","","","","","","","",""
"","ITI","","html-keyboard-response","276","120031","0.0-1.0-387.0","0","0","42091","","147","","","68","42","","","","","","","","","","","","","","","d",""
"","S1","","html-keyboard-response","277","120294","0.0-1.0-389.0","0","0","42091","","null","","","null","43","","","","","","","","","","","","","","","",""
"","ISI","","html-keyboard-response","278","120404","0.0-1.0-390.0","0","0","42091","","null","","","null","43","NaN","","","","","","","","","","","","","","",""
"","S2","","html-keyboard-response","279","120576","0.0-1.0-391.0","0","0","42091","","170","","","68","43","","d","4","43","test","adjacent","CD","3","4","Q.jpg","L.jpg","0","1","0","",""
"","feedback","","html-keyboard-response","280","120683","0.0-1.0-393.0-0.0","0","0","42091","","null","","","null","43","","","","","","","","","","","","","","","",""
"","time_out","","html-keyboard-response","281","120787","0.0-1.0-395.0-0.0","0","0","42091","","null","","","null","43","","","","","","","","","","","","","","","",""
"","ITI","","html-keyboard-response","282","121291","0.0-1.0-396.0","0","0","42091","","115","","","68","43","","","","","","","","","","","","","","","d",""
"","S1","","html-keyboard-response","283","121549","0.0-1.0-398.0","0","0","42091","","null","","","null","44","","","","","","","","","","","","","","","",""
"","ISI","","html-keyboard-response","284","121655","0.0-1.0-399.0","0","0","42091","","74","","","68","44","d","","","","","","","","","","","","","","",""
"","S2","","html-keyboard-response","285","121916","0.0-1.0-400.0","0","0","42091","","null","","","null","44","","NaN","","","","","","","","","","","","","",""
"","response","","html-keyboard-response","286","122420","0.0-1.0-401.0-0.0","0","0","42091","","null","","","null","44","","","4","44","test","non_adjacent","EB","5","2","P.jpg","M.jpg","NaN","0","0","",""
"","too_slow_prompt","","html-keyboard-response","287","123430","0.0-1.0-403.0-0.0","1","0","42091","","null","","","null","","","","","","","","","","","","","","","","",""
"","time_out","","html-keyboard-response","288","123542","0.0-1.0-404.0-0.0","0","0","42091","","null","","","null","44","","","","","","","","","","","","","","","",""
"","ITI","","html-keyboard-response","289","124054","0.0-1.0-405.0","0","0","42091","","173","","","68","44","","","","","","","","","","","","","","","d",""
"","S1","","html-keyboard-response","290","124309","0.0-1.0-407.0","0","0","42091","","null","","","null","45","","","","","","","","","","","","","","","",""
"","ISI","","html-keyboard-response","291","124411","0.0-1.0-408.0","0","0","42091","","89","","","68","45","d","","","","","","","","","","","","","","",""
"","S2","","html-keyboard-response","292","124648","0.0-1.0-409.0","0","0","42091","","235","","","68","45","","d","4","45","test","non_adjacent","GC","7","3","N.jpg","Q.jpg","0","0","1","",""
"","feedback","","html-keyboard-response","293","124755","0.0-1.0-411.0-0.0","0","0","42091","","null","","","null","45","","","","","","","","","","","","","","","",""
"","ITI","","html-keyboard-response","294","125259","0.0-1.0-414.0","0","0","42091","","259","","","68","45","","","","","","","","","","","","","","","d",""
"","S1","","html-keyboard-response","295","125519","0.0-1.0-416.0","0","0","42091","","null","","","null","46","","","","","","","","","","","","","","","",""
"","ISI","","html-keyboard-response","296","125631","0.0-1.0-417.0","0","0","42091","","null","","","null","46","NaN","","","","","","","","","","","","","","",""
"","S2","","html-keyboard-response","297","125695","0.0-1.0-418.0","0","0","42091","","63","","","68","46","","d","4","46","test","non_adjacent","GA","7","1","N.jpg","R.jpg","0","0","1","",""
"","feedback","","html-keyboard-response","298","125803","0.0-1.0-420.0-0.0","0","0","42091","","null","","","null","46","","","","","","","","","","","","","","","",""
"","ITI","","html-keyboard-response","299","126307","0.0-1.0-423.0","0","0","42091","","123","","","68","46","","","","","","","","","","","","","","","d",""
"","S1","","html-keyboard-response","300","126563","0.0-1.0-425.0","0","0","42091","","null","","","null","47","","","","","","","","","","","","","","","",""
"","ISI","","html-keyboard-response","301","126667","0.0-1.0-426.0","0","0","42091","","10","","","68","47","d","","","","","","","","","","","","","","",""
"","S2","","html-keyboard-response","302","126856","0.0-1.0-427.0","0","0","42091","","187","","","68","47","","d","4","47","test","non_adjacent","AD","1","4","R.jpg","L.jpg","0","1","0","",""
"","feedback","","html-keyboard-response","303","126963","0.0-1.0-429.0-0.0","0","0","42091","","null","","","null","47","","","","","","","","","","","","","","","",""
"","time_out","","html-keyboard-response","304","127067","0.0-1.0-431.0-0.0","0","0","42091","","null","","","null","47","","","","","","","","","","","","","","","",""
"","ITI","","html-keyboard-response","305","127576","0.0-1.0-432.0","0","0","42091","","23","","","68","47","","","","","","","","","","","","","","","d",""
"","S1","","html-keyboard-response","306","127835","0.0-1.0-434.0","0","0","42091","","null","","","null","48","","","","","","","","","","","","","","","",""
"","ISI","","html-keyboard-response","307","127939","0.0-1.0-435.0","0","0","42091","","2","","","68","48","d","","","","","","","","","","","","","","",""
"","S2","","html-keyboard-response","308","128111","0.0-1.0-436.0","0","0","42091","","171","","","68","48","","d","4","48","test","non_adjacent","EC","5","3","P.jpg","Q.jpg","0","0","1","",""
"","feedback","","html-keyboard-response","309","128220","0.0-1.0-438.0-0.0","0","0","42091","","null","","","null","48","","","","","","","","","","","","","","","",""
"","ITI","","html-keyboard-response","310","128724","0.0-1.0-441.0","0","0","42091","","154","","","68","48","","","","","","","","","","","","","","","d",""
"","S1","","html-keyboard-response","311","128980","0.0-1.0-443.0","0","0","42091","","null","","","null","49","","","","","","","","","","","","","","","",""
"","ISI","","html-keyboard-response","312","129087","0.0-1.0-444.0","0","0","42091","","null","","","null","49","NaN","","","","","","","","","","","","","","",""
"","S2","","html-keyboard-response","313","129224","0.0-1.0-445.0","0","0","42091","","135","","","68","49","","d","4","49","test","adjacent","BC","2","3","M.jpg","Q.jpg","0","1","0","",""
"","feedback","","html-keyboard-response","314","129331","0.0-1.0-447.0-0.0","0","0","42091","","null","","","null","49","","","","","","","","","","","","","","","",""
"","time_out","","html-keyboard-response","315","129435","0.0-1.0-449.0-0.0","0","0","42091","","null","","","null","49","","","","","","","","","","","","","","","",""
"","ITI","","html-keyboard-response","316","129944","0.0-1.0-450.0","0","0","42091","","99","","","68","49","","","","","","","","","","","","","","","d",""
"","S1","","html-keyboard-response","317","130203","0.0-1.0-452.0","0","0","42091","","null","","","null","50","","","","","","","","","","","","","","","",""
"","ISI","","html-keyboard-response","318","130307","0.0-1.0-453.0","0","0","42091","","null","","","null","50","NaN","","","","","","","","","","","","","","",""
"","S2","","html-keyboard-response","319","130568","0.0-1.0-454.0","0","0","42091","","null","","","null","50","","NaN","","","","","","","","","","","","","",""
"","response","","html-keyboard-response","320","130601","0.0-1.0-455.0-0.0","0","0","42091","","31","","","68","50","","","4","50","test","non_adjacent","DA","4","1","L.jpg","R.jpg","0","0","1","",""
"","feedback","","html-keyboard-response","321","130703","0.0-1.0-456.0-0.0","0","0","42091","","null","","","null","50","","","","","","","","","","","","","","","",""
"","ITI","","html-keyboard-response","322","131211","0.0-1.0-459.0","0","0","42091","","143","","","68","50","","","","","","","","","","","","","","","d",""
"","S1","","html-keyboard-response","323","131467","0.0-1.0-461.0","0","0","42091","","null","","","null","51","","","","","","","","","","","","","","","",""
"","ISI","","html-keyboard-response","324","131574","0.0-1.0-462.0","0","0","42091","","null","","","null","51","NaN","","","","","","","","","","","","","","",""
"","S2","","html-keyboard-response","325","131727","0.0-1.0-463.0","0","0","42091","","151","","","68","51","","d","4","51","test","adjacent","AB","1","2","R.jpg","M.jpg","0","1","0","",""
"","feedback","","html-keyboard-response","326","131832","0.0-1.0-465.0-0.0","0","0","42091","","null","","","null","51","","","","","","","","","","","","","","","",""
"","time_out","","html-keyboard-response","327","131941","0.0-1.0-467.0-0.0","0","0","42091","","null","","","null","51","","","","","","","","","","","","","","","",""
"","ITI","","html-keyboard-response","328","132445","0.0-1.0-468.0","0","0","42091","","497","","","68","51","","","","","","","","","","","","","","","d",""
"","S1","","html-keyboard-response","329","132701","0.0-1.0-470.0","0","0","42091","","null","","","null","52","","","","","","","","","","","","","","","",""
"","ISI","","html-keyboard-response","330","132807","0.0-1.0-471.0","0","0","42091","","null","","","null","52","NaN","","","","","","","","","","","","","","",""
"","S2","","html-keyboard-response","331","132976","0.0-1.0-472.0","0","0","42091","","167","","","68","52","","d","4","52","test","non_adjacent","CA","3","1","Q.jpg","R.jpg","0","0","1","",""
"","feedback","","html-keyboard-response","332","133087","0.0-1.0-474.0-0.0","0","0","42091","","null","","","null","52","","","","","","","","","","","","","","","",""
"","ITI","","html-keyboard-response","333","133595","0.0-1.0-477.0","0","0","42091","","null","","","null","52","","","","","","","","","","","","","","","NaN",""
"","S1","","html-keyboard-response","334","133854","0.0-1.0-479.0","0","0","42091","","null","","","null","53","","","","","","","","","","","","","","","",""
"","ISI","","html-keyboard-response","335","133966","0.0-1.0-480.0","0","0","42091","","93","","","68","53","d","","","","","","","","","","","","","","",""
"","S2","","html-keyboard-response","336","134219","0.0-1.0-481.0","0","0","42091","","null","","","null","53","","NaN","","","","","","","","","","","","","",""
"","response","","html-keyboard-response","337","134229","0.0-1.0-482.0-0.0","0","0","42091","","9","","","68","53","","","4","53","test","non_adjacent","FA","6","1","O.jpg","R.jpg","0","0","1","",""
"","feedback","","html-keyboard-response","338","134331","0.0-1.0-483.0-0.0","0","0","42091","","null","","","null","53","","","","","","","","","","","","","","","",""
"","ITI","","html-keyboard-response","339","134836","0.0-1.0-486.0","0","0","42091","","172","","","68","53","","","","","","","","","","","","","","","d",""
"","S1","","html-keyboard-response","340","135094","0.0-1.0-488.0","0","0","42091","","null","","","null","54","","","","","","","","","","","","","","","",""
"","ISI","","html-keyboard-response","341","135207","0.0-1.0-489.0","0","0","42091","","null","","","null","54","NaN","","","","","","","","","","","","","","",""
"","S2","","html-keyboard-response","342","135285","0.0-1.0-490.0","0","0","42091","","77","","","68","54","","d","4","54","test","non_adjacent","EA","5","1","P.jpg","R.jpg","0","0","1","",""
"","feedback","","html-keyboard-response","343","135395","0.0-1.0-492.0-0.0","0","0","42091","","null","","","null","54","","","","","","","","","","","","","","","",""
"","ITI","","html-keyboard-response","344","135904","0.0-1.0-495.0","0","0","42091","","411","","","68","54","","","","","","","","","","","","","","","d",""
"","S1","","html-keyboard-response","345","136165","0.0-1.0-497.0","0","0","42091","","null","","","null","55","","","","","","","","","","","","","","","",""
"","ISI","","html-keyboard-response","346","136279","0.0-1.0-498.0","0","0","42091","","null","","","null","55","NaN","","","","","","","","","","","","","","",""
"","S2","","html-keyboard-response","347","136448","0.0-1.0-499.0","0","0","42091","","167","","","68","55","","d","4","55","test","non_adjacent","AC","1","3","R.jpg","Q.jpg","0","1","0","",""
"","feedback","","html-keyboard-response","348","136560","0.0-1.0-501.0-0.0","0","0","42091","","null","","","null","55","","","","","","","","","","","","","","","",""
"","time_out","","html-keyboard-response","349","136672","0.0-1.0-503.0-0.0","0","0","42091","","null","","","null","55","","","","","","","","","","","","","","","",""
"","ITI","","html-keyboard-response","350","137181","0.0-1.0-504.0","0","0","42091","","279","","","68","55","","","","","","","","","","","","","","","d",""
"","S1","","html-keyboard-response","351","137439","0.0-1.0-506.0","0","0","42091","","null","","","null","56","","","","","","","","","","","","","","","",""
"","ISI","","html-keyboard-response","352","137548","0.0-1.0-507.0","0","0","42091","","null","","","null","56","NaN","","","","","","","","","","","","","","",""
"","S2","","html-keyboard-response","353","137803","0.0-1.0-508.0","0","0","42091","","null","","","null","56","","NaN","","","","","","","","","","","","","",""
"","response","","html-keyboard-response","354","137807","0.0-1.0-509.0-0.0","0","0","42091","","2","","","68","56","","","4","56","test","non_adjacent","BD","2","4","M.jpg","L.jpg","0","1","0","",""
"","feedback","","html-keyboard-response","355","137910","0.0-1.0-510.0-0.0","0","0","42091","","null","","","null","56","","","","","","","","","","","","","","","",""
"","time_out","","html-keyboard-response","356","138020","0.0-1.0-512.0-0.0","0","0","42091","","null","","","null","56","","","","","","","","","","","","","","","",""
"","ITI","","html-keyboard-response","357","138528","0.0-1.0-513.0","0","0","42091","","98","","","68","56","","","","","","","","","","","","","","","d",""
"","block_over","","html-keyboard-response","358","139735","0.0-1.0-514.0-0.0","0","0","42091","","1206","","","32","56","","","","","","","","","","","","","","","",""
"","S1","","html-keyboard-response","359","140000","0.0-1.0-515.0","0","0","42091","","null","","","null","57","","","","","","","","","","","","","","","",""
"","ISI","","html-keyboard-response","360","140112","0.0-1.0-516.0","0","0","42091","","null","","","null","57","NaN","","","","","","","","","","","","","","",""
"","S2","","html-keyboard-response","361","140372","0.0-1.0-517.0","0","0","42091","","null","","","null","57","","NaN","","","","","","","","","","","","","",""
"","response","","html-keyboard-response","362","140559","0.0-1.0-518.0-0.0","0","0","42091","","186","","","75","57","","","5","57","test","adjacent","DE","4","5","L.jpg","P.jpg","1","1","1","",""
"","feedback","","html-keyboard-response","363","140662","0.0-1.0-519.0-0.0","0","0","42091","","null","","","null","57","","","","","","","","","","","","","","","",""
"","ITI","","html-keyboard-response","364","141174","0.0-1.0-522.0","0","0","42091","","144","","","75","57","","","","","","","","","","","","","","","k",""
"","S1","","html-keyboard-response","365","141428","0.0-1.0-524.0","0","0","42091","","null","","","null","58","","","","","","","","","","","","","","","",""
"","ISI","","html-keyboard-response","366","141531","0.0-1.0-525.0","0","0","42091","","33","","","75","58","k","","","","","","","","","","","","","","",""
"","S2","","html-keyboard-response","367","141756","0.0-1.0-526.0","0","0","42091","","224","","","75","58","","k","5","58","test","non_adjacent","BF","2","6","M.jpg","O.jpg","1","1","1","",""
"","feedback","","html-keyboard-response","368","141860","0.0-1.0-528.0-0.0","0","0","42091","","null","","","null","58","","","","","","","","","","","","","","","",""
"","ITI","","html-keyboard-response","369","142368","0.0-1.0-531.0","0","0","42091","","162","","","75","58","","","","","","","","","","","","","","","k",""
"","S1","","html-keyboard-response","370","142620","0.0-1.0-533.0","0","0","42091","","null","","","null","59","","","","","","","","","","","","","","","",""
"","ISI","","html-keyboard-response","371","142724","0.0-1.0-534.0","0","0","42091","","null","","","null","59","NaN","","","","","","","","","","","","","","",""
"","S2","","html-keyboard-response","372","142808","0.0-1.0-535.0","0","0","42091","","82","","","75","59","","k","5","59","test","adjacent","ED","5","4","P.jpg","L.jpg","1","0","0","",""
"","feedback","","html-keyboard-response","373","142916","0.0-1.0-537.0-0.0","0","0","42091","","null","","","null","59","","","","","","","","","","","","","","","",""
"","time_out","","html-keyboard-response","374","143023","0.0-1.0-539.0-0.0","0","0","42091","","null","","","null","59","","","","","","","","","","","","","","","",""
"","ITI","","html-keyboard-response","375","143532","0.0-1.0-540.0","0","0","42091","","46","","","75","59","","","","","","","","","","","","","","","k",""
"","S1","","html-keyboard-response","376","143789","0.0-1.0-542.0","0","0","42091","","null","","","null","60","","","","","","","","","","","","","","","",""
"","ISI","","html-keyboard-response","377","143891","0.0-1.0-543.0","0","0","42091","","null","","","null","60","NaN","","","","","","","","","","","","","","",""
"","S2","","html-keyboard-response","378","143912","0.0-1.0-544.0","0","0","42091","","17","","","75","60","","k","5","60","test","adjacent","GF","7","6","N.jpg","O.jpg","1","0","0","",""
"","feedback","","html-keyboard-response","379","144020","0.0-1.0-546.0-0.0","0","0","42091","","null","","","null","60","","","","","","","","","","","","","","","",""
"","time_out","","html-keyboard-response","380","144126","0.0-1.0-548.0-0.0","0","0","42091","","null","","","null","60","","","","","","","","","","","","","","","",""
"","ITI","","html-keyboard-response","381","144639","0.0-1.0-549.0","0","0","42091","","126","","","75","60","","","","","","","","","","","","","","","k",""
"","S1","","html-keyboard-response","382","144893","0.0-1.0-551.0","0","0","42091","","null","","","null","61","","","","","","","","","","","","","","","",""
"","ISI","","html-keyboard-response","383","144996","0.0-1.0-552.0","0","0","42091","","null","","","null","61","NaN","","","","","","","","","","","","","","",""
"","S2","","html-keyboard-response","384","145253","0.0-1.0-553.0","0","0","42091","","null","","","null","61","","NaN","","","","","","","","","","","","","",""
"","response","","html-keyboard-response","385","145311","0.0-1.0-554.0-0.0","0","0","42091","","56","","","75","61","","","5","61","test","non_adjacent","EG","5","7","P.jpg","N.jpg","1","1","1","",""
"","feedback","","html-keyboard-response","386","145419","0.0-1.0-555.0-0.0","0","0","42091","","null","","","null","61","","","","","","","","","","","","","","","",""
"","ITI","","html-keyboard-response","387","145928","0.0-1.0-558.0","0","0","42091","","257","","","75","61","","","","","","","","","","","","","","","k",""
"","S1","","html-keyboard-response","388","146190","0.0-1.0-560.0","0","0","42091","","null","","","null","62","","","","","","","","","","","","","","","",""
"","ISI","","html-keyboard-response","389","146303","0.0-1.0-561.0","0","0","42091","","null","","","null","62","NaN","","","","","","","","","","","","","","",""
"","S2","","html-keyboard-response","390","146559","0.0-1.0-562.0","0","0","42091","","null","","","null","62","","NaN","","","","","","","","","","","","","",""
"","response","","html-keyboard-response","391","147068","0.0-1.0-563.0-0.0","0","0","42091","","null","","","null","62","","","5","62","test","non_adjacent","DG","4","7","L.jpg","N.jpg","NaN","1","0","",""
"","too_slow_prompt","","html-keyboard-response","392","148075","0.0-1.0-565.0-0.0","1","0","42091","","null","","","null","","","","","","","","","","","","","","","","",""
"","time_out","","html-keyboard-response","393","148180","0.0-1.0-566.0-0.0","0","0","42091","","null","","","null","62","","","","","","","","","","","","","","","",""
"","ITI","","html-keyboard-response","394","148688","0.0-1.0-567.0","0","0","42091","","106","","","68","62","","","","","","","","","","","","","","","d",""
"","S1","","html-keyboard-response","395","148947","0.0-1.0-569.0","0","0","42091","","null","","","null","63","","","","","","","","","","","","","","","",""
"","ISI","","html-keyboard-response","396","149052","0.0-1.0-570.0","0","0","42091","","22","","","68","63","d","","","","","","","","","","","","","","",""
"","S2","","html-keyboard-response","397","149263","0.0-1.0-571.0","0","0","42091","","209","","","68","63","","d","5","63","test","adjacent","EF","5","6","P.jpg","O.jpg","0","1","0","",""
"","feedback","","html-keyboard-response","398","149372","0.0-1.0-573.0-0.0","0","0","42091","","null","","","null","63","","","","","","","","","","","","","","","",""
"","time_out","","html-keyboard-response","399","149480","0.0-1.0-575.0-0.0","0","0","42091","","null","","","null","63","","","","","","","","","","","","","","","",""
"","ITI","","html-keyboard-response","400","149988","0.0-1.0-576.0","0","0","42091","","110","","","68","63","","","","","","","","","","","","","","","d",""
"","S1","","html-keyboard-response","401","150246","0.0-1.0-578.0","0","0","42091","","null","","","null","64","","","","","","","","","","","","","","","",""
"","ISI","","html-keyboard-response","402","150357","0.0-1.0-579.0","0","0","42091","","null","","","null","64","NaN","","","","","","","","","","","","","","",""
"","S2","","html-keyboard-response","403","150440","0.0-1.0-580.0","0","0","42091","","80","","","68","64","","d","5","64","test","non_adjacent","AE","1","5","R.jpg","P.jpg","0","1","0","",""
"","feedback","","html-keyboard-response","404","150548","0.0-1.0-582.0-0.0","0","0","42091","","null","","","null","64","","","","","","","","","","","","","","","",""
"","time_out","","html-keyboard-response","405","150652","0.0-1.0-584.0-0.0","0","0","42091","","null","","","null","64","","","","","","","","","","","","","","","",""
"","ITI","","html-keyboard-response","406","151159","0.0-1.0-585.0","0","0","42091","","234","","","68","64","","","","","","","","","","","","","","","d",""
"","S1","","html-keyboard-response","407","151420","0.0-1.0-587.0","0","0","42091","","null","","","null","65","","","","","","","","","","","","","","","",""
"","ISI","","html-keyboard-response","408","151528","0.0-1.0-588.0","0","0","42091","","null","","","null","65","NaN","","","","","","","","","","","","","","",""
"","S2","","html-keyboard-response","409","151540","0.0-1.0-589.0","0","0","42091","","11","","","68","65","","d","5","65","test","non_adjacent","FD","6","4","O.jpg","L.jpg","0","0","1","",""
"","feedback","","html-keyboard-response","410","151644","0.0-1.0-591.0-0.0","0","0","42091","","null","","","null","65","","","","","","","","","","","","","","","",""
"","ITI","","html-keyboard-response","411","152151","0.0-1.0-594.0","0","0","42091","","303","","","68","65","","","","","","","","","","","","","","","d",""
"","S1","","html-keyboard-response","412","152413","0.0-1.0-596.0","0","0","42091","","null","","","null","66","","","","","","","","","","","","","","","",""
"","ISI","","html-keyboard-response","413","152518","0.0-1.0-597.0","0","0","42091","","null","","","null","66","NaN","","","","","","","","","","","","","","",""
"","S2","","html-keyboard-response","414","152711","0.0-1.0-598.0","0","0","42091","","192","","","68","66","","d","5","66","test","non_adjacent","DF","4","6","L.jpg","O.jpg","0","1","0","",""
"","feedback","","html-keyboard-response","415","152823","0.0-1.0-600.0-0.0","0","0","42091","","null","","","null","66","","","","","","","","","","","","","","","",""
"","time_out","","html-keyboard-response","416","152935","0.0-1.0-602.0-0.0","0","0","42091","","null","","","null","66","","","","","","","","","","","","","","","",""
"","ITI","","html-keyboard-response","417","153448","0.0-1.0-603.0","0","0","42091","","143","","","68","66","","","","","","","","","","","","","","","d",""
"","S1","","html-keyboard-response","418","153709","0.0-1.0-605.0","0","0","42091","","null","","","null","67","","","","","","","","","","","","","","","",""
"","ISI","","html-keyboard-response","419","153811","0.0-1.0-606.0","0","0","42091","","null","","","null","67","NaN","","","","","","","","","","","","","","",""
"","S2","","html-keyboard-response","420","154024","0.0-1.0-607.0","0","0","42091","","211","","","68","67","","d","5","67","test","adjacent","FE","6","5","O.jpg","P.jpg","0","0","1","",""
"","feedback","","html-keyboard-response","421","154136","0.0-1.0-609.0-0.0","0","0","42091","","null","","","null","67","","","","","","","","","","","","","","","",""
"","ITI","","html-keyboard-response","422","154645","0.0-1.0-612.0","0","0","42091","","190","","","68","67","","","","","","","","","","","","","","","d",""
"","S1","","html-keyboard-response","423","154899","0.0-1.0-614.0","0","0","42091","","null","","","null","68","","","","","","","","","","","","","","","",""
"","ISI","","html-keyboard-response","424","155008","0.0-1.0-615.0","0","0","42091","","null","","","null","68","NaN","","","","","","","","","","","","","","",""
"","S2","","html-keyboard-response","425","155036","0.0-1.0-616.0","0","0","42091","","26","","","68","68","","d","5","68","test","non_adjacent","BE","2","5","M.jpg","P.jpg","0","1","0","",""
"","feedback","","html-keyboard-response","426","155140","0.0-1.0-618.0-0.0","0","0","42091","","null","","","null","68","","","","","","","","","","","","","","","",""
"","time_out","","html-keyboard-response","427","155245","0.0-1.0-620.0-0.0","0","0","42091","","null","","","null","68","","","","","","","","","","","","","","","",""
"","ITI","","html-keyboard-response","428","155747","0.0-1.0-621.0","0","0","42091","","81","","","68","68","","","","","","","","","","","","","","","d",""
"","S1","","html-keyboard-response","429","156008","0.0-1.0-623.0","0","0","42091","","null","","","null","69","","","","","","","","","","","","","","","",""
"","ISI","","html-keyboard-response","430","156119","0.0-1.0-624.0","0","0","42091","","null","","","null","69","NaN","","","","","","","","","","","","","","",""
"","S2","","html-keyboard-response","431","156255","0.0-1.0-625.0","0","0","42091","","134","","","68","69","","d","5","69","test","non_adjacent","CG","3","7","Q.jpg","N.jpg","0","1","0","",""
"","feedback","","html-keyboard-response","432","156366","0.0-1.0-627.0-0.0","0","0","42091","","null","","","null","69","","","","","","","","","","","","","","","",""
"","time_out","","html-keyboard-response","433","156476","0.0-1.0-629.0-0.0","0","0","42091","","null","","","null","69","","","","","","","","","","","","","","","",""
"","ITI","","html-keyboard-response","434","156980","0.0-1.0-630.0","0","0","42091","","98","","","68","69","","","","","","","","","","","","","","","d",""
"","S1","","html-keyboard-response","435","157237","0.0-1.0-632.0","0","0","42091","","null","","","null","70","","","","","","","","","","","","","","","",""
"","ISI","","html-keyboard-response","436","157344","0.0-1.0-633.0","0","0","42091","","57","","","68","70","d","","","","","","","","","","","","","","",""
"","S2","","html-keyboard-response","437","157599","0.0-1.0-634.0","0","0","42091","","253","","","68","70","","d","5","70","test","non_adjacent","AF","1","6","R.jpg","O.jpg","0","1","0","",""
"","feedback","","html-keyboard-response","438","157708","0.0-1.0-636.0-0.0","0","0","42091","","null","","","null","70","","","","","","","","","","","","","","","",""
"","time_out","","html-keyboard-response","439","157824","0.0-1.0-638.0-0.0","0","0","42091","","null","","","null","70","","","","","","","","","","","","","","","",""
"","ITI","","html-keyboard-response","440","158327","0.0-1.0-639.0","0","0","42091","","99","","","68","70","","","","","","","","","","","","","","","d",""
"","S1","","html-keyboard-response","441","158581","0.0-1.0-641.0","0","0","42091","","null","","","null","71","","","","","","","","","","","","","","","",""
"","ISI","","html-keyboard-response","442","158685","0.0-1.0-642.0","0","0","42091","","null","","","null","71","NaN","","","","","","","","","","","","","","",""
"","S2","","html-keyboard-response","443","158806","0.0-1.0-643.0","0","0","42091","","119","","","68","71","","d","5","71","test","non_adjacent","GD","7","4","N.jpg","L.jpg","0","0","1","",""
"","feedback","","html-keyboard-response","444","158910","0.0-1.0-645.0-0.0","0","0","42091","","null","","","null","71","","","","","","","","","","","","","","","",""
"","ITI","","html-keyboard-response","445","159424","0.0-1.0-648.0","0","0","42091","","248","","","68","71","","","","","","","","","","","","","","","d",""
"","S1","","html-keyboard-response","446","159683","0.0-1.0-650.0","0","0","42091","","null","","","null","72","","","","","","","","","","","","","","","",""
"","ISI","","html-keyboard-response","447","159790","0.0-1.0-651.0","0","0","42091","","34","","","68","72","d","","","","","","","","","","","","","","",""
"","S2","","html-keyboard-response","448","160048","0.0-1.0-652.0","0","0","42091","","null","","","null","72","","NaN","","","","","","","","","","","","","",""
"","response","","html-keyboard-response","449","160232","0.0-1.0-653.0-0.0","0","0","42091","","182","","","68","72","","","5","72","test","non_adjacent","AG","1","7","R.jpg","N.jpg","0","1","0","",""
"","feedback","","html-keyboard-response","450","160344","0.0-1.0-654.0-0.0","0","0","42091","","null","","","null","72","","","","","","","","","","","","","","","",""
"","time_out","","html-keyboard-response","451","160453","0.0-1.0-656.0-0.0","0","0","42091","","null","","","null","72","","","","","","","","","","","","","","","",""
"","ITI","","html-keyboard-response","452","160956","0.0-1.0-657.0","0","0","42091","","89","","","68","72","","","","","","","","","","","","","","","d",""
"","S1","","html-keyboard-response","453","161216","0.0-1.0-659.0","0","0","42091","","null","","","null","73","","","","","","","","","","","","","","","",""
"","ISI","","html-keyboard-response","454","161324","0.0-1.0-660.0","0","0","42091","","null","","","null","73","NaN","","","","","","","","","","","","","","",""
"","S2","","html-keyboard-response","455","161520","0.0-1.0-661.0","0","0","42091","","195","","","68","73","","d","5","73","test","non_adjacent","CF","3","6","Q.jpg","O.jpg","0","1","0","",""
"","feedback","","html-keyboard-response","456","161624","0.0-1.0-663.0-0.0","0","0","42091","","null","","","null","73","","","","","","","","","","","","","","","",""
"","time_out","","html-keyboard-response","457","161736","0.0-1.0-665.0-0.0","0","0","42091","","null","","","null","73","","","","","","","","","","","","","","","",""
"","ITI","","html-keyboard-response","458","162243","0.0-1.0-666.0","0","0","42091","","69","","","68","73","","","","","","","","","","","","","","","d",""
"","S1","","html-keyboard-response","459","162499","0.0-1.0-668.0","0","0","42091","","null","","","null","74","","","","","","","","","","","","","","","",""
"","ISI","","html-keyboard-response","460","162604","0.0-1.0-669.0","0","0","42091","","18","","","68","74","d","","","","","","","","","","","","","","",""
"","S2","","html-keyboard-response","461","162864","0.0-1.0-670.0","0","0","42091","","null","","","null","74","","NaN","","","","","","","","","","","","","",""
"","response","","html-keyboard-response","462","163151","0.0-1.0-671.0-0.0","0","0","42091","","285","","","68","74","","","5","74","test","non_adjacent","CE","3","5","Q.jpg","P.jpg","0","1","0","",""
"","feedback","","html-keyboard-response","463","163261","0.0-1.0-672.0-0.0","0","0","42091","","null","","","null","74","","","","","","","","","","","","","","","",""
"","time_out","","html-keyboard-response","464","163376","0.0-1.0-674.0-0.0","0","0","42091","","null","","","null","74","","","","","","","","","","","","","","","",""
"","ITI","","html-keyboard-response","465","163886","0.0-1.0-675.0","0","0","42091","","100","","","68","74","","","","","","","","","","","","","","","d",""
"","S1","","html-keyboard-response","466","164140","0.0-1.0-677.0","0","0","42091","","null","","","null","75","","","","","","","","","","","","","","","",""
"","ISI","","html-keyboard-response","467","164248","0.0-1.0-678.0","0","0","42091","","null","","","null","75","NaN","","","","","","","","","","","","","","",""
"","S2","","html-keyboard-response","468","164456","0.0-1.0-679.0","0","0","42091","","206","","","68","75","","d","5","75","test","non_adjacent","GE","7","5","N.jpg","P.jpg","0","0","1","",""
"","feedback","","html-keyboard-response","469","164564","0.0-1.0-681.0-0.0","0","0","42091","","null","","","null","75","","","","","","","","","","","","","","","",""
"","ITI","","html-keyboard-response","470","165067","0.0-1.0-684.0","0","0","42091","","442","","","68","75","","","","","","","","","","","","","","","d",""
"","S1","","html-keyboard-response","471","165320","0.0-1.0-686.0","0","0","42091","","null","","","null","76","","","","","","","","","","","","","","","",""
"","ISI","","html-keyboard-response","472","165431","0.0-1.0-687.0","0","0","42091","","null","","","null","76","NaN","","","","","","","","","","","","","","",""
"","S2","","html-keyboard-response","473","165687","0.0-1.0-688.0","0","0","42091","","254","","","68","76","","d","5","76","test","adjacent","FG","6","7","O.jpg","N.jpg","0","1","0","",""
"","feedback","","html-keyboard-response","474","165796","0.0-1.0-690.0-0.0","0","0","42091","","null","","","null","76","","","","","","","","","","","","","","","",""
"","time_out","","html-keyboard-response","475","165901","0.0-1.0-692.0-0.0","0","0","42091","","null","","","null","76","","","","","","","","","","","","","","","",""
"","ITI","","html-keyboard-response","476","166405","0.0-1.0-693.0","0","0","42091","","98","","","68","76","","","","","","","","","","","","","","","d",""
"","S1","","html-keyboard-response","477","166663","0.0-1.0-695.0","0","0","42091","","null","","","null","77","","","","","","","","","","","","","","","",""
"","ISI","","html-keyboard-response","478","166772","0.0-1.0-696.0","0","0","42091","","null","","","null","77","NaN","","","","","","","","","","","","","","",""
"","S2","","html-keyboard-response","479","166847","0.0-1.0-697.0","0","0","42091","","73","","","68","77","","d","5","77","test","non_adjacent","BG","2","7","M.jpg","N.jpg","0","1","0","",""
"","feedback","","html-keyboard-response","480","166956","0.0-1.0-699.0-0.0","0","0","42091","","null","","","null","77","","","","","","","","","","","","","","","",""
"","time_out","","html-keyboard-response","481","167064","0.0-1.0-701.0-0.0","0","0","42091","","null","","","null","77","","","","","","","","","","","","","","","",""
"","ITI","","html-keyboard-response","482","167571","0.0-1.0-702.0","0","0","42091","","null","","","null","77","","","","","","","","","","","","","","","NaN",""
"","block_over","","html-keyboard-response","483","168784","0.0-1.0-703.0-0.0","0","0","42091","","1210","","","32","77","","","","","","","","","","","","","","","",""
"","S1","","html-keyboard-response","484","169040","0.0-1.0-704.0","0","0","42091","","null","","","null","78","","","","","","","","","","","","","","","",""
"","ISI","","html-keyboard-response","485","169151","0.0-1.0-705.0","0","0","42091","","null","","","null","78","NaN","","","","","","","","","","","","","","",""
"","S2","","html-keyboard-response","486","169416","0.0-1.0-706.0","0","0","42091","","null","","","null","78","","NaN","","","","","","","","","","","","","",""
"","response","","html-keyboard-response","487","169925","0.0-1.0-707.0-0.0","0","0","42091","","null","","","null","78","","","6","78","test","adjacent","AB","1","2","R.jpg","M.jpg","NaN","1","0","",""
"","too_slow_prompt","","html-keyboard-response","488","170936","0.0-1.0-709.0-0.0","1","0","42091","","null","","","null","","","","","","","","","","","","","","","","",""
"","time_out","","html-keyboard-response","489","171045","0.0-1.0-710.0-0.0","0","0","42091","","null","","","null","78","","","","","","","","","","","","","","","",""
"","ITI","","html-keyboard-response","490","171549","0.0-1.0-711.0","0","0","42091","","22","","","68","78","","","","","","","","","","","","","","","d",""
"","S1","","html-keyboard-response","491","171805","0.0-1.0-713.0","0","0","42091","","null","","","null","79","","","","","","","","","","","","","","","",""
"","ISI","","html-keyboard-response","492","171909","0.0-1.0-714.0","0","0","42091","","null","","","null","79","NaN","","","","","","","","","","","","","","",""
"","S2","","html-keyboard-response","493","172085","0.0-1.0-715.0","0","0","42091","","174","","","68","79","","d","6","79","test","adjacent","BC","2","3","M.jpg","Q.jpg","0","1","0","",""
"","feedback","","html-keyboard-response","494","172192","0.0-1.0-717.0-0.0","0","0","42091","","null","","","null","79","","","","","","","","","","","","","","","",""
"","time_out","","html-keyboard-response","495","172299","0.0-1.0-719.0-0.0","0","0","42091","","null","","","null","79","","","","","","","","","","","","","","","",""
"","ITI","","html-keyboard-response","496","172803","0.0-1.0-720.0","0","0","42091","","99","","","68","79","","","","","","","","","","","","","","","d",""
"","S1","","html-keyboard-response","497","173060","0.0-1.0-722.0","0","0","42091","","null","","","null","80","","","","","","","","","","","","","","","",""
"","ISI","","html-keyboard-response","498","173168","0.0-1.0-723.0","0","0","42091","","null","","","null","80","NaN","","","","","","","","","","","","","","",""
"","S2","","html-keyboard-response","499","173431","0.0-1.0-724.0","0","0","42091","","null","","","null","80","","NaN","","","","","","","","","","","","","",""
"","response","","html-keyboard-response","500","173672","0.0-1.0-725.0-0.0","0","0","42091","","239","","","68","80","","","6","80","test","non_adjacent","FC","6","3","O.jpg","Q.jpg","0","0","1","",""
"","feedback","","html-keyboard-response","501","173781","0.0-1.0-726.0-0.0","0","0","42091","","null","","","null","80","","","","","","","","","","","","","","","",""
"","ITI","","html-keyboard-response","502","174288","0.0-1.0-729.0","0","0","42091","","329","","","68","80","","","","","","","","","","","","","","","d",""
"","S1","","html-keyboard-response","503","174549","0.0-1.0-731.0","0","0","42091","","null","","","null","81","","","","","","","","","","","","","","","",""
"","ISI","","html-keyboard-response","504","174656","0.0-1.0-732.0","0","0","42091","","null","","","null","81","NaN","","","","","","","","","","","","","","",""
"","S2","","html-keyboard-response","505","174792","0.0-1.0-733.0","0","0","42091","","134","","","68","81","","d","6","81","test","non_adjacent","GA","7","1","N.jpg","R.jpg","0","0","1","",""
"","feedback","","html-keyboard-response","506","174900","0.0-1.0-735.0-0.0","0","0","42091","","null","","","null","81","","","","","","","","","","","","","","","",""
"","ITI","","html-keyboard-response","507","175403","0.0-1.0-738.0","0","0","42091","","311","","","68","81","","","","","","","","","","","","","","","d",""
"","S1","","html-keyboard-response","508","175661","0.0-1.0-740.0","0","0","42091","","null","","","null","82","","","","","","","","","","","","","","","",""
"","ISI","","html-keyboard-response","509","175766","0.0-1.0-741.0","0","0","42091","","null","","","null","82","NaN","","","","","","","","","","","","","","",""
"","S2","","html-keyboard-response","510","175798","0.0-1.0-742.0","0","0","42091","","30","","","68","82","","d","6","82","test","non_adjacent","EA","5","1","P.jpg","R.jpg","0","0","1","",""
"","feedback","","html-keyboard-response","511","175911","0.0-1.0-744.0-0.0","0","0","42091","","null","","","null","82","","","","","","","","","","","","","","","",""
"","ITI","","html-keyboard-response","512","176424","0.0-1.0-747.0","0","0","42091","","415","","","68","82","","","","","","","","","","","","","","","d",""
"","S1","","html-keyboard-response","513","176684","0.0-1.0-749.0","0","0","42091","","null","","","null","83","","","","","","","","","","","","","","","",""
"","ISI","","html-keyboard-response","514","176787","0.0-1.0-750.0","0","0","42091","","null","","","null","83","NaN","","","","","","","","","","","","","","",""
"","S2","","html-keyboard-response","515","176791","0.0-1.0-751.0","0","0","42091","","2","","","68","83","","d","6","83","test","non_adjacent","AC","1","3","R.jpg","Q.jpg","0","1","0","",""
"","feedback","","html-keyboard-response","516","176896","0.0-1.0-753.0-0.0","0","0","42091","","null","","","null","83","","","","","","","","","","","","","","","",""
"","time_out","","html-keyboard-response","517","177008","0.0-1.0-755.0-0.0","0","0","42091","","null","","","null","83","","","","","","","","","","","","","","","",""
"","ITI","","html-keyboard-response","518","177512","0.0-1.0-756.0","0","0","42091","","141","","","68","83","","","","","","","","","","","","","","","d",""
"","S1","","html-keyboard-response","519","177771","0.0-1.0-758.0","0","0","42091","","null","","","null","84","","","","","","","","","","","","","","","",""
"","ISI","","html-keyboard-response","520","177879","0.0-1.0-759.0","0","0","42091","","89","","","68","84","d","","","","","","","","","","","","","","",""
"","S2","","html-keyboard-response","521","178142","0.0-1.0-760.0","0","0","42091","","null","","","null","84","","NaN","","","","","","","","","","","","","",""
"","response","","html-keyboard-response","522","178248","0.0-1.0-761.0-0.0","0","0","42091","","104","","","68","84","","","6","84","test","non_adjacent","GC","7","3","N.jpg","Q.jpg","0","0","1","",""
"","feedback","","html-keyboard-response","523","178355","0.0-1.0-762.0-0.0","0","0","42091","","null","","","null","84","","","","","","","","","","","","","","","",""
"","ITI","","html-keyboard-response","524","178861","0.0-1.0-765.0","0","0","42091","","257","","","68","84","","","","","","","","","","","","","","","d",""
"","S1","","html-keyboard-response","525","179117","0.0-1.0-767.0","0","0","42091","","null","","","null","85","","","","","","","","","","","","","","","",""
"","ISI","","html-keyboard-response","526","179221","0.0-1.0-768.0","0","0","42091","","null","","","null","85","NaN","","","","","","","","","","","","","","",""
"","S2","","html-keyboard-response","527","179333","0.0-1.0-769.0","0","0","42091","","110","","","68","85","","d","6","85","test","adjacent","BA","2","1","M.jpg","R.jpg","0","0","1","",""
"","feedback","","html-keyboard-response","528","179438","0.0-1.0-771.0-0.0","0","0","42091","","null","","","null","85","","","","","","","","","","","","","","","",""
"","ITI","","html-keyboard-response","529","179949","0.0-1.0-774.0","0","0","42091","","320","","","68","85","","","","","","","","","","","","","","","d",""
"","S1","","html-keyboard-response","530","180208","0.0-1.0-776.0","0","0","42091","","null","","","null","86","","","","","","","","","","","","","","","",""
"","ISI","","html-keyboard-response","531","180317","0.0-1.0-777.0","0","0","42091","","null","","","null","86","NaN","","","","","","","","","","","","","","",""
"","S2","","html-keyboard-response","532","180543","0.0-1.0-778.0","0","0","42091","","225","","","68","86","","d","6","86","test","non_adjacent","FA","6","1","O.jpg","R.jpg","0","0","1","",""
"","feedback","","html-keyboard-response","533","180652","0.0-1.0-780.0-0.0","0","0","42091","","null","","","null","86","","","","","","","","","","","","","","","",""
"","ITI","","html-keyboard-response","534","181159","0.0-1.0-783.0","0","0","42091","","298","","","68","86","","","","","","","","","","","","","","","d",""
"","S1","","html-keyboard-response","535","181416","0.0-1.0-785.0","0","0","42091","","null","","","null","87","","","","","","","","","","","","","","","",""
"","ISI","","html-keyboard-response","536","181528","0.0-1.0-786.0","0","0","42091","","62","","","68","87","d","","","","","","","","","","","","","","",""
"","S2","","html-keyboard-response","537","181788","0.0-1.0-787.0","0","0","42091","","null","","","null","87","","NaN","","","","","","","","","","","","","",""
"","response","","html-keyboard-response","538","181863","0.0-1.0-788.0-0.0","0","0","42091","","73","","","68","87","","","6","87","test","non_adjacent","AD","1","4","R.jpg","L.jpg","0","1","0","",""
"","feedback","","html-keyboard-response","539","181973","0.0-1.0-789.0-0.0","0","0","42091","","null","","","null","87","","","","","","","","","","","","","","","",""
"","time_out","","html-keyboard-response","540","182084","0.0-1.0-791.0-0.0","0","0","42091","","null","","","null","87","","","","","","","","","","","","","","","",""
"","ITI","","html-keyboard-response","541","182592","0.0-1.0-792.0","0","0","42091","","114","","","68","87","","","","","","","","","","","","","","","d",""
"","S1","","html-keyboard-response","542","182854","0.0-1.0-794.0","0","0","42091","","null","","","null","88","","","","","","","","","","","","","","","",""
"","ISI","","html-keyboard-response","543","182967","0.0-1.0-795.0","0","0","42091","","71","","","68","88","d","","","","","","","","","","","","","","",""
"","S2","","html-keyboard-response","544","183221","0.0-1.0-796.0","0","0","42091","","null","","","null","88","","NaN","","","","","","","","","","","","","",""
"","response","","html-keyboard-response","545","183543","0.0-1.0-797.0-0.0","0","0","42091","","321","","","68","88","","","6","88","test","adjacent","DC","4","3","L.jpg","Q.jpg","0","0","1","",""
"","feedback","","html-keyboard-response","546","183652","0.0-1.0-798.0-0.0","0","0","42091","","null","","","null","88","","","","","","","","","","","","","","","",""
"","ITI","","html-keyboard-response","547","184155","0.0-1.0-801.0","0","0","42091","","281","","","68","88","","","","","","","","","","","","","","","d",""
"","S1","","html-keyboard-response","548","184408","0.0-1.0-803.0","0","0","42091","","null","","","null","89","","","","","","","","","","","","","","","",""
"","ISI","","html-keyboard-response","549","184518","0.0-1.0-804.0","0","0","42091","","null","","","null","89","NaN","","","","","","","","","","","","","","",""
"","S2","","html-keyboard-response","550","184664","0.0-1.0-805.0","0","0","42091","","144","","","68","89","","d","6","89","test","non_adjacent","CA","3","1","Q.jpg","R.jpg","0","0","1","",""
"","feedback","","html-keyboard-response","551","184771","0.0-1.0-807.0-0.0","0","0","42091","","null","","","null","89","","","","","","","","","","","","","","","",""
"","ITI","","html-keyboard-response","552","185278","0.0-1.0-810.0","0","0","42091","","204","","","68","89","","","","","","","","","","","","","","","d",""
"","S1","","html-keyboard-response","553","185535","0.0-1.0-812.0","0","0","42091","","null","","","null","90","","","","","","","","","","","","","","","",""
"","ISI","","html-keyboard-response","554","185647","0.0-1.0-813.0","0","0","42091","","null","","","null","90","NaN","","","","","","","","","","","","","","",""
"","S2","","html-keyboard-response","555","185702","0.0-1.0-814.0","0","0","42091","","53","","","68","90","","d","6","90","test","adjacent","CB","3","2","Q.jpg","M.jpg","0","0","1","",""
"","feedback","","html-keyboard-response","556","185813","0.0-1.0-816.0-0.0","0","0","42091","","null","","","null","90","","","","","","","","","","","","","","","",""
"","ITI","","html-keyboard-response","557","186324","0.0-1.0-819.0","0","0","42091","","345","","","68","90","","","","","","","","","","","","","","","d",""
"","S1","","html-keyboard-response","558","186581","0.0-1.0-821.0","0","0","42091","","null","","","null","91","","","","","","","","","","","","","","","",""
"","ISI","","html-keyboard-response","559","186686","0.0-1.0-822.0","0","0","42091","","null","","","null","91","NaN","","","","","","","","","","","","","","",""
"","S2","","html-keyboard-response","560","186776","0.0-1.0-823.0","0","0","42091","","87","","","68","91","","d","6","91","test","non_adjacent","DB","4","2","L.jpg","M.jpg","0","0","1","",""
"","feedback","","html-keyboard-response","561","186883","0.0-1.0-825.0-0.0","0","0","42091","","null","","","null","91","","","","","","","","","","","","","","","",""
"","ITI","","html-keyboard-response","562","187392","0.0-1.0-828.0","0","0","42091","","451","","","68","91","","","","","","","","","","","","","","","d",""
"","S1","","html-keyboard-response","563","187653","0.0-1.0-830.0","0","0","42091","","null","","","null","92","","","","","","","","","","","","","","","",""
"","ISI","","html-keyboard-response","564","187758","0.0-1.0-831.0","0","0","42091","","null","","","null","92","NaN","","","","","","","","","","","","","","",""
"","S2","","html-keyboard-response","565","187984","0.0-1.0-832.0","0","0","42091","","224","","","68","92","","d","6","92","test","non_adjacent","BD","2","4","M.jpg","L.jpg","0","1","0","",""
"","feedback","","html-keyboard-response","566","188096","0.0-1.0-834.0-0.0","0","0","42091","","null","","","null","92","","","","","","","","","","","","","","","",""
"","time_out","","html-keyboard-response","567","188208","0.0-1.0-836.0-0.0","0","0","42091","","null","","","null","92","","","","","","","","","","","","","","","",""
"","ITI","","html-keyboard-response","568","188717","0.0-1.0-837.0","0","0","42091","","135","","","68","92","","","","","","","","","","","","","","","d",""
"","S1","","html-keyboard-response","569","188976","0.0-1.0-839.0","0","0","42091","","null","","","null","93","","","","","","","","","","","","","","","",""
"","ISI","","html-keyboard-response","570","189087","0.0-1.0-840.0","0","0","42091","","95","","","68","93","d","","","","","","","","","","","","","","",""
"","S2","","html-keyboard-response","571","189348","0.0-1.0-841.0","0","0","42091","","null","","","null","93","","NaN","","","","","","","","","","","","","",""
"","response","","html-keyboard-response","572","189377","0.0-1.0-842.0-0.0","0","0","42091","","27","","","68","93","","","6","93","test","non_adjacent","EB","5","2","P.jpg","M.jpg","0","0","1","",""
"","feedback","","html-keyboard-response","573","189485","0.0-1.0-843.0-0.0","0","0","42091","","null","","","null","93","","","","","","","","","","","","","","","",""
"","ITI","","html-keyboard-response","574","189990","0.0-1.0-846.0","0","0","42091","","null","","","null","93","","","","","","","","","","","","","","","NaN",""
"","S1","","html-keyboard-response","575","190245","0.0-1.0-848.0","0","0","42091","","null","","","null","94","","","","","","","","","","","","","","","",""
"","ISI","","html-keyboard-response","576","190350","0.0-1.0-849.0","0","0","42091","","null","","","null","94","NaN","","","","","","","","","","","","","","",""
"","S2","","html-keyboard-response","577","190603","0.0-1.0-850.0","0","0","42091","","null","","","null","94","","NaN","","","","","","","","","","","","","",""
"","response","","html-keyboard-response","578","190985","0.0-1.0-851.0-0.0","0","0","42091","","380","","","68","94","","","6","94","test","non_adjacent","DA","4","1","L.jpg","R.jpg","0","0","1","",""
"","feedback","","html-keyboard-response","579","191096","0.0-1.0-852.0-0.0","0","0","42091","","null","","","null","94","","","","","","","","","","","","","","","",""
"","ITI","","html-keyboard-response","580","191605","0.0-1.0-855.0","0","0","42091","","413","","","68","94","","","","","","","","","","","","","","","d",""
"","S1","","html-keyboard-response","581","191864","0.0-1.0-857.0","0","0","42091","","null","","","null","95","","","","","","","","","","","","","","","",""
"","ISI","","html-keyboard-response","582","191972","0.0-1.0-858.0","0","0","42091","","null","","","null","95","NaN","","","","","","","","","","","","","","",""
"","S2","","html-keyboard-response","583","192152","0.0-1.0-859.0","0","0","42091","","177","","","68","95","","d","6","95","test","non_adjacent","GB","7","2","N.jpg","M.jpg","0","0","1","",""
"","feedback","","html-keyboard-response","584","192261","0.0-1.0-861.0-0.0","0","0","42091","","null","","","null","95","","","","","","","","","","","","","","","",""
