"success","ttype","start_time","trial_type","trial_index","time_elapsed","internal_node_id","warning","missed_checkup","PID","view_history","rt","responses","repeat_instructions","key_press","index","keypress_isi","keypress_S2","block","trial_num","phase","group_type","pair_type","S1_stim","S2_stim","S1_img","S2_img","S1_chosen","S1_higher","accuracy","keypress_iti","total_bonus_tally"
"true","full_screen","d03082023hr2021","fullscreen","0","3771","0.0-0.0","0","0","74459","","","","","","","","","","","","","","","","","","","","","",""
"","instructions","","instructions","1","18789","0.0-1.0-0.0-0.0","0","0","74459","[{""page_index"":0,""viewing_time"":2161},{""page_index"":1,""viewing_time"":9944},{""page_index"":2,""viewing_time"":1265},{""page_index"":3,""viewing_time"":1643}]","15014","","","","","","","","","","","","","","","","","","","",""
"","comprehension_check","","survey-multi-choice","2","40009","0.0-1.0-0.0-1.0","0","0","74459","","21209","{""Q0"":""True"",""Q1"":""K"",""Q2"":""Once the second image appears and while the screen 'MAKE A CHOICE' is shown"",""Q3"":""Green mark"",""Q4"":""either D or K""}","0","","","","","","","","","","","","","","","","","",""
"","start_exp","","html-keyboard-response","3","41660","0.0-1.0-1.0","0","0","74459","","1639","","","32","","","","","","","","","","","","","","","","",""
"","S1","","html-keyboard-response","4","41925","0.0-1.0-2.0","0","0","74459","","null","","","null","0","","","","","","","","","","","","","","","",""
"","ISI","","html-keyboard-response","5","42089","0.0-1.0-3.0","0","0","74459","","null","","","null","0","NaN","","","","","","","","","","","","","","",""
"","S2","","html-keyboard-response","6","42353","0.0-1.0-4.0","0","0","74459","","null","","","null","0","","NaN","","","","","","","","","","","","","",""
"","response","","html-keyboard-response","7","44117","0.0-1.0-5.0-0.0","0","0","74459","","null","","","null","0","","","1","0","training","adjacent","CD","3","4","M.jpg","P.jpg","NaN","1","0","",""
"","too_slow_prompt","","html-keyboard-response","8","45131","0.0-1.0-7.0-0.0","1","0","74459","","null","","","null","","","","","","","","","","","","","","","","",""
"","time_out","","html-keyboard-response","9","47143","0.0-1.0-8.0-0.0","0","0","74459","","null","","","null","0","","","","","","","","","","","","","","","",""
"","ITI","","html-keyboard-response","10","48147","0.0-1.0-9.0","0","0","74459","","null","","","null","0","","","","","","","","","","","","","","","NaN",""
"","S1","","html-keyboard-response","11","48408","0.0-1.0-11.0","0","0","74459","","null","","","null","1","","","","","","","","","","","","","","","",""
"","ISI","","html-keyboard-response","12","48570","0.0-1.0-12.0","0","0","74459","","94","","","75","1","k","","","","","","","","","","","","","","",""
"","S2","","html-keyboard-response","13","48836","0.0-1.0-13.0","0","0","74459","","null","","","null","1","","NaN","","","","","","","","","","","","","",""
"","response","","html-keyboard-response","14","49051","0.0-1.0-14.0-0.0","0","0","74459","","209","","","75","1","","","1","1","training","adjacent","CB","3","2","M.jpg","L.jpg","1","0","0","",""
"","feedback","","html-keyboard-response","15","50065","0.0-1.0-15.0-0.0","0","0","74459","","null","","","null","1","","","","","","","","","","","","","","","",""
"","time_out","","html-keyboard-response","16","52082","0.0-1.0-17.0-0.0","0","0","74459","","null","","","null","1","","","","","","","","","","","","","","","",""
"","ITI","","html-keyboard-response","17","53094","0.0-1.0-18.0","0","0","74459","","null","","","null","1","","","","","","","","","","","","","","","NaN",""
"","S1","","html-keyboard-response","18","53359","0.0-1.0-20.0","0","0","74459","","null","","","null","2","","","","","","","","","","","","","","","",""
"","ISI","","html-keyboard-response","19","53519","0.0-1.0-21.0","0","0","74459","","null","","","null","2","NaN","","","","","","","","","","","","","","",""
"","S2","","html-keyboard-response","20","53761","0.0-1.0-22.0","0","0","74459","","237","","","68","2","","d","1","2","training","adjacent","FG","6","7","Q.jpg","O.jpg","0","1","0","",""
"","feedback","","html-keyboard-response","21","54768","0.0-1.0-24.0-0.0","0","0","74459","","null","","","null","2","","","","","","","","","","","","","","","",""
"","time_out","","html-keyboard-response","22","56778","0.0-1.0-26.0-0.0","0","0","74459","","null","","","null","2","","","","","","","","","","","","","","","",""
"","ITI","","html-keyboard-response","23","57791","0.0-1.0-27.0","0","0","74459","","null","","","null","2","","","","","","","","","","","","","","","NaN",""
"","S1","","html-keyboard-response","24","58049","0.0-1.0-29.0","0","0","74459","","null","","","null","3","","","","","","","","","","","","","","","",""
"","ISI","","html-keyboard-response","25","58210","0.0-1.0-30.0","0","0","74459","","null","","","null","3","NaN","","","","","","","","","","","","","","",""
"","S2","","html-keyboard-response","26","58476","0.0-1.0-31.0","0","0","74459","","null","","","null","3","","NaN","","","","","","","","","","","","","",""
"","response","","html-keyboard-response","27","58515","0.0-1.0-32.0-0.0","0","0","74459","","32","","","75","3","","","1","3","training","adjacent","CD","3","4","M.jpg","P.jpg","1","1","1","",""
"","feedback","","html-keyboard-response","28","59530","0.0-1.0-33.0-0.0","0","0","74459","","null","","","null","3","","","","","","","","","","","","","","","",""
"","ITI","","html-keyboard-response","29","60542","0.0-1.0-36.0","0","0","74459","","null","","","null","3","","","","","","","","","","","","","","","NaN",""
"","S1","","html-keyboard-response","30","60801","0.0-1.0-38.0","0","0","74459","","null","","","null","4","","","","","","","","","","","","","","","",""
"","ISI","","html-keyboard-response","31","60964","0.0-1.0-39.0","0","0","74459","","null","","","null","4","NaN","","","","","","","","","","","","","","",""
"","S2","","html-keyboard-response","32","61224","0.0-1.0-40.0","0","0","74459","","254","","","75","4","","k","1","4","training","adjacent","FG","6","7","Q.jpg","O.jpg","1","1","1","",""
"","feedback","","html-keyboard-response","33","62232","0.0-1.0-42.0-0.0","0","0","74459","","null","","","null","4","","","","","","","","","","","","","","","",""
"","ITI","","html-keyboard-response","34","63271","0.0-1.0-45.0","0","0","74459","","null","","","null","4","","","","","","","","","","","","","","","NaN",""
"","S1","","html-keyboard-response","35","63527","0.0-1.0-47.0","0","0","74459","","null","","","null","5","","","","","","","","","","","","","","","",""
"","ISI","","html-keyboard-response","36","63687","0.0-1.0-48.0","0","0","74459","","null","","","null","5","NaN","","","","","","","","","","","","","","",""
"","S2","","html-keyboard-response","37","63941","0.0-1.0-49.0","0","0","74459","","248","","","68","5","","d","1","5","training","adjacent","DE","4","5","P.jpg","R.jpg","0","1","0","",""
"","feedback","","html-keyboard-response","38","64951","0.0-1.0-51.0-0.0","0","0","74459","","null","","","null","5","","","","","","","","","","","","","","","",""
"","time_out","","html-keyboard-response","39","66964","0.0-1.0-53.0-0.0","0","0","74459","","null","","","null","5","","","","","","","","","","","","","","","",""
"","ITI","","html-keyboard-response","40","67976","0.0-1.0-54.0","0","0","74459","","null","","","null","5","","","","","","","","","","","","","","","NaN",""
"","S1","","html-keyboard-response","41","68232","0.0-1.0-56.0","0","0","74459","","null","","","null","6","","","","","","","","","","","","","","","",""
"","ISI","","html-keyboard-response","42","68394","0.0-1.0-57.0","0","0","74459","","null","","","null","6","NaN","","","","","","","","","","","","","","",""
"","S2","","html-keyboard-response","43","68413","0.0-1.0-58.0","0","0","74459","","11","","","68","6","","d","1","6","training","adjacent","CB","3","2","M.jpg","L.jpg","0","0","1","",""
"","feedback","","html-keyboard-response","44","69429","0.0-1.0-60.0-0.0","0","0","74459","","null","","","null","6","","","","","","","","","","","","","","","",""
"","ITI","","html-keyboard-response","45","70436","0.0-1.0-63.0","0","0","74459","","null","","","null","6","","","","","","","","","","","","","","","NaN",""
"","S1","","html-keyboard-response","46","70695","0.0-1.0-65.0","0","0","74459","","null","","","null","7","","","","","","","","","","","","","","","",""
"","ISI","","html-keyboard-response","47","70857","0.0-1.0-66.0","0","0","74459","","null","","","null","7","NaN","","","","","","","","","","","","","","",""
"","S2","","html-keyboard-response","48","70997","0.0-1.0-67.0","0","0","74459","","132","","","75","7","","k","1","7","training","adjacent","EF","5","6","R.jpg","Q.jpg","1","1","1","",""
"","feedback","","html-keyboard-response","49","72007","0.0-1.0-69.0-0.0","0","0","74459","","null","","","null","7","","","","","","","","","","","","","","","",""
"","ITI","","html-keyboard-response","50","73018","0.0-1.0-72.0","0","0","74459","","null","","","null","7","","","","","","","","","","","","","","","NaN",""
"","S1","","html-keyboard-response","51","73277","0.0-1.0-74.0","0","0","74459","","null","","","null","8","","","","","","","","","","","","","","","",""
"","ISI","","html-keyboard-response","52","73440","0.0-1.0-75.0","0","0","74459","","null","","","null","8","NaN","","","","","","","","","","","","","","",""
"","S2","","html-keyboard-response","53","73448","0.0-1.0-76.0","0","0","74459","","0","","","75","8","","k","1","8","training","adjacent","FG","6","7","Q.jpg","O.jpg","1","1","1","",""
"","feedback","","html-keyboard-response","54","74462","0.0-1.0-78.0-0.0","0","0","74459","","null","","","null","8","","","","","","","","","","","","","","","",""
"","ITI","","html-keyboard-response","55","75470","0.0-1.0-81.0","0","0","74459","","986","","","75","8","","","","","","","","","","","","","","","k",""
"","S1","","html-keyboard-response","56","75730","0.0-1.0-83.0","0","0","74459","","null","","","null","9","","","","","","","","","","","","","","","",""
"","ISI","","html-keyboard-response","57","75892","0.0-1.0-84.0","0","0","74459","","null","","","null","9","NaN","","","","","","","","","","","","","","",""
"","S2","","html-keyboard-response","58","75965","0.0-1.0-85.0","0","0","74459","","63","","","75","9","","k","1","9","training","adjacent","BC","2","3","L.jpg","M.jpg","1","1","1","",""
"","feedback","","html-keyboard-response","59","76975","0.0-1.0-87.0-0.0","0","0","74459","","null","","","null","9","","","","","","","","","","","","","","","",""
"","ITI","","html-keyboard-response","60","77986","0.0-1.0-90.0","0","0","74459","","null","","","null","9","","","","","","","","","","","","","","","NaN",""
"","S1","","html-keyboard-response","61","78244","0.0-1.0-92.0","0","0","74459","","null","","","null","10","","","","","","","","","","","","","","","",""
"","ISI","","html-keyboard-response","62","78404","0.0-1.0-93.0","0","0","74459","","null","","","null","10","NaN","","","","","","","","","","","","","","",""
"","S2","","html-keyboard-response","63","78661","0.0-1.0-94.0","0","0","74459","","null","","","null","10","","NaN","","","","","","","","","","","","","",""
"","response","","html-keyboard-response","64","78751","0.0-1.0-95.0-0.0","0","0","74459","","84","","","75","10","","","1","10","training","adjacent","AB","1","2","N.jpg","L.jpg","1","1","1","",""
"","feedback","","html-keyboard-response","65","79761","0.0-1.0-96.0-0.0","0","0","74459","","null","","","null","10","","","","","","","","","","","","","","","",""
"","ITI","","html-keyboard-response","66","80768","0.0-1.0-99.0","0","0","74459","","null","","","null","10","","","","","","","","","","","","","","","NaN",""
"","S1","","html-keyboard-response","67","81026","0.0-1.0-101.0","0","0","74459","","null","","","null","11","","","","","","","","","","","","","","","",""
"","ISI","","html-keyboard-response","68","81186","0.0-1.0-102.0","0","0","74459","","null","","","null","11","NaN","","","","","","","","","","","","","","",""
"","S2","","html-keyboard-response","69","81437","0.0-1.0-103.0","0","0","74459","","243","","","68","11","","d","1","11","training","adjacent","DC","4","3","P.jpg","M.jpg","0","0","1","",""
"","feedback","","html-keyboard-response","70","82445","0.0-1.0-105.0-0.0","0","0","74459","","null","","","null","11","","","","","","","","","","","","","","","",""
"","ITI","","html-keyboard-response","71","83460","0.0-1.0-108.0","0","0","74459","","null","","","null","11","","","","","","","","","","","","","","","NaN",""
"","S1","","html-keyboard-response","72","83719","0.0-1.0-110.0","0","0","74459","","null","","","null","12","","","","","","","","","","","","","","","",""
"","ISI","","html-keyboard-response","73","83879","0.0-1.0-111.0","0","0","74459","","null","","","null","12","NaN","","","","","","","","","","","","","","",""
"","S2","","html-keyboard-response","74","83973","0.0-1.0-112.0","0","0","74459","","84","","","68","12","","d","1","12","training","adjacent","AB","1","2","N.jpg","L.jpg","0","1","0","",""
"","feedback","","html-keyboard-response","75","84983","0.0-1.0-114.0-0.0","0","0","74459","","null","","","null","12","","","","","","","","","","","","","","","",""
"","time_out","","html-keyboard-response","76","86993","0.0-1.0-116.0-0.0","0","0","74459","","null","","","null","12","","","","","","","","","","","","","","","",""
"","ITI","","html-keyboard-response","77","88001","0.0-1.0-117.0","0","0","74459","","null","","","null","12","","","","","","","","","","","","","","","NaN",""
"","S1","","html-keyboard-response","78","88261","0.0-1.0-119.0","0","0","74459","","null","","","null","13","","","","","","","","","","","","","","","",""
"","ISI","","html-keyboard-response","79","88419","0.0-1.0-120.0","0","0","74459","","null","","","null","13","NaN","","","","","","","","","","","","","","",""
"","S2","","html-keyboard-response","80","88685","0.0-1.0-121.0","0","0","74459","","null","","","null","13","","NaN","","","","","","","","","","","","","",""
"","response","","html-keyboard-response","81","88835","0.0-1.0-122.0-0.0","0","0","74459","","143","","","75","13","","","1","13","training","adjacent","ED","5","4","R.jpg","P.jpg","1","0","0","",""
"","feedback","","html-keyboard-response","82","89847","0.0-1.0-123.0-0.0","0","0","74459","","null","","","null","13","","","","","","","","","","","","","","","",""
"","time_out","","html-keyboard-response","83","91853","0.0-1.0-125.0-0.0","0","0","74459","","null","","","null","13","","","","","","","","","","","","","","","",""
"","ITI","","html-keyboard-response","84","92865","0.0-1.0-126.0","0","0","74459","","null","","","null","13","","","","","","","","","","","","","","","NaN",""
"","S1","","html-keyboard-response","85","93126","0.0-1.0-128.0","0","0","74459","","null","","","null","14","","","","","","","","","","","","","","","",""
"","ISI","","html-keyboard-response","86","93288","0.0-1.0-129.0","0","0","74459","","null","","","null","14","NaN","","","","","","","","","","","","","","",""
"","S2","","html-keyboard-response","87","93298","0.0-1.0-130.0","0","0","74459","","1","","","68","14","","d","1","14","training","adjacent","CB","3","2","M.jpg","L.jpg","0","0","1","",""
"","feedback","","html-keyboard-response","88","94313","0.0-1.0-132.0-0.0","0","0","74459","","null","","","null","14","","","","","","","","","","","","","","","",""
"","ITI","","html-keyboard-response","89","95321","0.0-1.0-135.0","0","0","74459","","null","","","null","14","","","","","","","","","","","","","","","NaN",""
"","S1","","html-keyboard-response","90","95580","0.0-1.0-137.0","0","0","74459","","null","","","null","15","","","","","","","","","","","","","","","",""
"","ISI","","html-keyboard-response","91","95742","0.0-1.0-138.0","0","0","74459","","null","","","null","15","NaN","","","","","","","","","","","","","","",""
"","S2","","html-keyboard-response","92","96009","0.0-1.0-139.0","0","0","74459","","null","","","null","15","","NaN","","","","","","","","","","","","","",""
"","response","","html-keyboard-response","93","96254","0.0-1.0-140.0-0.0","0","0","74459","","238","","","75","15","","","1","15","training","adjacent","BA","2","1","L.jpg","N.jpg","1","0","0","",""
"","feedback","","html-keyboard-response","94","97265","0.0-1.0-141.0-0.0","0","0","74459","","null","","","null","15","","","","","","","","","","","","","","","",""
"","time_out","","html-keyboard-response","95","99271","0.0-1.0-143.0-0.0","0","0","74459","","null","","","null","15","","","","","","","","","","","","","","","",""
"","ITI","","html-keyboard-response","96","100277","0.0-1.0-144.0","0","0","74459","","231","","","75","15","","","","","","","","","","","","","","","k",""
"","S1","","html-keyboard-response","97","100536","0.0-1.0-146.0","0","0","74459","","null","","","null","16","","","","","","","","","","","","","","","",""
"","ISI","","html-keyboard-response","98","100698","0.0-1.0-147.0","0","0","74459","","null","","","null","16","NaN","","","","","","","","","","","","","","",""
"","S2","","html-keyboard-response","99","100958","0.0-1.0-148.0","0","0","74459","","null","","","null","16","","NaN","","","","","","","","","","","","","",""
"","response","","html-keyboard-response","100","102001","0.0-1.0-149.0-0.0","0","0","74459","","1037","","","75","16","","","1","16","training","adjacent","DC","4","3","P.jpg","M.jpg","1","0","0","",""
"","feedback","","html-keyboard-response","101","103012","0.0-1.0-150.0-0.0","0","0","74459","","null","","","null","16","","","","","","","","","","","","","","","",""
"","time_out","","html-keyboard-response","102","105022","0.0-1.0-152.0-0.0","0","0","74459","","null","","","null","16","","","","","","","","","","","","","","","",""
"","ITI","","html-keyboard-response","103","106039","0.0-1.0-153.0","0","0","74459","","null","","","null","16","","","","","","","","","","","","","","","NaN",""
"","S1","","html-keyboard-response","104","106302","0.0-1.0-155.0","0","0","74459","","null","","","null","17","","","","","","","","","","","","","","","",""
"","ISI","","html-keyboard-response","105","106465","0.0-1.0-156.0","0","0","74459","","48","","","75","17","k","","","","","","","","","","","","","","",""
"","S2","","html-keyboard-response","106","106731","0.0-1.0-157.0","0","0","74459","","null","","","null","17","","NaN","","","","","","","","","","","","","",""
"","response","","html-keyboard-response","107","106774","0.0-1.0-158.0-0.0","0","0","74459","","36","","","75","17","","","1","17","training","adjacent","GF","7","6","O.jpg","Q.jpg","1","0","0","",""
"","feedback","","html-keyboard-response","108","107784","0.0-1.0-159.0-0.0","0","0","74459","","null","","","null","17","","","","","","","","","","","","","","","",""
"","time_out","","html-keyboard-response","109","109792","0.0-1.0-161.0-0.0","0","0","74459","","null","","","null","17","","","","","","","","","","","","","","","",""
"","ITI","","html-keyboard-response","110","110807","0.0-1.0-162.0","0","0","74459","","null","","","null","17","","","","","","","","","","","","","","","NaN",""
"","S1","","html-keyboard-response","111","111066","0.0-1.0-164.0","0","0","74459","","null","","","null","18","","","","","","","","","","","","","","","",""
"","ISI","","html-keyboard-response","112","111229","0.0-1.0-165.0","0","0","74459","","81","","","68","18","d","","","","","","","","","","","","","","",""
"","S2","","html-keyboard-response","113","111487","0.0-1.0-166.0","0","0","74459","","null","","","null","18","","NaN","","","","","","","","","","","","","",""
"","response","","html-keyboard-response","114","112228","0.0-1.0-167.0-0.0","0","0","74459","","733","","","68","18","","","1","18","training","adjacent","EF","5","6","R.jpg","Q.jpg","0","1","0","",""
"","feedback","","html-keyboard-response","115","113241","0.0-1.0-168.0-0.0","0","0","74459","","null","","","null","18","","","","","","","","","","","","","","","",""
"","time_out","","html-keyboard-response","116","115254","0.0-1.0-170.0-0.0","0","0","74459","","null","","","null","18","","","","","","","","","","","","","","","",""
"","ITI","","html-keyboard-response","117","116262","0.0-1.0-171.0","0","0","74459","","null","","","null","18","","","","","","","","","","","","","","","NaN",""
"","S1","","html-keyboard-response","118","116519","0.0-1.0-173.0","0","0","74459","","null","","","null","19","","","","","","","","","","","","","","","",""
"","ISI","","html-keyboard-response","119","116680","0.0-1.0-174.0","0","0","74459","","53","","","75","19","k","","","","","","","","","","","","","","",""
"","S2","","html-keyboard-response","120","116721","0.0-1.0-175.0","0","0","74459","","33","","","75","19","","k","1","19","training","adjacent","GF","7","6","O.jpg","Q.jpg","1","0","0","",""
"","feedback","","html-keyboard-response","121","117732","0.0-1.0-177.0-0.0","0","0","74459","","null","","","null","19","","","","","","","","","","","","","","","",""
"","time_out","","html-keyboard-response","122","119743","0.0-1.0-179.0-0.0","0","0","74459","","null","","","null","19","","","","","","","","","","","","","","","",""
"","ITI","","html-keyboard-response","123","120754","0.0-1.0-180.0","0","0","74459","","429","","","68","19","","","","","","","","","","","","","","","d",""
"","S1","","html-keyboard-response","124","121013","0.0-1.0-182.0","0","0","74459","","null","","","null","20","","","","","","","","","","","","","","","",""
"","ISI","","html-keyboard-response","125","121174","0.0-1.0-183.0","0","0","74459","","null","","","null","20","NaN","","","","","","","","","","","","","","",""
"","S2","","html-keyboard-response","126","121200","0.0-1.0-184.0","0","0","74459","","18","","","68","20","","d","1","20","training","adjacent","AB","1","2","N.jpg","L.jpg","0","1","0","",""
"","feedback","","html-keyboard-response","127","122211","0.0-1.0-186.0-0.0","0","0","74459","","null","","","null","20","","","","","","","","","","","","","","","",""
"","time_out","","html-keyboard-response","128","124220","0.0-1.0-188.0-0.0","0","0","74459","","null","","","null","20","","","","","","","","","","","","","","","",""
"","ITI","","html-keyboard-response","129","125234","0.0-1.0-189.0","0","0","74459","","451","","","68","20","","","","","","","","","","","","","","","d",""
"","S1","","html-keyboard-response","130","125504","0.0-1.0-191.0","0","0","74459","","null","","","null","21","","","","","","","","","","","","","","","",""
"","ISI","","html-keyboard-response","131","125664","0.0-1.0-192.0","0","0","74459","","null","","","null","21","NaN","","","","","","","","","","","","","","",""
"","S2","","html-keyboard-response","132","125820","0.0-1.0-193.0","0","0","74459","","149","","","68","21","","d","1","21","training","adjacent","ED","5","4","R.jpg","P.jpg","0","0","1","",""
"","feedback","","html-keyboard-response","133","126828","0.0-1.0-195.0-0.0","0","0","74459","","null","","","null","21","","","","","","","","","","","","","","","",""
"","ITI","","html-keyboard-response","134","127838","0.0-1.0-198.0","0","0","74459","","null","","","null","21","","","","","","","","","","","","","","","NaN",""
"","S1","","html-keyboard-response","135","128102","0.0-1.0-200.0","0","0","74459","","null","","","null","22","","","","","","","","","","","","","","","",""
"","ISI","","html-keyboard-response","136","128264","0.0-1.0-201.0","0","0","74459","","null","","","null","22","NaN","","","","","","","","","","","","","","",""
"","S2","","html-keyboard-response","137","128374","0.0-1.0-202.0","0","0","74459","","100","","","75","22","","k","1","22","training","adjacent","BA","2","1","L.jpg","N.jpg","1","0","0","",""
"","feedback","","html-keyboard-response","138","129391","0.0-1.0-204.0-0.0","0","0","74459","","null","","","null","22","","","","","","","","","","","","","","","",""
"","time_out","","html-keyboard-response","139","131402","0.0-1.0-206.0-0.0","0","0","74459","","null","","","null","22","","","","","","","","","","","","","","","",""
"","ITI","","html-keyboard-response","140","132414","0.0-1.0-207.0","0","0","74459","","15","","","75","22","","","","","","","","","","","","","","","k",""
"","S1","","html-keyboard-response","141","132671","0.0-1.0-209.0","0","0","74459","","null","","","null","23","","","","","","","","","","","","","","","",""
"","ISI","","html-keyboard-response","142","132832","0.0-1.0-210.0","0","0","74459","","90","","","75","23","k","","","","","","","","","","","","","","",""
"","S2","","html-keyboard-response","143","132971","0.0-1.0-211.0","0","0","74459","","131","","","75","23","","k","1","23","training","adjacent","EF","5","6","R.jpg","Q.jpg","1","1","1","",""
"","feedback","","html-keyboard-response","144","133984","0.0-1.0-213.0-0.0","0","0","74459","","null","","","null","23","","","","","","","","","","","","","","","",""
"","ITI","","html-keyboard-response","145","134997","0.0-1.0-216.0","0","0","74459","","null","","","null","23","","","","","","","","","","","","","","","NaN",""
"","S1","","html-keyboard-response","146","135257","0.0-1.0-218.0","0","0","74459","","null","","","null","24","","","","","","","","","","","","","","","",""
"","ISI","","html-keyboard-response","147","135419","0.0-1.0-219.0","0","0","74459","","null","","","null","24","NaN","","","","","","","","","","","","","","",""
"","S2","","html-keyboard-response","148","135537","0.0-1.0-220.0","0","0","74459","","109","","","75","24","","k","1","24","training","adjacent","FE","6","5","Q.jpg","R.jpg","1","0","0","",""
"","feedback","","html-keyboard-response","149","136551","0.0-1.0-222.0-0.0","0","0","74459","","null","","","null","24","","","","","","","","","","","","","","","",""
"","time_out","","html-keyboard-response","150","138559","0.0-1.0-224.0-0.0","0","0","74459","","null","","","null","24","","","","","","","","","","","","","","","",""
"","ITI","","html-keyboard-response","151","139566","0.0-1.0-225.0","0","0","74459","","183","","","75","24","","","","","","","","","","","","","","","k",""
"","S1","","html-keyboard-response","152","139827","0.0-1.0-227.0","0","0","74459","","null","","","null","25","","","","","","","","","","","","","","","",""
"","ISI","","html-keyboard-response","153","139989","0.0-1.0-228.0","0","0","74459","","null","","","null","25","NaN","","","","","","","","","","","","","","",""
"","S2","","html-keyboard-response","154","140015","0.0-1.0-229.0","0","0","74459","","18","","","75","25","","k","1","25","training","adjacent","FE","6","5","Q.jpg","R.jpg","1","0","0","",""
"","feedback","","html-keyboard-response","155","141027","0.0-1.0-231.0-0.0","0","0","74459","","null","","","null","25","","","","","","","","","","","","","","","",""
"","time_out","","html-keyboard-response","156","143048","0.0-1.0-233.0-0.0","0","0","74459","","null","","","null","25","","","","","","","","","","","","","","","",""
"","ITI","","html-keyboard-response","157","144060","0.0-1.0-234.0","0","0","74459","","756","","","68","25","","","","","","","","","","","","","","","d",""
"","S1","","html-keyboard-response","158","144318","0.0-1.0-236.0","0","0","74459","","null","","","null","26","","","","","","","","","","","","","","","",""
"","ISI","","html-keyboard-response","159","144480","0.0-1.0-237.0","0","0","74459","","11","","","68","26","d","","","","","","","","","","","","","","",""
"","S2","","html-keyboard-response","160","144552","0.0-1.0-238.0","0","0","74459","","64","","","68","26","","d","1","26","training","adjacent","AB","1","2","N.jpg","L.jpg","0","1","0","",""
"","feedback","","html-keyboard-response","161","145564","0.0-1.0-240.0-0.0","0","0","74459","","null","","","null","26","","","","","","","","","","","","","","","",""
"","time_out","","html-keyboard-response","162","147576","0.0-1.0-242.0-0.0","0","0","74459","","null","","","null","26","","","","","","","","","","","","","","","",""
"","ITI","","html-keyboard-response","163","148590","0.0-1.0-243.0","0","0","74459","","null","","","null","26","","","","","","","","","","","","","","","NaN",""
"","S1","","html-keyboard-response","164","148852","0.0-1.0-245.0","0","0","74459","","null","","","null","27","","","","","","","","","","","","","","","",""
"","ISI","","html-keyboard-response","165","149014","0.0-1.0-246.0","0","0","74459","","null","","","null","27","NaN","","","","","","","","","","","","","","",""
"","S2","","html-keyboard-response","166","149095","0.0-1.0-247.0","0","0","74459","","73","","","68","27","","d","1","27","training","adjacent","ED","5","4","R.jpg","P.jpg","0","0","1","",""
"","feedback","","html-keyboard-response","167","150109","0.0-1.0-249.0-0.0","0","0","74459","","null","","","null","27","","","","","","","","","","","","","","","",""
"","ITI","","html-keyboard-response","168","151116","0.0-1.0-252.0","0","0","74459","","null","","","null","27","","","","","","","","","","","","","","","NaN",""
"","S1","","html-keyboard-response","169","151375","0.0-1.0-254.0","0","0","74459","","null","","","null","28","","","","","","","","","","","","","","","",""
"","ISI","","html-keyboard-response","170","151538","0.0-1.0-255.0","0","0","74459","","null","","","null","28","NaN","","","","","","","","","","","","","","",""
"","S2","","html-keyboard-response","171","151716","0.0-1.0-256.0","0","0","74459","","170","","","75","28","","k","1","28","training","adjacent","DE","4","5","P.jpg","R.jpg","1","1","1","",""
"","feedback","","html-keyboard-response","172","152724","0.0-1.0-258.0-0.0","0","0","74459","","null","","","null","28","","","","","","","","","","","","","","","",""
"","ITI","","html-keyboard-response","173","153746","0.0-1.0-261.0","0","0","74459","","null","","","null","28","","","","","","","","","","","","","","","NaN",""
"","S1","","html-keyboard-response","174","154008","0.0-1.0-263.0","0","0","74459","","null","","","null","29","","","","","","","","","","","","","","","",""
"","ISI","","html-keyboard-response","175","154166","0.0-1.0-264.0","0","0","74459","","null","","","null","29","NaN","","","","","","","","","","","","","","",""
"","S2","","html-keyboard-response","176","154190","0.0-1.0-265.0","0","0","74459","","20","","","75","29","","k","1","29","training","adjacent","DE","4","5","P.jpg","R.jpg","1","1","1","",""
"","feedback","","html-keyboard-response","177","155203","0.0-1.0-267.0-0.0","0","0","74459","","null","","","null","29","","","","","","","","","","","","","","","",""
"","ITI","","html-keyboard-response","178","156215","0.0-1.0-270.0","0","0","74459","","null","","","null","29","","","","","","","","","","","","","","","NaN",""
"","S1","","html-keyboard-response","179","156475","0.0-1.0-272.0","0","0","74459","","null","","","null","30","","","","","","","","","","","","","","","",""
"","ISI","","html-keyboard-response","180","156635","0.0-1.0-273.0","0","0","74459","","134","","","75","30","k","","","","","","","","","","","","","","",""
"","S2","","html-keyboard-response","181","156799","0.0-1.0-274.0","0","0","74459","","155","","","75","30","","k","1","30","training","adjacent","GF","7","6","O.jpg","Q.jpg","1","0","0","",""
"","feedback","","html-keyboard-response","182","157812","0.0-1.0-276.0-0.0","0","0","74459","","null","","","null","30","","","","","","","","","","","","","","","",""
"","time_out","","html-keyboard-response","183","159821","0.0-1.0-278.0-0.0","0","0","74459","","null","","","null","30","","","","","","","","","","","","","","","",""
"","ITI","","html-keyboard-response","184","160834","0.0-1.0-279.0","0","0","74459","","233","","","68","30","","","","","","","","","","","","","","","d",""
"","S1","","html-keyboard-response","185","161095","0.0-1.0-281.0","0","0","74459","","null","","","null","31","","","","","","","","","","","","","","","",""
"","ISI","","html-keyboard-response","186","161256","0.0-1.0-282.0","0","0","74459","","null","","","null","31","NaN","","","","","","","","","","","","","","",""
"","S2","","html-keyboard-response","187","161523","0.0-1.0-283.0","0","0","74459","","null","","","null","31","","NaN","","","","","","","","","","","","","",""
"","response","","html-keyboard-response","188","163284","0.0-1.0-284.0-0.0","0","0","74459","","null","","","null","31","","","1","31","training","adjacent","FE","6","5","Q.jpg","R.jpg","NaN","0","0","",""
"","too_slow_prompt","","html-keyboard-response","189","164298","0.0-1.0-286.0-0.0","1","0","74459","","null","","","null","","","","","","","","","","","","","","","","",""
"","time_out","","html-keyboard-response","190","166306","0.0-1.0-287.0-0.0","0","0","74459","","null","","","null","31","","","","","","","","","","","","","","","",""
"","ITI","","html-keyboard-response","191","167312","0.0-1.0-288.0","0","0","74459","","null","","","null","31","","","","","","","","","","","","","","","NaN",""
"","S1","","html-keyboard-response","192","167570","0.0-1.0-290.0","0","0","74459","","null","","","null","32","","","","","","","","","","","","","","","",""
"","ISI","","html-keyboard-response","193","167734","0.0-1.0-291.0","0","0","74459","","10","","","75","32","k","","","","","","","","","","","","","","",""
"","S2","","html-keyboard-response","194","167787","0.0-1.0-292.0","0","0","74459","","44","","","75","32","","k","1","32","training","adjacent","BA","2","1","L.jpg","N.jpg","1","0","0","",""
"","feedback","","html-keyboard-response","195","168799","0.0-1.0-294.0-0.0","0","0","74459","","null","","","null","32","","","","","","","","","","","","","","","",""
"","time_out","","html-keyboard-response","196","170809","0.0-1.0-296.0-0.0","0","0","74459","","null","","","null","32","","","","","","","","","","","","","","","",""
"","ITI","","html-keyboard-response","197","171822","0.0-1.0-297.0","0","0","74459","","362","","","68","32","","","","","","","","","","","","","","","d",""
"","S1","","html-keyboard-response","198","172090","0.0-1.0-299.0","0","0","74459","","null","","","null","33","","","","","","","","","","","","","","","",""
"","ISI","","html-keyboard-response","199","172251","0.0-1.0-300.0","0","0","74459","","103","","","68","33","d","","","","","","","","","","","","","","",""
"","S2","","html-keyboard-response","200","172510","0.0-1.0-301.0","0","0","74459","","null","","","null","33","","NaN","","","","","","","","","","","","","",""
"","response","","html-keyboard-response","201","172566","0.0-1.0-302.0-0.0","0","0","74459","","48","","","68","33","","","1","33","training","adjacent","FE","6","5","Q.jpg","R.jpg","0","0","1","",""
"","feedback","","html-keyboard-response","202","173581","0.0-1.0-303.0-0.0","0","0","74459","","null","","","null","33","","","","","","","","","","","","","","","",""
"","ITI","","html-keyboard-response","203","174594","0.0-1.0-306.0","0","0","74459","","null","","","null","33","","","","","","","","","","","","","","","NaN",""
"","S1","","html-keyboard-response","204","174852","0.0-1.0-308.0","0","0","74459","","null","","","null","34","","","","","","","","","","","","","","","",""
"","ISI","","html-keyboard-response","205","175014","0.0-1.0-309.0","0","0","74459","","null","","","null","34","NaN","","","","","","","","","","","","","","",""
"","S2","","html-keyboard-response","206","175091","0.0-1.0-310.0","0","0","74459","","68","","","75","34","","k","1","34","training","adjacent","ED","5","4","R.jpg","P.jpg","1","0","0","",""
"","feedback","","html-keyboard-response","207","176103","0.0-1.0-312.0-0.0","0","0","74459","","null","","","null","34","","","","","","","","","","","","","","","",""
"","time_out","","html-keyboard-response","208","178112","0.0-1.0-314.0-0.0","0","0","74459","","null","","","null","34","","","","","","","","","","","","","","","",""
"","ITI","","html-keyboard-response","209","179127","0.0-1.0-315.0","0","0","74459","","null","","","null","34","","","","","","","","","","","","","","","NaN",""
"","S1","","html-keyboard-response","210","179386","0.0-1.0-317.0","0","0","74459","","null","","","null","35","","","","","","","","","","","","","","","",""
"","ISI","","html-keyboard-response","211","179553","0.0-1.0-318.0","0","0","74459","","1","","","68","35","d","","","","","","","","","","","","","","",""
"","S2","","html-keyboard-response","212","179584","0.0-1.0-319.0","0","0","74459","","22","","","68","35","","d","1","35","training","adjacent","DC","4","3","P.jpg","M.jpg","0","0","1","",""
"","feedback","","html-keyboard-response","213","180594","0.0-1.0-321.0-0.0","0","0","74459","","null","","","null","35","","","","","","","","","","","","","","","",""
"","ITI","","html-keyboard-response","214","181601","0.0-1.0-324.0","0","0","74459","","null","","","null","35","","","","","","","","","","","","","","","NaN",""
"","S1","","html-keyboard-response","215","181860","0.0-1.0-326.0","0","0","74459","","null","","","null","36","","","","","","","","","","","","","","","",""
"","ISI","","html-keyboard-response","216","182022","0.0-1.0-327.0","0","0","74459","","null","","","null","36","NaN","","","","","","","","","","","","","","",""
"","S2","","html-keyboard-response","217","182281","0.0-1.0-328.0","0","0","74459","","null","","","null","36","","NaN","","","","","","","","","","","","","",""
"","response","","html-keyboard-response","218","182394","0.0-1.0-329.0-0.0","0","0","74459","","108","","","75","36","","","1","36","training","adjacent","CD","3","4","M.jpg","P.jpg","1","1","1","",""
"","feedback","","html-keyboard-response","219","183406","0.0-1.0-330.0-0.0","0","0","74459","","null","","","null","36","","","","","","","","","","","","","","","",""
"","ITI","","html-keyboard-response","220","184416","0.0-1.0-333.0","0","0","74459","","null","","","null","36","","","","","","","","","","","","","","","NaN",""
"","S1","","html-keyboard-response","221","184673","0.0-1.0-335.0","0","0","74459","","null","","","null","37","","","","","","","","","","","","","","","",""
"","ISI","","html-keyboard-response","222","184835","0.0-1.0-336.0","0","0","74459","","null","","","null","37","NaN","","","","","","","","","","","","","","",""
"","S2","","html-keyboard-response","223","184876","0.0-1.0-337.0","0","0","74459","","32","","","75","37","","k","1","37","training","adjacent","BC","2","3","L.jpg","M.jpg","1","1","1","",""
"","feedback","","html-keyboard-response","224","185887","0.0-1.0-339.0-0.0","0","0","74459","","null","","","null","37","","","","","","","","","","","","","","","",""
"","ITI","","html-keyboard-response","225","186901","0.0-1.0-342.0","0","0","74459","","null","","","null","37","","","","","","","","","","","","","","","NaN",""
"","S1","","html-keyboard-response","226","187160","0.0-1.0-344.0","0","0","74459","","null","","","null","38","","","","","","","","","","","","","","","",""
"","ISI","","html-keyboard-response","227","187321","0.0-1.0-345.0","0","0","74459","","null","","","null","38","NaN","","","","","","","","","","","","","","",""
"","S2","","html-keyboard-response","228","187472","0.0-1.0-346.0","0","0","74459","","140","","","75","38","","k","1","38","training","adjacent","BC","2","3","L.jpg","M.jpg","1","1","1","",""
"","feedback","","html-keyboard-response","229","188481","0.0-1.0-348.0-0.0","0","0","74459","","null","","","null","38","","","","","","","","","","","","","","","",""
"","ITI","","html-keyboard-response","230","189491","0.0-1.0-351.0","0","0","74459","","null","","","null","38","","","","","","","","","","","","","","","NaN",""
"","S1","","html-keyboard-response","231","189749","0.0-1.0-353.0","0","0","74459","","null","","","null","39","","","","","","","","","","","","","","","",""
"","ISI","","html-keyboard-response","232","189910","0.0-1.0-354.0","0","0","74459","","134","","","75","39","k","","","","","","","","","","","","","","",""
"","S2","","html-keyboard-response","233","190071","0.0-1.0-355.0","0","0","74459","","153","","","75","39","","k","1","39","training","adjacent","CB","3","2","M.jpg","L.jpg","1","0","0","",""
"","feedback","","html-keyboard-response","234","191086","0.0-1.0-357.0-0.0","0","0","74459","","null","","","null","39","","","","","","","","","","","","","","","",""
"","time_out","","html-keyboard-response","235","193101","0.0-1.0-359.0-0.0","0","0","74459","","null","","","null","39","","","","","","","","","","","","","","","",""
"","ITI","","html-keyboard-response","236","194112","0.0-1.0-360.0","0","0","74459","","null","","","null","39","","","","","","","","","","","","","","","NaN",""
"","S1","","html-keyboard-response","237","194369","0.0-1.0-362.0","0","0","74459","","null","","","null","40","","","","","","","","","","","","","","","",""
"","ISI","","html-keyboard-response","238","194531","0.0-1.0-363.0","0","0","74459","","10","","","68","40","d","","","","","","","","","","","","","","",""
"","S2","","html-keyboard-response","239","194605","0.0-1.0-364.0","0","0","74459","","66","","","68","40","","d","1","40","training","adjacent","FG","6","7","Q.jpg","O.jpg","0","1","0","",""
"","feedback","","html-keyboard-response","240","195620","0.0-1.0-366.0-0.0","0","0","74459","","null","","","null","40","","","","","","","","","","","","","","","",""
"","time_out","","html-keyboard-response","241","197631","0.0-1.0-368.0-0.0","0","0","74459","","null","","","null","40","","","","","","","","","","","","","","","",""
"","ITI","","html-keyboard-response","242","198645","0.0-1.0-369.0","0","0","74459","","485","","","75","40","","","","","","","","","","","","","","","k",""
"","S1","","html-keyboard-response","243","198903","0.0-1.0-371.0","0","0","74459","","null","","","null","41","","","","","","","","","","","","","","","",""
"","ISI","","html-keyboard-response","244","199065","0.0-1.0-372.0","0","0","74459","","130","","","75","41","k","","","","","","","","","","","","","","",""
"","S2","","html-keyboard-response","245","199332","0.0-1.0-373.0","0","0","74459","","null","","","null","41","","NaN","","","","","","","","","","","","","",""
"","response","","html-keyboard-response","246","199417","0.0-1.0-374.0-0.0","0","0","74459","","78","","","75","41","","","1","41","training","adjacent","CD","3","4","M.jpg","P.jpg","1","1","1","",""
"","feedback","","html-keyboard-response","247","200426","0.0-1.0-375.0-0.0","0","0","74459","","null","","","null","41","","","","","","","","","","","","","","","",""
"","ITI","","html-keyboard-response","248","201440","0.0-1.0-378.0","0","0","74459","","null","","","null","41","","","","","","","","","","","","","","","NaN",""
"","S1","","html-keyboard-response","249","201697","0.0-1.0-380.0","0","0","74459","","null","","","null","42","","","","","","","","","","","","","","","",""
"","ISI","","html-keyboard-response","250","201858","0.0-1.0-381.0","0","0","74459","","null","","","null","42","NaN","","","","","","","","","","","","","","",""
"","S2","","html-keyboard-response","251","201962","0.0-1.0-382.0","0","0","74459","","96","","","75","42","","k","1","42","training","adjacent","DC","4","3","P.jpg","M.jpg","1","0","0","",""
"","feedback","","html-keyboard-response","252","202977","0.0-1.0-384.0-0.0","0","0","74459","","null","","","null","42","","","","","","","","","","","","","","","",""
"","time_out","","html-keyboard-response","253","204987","0.0-1.0-386.0-0.0","0","0","74459","","null","","","null","42","","","","","","","","","","","","","","","",""
"","ITI","","html-keyboard-response","254","205997","0.0-1.0-387.0","0","0","74459","","null","","","null","42","","","","","","","","","","","","","","","NaN",""
"","S1","","html-keyboard-response","255","206259","0.0-1.0-389.0","0","0","74459","","null","","","null","43","","","","","","","","","","","","","","","",""
"","ISI","","html-keyboard-response","256","206417","0.0-1.0-390.0","0","0","74459","","120","","","68","43","d","","","","","","","","","","","","","","",""
"","S2","","html-keyboard-response","257","206676","0.0-1.0-391.0","0","0","74459","","null","","","null","43","","NaN","","","","","","","","","","","","","",""
"","response","","html-keyboard-response","258","206808","0.0-1.0-392.0-0.0","0","0","74459","","123","","","68","43","","","1","43","training","adjacent","BC","2","3","L.jpg","M.jpg","0","1","0","",""
"","feedback","","html-keyboard-response","259","207820","0.0-1.0-393.0-0.0","0","0","74459","","null","","","null","43","","","","","","","","","","","","","","","",""
"","time_out","","html-keyboard-response","260","209829","0.0-1.0-395.0-0.0","0","0","74459","","null","","","null","43","","","","","","","","","","","","","","","",""
"","ITI","","html-keyboard-response","261","210839","0.0-1.0-396.0","0","0","74459","","58","","","75","43","","","","","","","","","","","","","","","k",""
"","S1","","html-keyboard-response","262","211101","0.0-1.0-398.0","0","0","74459","","null","","","null","44","","","","","","","","","","","","","","","",""
"","ISI","","html-keyboard-response","263","211268","0.0-1.0-399.0","0","0","74459","","107","","","75","44","k","","","","","","","","","","","","","","",""
"","S2","","html-keyboard-response","264","211398","0.0-1.0-400.0","0","0","74459","","122","","","75","44","","k","1","44","training","adjacent","GF","7","6","O.jpg","Q.jpg","1","0","0","",""
"","feedback","","html-keyboard-response","265","212410","0.0-1.0-402.0-0.0","0","0","74459","","null","","","null","44","","","","","","","","","","","","","","","",""
"","time_out","","html-keyboard-response","266","214411","0.0-1.0-404.0-0.0","0","0","74459","","null","","","null","44","","","","","","","","","","","","","","","",""
"","ITI","","html-keyboard-response","267","215420","0.0-1.0-405.0","0","0","74459","","57","","","68","44","","","","","","","","","","","","","","","d",""
"","S1","","html-keyboard-response","268","215683","0.0-1.0-407.0","0","0","74459","","null","","","null","45","","","","","","","","","","","","","","","",""
"","ISI","","html-keyboard-response","269","215853","0.0-1.0-408.0","0","0","74459","","13","","","68","45","d","","","","","","","","","","","","","","",""
"","S2","","html-keyboard-response","270","216125","0.0-1.0-409.0","0","0","74459","","null","","","null","45","","NaN","","","","","","","","","","","","","",""
"","response","","html-keyboard-response","271","216226","0.0-1.0-410.0-0.0","0","0","74459","","94","","","68","45","","","1","45","training","adjacent","DE","4","5","P.jpg","R.jpg","0","1","0","",""
"","feedback","","html-keyboard-response","272","217239","0.0-1.0-411.0-0.0","0","0","74459","","null","","","null","45","","","","","","","","","","","","","","","",""
"","time_out","","html-keyboard-response","273","219250","0.0-1.0-413.0-0.0","0","0","74459","","null","","","null","45","","","","","","","","","","","","","","","",""
"","ITI","","html-keyboard-response","274","220260","0.0-1.0-414.0","0","0","74459","","43","","","75","45","","","","","","","","","","","","","","","k",""
"","S1","","html-keyboard-response","275","220519","0.0-1.0-416.0","0","0","74459","","null","","","null","46","","","","","","","","","","","","","","","",""
"","ISI","","html-keyboard-response","276","220678","0.0-1.0-417.0","0","0","74459","","32","","","75","46","k","","","","","","","","","","","","","","",""
"","S2","","html-keyboard-response","277","220776","0.0-1.0-418.0","0","0","74459","","89","","","75","46","","k","1","46","training","adjacent","EF","5","6","R.jpg","Q.jpg","1","1","1","",""
"","feedback","","html-keyboard-response","278","221791","0.0-1.0-420.0-0.0","0","0","74459","","null","","","null","46","","","","","","","","","","","","","","","",""
"","ITI","","html-keyboard-response","279","222805","0.0-1.0-423.0","0","0","74459","","null","","","null","46","","","","","","","","","","","","","","","NaN",""
"","S1","","html-keyboard-response","280","223063","0.0-1.0-425.0","0","0","74459","","null","","","null","47","","","","","","","","","","","","","","","",""
"","ISI","","html-keyboard-response","281","223224","0.0-1.0-426.0","0","0","74459","","93","","","75","47","k","","","","","","","","","","","","","","",""
"","S2","","html-keyboard-response","282","223381","0.0-1.0-427.0","0","0","74459","","148","","","75","47","","k","1","47","training","adjacent","BA","2","1","L.jpg","N.jpg","1","0","0","",""
"","feedback","","html-keyboard-response","283","224391","0.0-1.0-429.0-0.0","0","0","74459","","null","","","null","47","","","","","","","","","","","","","","","",""
"","time_out","","html-keyboard-response","284","226403","0.0-1.0-431.0-0.0","0","0","74459","","null","","","null","47","","","","","","","","","","","","","","","",""
"","ITI","","html-keyboard-response","285","227416","0.0-1.0-432.0","0","0","74459","","109","","","68","47","","","","","","","","","","","","","","","d",""
"","block_over","","html-keyboard-response","286","231383","0.0-1.0-433.0-0.0","0","0","74459","","3957","","","32","47","","","","","","","","","","","","","","","",""
"","S1","","html-keyboard-response","287","231647","0.0-1.0-434.0","0","0","74459","","null","","","null","48","","","","","","","","","","","","","","","",""
"","ISI","","html-keyboard-response","288","231809","0.0-1.0-435.0","0","0","74459","","null","","","null","48","NaN","","","","","","","","","","","","","","",""
"","S2","","html-keyboard-response","289","232068","0.0-1.0-436.0","0","0","74459","","250","","","75","48","","k","2","48","training","adjacent","FG","6","7","Q.jpg","O.jpg","1","1","1","",""
"","feedback","","html-keyboard-response","290","233083","0.0-1.0-438.0-0.0","0","0","74459","","null","","","null","48","","","","","","","","","","","","","","","",""
"","ITI","","html-keyboard-response","291","234091","0.0-1.0-441.0","0","0","74459","","null","","","null","48","","","","","","","","","","","","","","","NaN",""
"","S1","","html-keyboard-response","292","234360","0.0-1.0-443.0","0","0","74459","","null","","","null","49","","","","","","","","","","","","","","","",""
"","ISI","","html-keyboard-response","293","234522","0.0-1.0-444.0","0","0","74459","","9","","","75","49","k","","","","","","","","","","","","","","",""
"","S2","","html-keyboard-response","294","234548","0.0-1.0-445.0","0","0","74459","","18","","","75","49","","k","2","49","training","adjacent","BA","2","1","L.jpg","N.jpg","1","0","0","",""
"","feedback","","html-keyboard-response","295","235561","0.0-1.0-447.0-0.0","0","0","74459","","null","","","null","49","","","","","","","","","","","","","","","",""
"","time_out","","html-keyboard-response","296","237572","0.0-1.0-449.0-0.0","0","0","74459","","null","","","null","49","","","","","","","","","","","","","","","",""
"","ITI","","html-keyboard-response","297","238586","0.0-1.0-450.0","0","0","74459","","317","","","68","49","","","","","","","","","","","","","","","d",""
"","S1","","html-keyboard-response","298","238853","0.0-1.0-452.0","0","0","74459","","null","","","null","50","","","","","","","","","","","","","","","",""
"","ISI","","html-keyboard-response","299","239012","0.0-1.0-453.0","0","0","74459","","2","","","68","50","d","","","","","","","","","","","","","","",""
"","S2","","html-keyboard-response","300","239037","0.0-1.0-454.0","0","0","74459","","16","","","68","50","","d","2","50","training","adjacent","GF","7","6","O.jpg","Q.jpg","0","0","1","",""
"","feedback","","html-keyboard-response","301","240051","0.0-1.0-456.0-0.0","0","0","74459","","null","","","null","50","","","","","","","","","","","","","","","",""
"","ITI","","html-keyboard-response","302","241063","0.0-1.0-459.0","0","0","74459","","null","","","null","50","","","","","","","","","","","","","","","NaN",""
"","S1","","html-keyboard-response","303","241320","0.0-1.0-461.0","0","0","74459","","null","","","null","51","","","","","","","","","","","","","","","",""
"","ISI","","html-keyboard-response","304","241482","0.0-1.0-462.0","0","0","74459","","52","","","75","51","k","","","","","","","","","","","","","","",""
"","S2","","html-keyboard-response","305","241582","0.0-1.0-463.0","0","0","74459","","91","","","75","51","","k","2","51","training","adjacent","DC","4","3","P.jpg","M.jpg","1","0","0","",""
"","feedback","","html-keyboard-response","306","242596","0.0-1.0-465.0-0.0","0","0","74459","","null","","","null","51","","","","","","","","","","","","","","","",""
"","time_out","","html-keyboard-response","307","244606","0.0-1.0-467.0-0.0","0","0","74459","","null","","","null","51","","","","","","","","","","","","","","","",""
"","ITI","","html-keyboard-response","308","245620","0.0-1.0-468.0","0","0","74459","","280","","","68","51","","","","","","","","","","","","","","","d",""
"","S1","","html-keyboard-response","309","245885","0.0-1.0-470.0","0","0","74459","","null","","","null","52","","","","","","","","","","","","","","","",""
"","ISI","","html-keyboard-response","310","246054","0.0-1.0-471.0","0","0","74459","","126","","","75","52","k","","","","","","","","","","","","","","",""
"","S2","","html-keyboard-response","311","246310","0.0-1.0-472.0","0","0","74459","","249","","","68","52","","d","2","52","training","adjacent","EF","5","6","R.jpg","Q.jpg","0","1","0","",""
"","feedback","","html-keyboard-response","312","247321","0.0-1.0-474.0-0.0","0","0","74459","","null","","","null","52","","","","","","","","","","","","","","","",""
"","time_out","","html-keyboard-response","313","249329","0.0-1.0-476.0-0.0","0","0","74459","","null","","","null","52","","","","","","","","","","","","","","","",""
"","ITI","","html-keyboard-response","314","250339","0.0-1.0-477.0","0","0","74459","","null","","","null","52","","","","","","","","","","","","","","","NaN",""
"","S1","","html-keyboard-response","315","250597","0.0-1.0-479.0","0","0","74459","","null","","","null","53","","","","","","","","","","","","","","","",""
"","ISI","","html-keyboard-response","316","250759","0.0-1.0-480.0","0","0","74459","","18","","","68","53","d","","","","","","","","","","","","","","",""
"","S2","","html-keyboard-response","317","250809","0.0-1.0-481.0","0","0","74459","","42","","","68","53","","d","2","53","training","adjacent","BC","2","3","L.jpg","M.jpg","0","1","0","",""
"","feedback","","html-keyboard-response","318","251824","0.0-1.0-483.0-0.0","0","0","74459","","null","","","null","53","","","","","","","","","","","","","","","",""
"","time_out","","html-keyboard-response","319","253834","0.0-1.0-485.0-0.0","0","0","74459","","null","","","null","53","","","","","","","","","","","","","","","",""
"","ITI","","html-keyboard-response","320","254845","0.0-1.0-486.0","0","0","74459","","null","","","null","53","","","","","","","","","","","","","","","NaN",""
"","S1","","html-keyboard-response","321","255103","0.0-1.0-488.0","0","0","74459","","null","","","null","54","","","","","","","","","","","","","","","",""
"","ISI","","html-keyboard-response","322","255264","0.0-1.0-489.0","0","0","74459","","null","","","null","54","NaN","","","","","","","","","","","","","","",""
"","S2","","html-keyboard-response","323","255465","0.0-1.0-490.0","0","0","74459","","192","","","75","54","","k","2","54","training","adjacent","CB","3","2","M.jpg","L.jpg","1","0","0","",""
"","feedback","","html-keyboard-response","324","256478","0.0-1.0-492.0-0.0","0","0","74459","","null","","","null","54","","","","","","","","","","","","","","","",""
"","time_out","","html-keyboard-response","325","258485","0.0-1.0-494.0-0.0","0","0","74459","","null","","","null","54","","","","","","","","","","","","","","","",""
"","ITI","","html-keyboard-response","326","259500","0.0-1.0-495.0","0","0","74459","","null","","","null","54","","","","","","","","","","","","","","","NaN",""
"","S1","","html-keyboard-response","327","259760","0.0-1.0-497.0","0","0","74459","","null","","","null","55","","","","","","","","","","","","","","","",""
"","ISI","","html-keyboard-response","328","259929","0.0-1.0-498.0","0","0","74459","","1","","","68","55","d","","","","","","","","","","","","","","",""
"","S2","","html-keyboard-response","329","259993","0.0-1.0-499.0","0","0","74459","","55","","","68","55","","d","2","55","training","adjacent","BA","2","1","L.jpg","N.jpg","0","0","1","",""
"","feedback","","html-keyboard-response","330","261007","0.0-1.0-501.0-0.0","0","0","74459","","null","","","null","55","","","","","","","","","","","","","","","",""
"","ITI","","html-keyboard-response","331","262021","0.0-1.0-504.0","0","0","74459","","null","","","null","55","","","","","","","","","","","","","","","NaN",""
"","S1","","html-keyboard-response","332","262279","0.0-1.0-506.0","0","0","74459","","null","","","null","56","","","","","","","","","","","","","","","",""
"","ISI","","html-keyboard-response","333","262440","0.0-1.0-507.0","0","0","74459","","109","","","75","56","k","","","","","","","","","","","","","","",""
"","S2","","html-keyboard-response","334","262595","0.0-1.0-508.0","0","0","74459","","146","","","75","56","","k","2","56","training","adjacent","GF","7","6","O.jpg","Q.jpg","1","0","0","",""
"","feedback","","html-keyboard-response","335","263610","0.0-1.0-510.0-0.0","0","0","74459","","null","","","null","56","","","","","","","","","","","","","","","",""
"","time_out","","html-keyboard-response","336","265619","0.0-1.0-512.0-0.0","0","0","74459","","null","","","null","56","","","","","","","","","","","","","","","",""
"","ITI","","html-keyboard-response","337","266627","0.0-1.0-513.0","0","0","74459","","null","","","null","56","","","","","","","","","","","","","","","NaN",""
"","S1","","html-keyboard-response","338","266885","0.0-1.0-515.0","0","0","74459","","null","","","null","57","","","","","","","","","","","","","","","",""
"","ISI","","html-keyboard-response","339","267047","0.0-1.0-516.0","0","0","74459","","50","","","75","57","k","","","","","","","","","","","","","","",""
"","S2","","html-keyboard-response","340","267107","0.0-1.0-517.0","0","0","74459","","50","","","75","57","","k","2","57","training","adjacent","ED","5","4","R.jpg","P.jpg","1","0","0","",""
"","feedback","","html-keyboard-response","341","268120","0.0-1.0-519.0-0.0","0","0","74459","","null","","","null","57","","","","","","","","","","","","","","","",""
"","time_out","","html-keyboard-response","342","270130","0.0-1.0-521.0-0.0","0","0","74459","","null","","","null","57","","","","","","","","","","","","","","","",""
"","ITI","","html-keyboard-response","343","271137","0.0-1.0-522.0","0","0","74459","","null","","","null","57","","","","","","","","","","","","","","","NaN",""
"","S1","","html-keyboard-response","344","271397","0.0-1.0-524.0","0","0","74459","","null","","","null","58","","","","","","","","","","","","","","","",""
"","ISI","","html-keyboard-response","345","271559","0.0-1.0-525.0","0","0","74459","","129","","","68","58","d","","","","","","","","","","","","","","",""
"","S2","","html-keyboard-response","346","271747","0.0-1.0-526.0","0","0","74459","","180","","","68","58","","d","2","58","training","adjacent","BA","2","1","L.jpg","N.jpg","0","0","1","",""
"","feedback","","html-keyboard-response","347","272764","0.0-1.0-528.0-0.0","0","0","74459","","null","","","null","58","","","","","","","","","","","","","","","",""
"","ITI","","html-keyboard-response","348","273777","0.0-1.0-531.0","0","0","74459","","null","","","null","58","","","","","","","","","","","","","","","NaN",""
"","S1","","html-keyboard-response","349","274035","0.0-1.0-533.0","0","0","74459","","null","","","null","59","","","","","","","","","","","","","","","",""
"","ISI","","html-keyboard-response","350","274197","0.0-1.0-534.0","0","0","74459","","83","","","75","59","k","","","","","","","","","","","","","","",""
"","S2","","html-keyboard-response","351","274286","0.0-1.0-535.0","0","0","74459","","79","","","75","59","","k","2","59","training","adjacent","DE","4","5","P.jpg","R.jpg","1","1","1","",""
"","feedback","","html-keyboard-response","352","275297","0.0-1.0-537.0-0.0","0","0","74459","","null","","","null","59","","","","","","","","","","","","","","","",""
"","ITI","","html-keyboard-response","353","276310","0.0-1.0-540.0","0","0","74459","","null","","","null","59","","","","","","","","","","","","","","","NaN",""
"","S1","","html-keyboard-response","354","276567","0.0-1.0-542.0","0","0","74459","","null","","","null","60","","","","","","","","","","","","","","","",""
"","ISI","","html-keyboard-response","355","276730","0.0-1.0-543.0","0","0","74459","","null","","","null","60","NaN","","","","","","","","","","","","","","",""
"","S2","","html-keyboard-response","356","276817","0.0-1.0-544.0","0","0","74459","","79","","","75","60","","k","2","60","training","adjacent","BC","2","3","L.jpg","M.jpg","1","1","1","",""
"","feedback","","html-keyboard-response","357","277832","0.0-1.0-546.0-0.0","0","0","74459","","null","","","null","60","","","","","","","","","","","","","","","",""
"","ITI","","html-keyboard-response","358","278842","0.0-1.0-549.0","0","0","74459","","null","","","null","60","","","","","","","","","","","","","","","NaN",""
"","S1","","html-keyboard-response","359","279102","0.0-1.0-551.0","0","0","74459","","null","","","null","61","","","","","","","","","","","","","","","",""
"","ISI","","html-keyboard-response","360","279263","0.0-1.0-552.0","0","0","74459","","null","","","null","61","NaN","","","","","","","","","","","","","","",""
"","S2","","html-keyboard-response","361","279304","0.0-1.0-553.0","0","0","74459","","32","","","68","61","","d","2","61","training","adjacent","DE","4","5","P.jpg","R.jpg","0","1","0","",""
"","feedback","","html-keyboard-response","362","280318","0.0-1.0-555.0-0.0","0","0","74459","","null","","","null","61","","","","","","","","","","","","","","","",""
"","time_out","","html-keyboard-response","363","282327","0.0-1.0-557.0-0.0","0","0","74459","","null","","","null","61","","","","","","","","","","","","","","","",""
"","ITI","","html-keyboard-response","364","283339","0.0-1.0-558.0","0","0","74459","","null","","","null","61","","","","","","","","","","","","","","","NaN",""
"","S1","","html-keyboard-response","365","283600","0.0-1.0-560.0","0","0","74459","","null","","","null","62","","","","","","","","","","","","","","","",""
"","ISI","","html-keyboard-response","366","283758","0.0-1.0-561.0","0","0","74459","","null","","","null","62","NaN","","","","","","","","","","","","","","",""
"","S2","","html-keyboard-response","367","283825","0.0-1.0-562.0","0","0","74459","","58","","","75","62","","k","2","62","training","adjacent","AB","1","2","N.jpg","L.jpg","1","1","1","",""
"","feedback","","html-keyboard-response","368","284835","0.0-1.0-564.0-0.0","0","0","74459","","null","","","null","62","","","","","","","","","","","","","","","",""
"","ITI","","html-keyboard-response","369","285842","0.0-1.0-567.0","0","0","74459","","null","","","null","62","","","","","","","","","","","","","","","NaN",""
"","S1","","html-keyboard-response","370","286101","0.0-1.0-569.0","0","0","74459","","null","","","null","63","","","","","","","","","","","","","","","",""
"","ISI","","html-keyboard-response","371","286264","0.0-1.0-570.0","0","0","74459","","null","","","null","63","NaN","","","","","","","","","","","","","","",""
"","S2","","html-keyboard-response","372","286351","0.0-1.0-571.0","0","0","74459","","78","","","68","63","","d","2","63","training","adjacent","FG","6","7","Q.jpg","O.jpg","0","1","0","",""
"","feedback","","html-keyboard-response","373","287367","0.0-1.0-573.0-0.0","0","0","74459","","null","","","null","63","","","","","","","","","","","","","","","",""
"","time_out","","html-keyboard-response","374","289374","0.0-1.0-575.0-0.0","0","0","74459","","null","","","null","63","","","","","","","","","","","","","","","",""
"","ITI","","html-keyboard-response","375","290387","0.0-1.0-576.0","0","0","74459","","null","","","null","63","","","","","","","","","","","","","","","NaN",""
"","S1","","html-keyboard-response","376","290645","0.0-1.0-578.0","0","0","74459","","null","","","null","64","","","","","","","","","","","","","","","",""
"","ISI","","html-keyboard-response","377","290806","0.0-1.0-579.0","0","0","74459","","null","","","null","64","NaN","","","","","","","","","","","","","","",""
"","S2","","html-keyboard-response","378","290841","0.0-1.0-580.0","0","0","74459","","27","","","75","64","","k","2","64","training","adjacent","AB","1","2","N.jpg","L.jpg","1","1","1","",""
"","feedback","","html-keyboard-response","379","291850","0.0-1.0-582.0-0.0","0","0","74459","","null","","","null","64","","","","","","","","","","","","","","","",""
"","ITI","","html-keyboard-response","380","292860","0.0-1.0-585.0","0","0","74459","","null","","","null","64","","","","","","","","","","","","","","","NaN",""
"","S1","","html-keyboard-response","381","293119","0.0-1.0-587.0","0","0","74459","","null","","","null","65","","","","","","","","","","","","","","","",""
"","ISI","","html-keyboard-response","382","293282","0.0-1.0-588.0","0","0","74459","","null","","","null","65","NaN","","","","","","","","","","","","","","",""
"","S2","","html-keyboard-response","383","293485","0.0-1.0-589.0","0","0","74459","","194","","","75","65","","k","2","65","training","adjacent","ED","5","4","R.jpg","P.jpg","1","0","0","",""
"","feedback","","html-keyboard-response","384","294497","0.0-1.0-591.0-0.0","0","0","74459","","null","","","null","65","","","","","","","","","","","","","","","",""
"","time_out","","html-keyboard-response","385","296507","0.0-1.0-593.0-0.0","0","0","74459","","null","","","null","65","","","","","","","","","","","","","","","",""
"","ITI","","html-keyboard-response","386","297519","0.0-1.0-594.0","0","0","74459","","null","","","null","65","","","","","","","","","","","","","","","NaN",""
"","S1","","html-keyboard-response","387","297778","0.0-1.0-596.0","0","0","74459","","null","","","null","66","","","","","","","","","","","","","","","",""
"","ISI","","html-keyboard-response","388","297939","0.0-1.0-597.0","0","0","74459","","109","","","68","66","d","","","","","","","","","","","","","","",""
"","S2","","html-keyboard-response","389","298201","0.0-1.0-598.0","0","0","74459","","null","","","null","66","","NaN","","","","","","","","","","","","","",""
"","response","","html-keyboard-response","390","298367","0.0-1.0-599.0-0.0","0","0","74459","","158","","","68","66","","","2","66","training","adjacent","DC","4","3","P.jpg","M.jpg","0","0","1","",""
"","feedback","","html-keyboard-response","391","299375","0.0-1.0-600.0-0.0","0","0","74459","","null","","","null","66","","","","","","","","","","","","","","","",""
"","ITI","","html-keyboard-response","392","300384","0.0-1.0-603.0","0","0","74459","","null","","","null","66","","","","","","","","","","","","","","","NaN",""
"","S1","","html-keyboard-response","393","300643","0.0-1.0-605.0","0","0","74459","","null","","","null","67","","","","","","","","","","","","","","","",""
"","ISI","","html-keyboard-response","394","300805","0.0-1.0-606.0","0","0","74459","","null","","","null","67","NaN","","","","","","","","","","","","","","",""
"","S2","","html-keyboard-response","395","300893","0.0-1.0-607.0","0","0","74459","","79","","","75","67","","k","2","67","training","adjacent","ED","5","4","R.jpg","P.jpg","1","0","0","",""
"","feedback","","html-keyboard-response","396","301907","0.0-1.0-609.0-0.0","0","0","74459","","null","","","null","67","","","","","","","","","","","","","","","",""
"","time_out","","html-keyboard-response","397","303918","0.0-1.0-611.0-0.0","0","0","74459","","null","","","null","67","","","","","","","","","","","","","","","",""
"","ITI","","html-keyboard-response","398","304931","0.0-1.0-612.0","0","0","74459","","null","","","null","67","","","","","","","","","","","","","","","NaN",""
"","S1","","html-keyboard-response","399","305188","0.0-1.0-614.0","0","0","74459","","null","","","null","68","","","","","","","","","","","","","","","",""
"","ISI","","html-keyboard-response","400","305351","0.0-1.0-615.0","0","0","74459","","null","","","null","68","NaN","","","","","","","","","","","","","","",""
"","S2","","html-keyboard-response","401","305454","0.0-1.0-616.0","0","0","74459","","94","","","68","68","","d","2","68","training","adjacent","GF","7","6","O.jpg","Q.jpg","0","0","1","",""
"","feedback","","html-keyboard-response","402","306463","0.0-1.0-618.0-0.0","0","0","74459","","null","","","null","68","","","","","","","","","","","","","","","",""
"","ITI","","html-keyboard-response","403","307476","0.0-1.0-621.0","0","0","74459","","null","","","null","68","","","","","","","","","","","","","","","NaN",""
"","S1","","html-keyboard-response","404","307735","0.0-1.0-623.0","0","0","74459","","null","","","null","69","","","","","","","","","","","","","","","",""
"","ISI","","html-keyboard-response","405","307898","0.0-1.0-624.0","0","0","74459","","null","","","null","69","NaN","","","","","","","","","","","","","","",""
"","S2","","html-keyboard-response","406","308099","0.0-1.0-625.0","0","0","74459","","190","","","68","69","","d","2","69","training","adjacent","DC","4","3","P.jpg","M.jpg","0","0","1","",""
"","feedback","","html-keyboard-response","407","309109","0.0-1.0-627.0-0.0","0","0","74459","","null","","","null","69","","","","","","","","","","","","","","","",""
"","ITI","","html-keyboard-response","408","310121","0.0-1.0-630.0","0","0","74459","","null","","","null","69","","","","","","","","","","","","","","","NaN",""
"","S1","","html-keyboard-response","409","310378","0.0-1.0-632.0","0","0","74459","","null","","","null","70","","","","","","","","","","","","","","","",""
"","ISI","","html-keyboard-response","410","310535","0.0-1.0-633.0","0","0","74459","","150","","","68","70","d","","","","","","","","","","","","","","",""
"","S2","","html-keyboard-response","411","310798","0.0-1.0-634.0","0","0","74459","","null","","","null","70","","NaN","","","","","","","","","","","","","",""
"","response","","html-keyboard-response","412","310961","0.0-1.0-635.0-0.0","0","0","74459","","155","","","68","70","","","2","70","training","adjacent","CD","3","4","M.jpg","P.jpg","0","1","0","",""
"","feedback","","html-keyboard-response","413","311974","0.0-1.0-636.0-0.0","0","0","74459","","null","","","null","70","","","","","","","","","","","","","","","",""
"","time_out","","html-keyboard-response","414","313983","0.0-1.0-638.0-0.0","0","0","74459","","null","","","null","70","","","","","","","","","","","","","","","",""
"","ITI","","html-keyboard-response","415","314997","0.0-1.0-639.0","0","0","74459","","null","","","null","70","","","","","","","","","","","","","","","NaN",""
"","S1","","html-keyboard-response","416","315255","0.0-1.0-641.0","0","0","74459","","null","","","null","71","","","","","","","","","","","","","","","",""
"","ISI","","html-keyboard-response","417","315417","0.0-1.0-642.0","0","0","74459","","40","","","75","71","k","","","","","","","","","","","","","","",""
"","S2","","html-keyboard-response","418","315680","0.0-1.0-643.0","0","0","74459","","253","","","75","71","","k","2","71","training","adjacent","CB","3","2","M.jpg","L.jpg","1","0","0","",""
"","feedback","","html-keyboard-response","419","316694","0.0-1.0-645.0-0.0","0","0","74459","","null","","","null","71","","","","","","","","","","","","","","","",""
"","time_out","","html-keyboard-response","420","318709","0.0-1.0-647.0-0.0","0","0","74459","","null","","","null","71","","","","","","","","","","","","","","","",""
"","ITI","","html-keyboard-response","421","319716","0.0-1.0-648.0","0","0","74459","","null","","","null","71","","","","","","","","","","","","","","","NaN",""
"","S1","","html-keyboard-response","422","319974","0.0-1.0-650.0","0","0","74459","","null","","","null","72","","","","","","","","","","","","","","","",""
"","ISI","","html-keyboard-response","423","320135","0.0-1.0-651.0","0","0","74459","","137","","","68","72","d","","","","","","","","","","","","","","",""
"","S2","","html-keyboard-response","424","320400","0.0-1.0-652.0","0","0","74459","","null","","","null","72","","NaN","","","","","","","","","","","","","",""
"","response","","html-keyboard-response","425","320437","0.0-1.0-653.0-0.0","0","0","74459","","30","","","68","72","","","2","72","training","adjacent","FE","6","5","Q.jpg","R.jpg","0","0","1","",""
"","feedback","","html-keyboard-response","426","321447","0.0-1.0-654.0-0.0","0","0","74459","","null","","","null","72","","","","","","","","","","","","","","","",""
"","ITI","","html-keyboard-response","427","322456","0.0-1.0-657.0","0","0","74459","","null","","","null","72","","","","","","","","","","","","","","","NaN",""
"","S1","","html-keyboard-response","428","322715","0.0-1.0-659.0","0","0","74459","","null","","","null","73","","","","","","","","","","","","","","","",""
"","ISI","","html-keyboard-response","429","322877","0.0-1.0-660.0","0","0","74459","","null","","","null","73","NaN","","","","","","","","","","","","","","",""
"","S2","","html-keyboard-response","430","322984","0.0-1.0-661.0","0","0","74459","","98","","","68","73","","d","2","73","training","adjacent","FE","6","5","Q.jpg","R.jpg","0","0","1","",""
"","feedback","","html-keyboard-response","431","323997","0.0-1.0-663.0-0.0","0","0","74459","","null","","","null","73","","","","","","","","","","","","","","","",""
"","ITI","","html-keyboard-response","432","325010","0.0-1.0-666.0","0","0","74459","","null","","","null","73","","","","","","","","","","","","","","","NaN",""
"","S1","","html-keyboard-response","433","325268","0.0-1.0-668.0","0","0","74459","","null","","","null","74","","","","","","","","","","","","","","","",""
"","ISI","","html-keyboard-response","434","325431","0.0-1.0-669.0","0","0","74459","","null","","","null","74","NaN","","","","","","","","","","","","","","",""
"","S2","","html-keyboard-response","435","325439","0.0-1.0-670.0","0","0","74459","","0","","","75","74","","k","2","74","training","adjacent","AB","1","2","N.jpg","L.jpg","1","1","1","",""
"","feedback","","html-keyboard-response","436","326449","0.0-1.0-672.0-0.0","0","0","74459","","null","","","null","74","","","","","","","","","","","","","","","",""
"","ITI","","html-keyboard-response","437","327456","0.0-1.0-675.0","0","0","74459","","null","","","null","74","","","","","","","","","","","","","","","NaN",""
"","S1","","html-keyboard-response","438","327715","0.0-1.0-677.0","0","0","74459","","null","","","null","75","","","","","","","","","","","","","","","",""
"","ISI","","html-keyboard-response","439","327877","0.0-1.0-678.0","0","0","74459","","null","","","null","75","NaN","","","","","","","","","","","","","","",""
"","S2","","html-keyboard-response","440","327995","0.0-1.0-679.0","0","0","74459","","109","","","75","75","","k","2","75","training","adjacent","DE","4","5","P.jpg","R.jpg","1","1","1","",""
"","feedback","","html-keyboard-response","441","329009","0.0-1.0-681.0-0.0","0","0","74459","","null","","","null","75","","","","","","","","","","","","","","","",""
"","ITI","","html-keyboard-response","442","330022","0.0-1.0-684.0","0","0","74459","","null","","","null","75","","","","","","","","","","","","","","","NaN",""
"","S1","","html-keyboard-response","443","330282","0.0-1.0-686.0","0","0","74459","","null","","","null","76","","","","","","","","","","","","","","","",""
"","ISI","","html-keyboard-response","444","330442","0.0-1.0-687.0","0","0","74459","","92","","","68","76","d","","","","","","","","","","","","","","",""
"","S2","","html-keyboard-response","445","330709","0.0-1.0-688.0","0","0","74459","","null","","","null","76","","NaN","","","","","","","","","","","","","",""
"","response","","html-keyboard-response","446","331148","0.0-1.0-689.0-0.0","0","0","74459","","431","","","75","76","","","2","76","training","adjacent","DC","4","3","P.jpg","M.jpg","1","0","0","",""
"","feedback","","html-keyboard-response","447","332156","0.0-1.0-690.0-0.0","0","0","74459","","null","","","null","76","","","","","","","","","","","","","","","",""
"","time_out","","html-keyboard-response","448","334167","0.0-1.0-692.0-0.0","0","0","74459","","null","","","null","76","","","","","","","","","","","","","","","",""
"","ITI","","html-keyboard-response","449","335175","0.0-1.0-693.0","0","0","74459","","null","","","null","76","","","","","","","","","","","","","","","NaN",""
"","S1","","html-keyboard-response","450","335434","0.0-1.0-695.0","0","0","74459","","null","","","null","77","","","","","","","","","","","","","","","",""
"","ISI","","html-keyboard-response","451","335599","0.0-1.0-696.0","0","0","74459","","null","","","null","77","NaN","","","","","","","","","","","","","","",""
"","S2","","html-keyboard-response","452","335673","0.0-1.0-697.0","0","0","74459","","63","","","68","77","","d","2","77","training","adjacent","ED","5","4","R.jpg","P.jpg","0","0","1","",""
"","feedback","","html-keyboard-response","453","336682","0.0-1.0-699.0-0.0","0","0","74459","","null","","","null","77","","","","","","","","","","","","","","","",""
"","ITI","","html-keyboard-response","454","337689","0.0-1.0-702.0","0","0","74459","","null","","","null","77","","","","","","","","","","","","","","","NaN",""
"","S1","","html-keyboard-response","455","337949","0.0-1.0-704.0","0","0","74459","","null","","","null","78","","","","","","","","","","","","","","","",""
"","ISI","","html-keyboard-response","456","338113","0.0-1.0-705.0","0","0","74459","","null","","","null","78","NaN","","","","","","","","","","","","","","",""
"","S2","","html-keyboard-response","457","338350","0.0-1.0-706.0","0","0","74459","","227","","","75","78","","k","2","78","training","adjacent","BC","2","3","L.jpg","M.jpg","1","1","1","",""
"","feedback","","html-keyboard-response","458","339361","0.0-1.0-708.0-0.0","0","0","74459","","null","","","null","78","","","","","","","","","","","","","","","",""
"","ITI","","html-keyboard-response","459","340373","0.0-1.0-711.0","0","0","74459","","null","","","null","78","","","","","","","","","","","","","","","NaN",""
"","S1","","html-keyboard-response","460","340633","0.0-1.0-713.0","0","0","74459","","null","","","null","79","","","","","","","","","","","","","","","",""
"","ISI","","html-keyboard-response","461","340793","0.0-1.0-714.0","0","0","74459","","null","","","null","79","NaN","","","","","","","","","","","","","","",""
"","S2","","html-keyboard-response","462","341053","0.0-1.0-715.0","0","0","74459","","null","","","null","79","","NaN","","","","","","","","","","","","","",""
"","response","","html-keyboard-response","463","341120","0.0-1.0-716.0-0.0","0","0","74459","","60","","","68","79","","","2","79","training","adjacent","EF","5","6","R.jpg","Q.jpg","0","1","0","",""
"","feedback","","html-keyboard-response","464","342131","0.0-1.0-717.0-0.0","0","0","74459","","null","","","null","79","","","","","","","","","","","","","","","",""
"","time_out","","html-keyboard-response","465","344139","0.0-1.0-719.0-0.0","0","0","74459","","null","","","null","79","","","","","","","","","","","","","","","",""
"","ITI","","html-keyboard-response","466","345145","0.0-1.0-720.0","0","0","74459","","554","","","75","79","","","","","","","","","","","","","","","k",""
"","S1","","html-keyboard-response","467","345405","0.0-1.0-722.0","0","0","74459","","null","","","null","80","","","","","","","","","","","","","","","",""
"","ISI","","html-keyboard-response","468","345569","0.0-1.0-723.0","0","0","74459","","null","","","null","80","NaN","","","","","","","","","","","","","","",""
"","S2","","html-keyboard-response","469","345754","0.0-1.0-724.0","0","0","74459","","177","","","75","80","","k","2","80","training","adjacent","FG","6","7","Q.jpg","O.jpg","1","1","1","",""
"","feedback","","html-keyboard-response","470","346768","0.0-1.0-726.0-0.0","0","0","74459","","null","","","null","80","","","","","","","","","","","","","","","",""
"","ITI","","html-keyboard-response","471","347778","0.0-1.0-729.0","0","0","74459","","null","","","null","80","","","","","","","","","","","","","","","NaN",""
"","S1","","html-keyboard-response","472","348036","0.0-1.0-731.0","0","0","74459","","null","","","null","81","","","","","","","","","","","","","","","",""
"","ISI","","html-keyboard-response","473","348198","0.0-1.0-732.0","0","0","74459","","null","","","null","81","NaN","","","","","","","","","","","","","","",""
"","S2","","html-keyboard-response","474","348465","0.0-1.0-733.0","0","0","74459","","null","","","null","81","","NaN","","","","","","","","","","","","","",""
"","response","","html-keyboard-response","475","349928","0.0-1.0-734.0-0.0","0","0","74459","","1455","","","75","81","","","2","81","training","adjacent","EF","5","6","R.jpg","Q.jpg","1","1","1","",""
"","feedback","","html-keyboard-response","476","350939","0.0-1.0-735.0-0.0","0","0","74459","","null","","","null","81","","","","","","","","","","","","","","","",""
"","ITI","","html-keyboard-response","477","351952","0.0-1.0-738.0","0","0","74459","","null","","","null","81","","","","","","","","","","","","","","","NaN",""
"","S1","","html-keyboard-response","478","352210","0.0-1.0-740.0","0","0","74459","","null","","","null","82","","","","","","","","","","","","","","","",""
"","ISI","","html-keyboard-response","479","352371","0.0-1.0-741.0","0","0","74459","","null","","","null","82","NaN","","","","","","","","","","","","","","",""
"","S2","","html-keyboard-response","480","352579","0.0-1.0-742.0","0","0","74459","","198","","","75","82","","k","2","82","training","adjacent","CB","3","2","M.jpg","L.jpg","1","0","0","",""
"","feedback","","html-keyboard-response","481","353592","0.0-1.0-744.0-0.0","0","0","74459","","null","","","null","82","","","","","","","","","","","","","","","",""
"","time_out","","html-keyboard-response","482","355600","0.0-1.0-746.0-0.0","0","0","74459","","null","","","null","82","","","","","","","","","","","","","","","",""
"","ITI","","html-keyboard-response","483","356607","0.0-1.0-747.0","0","0","74459","","362","","","68","82","","","","","","","","","","","","","","","d",""
"","S1","","html-keyboard-response","484","356867","0.0-1.0-749.0","0","0","74459","","null","","","null","83","","","","","","","","","","","","","","","",""
"","ISI","","html-keyboard-response","485","357029","0.0-1.0-750.0","0","0","74459","","68","","","68","83","d","","","","","","","","","","","","","","",""
"","S2","","html-keyboard-response","486","357288","0.0-1.0-751.0","0","0","74459","","null","","","null","83","","NaN","","","","","","","","","","","","","",""
"","response","","html-keyboard-response","487","357426","0.0-1.0-752.0-0.0","0","0","74459","","130","","","68","83","","","2","83","training","adjacent","DE","4","5","P.jpg","R.jpg","0","1","0","",""
"","feedback","","html-keyboard-response","488","358439","0.0-1.0-753.0-0.0","0","0","74459","","null","","","null","83","","","","","","","","","","","","","","","",""
"","time_out","","html-keyboard-response","489","360449","0.0-1.0-755.0-0.0","0","0","74459","","null","","","null","83","","","","","","","","","","","","","","","",""
"","ITI","","html-keyboard-response","490","361460","0.0-1.0-756.0","0","0","74459","","215","","","76","83","","","","","","","","","","","","","","","l",""
"","S1","","html-keyboard-response","491","361718","0.0-1.0-758.0","0","0","74459","","null","","","null","84","","","","","","","","","","","","","","","",""
"","ISI","","html-keyboard-response","492","361880","0.0-1.0-759.0","0","0","74459","","103","","","75","84","k","","","","","","","","","","","","","","",""
"","S2","","html-keyboard-response","493","362002","0.0-1.0-760.0","0","0","74459","","113","","","75","84","","k","2","84","training","adjacent","FE","6","5","Q.jpg","R.jpg","1","0","0","",""
"","feedback","","html-keyboard-response","494","363010","0.0-1.0-762.0-0.0","0","0","74459","","null","","","null","84","","","","","","","","","","","","","","","",""
"","time_out","","html-keyboard-response","495","365021","0.0-1.0-764.0-0.0","0","0","74459","","null","","","null","84","","","","","","","","","","","","","","","",""
"","ITI","","html-keyboard-response","496","366033","0.0-1.0-765.0","0","0","74459","","4","","","75","84","","","","","","","","","","","","","","","k",""
"","S1","","html-keyboard-response","497","366292","0.0-1.0-767.0","0","0","74459","","null","","","null","85","","","","","","","","","","","","","","","",""
"","ISI","","html-keyboard-response","498","366453","0.0-1.0-768.0","0","0","74459","","64","","","75","85","k","","","","","","","","","","","","","","",""
"","S2","","html-keyboard-response","499","366543","0.0-1.0-769.0","0","0","74459","","82","","","75","85","","k","2","85","training","adjacent","EF","5","6","R.jpg","Q.jpg","1","1","1","",""
"","feedback","","html-keyboard-response","500","367552","0.0-1.0-771.0-0.0","0","0","74459","","null","","","null","85","","","","","","","","","","","","","","","",""
"","ITI","","html-keyboard-response","501","368565","0.0-1.0-774.0","0","0","74459","","62","","","75","85","","","","","","","","","","","","","","","k",""
"","S1","","html-keyboard-response","502","368825","0.0-1.0-776.0","0","0","74459","","null","","","null","86","","","","","","","","","","","","","","","",""
"","ISI","","html-keyboard-response","503","368988","0.0-1.0-777.0","0","0","74459","","119","","","75","86","k","","","","","","","","","","","","","","",""
"","S2","","html-keyboard-response","504","369119","0.0-1.0-778.0","0","0","74459","","123","","","75","86","","k","2","86","training","adjacent","CD","3","4","M.jpg","P.jpg","1","1","1","",""
"","feedback","","html-keyboard-response","505","370128","0.0-1.0-780.0-0.0","0","0","74459","","null","","","null","86","","","","","","","","","","","","","","","",""
"","ITI","","html-keyboard-response","506","371144","0.0-1.0-783.0","0","0","74459","","113","","","75","86","","","","","","","","","","","","","","","k",""
"","S1","","html-keyboard-response","507","371407","0.0-1.0-785.0","0","0","74459","","null","","","null","87","","","","","","","","","","","","","","","",""
"","ISI","","html-keyboard-response","508","371569","0.0-1.0-786.0","0","0","74459","","null","","","null","87","NaN","","","","","","","","","","","","","","",""
"","S2","","html-keyboard-response","509","371599","0.0-1.0-787.0","0","0","74459","","21","","","75","87","","k","2","87","training","adjacent","FG","6","7","Q.jpg","O.jpg","1","1","1","",""
"","feedback","","html-keyboard-response","510","372615","0.0-1.0-789.0-0.0","0","0","74459","","null","","","null","87","","","","","","","","","","","","","","","",""
"","ITI","","html-keyboard-response","511","373628","0.0-1.0-792.0","0","0","74459","","505","","","75","87","","","","","","","","","","","","","","","k",""
"","S1","","html-keyboard-response","512","373893","0.0-1.0-794.0","0","0","74459","","null","","","null","88","","","","","","","","","","","","","","","",""
"","ISI","","html-keyboard-response","513","374057","0.0-1.0-795.0","0","0","74459","","36","","","75","88","k","","","","","","","","","","","","","","",""
"","S2","","html-keyboard-response","514","374321","0.0-1.0-796.0","0","0","74459","","null","","","null","88","","NaN","","","","","","","","","","","","","",""
"","response","","html-keyboard-response","515","374348","0.0-1.0-797.0-0.0","0","0","74459","","19","","","75","88","","","2","88","training","adjacent","CB","3","2","M.jpg","L.jpg","1","0","0","",""
"","feedback","","html-keyboard-response","516","375358","0.0-1.0-798.0-0.0","0","0","74459","","null","","","null","88","","","","","","","","","","","","","","","",""
"","time_out","","html-keyboard-response","517","377367","0.0-1.0-800.0-0.0","0","0","74459","","null","","","null","88","","","","","","","","","","","","","","","",""
"","ITI","","html-keyboard-response","518","378380","0.0-1.0-801.0","0","0","74459","","41","","","75","88","","","","","","","","","","","","","","","k",""
"","S1","","html-keyboard-response","519","378637","0.0-1.0-803.0","0","0","74459","","null","","","null","89","","","","","","","","","","","","","","","",""
"","ISI","","html-keyboard-response","520","378802","0.0-1.0-804.0","0","0","74459","","148","","","75","89","k","","","","","","","","","","","","","","",""
"","S2","","html-keyboard-response","521","378983","0.0-1.0-805.0","0","0","74459","","172","","","75","89","","k","2","89","training","adjacent","CD","3","4","M.jpg","P.jpg","1","1","1","",""
"","feedback","","html-keyboard-response","522","379997","0.0-1.0-807.0-0.0","0","0","74459","","null","","","null","89","","","","","","","","","","","","","","","",""
"","ITI","","html-keyboard-response","523","381007","0.0-1.0-810.0","0","0","74459","","64","","","75","89","","","","","","","","","","","","","","","k",""
"","S1","","html-keyboard-response","524","381266","0.0-1.0-812.0","0","0","74459","","null","","","null","90","","","","","","","","","","","","","","","",""
"","ISI","","html-keyboard-response","525","381429","0.0-1.0-813.0","0","0","74459","","83","","","75","90","k","","","","","","","","","","","","","","",""
"","S2","","html-keyboard-response","526","381613","0.0-1.0-814.0","0","0","74459","","173","","","75","90","","k","2","90","training","adjacent","AB","1","2","N.jpg","L.jpg","1","1","1","",""
"","feedback","","html-keyboard-response","527","382630","0.0-1.0-816.0-0.0","0","0","74459","","null","","","null","90","","","","","","","","","","","","","","","",""
"","ITI","","html-keyboard-response","528","383638","0.0-1.0-819.0","0","0","74459","","467","","","75","90","","","","","","","","","","","","","","","k",""
"","S1","","html-keyboard-response","529","383898","0.0-1.0-821.0","0","0","74459","","null","","","null","91","","","","","","","","","","","","","","","",""
"","ISI","","html-keyboard-response","530","384059","0.0-1.0-822.0","0","0","74459","","null","","","null","91","NaN","","","","","","","","","","","","","","",""
"","S2","","html-keyboard-response","531","384140","0.0-1.0-823.0","0","0","74459","","72","","","75","91","","k","2","91","training","adjacent","FE","6","5","Q.jpg","R.jpg","1","0","0","",""
"","feedback","","html-keyboard-response","532","385154","0.0-1.0-825.0-0.0","0","0","74459","","null","","","null","91","","","","","","","","","","","","","","","",""
"","time_out","","html-keyboard-response","533","387166","0.0-1.0-827.0-0.0","0","0","74459","","null","","","null","91","","","","","","","","","","","","","","","",""
"","ITI","","html-keyboard-response","534","388172","0.0-1.0-828.0","0","0","74459","","405","","","75","91","","","","","","","","","","","","","","","k",""
"","S1","","html-keyboard-response","535","388431","0.0-1.0-830.0","0","0","74459","","null","","","null","92","","","","","","","","","","","","","","","",""
"","ISI","","html-keyboard-response","536","388592","0.0-1.0-831.0","0","0","74459","","30","","","75","92","k","","","","","","","","","","","","","","",""
"","S2","","html-keyboard-response","537","388663","0.0-1.0-832.0","0","0","74459","","61","","","75","92","","k","2","92","training","adjacent","CD","3","4","M.jpg","P.jpg","1","1","1","",""
"","feedback","","html-keyboard-response","538","389679","0.0-1.0-834.0-0.0","0","0","74459","","null","","","null","92","","","","","","","","","","","","","","","",""
"","ITI","","html-keyboard-response","539","390692","0.0-1.0-837.0","0","0","74459","","null","","","null","92","","","","","","","","","","","","","","","NaN",""
"","S1","","html-keyboard-response","540","390952","0.0-1.0-839.0","0","0","74459","","null","","","null","93","","","","","","","","","","","","","","","",""
"","ISI","","html-keyboard-response","541","391117","0.0-1.0-840.0","0","0","74459","","null","","","null","93","NaN","","","","","","","","","","","","","","",""
"","S2","","html-keyboard-response","542","391380","0.0-1.0-841.0","0","0","74459","","null","","","null","93","","NaN","","","","","","","","","","","","","",""
"","response","","html-keyboard-response","543","391731","0.0-1.0-842.0-0.0","0","0","74459","","343","","","75","93","","","2","93","training","adjacent","GF","7","6","O.jpg","Q.jpg","1","0","0","",""
"","feedback","","html-keyboard-response","544","392741","0.0-1.0-843.0-0.0","0","0","74459","","null","","","null","93","","","","","","","","","","","","","","","",""
"","time_out","","html-keyboard-response","545","394750","0.0-1.0-845.0-0.0","0","0","74459","","null","","","null","93","","","","","","","","","","","","","","","",""
"","ITI","","html-keyboard-response","546","395762","0.0-1.0-846.0","0","0","74459","","null","","","null","93","","","","","","","","","","","","","","","NaN",""
"","S1","","html-keyboard-response","547","396019","0.0-1.0-848.0","0","0","74459","","null","","","null","94","","","","","","","","","","","","","","","",""
"","ISI","","html-keyboard-response","548","396181","0.0-1.0-849.0","0","0","74459","","21","","","75","94","k","","","","","","","","","","","","","","",""
"","S2","","html-keyboard-response","549","396332","0.0-1.0-850.0","0","0","74459","","143","","","75","94","","k","2","94","training","adjacent","BC","2","3","L.jpg","M.jpg","1","1","1","",""
"","feedback","","html-keyboard-response","550","397345","0.0-1.0-852.0-0.0","0","0","74459","","null","","","null","94","","","","","","","","","","","","","","","",""
"","ITI","","html-keyboard-response","551","398356","0.0-1.0-855.0","0","0","74459","","null","","","null","94","","","","","","","","","","","","","","","NaN",""
"","S1","","html-keyboard-response","552","398617","0.0-1.0-857.0","0","0","74459","","null","","","null","95","","","","","","","","","","","","","","","",""
"","ISI","","html-keyboard-response","553","398779","0.0-1.0-858.0","0","0","74459","","null","","","null","95","NaN","","","","","","","","","","","","","","",""
"","S2","","html-keyboard-response","554","399040","0.0-1.0-859.0","0","0","74459","","null","","","null","95","","NaN","","","","","","","","","","","","","",""
"","response","","html-keyboard-response","555","399113","0.0-1.0-860.0-0.0","0","0","74459","","65","","","75","95","","","2","95","training","adjacent","BA","2","1","L.jpg","N.jpg","1","0","0","",""
"","feedback","","html-keyboard-response","556","400128","0.0-1.0-861.0-0.0","0","0","74459","","null","","","null","95","","","","","","","","","","","","","","","",""
"","time_out","","html-keyboard-response","557","402143","0.0-1.0-863.0-0.0","0","0","74459","","null","","","null","95","","","","","","","","","","","","","","","",""
"","ITI","","html-keyboard-response","558","403153","0.0-1.0-864.0","0","0","74459","","null","","","null","95","","","","","","","","","","","","","","","NaN",""
"","block_over","","html-keyboard-response","559","406462","0.0-1.0-865.0-0.0","0","0","74459","","3300","","","32","95","","","","","","","","","","","","","","","",""
"","S1","","html-keyboard-response","560","406719","0.0-1.0-866.0","0","0","74459","","null","","","null","96","","","","","","","","","","","","","","","",""
"","ISI","","html-keyboard-response","561","406881","0.0-1.0-867.0","0","0","74459","","148","","","75","96","k","","","","","","","","","","","","","","",""
"","S2","","html-keyboard-response","562","407141","0.0-1.0-868.0","0","0","74459","","null","","","null","96","","NaN","","","","","","","","","","","","","",""
"","response","","html-keyboard-response","563","407239","0.0-1.0-869.0-0.0","0","0","74459","","89","","","75","96","","","3","96","training","adjacent","AB","1","2","N.jpg","L.jpg","1","1","1","",""
"","feedback","","html-keyboard-response","564","408255","0.0-1.0-870.0-0.0","0","0","74459","","null","","","null","96","","","","","","","","","","","","","","","",""
"","ITI","","html-keyboard-response","565","409267","0.0-1.0-873.0","0","0","74459","","null","","","null","96","","","","","","","","","","","","","","","NaN",""
"","S1","","html-keyboard-response","566","409527","0.0-1.0-875.0","0","0","74459","","null","","","null","97","","","","","","","","","","","","","","","",""
"","ISI","","html-keyboard-response","567","409686","0.0-1.0-876.0","0","0","74459","","40","","","75","97","k","","","","","","","","","","","","","","",""
"","S2","","html-keyboard-response","568","409817","0.0-1.0-877.0","0","0","74459","","123","","","75","97","","k","3","97","training","adjacent","BC","2","3","L.jpg","M.jpg","1","1","1","",""
"","feedback","","html-keyboard-response","569","410828","0.0-1.0-879.0-0.0","0","0","74459","","null","","","null","97","","","","","","","","","","","","","","","",""
"","ITI","","html-keyboard-response","570","411844","0.0-1.0-882.0","0","0","74459","","null","","","null","97","","","","","","","","","","","","","","","NaN",""
"","S1","","html-keyboard-response","571","412101","0.0-1.0-884.0","0","0","74459","","null","","","null","98","","","","","","","","","","","","","","","",""
"","ISI","","html-keyboard-response","572","412258","0.0-1.0-885.0","0","0","74459","","30","","","75","98","k","","","","","","","","","","","","","","",""
"","S2","","html-keyboard-response","573","412525","0.0-1.0-886.0","0","0","74459","","258","","","75","98","","k","3","98","training","adjacent","DE","4","5","P.jpg","R.jpg","1","1","1","",""
"","feedback","","html-keyboard-response","574","413536","0.0-1.0-888.0-0.0","0","0","74459","","null","","","null","98","","","","","","","","","","","","","","","",""
"","ITI","","html-keyboard-response","575","414547","0.0-1.0-891.0","0","0","74459","","null","","","null","98","","","","","","","","","","","","","","","NaN",""
"","S1","","html-keyboard-response","576","414806","0.0-1.0-893.0","0","0","74459","","null","","","null","99","","","","","","","","","","","","","","","",""
"","ISI","","html-keyboard-response","577","414969","0.0-1.0-894.0","0","0","74459","","13","","","75","99","k","","","","","","","","","","","","","","",""
"","S2","","html-keyboard-response","578","415087","0.0-1.0-895.0","0","0","74459","","109","","","75","99","","k","3","99","training","adjacent","FG","6","7","Q.jpg","O.jpg","1","1","1","",""
"","feedback","","html-keyboard-response","579","416100","0.0-1.0-897.0-0.0","0","0","74459","","null","","","null","99","","","","","","","","","","","","","","","",""
"","ITI","","html-keyboard-response","580","417111","0.0-1.0-900.0","0","0","74459","","null","","","null","99","","","","","","","","","","","","","","","NaN",""
"","S1","","html-keyboard-response","581","417370","0.0-1.0-902.0","0","0","74459","","null","","","null","100","","","","","","","","","","","","","","","",""
"","ISI","","html-keyboard-response","582","417528","0.0-1.0-903.0","0","0","74459","","45","","","75","100","k","","","","","","","","","","","","","","",""
"","S2","","html-keyboard-response","583","417659","0.0-1.0-904.0","0","0","74459","","121","","","75","100","","k","3","100","training","adjacent","BA","2","1","L.jpg","N.jpg","1","0","0","",""
"","feedback","","html-keyboard-response","584","418672","0.0-1.0-906.0-0.0","0","0","74459","","null","","","null","100","","","","","","","","","","","","","","","",""
"","time_out","","html-keyboard-response","585","420681","0.0-1.0-908.0-0.0","0","0","74459","","null","","","null","100","","","","","","","","","","","","","","","",""
"","ITI","","html-keyboard-response","586","421694","0.0-1.0-909.0","0","0","74459","","null","","","null","100","","","","","","","","","","","","","","","NaN",""
