"success","ttype","start_time","trial_type","trial_index","time_elapsed","internal_node_id","warning","missed_checkup","PID","view_history","rt","responses","repeat_instructions","key_press","index","keypress_isi","keypress_S2","block","trial_num","phase","group_type","pair_type","S1_stim","S2_stim","S1_img","S2_img","S1_chosen","S1_higher","accuracy","keypress_iti","total_bonus_tally"
"true","full_screen","d08012022hr1404","fullscreen","0","7765","0.0-0.0","0","0","70038","","","","","","","","","","","","","","","","","","","","","",""
"","instructions","","instructions","1","90661","0.0-1.0-0.0-0.0","0","0","70038","[{""page_index"":0,""viewing_time"":67491},{""page_index"":1,""viewing_time"":7399},{""page_index"":2,""viewing_time"":4288},{""page_index"":3,""viewing_time"":3712}]","82891","","","","","","","","","","","","","","","","","","","",""
"","comprehension_check","","survey-multi-choice","2","108473","0.0-1.0-0.0-1.0","0","0","70038","","17806","{""Q0"":""True"",""Q1"":""D"",""Q2"":""While the images are shown"",""Q3"":""Green mark"",""Q4"":""either D or K""}","1","","","","","","","","","","","","","","","","","",""
"","missed_instruction_checkup","","html-keyboard-response","3","110496","0.0-1.0-0.0-2.0-0.0","0","1","70038","","2018","","","32","","","","","","","","","","","","","","","","",""
"","instructions","","instructions","4","121443","0.0-1.0-0.1-0.1","0","0","70038","[{""page_index"":0,""viewing_time"":2612},{""page_index"":1,""viewing_time"":5171},{""page_index"":2,""viewing_time"":2152},{""page_index"":3,""viewing_time"":1010}]","10946","","","","","","","","","","","","","","","","","","","",""
"","comprehension_check","","survey-multi-choice","5","127276","0.0-1.0-0.1-1.1","0","0","70038","","5826","{""Q0"":""True"",""Q1"":""D"",""Q2"":""When you see the prompt 'MAKE A CHOICE' after the second image was presented"",""Q3"":""Green mark"",""Q4"":""either D or K""}","0","","","","","","","","","","","","","","","","","",""
"","start_exp","","html-keyboard-response","6","129340","0.0-1.0-1.0","0","0","70038","","2062","","","32","","","","","","","","","","","","","","","","",""
"","S1","","html-keyboard-response","7","129596","0.0-1.0-2.0","0","0","70038","","null","","","null","0","","","","","","","","","","","","","","","",""
"","ISI","","html-keyboard-response","8","131614","0.0-1.0-3.0","0","0","70038","","576","","","68","0","d","","","","","","","","","","","","","","",""
"","S2","","html-keyboard-response","9","131880","0.0-1.0-4.0","0","0","70038","","null","","","null","0","","NaN","","","","","","","","","","","","","",""
"","response","","html-keyboard-response","10","132458","0.0-1.0-5.0","0","0","70038","","575","","","75","0","","","1","0","training","adjacent","CB","3","2","L.jpg","M.jpg","0","0","1","",""
"","feedback","","html-keyboard-response","11","133463","0.0-1.0-6.0-0.0","0","0","70038","","null","","","null","0","","","","","","","","","","","","","","","",""
"","ITI","","html-keyboard-response","12","134476","0.0-1.0-9.0","0","0","70038","","null","","","null","0","","","","","","","","","","","","","","","NaN",""
"","S1","","html-keyboard-response","13","134743","0.0-1.0-11.0","0","0","70038","","null","","","null","1","","","","","","","","","","","","","","","",""
"","ISI","","html-keyboard-response","14","136756","0.0-1.0-12.0","0","0","70038","","null","","","null","1","NaN","","","","","","","","","","","","","","",""
"","S2","","html-keyboard-response","15","137021","0.0-1.0-13.0","0","0","70038","","null","","","null","1","","NaN","","","","","","","","","","","","","",""
"","response","","html-keyboard-response","16","137497","0.0-1.0-14.0","0","0","70038","","473","","","75","1","","","1","1","training","adjacent","DE","4","5","R.jpg","P.jpg","0","1","0","",""
"","feedback","","html-keyboard-response","17","138505","0.0-1.0-15.0-0.0","0","0","70038","","null","","","null","1","","","","","","","","","","","","","","","",""
"","time_out","","html-keyboard-response","18","140520","0.0-1.0-17.0-0.0","0","0","70038","","null","","","null","1","","","","","","","","","","","","","","","",""
"","ITI","","html-keyboard-response","19","141539","0.0-1.0-18.0","0","0","70038","","null","","","null","1","","","","","","","","","","","","","","","NaN",""
"","S1","","html-keyboard-response","20","141801","0.0-1.0-20.0","0","0","70038","","null","","","null","2","","","","","","","","","","","","","","","",""
"","ISI","","html-keyboard-response","21","143806","0.0-1.0-21.0","0","0","70038","","null","","","null","2","NaN","","","","","","","","","","","","","","",""
"","S2","","html-keyboard-response","22","144069","0.0-1.0-22.0","0","0","70038","","null","","","null","2","","NaN","","","","","","","","","","","","","",""
"","response","","html-keyboard-response","23","144444","0.0-1.0-23.0","0","0","70038","","371","","","68","2","","","1","2","training","adjacent","CB","3","2","L.jpg","M.jpg","1","0","0","",""
"","feedback","","html-keyboard-response","24","145455","0.0-1.0-24.0-0.0","0","0","70038","","null","","","null","2","","","","","","","","","","","","","","","",""
"","time_out","","html-keyboard-response","25","147462","0.0-1.0-26.0-0.0","0","0","70038","","null","","","null","2","","","","","","","","","","","","","","","",""
"","ITI","","html-keyboard-response","26","148468","0.0-1.0-27.0","0","0","70038","","null","","","null","2","","","","","","","","","","","","","","","NaN",""
"","S1","","html-keyboard-response","27","148731","0.0-1.0-29.0","0","0","70038","","null","","","null","3","","","","","","","","","","","","","","","",""
"","ISI","","html-keyboard-response","28","150738","0.0-1.0-30.0","0","0","70038","","null","","","null","3","NaN","","","","","","","","","","","","","","",""
"","S2","","html-keyboard-response","29","151003","0.0-1.0-31.0","0","0","70038","","null","","","null","3","","NaN","","","","","","","","","","","","","",""
"","response","","html-keyboard-response","30","151348","0.0-1.0-32.0","0","0","70038","","341","","","68","3","","","1","3","training","adjacent","ED","5","4","P.jpg","R.jpg","1","0","0","",""
"","feedback","","html-keyboard-response","31","152365","0.0-1.0-33.0-0.0","0","0","70038","","null","","","null","3","","","","","","","","","","","","","","","",""
"","time_out","","html-keyboard-response","32","154369","0.0-1.0-35.0-0.0","0","0","70038","","null","","","null","3","","","","","","","","","","","","","","","",""
"","ITI","","html-keyboard-response","33","155378","0.0-1.0-36.0","0","0","70038","","null","","","null","3","","","","","","","","","","","","","","","NaN",""
"","S1","","html-keyboard-response","34","155640","0.0-1.0-38.0","0","0","70038","","null","","","null","4","","","","","","","","","","","","","","","",""
"","ISI","","html-keyboard-response","35","157648","0.0-1.0-39.0","0","0","70038","","null","","","null","4","NaN","","","","","","","","","","","","","","",""
"","S2","","html-keyboard-response","36","157902","0.0-1.0-40.0","0","0","70038","","null","","","null","4","","NaN","","","","","","","","","","","","","",""
"","response","","html-keyboard-response","37","158293","0.0-1.0-41.0","0","0","70038","","389","","","75","4","","","1","4","training","adjacent","CB","3","2","L.jpg","M.jpg","0","0","1","",""
"","feedback","","html-keyboard-response","38","159312","0.0-1.0-42.0-0.0","0","0","70038","","null","","","null","4","","","","","","","","","","","","","","","",""
"","ITI","","html-keyboard-response","39","160318","0.0-1.0-45.0","0","0","70038","","null","","","null","4","","","","","","","","","","","","","","","NaN",""
"","S1","","html-keyboard-response","40","160580","0.0-1.0-47.0","0","0","70038","","null","","","null","5","","","","","","","","","","","","","","","",""
"","ISI","","html-keyboard-response","41","162592","0.0-1.0-48.0","0","0","70038","","null","","","null","5","NaN","","","","","","","","","","","","","","",""
"","S2","","html-keyboard-response","42","162855","0.0-1.0-49.0","0","0","70038","","null","","","null","5","","NaN","","","","","","","","","","","","","",""
"","response","","html-keyboard-response","43","162994","0.0-1.0-50.0","0","0","70038","","138","","","68","5","","","1","5","training","adjacent","DC","4","3","R.jpg","L.jpg","1","0","0","",""
"","feedback","","html-keyboard-response","44","164003","0.0-1.0-51.0-0.0","0","0","70038","","null","","","null","5","","","","","","","","","","","","","","","",""
"","time_out","","html-keyboard-response","45","166007","0.0-1.0-53.0-0.0","0","0","70038","","null","","","null","5","","","","","","","","","","","","","","","",""
"","ITI","","html-keyboard-response","46","167014","0.0-1.0-54.0","0","0","70038","","null","","","null","5","","","","","","","","","","","","","","","NaN",""
"","S1","","html-keyboard-response","47","167277","0.0-1.0-56.0","0","0","70038","","null","","","null","6","","","","","","","","","","","","","","","",""
"","ISI","","html-keyboard-response","48","169289","0.0-1.0-57.0","0","0","70038","","null","","","null","6","NaN","","","","","","","","","","","","","","",""
"","S2","","html-keyboard-response","49","169542","0.0-1.0-58.0","0","0","70038","","null","","","null","6","","NaN","","","","","","","","","","","","","",""
"","response","","html-keyboard-response","50","169739","0.0-1.0-59.0","0","0","70038","","195","","","75","6","","","1","6","training","adjacent","ED","5","4","P.jpg","R.jpg","0","0","1","",""
"","feedback","","html-keyboard-response","51","170753","0.0-1.0-60.0-0.0","0","0","70038","","null","","","null","6","","","","","","","","","","","","","","","",""
"","ITI","","html-keyboard-response","52","171759","0.0-1.0-63.0","0","0","70038","","null","","","null","6","","","","","","","","","","","","","","","NaN",""
"","S1","","html-keyboard-response","53","172014","0.0-1.0-65.0","0","0","70038","","null","","","null","7","","","","","","","","","","","","","","","",""
"","ISI","","html-keyboard-response","54","174026","0.0-1.0-66.0","0","0","70038","","null","","","null","7","NaN","","","","","","","","","","","","","","",""
"","S2","","html-keyboard-response","55","174292","0.0-1.0-67.0","0","0","70038","","null","","","null","7","","NaN","","","","","","","","","","","","","",""
"","response","","html-keyboard-response","56","175052","0.0-1.0-68.0","0","0","70038","","756","","","68","7","","","1","7","training","adjacent","GF","7","6","N.jpg","O.jpg","1","0","0","",""
"","feedback","","html-keyboard-response","57","176063","0.0-1.0-69.0-0.0","0","0","70038","","null","","","null","7","","","","","","","","","","","","","","","",""
"","time_out","","html-keyboard-response","58","178072","0.0-1.0-71.0-0.0","0","0","70038","","null","","","null","7","","","","","","","","","","","","","","","",""
"","ITI","","html-keyboard-response","59","179078","0.0-1.0-72.0","0","0","70038","","null","","","null","7","","","","","","","","","","","","","","","NaN",""
"","S1","","html-keyboard-response","60","179341","0.0-1.0-74.0","0","0","70038","","null","","","null","8","","","","","","","","","","","","","","","",""
"","ISI","","html-keyboard-response","61","181348","0.0-1.0-75.0","0","0","70038","","null","","","null","8","NaN","","","","","","","","","","","","","","",""
"","S2","","html-keyboard-response","62","181613","0.0-1.0-76.0","0","0","70038","","null","","","null","8","","NaN","","","","","","","","","","","","","",""
"","response","","html-keyboard-response","63","181766","0.0-1.0-77.0","0","0","70038","","152","","","68","8","","","1","8","training","adjacent","BA","2","1","M.jpg","Q.jpg","1","0","0","",""
"","feedback","","html-keyboard-response","64","182770","0.0-1.0-78.0-0.0","0","0","70038","","null","","","null","8","","","","","","","","","","","","","","","",""
"","time_out","","html-keyboard-response","65","184777","0.0-1.0-80.0-0.0","0","0","70038","","null","","","null","8","","","","","","","","","","","","","","","",""
"","ITI","","html-keyboard-response","66","185792","0.0-1.0-81.0","0","0","70038","","null","","","null","8","","","","","","","","","","","","","","","NaN",""
"","S1","","html-keyboard-response","67","186054","0.0-1.0-83.0","0","0","70038","","null","","","null","9","","","","","","","","","","","","","","","",""
"","ISI","","html-keyboard-response","68","188066","0.0-1.0-84.0","0","0","70038","","null","","","null","9","NaN","","","","","","","","","","","","","","",""
"","S2","","html-keyboard-response","69","188333","0.0-1.0-85.0","0","0","70038","","null","","","null","9","","NaN","","","","","","","","","","","","","",""
"","response","","html-keyboard-response","70","188713","0.0-1.0-86.0","0","0","70038","","378","","","75","9","","","1","9","training","adjacent","BA","2","1","M.jpg","Q.jpg","0","0","1","",""
"","feedback","","html-keyboard-response","71","189721","0.0-1.0-87.0-0.0","0","0","70038","","null","","","null","9","","","","","","","","","","","","","","","",""
"","ITI","","html-keyboard-response","72","190725","0.0-1.0-90.0","0","0","70038","","null","","","null","9","","","","","","","","","","","","","","","NaN",""
"","S1","","html-keyboard-response","73","190987","0.0-1.0-92.0","0","0","70038","","null","","","null","10","","","","","","","","","","","","","","","",""
"","ISI","","html-keyboard-response","74","192998","0.0-1.0-93.0","0","0","70038","","null","","","null","10","NaN","","","","","","","","","","","","","","",""
"","S2","","html-keyboard-response","75","193264","0.0-1.0-94.0","0","0","70038","","null","","","null","10","","NaN","","","","","","","","","","","","","",""
"","response","","html-keyboard-response","76","193634","0.0-1.0-95.0","0","0","70038","","367","","","68","10","","","1","10","training","adjacent","DE","4","5","R.jpg","P.jpg","1","1","1","",""
"","feedback","","html-keyboard-response","77","194640","0.0-1.0-96.0-0.0","0","0","70038","","null","","","null","10","","","","","","","","","","","","","","","",""
"","ITI","","html-keyboard-response","78","195647","0.0-1.0-99.0","0","0","70038","","null","","","null","10","","","","","","","","","","","","","","","NaN",""
"","S1","","html-keyboard-response","79","195908","0.0-1.0-101.0","0","0","70038","","null","","","null","11","","","","","","","","","","","","","","","",""
"","ISI","","html-keyboard-response","80","197918","0.0-1.0-102.0","0","0","70038","","null","","","null","11","NaN","","","","","","","","","","","","","","",""
"","S2","","html-keyboard-response","81","198182","0.0-1.0-103.0","0","0","70038","","null","","","null","11","","NaN","","","","","","","","","","","","","",""
"","response","","html-keyboard-response","82","198477","0.0-1.0-104.0","0","0","70038","","293","","","75","11","","","1","11","training","adjacent","EF","5","6","P.jpg","O.jpg","0","1","0","",""
"","feedback","","html-keyboard-response","83","199494","0.0-1.0-105.0-0.0","0","0","70038","","null","","","null","11","","","","","","","","","","","","","","","",""
"","time_out","","html-keyboard-response","84","201511","0.0-1.0-107.0-0.0","0","0","70038","","null","","","null","11","","","","","","","","","","","","","","","",""
"","ITI","","html-keyboard-response","85","202515","0.0-1.0-108.0","0","0","70038","","null","","","null","11","","","","","","","","","","","","","","","NaN",""
"","S1","","html-keyboard-response","86","202777","0.0-1.0-110.0","0","0","70038","","null","","","null","12","","","","","","","","","","","","","","","",""
"","ISI","","html-keyboard-response","87","204793","0.0-1.0-111.0","0","0","70038","","null","","","null","12","NaN","","","","","","","","","","","","","","",""
"","S2","","html-keyboard-response","88","205058","0.0-1.0-112.0","0","0","70038","","null","","","null","12","","NaN","","","","","","","","","","","","","",""
"","response","","html-keyboard-response","89","205892","0.0-1.0-113.0","0","0","70038","","832","","","68","12","","","1","12","training","adjacent","CD","3","4","L.jpg","R.jpg","1","1","1","",""
"","feedback","","html-keyboard-response","90","206899","0.0-1.0-114.0-0.0","0","0","70038","","null","","","null","12","","","","","","","","","","","","","","","",""
"","ITI","","html-keyboard-response","91","207902","0.0-1.0-117.0","0","0","70038","","null","","","null","12","","","","","","","","","","","","","","","NaN",""
"","S1","","html-keyboard-response","92","208169","0.0-1.0-119.0","0","0","70038","","null","","","null","13","","","","","","","","","","","","","","","",""
"","ISI","","html-keyboard-response","93","210178","0.0-1.0-120.0","0","0","70038","","null","","","null","13","NaN","","","","","","","","","","","","","","",""
"","S2","","html-keyboard-response","94","210444","0.0-1.0-121.0","0","0","70038","","null","","","null","13","","NaN","","","","","","","","","","","","","",""
"","response","","html-keyboard-response","95","211105","0.0-1.0-122.0","0","0","70038","","658","","","68","13","","","1","13","training","adjacent","AB","1","2","Q.jpg","M.jpg","1","1","1","",""
"","feedback","","html-keyboard-response","96","212110","0.0-1.0-123.0-0.0","0","0","70038","","null","","","null","13","","","","","","","","","","","","","","","",""
"","ITI","","html-keyboard-response","97","213128","0.0-1.0-126.0","0","0","70038","","null","","","null","13","","","","","","","","","","","","","","","NaN",""
"","S1","","html-keyboard-response","98","213391","0.0-1.0-128.0","0","0","70038","","null","","","null","14","","","","","","","","","","","","","","","",""
"","ISI","","html-keyboard-response","99","215403","0.0-1.0-129.0","0","0","70038","","null","","","null","14","NaN","","","","","","","","","","","","","","",""
"","S2","","html-keyboard-response","100","215666","0.0-1.0-130.0","0","0","70038","","null","","","null","14","","NaN","","","","","","","","","","","","","",""
"","response","","html-keyboard-response","101","216140","0.0-1.0-131.0","0","0","70038","","471","","","68","14","","","1","14","training","adjacent","FE","6","5","O.jpg","P.jpg","1","0","0","",""
"","feedback","","html-keyboard-response","102","217146","0.0-1.0-132.0-0.0","0","0","70038","","null","","","null","14","","","","","","","","","","","","","","","",""
"","time_out","","html-keyboard-response","103","219162","0.0-1.0-134.0-0.0","0","0","70038","","null","","","null","14","","","","","","","","","","","","","","","",""
"","ITI","","html-keyboard-response","104","220169","0.0-1.0-135.0","0","0","70038","","null","","","null","14","","","","","","","","","","","","","","","NaN",""
"","S1","","html-keyboard-response","105","220435","0.0-1.0-137.0","0","0","70038","","null","","","null","15","","","","","","","","","","","","","","","",""
"","ISI","","html-keyboard-response","106","222442","0.0-1.0-138.0","0","0","70038","","null","","","null","15","NaN","","","","","","","","","","","","","","",""
"","S2","","html-keyboard-response","107","222707","0.0-1.0-139.0","0","0","70038","","null","","","null","15","","NaN","","","","","","","","","","","","","",""
"","response","","html-keyboard-response","108","223363","0.0-1.0-140.0","0","0","70038","","653","","","68","15","","","1","15","training","adjacent","FE","6","5","O.jpg","P.jpg","1","0","0","",""
"","feedback","","html-keyboard-response","109","224368","0.0-1.0-141.0-0.0","0","0","70038","","null","","","null","15","","","","","","","","","","","","","","","",""
"","time_out","","html-keyboard-response","110","226386","0.0-1.0-143.0-0.0","0","0","70038","","null","","","null","15","","","","","","","","","","","","","","","",""
"","ITI","","html-keyboard-response","111","227397","0.0-1.0-144.0","0","0","70038","","null","","","null","15","","","","","","","","","","","","","","","NaN",""
"","S1","","html-keyboard-response","112","227660","0.0-1.0-146.0","0","0","70038","","null","","","null","16","","","","","","","","","","","","","","","",""
"","ISI","","html-keyboard-response","113","229675","0.0-1.0-147.0","0","0","70038","","null","","","null","16","NaN","","","","","","","","","","","","","","",""
"","S2","","html-keyboard-response","114","229939","0.0-1.0-148.0","0","0","70038","","null","","","null","16","","NaN","","","","","","","","","","","","","",""
"","response","","html-keyboard-response","115","230170","0.0-1.0-149.0","0","0","70038","","229","","","68","16","","","1","16","training","adjacent","FE","6","5","O.jpg","P.jpg","1","0","0","",""
"","feedback","","html-keyboard-response","116","231180","0.0-1.0-150.0-0.0","0","0","70038","","null","","","null","16","","","","","","","","","","","","","","","",""
"","time_out","","html-keyboard-response","117","233196","0.0-1.0-152.0-0.0","0","0","70038","","null","","","null","16","","","","","","","","","","","","","","","",""
"","ITI","","html-keyboard-response","118","234206","0.0-1.0-153.0","0","0","70038","","null","","","null","16","","","","","","","","","","","","","","","NaN",""
"","S1","","html-keyboard-response","119","234466","0.0-1.0-155.0","0","0","70038","","null","","","null","17","","","","","","","","","","","","","","","",""
"","ISI","","html-keyboard-response","120","236475","0.0-1.0-156.0","0","0","70038","","null","","","null","17","NaN","","","","","","","","","","","","","","",""
"","S2","","html-keyboard-response","121","236738","0.0-1.0-157.0","0","0","70038","","null","","","null","17","","NaN","","","","","","","","","","","","","",""
"","response","","html-keyboard-response","122","237243","0.0-1.0-158.0","0","0","70038","","502","","","75","17","","","1","17","training","adjacent","CD","3","4","L.jpg","R.jpg","0","1","0","",""
"","feedback","","html-keyboard-response","123","238255","0.0-1.0-159.0-0.0","0","0","70038","","null","","","null","17","","","","","","","","","","","","","","","",""
"","time_out","","html-keyboard-response","124","240264","0.0-1.0-161.0-0.0","0","0","70038","","null","","","null","17","","","","","","","","","","","","","","","",""
"","ITI","","html-keyboard-response","125","241279","0.0-1.0-162.0","0","0","70038","","null","","","null","17","","","","","","","","","","","","","","","NaN",""
"","S1","","html-keyboard-response","126","241544","0.0-1.0-164.0","0","0","70038","","null","","","null","18","","","","","","","","","","","","","","","",""
"","ISI","","html-keyboard-response","127","243558","0.0-1.0-165.0","0","0","70038","","null","","","null","18","NaN","","","","","","","","","","","","","","",""
"","S2","","html-keyboard-response","128","243820","0.0-1.0-166.0","0","0","70038","","null","","","null","18","","NaN","","","","","","","","","","","","","",""
"","response","","html-keyboard-response","129","244303","0.0-1.0-167.0","0","0","70038","","482","","","68","18","","","1","18","training","adjacent","EF","5","6","P.jpg","O.jpg","1","1","1","",""
"","feedback","","html-keyboard-response","130","245310","0.0-1.0-168.0-0.0","0","0","70038","","null","","","null","18","","","","","","","","","","","","","","","",""
"","ITI","","html-keyboard-response","131","246316","0.0-1.0-171.0","0","0","70038","","null","","","null","18","","","","","","","","","","","","","","","NaN",""
"","S1","","html-keyboard-response","132","246579","0.0-1.0-173.0","0","0","70038","","null","","","null","19","","","","","","","","","","","","","","","",""
"","ISI","","html-keyboard-response","133","248591","0.0-1.0-174.0","0","0","70038","","null","","","null","19","NaN","","","","","","","","","","","","","","",""
"","S2","","html-keyboard-response","134","248853","0.0-1.0-175.0","0","0","70038","","null","","","null","19","","NaN","","","","","","","","","","","","","",""
"","response","","html-keyboard-response","135","249390","0.0-1.0-176.0","0","0","70038","","534","","","68","19","","","1","19","training","adjacent","BA","2","1","M.jpg","Q.jpg","1","0","0","",""
"","feedback","","html-keyboard-response","136","250401","0.0-1.0-177.0-0.0","0","0","70038","","null","","","null","19","","","","","","","","","","","","","","","",""
"","time_out","","html-keyboard-response","137","252406","0.0-1.0-179.0-0.0","0","0","70038","","null","","","null","19","","","","","","","","","","","","","","","",""
"","ITI","","html-keyboard-response","138","253413","0.0-1.0-180.0","0","0","70038","","null","","","null","19","","","","","","","","","","","","","","","NaN",""
"","S1","","html-keyboard-response","139","253675","0.0-1.0-182.0","0","0","70038","","null","","","null","20","","","","","","","","","","","","","","","",""
"","ISI","","html-keyboard-response","140","255682","0.0-1.0-183.0","0","0","70038","","179","","","75","20","k","","","","","","","","","","","","","","",""
"","S2","","html-keyboard-response","141","255942","0.0-1.0-184.0","0","0","70038","","null","","","null","20","","NaN","","","","","","","","","","","","","",""
"","response","","html-keyboard-response","142","256381","0.0-1.0-185.0","0","0","70038","","436","","","75","20","","","1","20","training","adjacent","CD","3","4","L.jpg","R.jpg","0","1","0","",""
"","feedback","","html-keyboard-response","143","257400","0.0-1.0-186.0-0.0","0","0","70038","","null","","","null","20","","","","","","","","","","","","","","","",""
"","time_out","","html-keyboard-response","144","259414","0.0-1.0-188.0-0.0","0","0","70038","","null","","","null","20","","","","","","","","","","","","","","","",""
"","ITI","","html-keyboard-response","145","260432","0.0-1.0-189.0","0","0","70038","","null","","","null","20","","","","","","","","","","","","","","","NaN",""
"","S1","","html-keyboard-response","146","260692","0.0-1.0-191.0","0","0","70038","","null","","","null","21","","","","","","","","","","","","","","","",""
"","ISI","","html-keyboard-response","147","262703","0.0-1.0-192.0","0","0","70038","","null","","","null","21","NaN","","","","","","","","","","","","","","",""
"","S2","","html-keyboard-response","148","262964","0.0-1.0-193.0","0","0","70038","","null","","","null","21","","NaN","","","","","","","","","","","","","",""
"","response","","html-keyboard-response","149","263283","0.0-1.0-194.0","0","0","70038","","317","","","75","21","","","1","21","training","adjacent","FE","6","5","O.jpg","P.jpg","0","0","1","",""
"","feedback","","html-keyboard-response","150","264294","0.0-1.0-195.0-0.0","0","0","70038","","null","","","null","21","","","","","","","","","","","","","","","",""
"","ITI","","html-keyboard-response","151","265304","0.0-1.0-198.0","0","0","70038","","null","","","null","21","","","","","","","","","","","","","","","NaN",""
"","S1","","html-keyboard-response","152","265568","0.0-1.0-200.0","0","0","70038","","null","","","null","22","","","","","","","","","","","","","","","",""
"","ISI","","html-keyboard-response","153","267578","0.0-1.0-201.0","0","0","70038","","null","","","null","22","NaN","","","","","","","","","","","","","","",""
"","S2","","html-keyboard-response","154","267841","0.0-1.0-202.0","0","0","70038","","null","","","null","22","","NaN","","","","","","","","","","","","","",""
"","response","","html-keyboard-response","155","268041","0.0-1.0-203.0","0","0","70038","","198","","","75","22","","","1","22","training","adjacent","DE","4","5","R.jpg","P.jpg","0","1","0","",""
"","feedback","","html-keyboard-response","156","269047","0.0-1.0-204.0-0.0","0","0","70038","","null","","","null","22","","","","","","","","","","","","","","","",""
"","time_out","","html-keyboard-response","157","271058","0.0-1.0-206.0-0.0","0","0","70038","","null","","","null","22","","","","","","","","","","","","","","","",""
"","ITI","","html-keyboard-response","158","272071","0.0-1.0-207.0","0","0","70038","","null","","","null","22","","","","","","","","","","","","","","","NaN",""
"","S1","","html-keyboard-response","159","272333","0.0-1.0-209.0","0","0","70038","","null","","","null","23","","","","","","","","","","","","","","","",""
"","ISI","","html-keyboard-response","160","274349","0.0-1.0-210.0","0","0","70038","","null","","","null","23","NaN","","","","","","","","","","","","","","",""
"","S2","","html-keyboard-response","161","274614","0.0-1.0-211.0","0","0","70038","","null","","","null","23","","NaN","","","","","","","","","","","","","",""
"","response","","html-keyboard-response","162","274914","0.0-1.0-212.0","0","0","70038","","299","","","75","23","","","1","23","training","adjacent","ED","5","4","P.jpg","R.jpg","0","0","1","",""
"","feedback","","html-keyboard-response","163","275920","0.0-1.0-213.0-0.0","0","0","70038","","null","","","null","23","","","","","","","","","","","","","","","",""
"","ITI","","html-keyboard-response","164","276937","0.0-1.0-216.0","0","0","70038","","null","","","null","23","","","","","","","","","","","","","","","NaN",""
"","S1","","html-keyboard-response","165","277201","0.0-1.0-218.0","0","0","70038","","null","","","null","24","","","","","","","","","","","","","","","",""
"","ISI","","html-keyboard-response","166","279212","0.0-1.0-219.0","0","0","70038","","null","","","null","24","NaN","","","","","","","","","","","","","","",""
"","S2","","html-keyboard-response","167","279475","0.0-1.0-220.0","0","0","70038","","null","","","null","24","","NaN","","","","","","","","","","","","","",""
"","response","","html-keyboard-response","168","280180","0.0-1.0-221.0","0","0","70038","","702","","","75","24","","","1","24","training","adjacent","BC","2","3","M.jpg","L.jpg","0","1","0","",""
"","feedback","","html-keyboard-response","169","281193","0.0-1.0-222.0-0.0","0","0","70038","","null","","","null","24","","","","","","","","","","","","","","","",""
"","time_out","","html-keyboard-response","170","283205","0.0-1.0-224.0-0.0","0","0","70038","","null","","","null","24","","","","","","","","","","","","","","","",""
"","ITI","","html-keyboard-response","171","284221","0.0-1.0-225.0","0","0","70038","","null","","","null","24","","","","","","","","","","","","","","","NaN",""
"","S1","","html-keyboard-response","172","284483","0.0-1.0-227.0","0","0","70038","","null","","","null","25","","","","","","","","","","","","","","","",""
"","ISI","","html-keyboard-response","173","286495","0.0-1.0-228.0","0","0","70038","","null","","","null","25","NaN","","","","","","","","","","","","","","",""
"","S2","","html-keyboard-response","174","286756","0.0-1.0-229.0","0","0","70038","","null","","","null","25","","NaN","","","","","","","","","","","","","",""
"","response","","html-keyboard-response","175","287179","0.0-1.0-230.0","0","0","70038","","421","","","68","25","","","1","25","training","adjacent","GF","7","6","N.jpg","O.jpg","1","0","0","",""
"","feedback","","html-keyboard-response","176","288183","0.0-1.0-231.0-0.0","0","0","70038","","null","","","null","25","","","","","","","","","","","","","","","",""
"","time_out","","html-keyboard-response","177","290192","0.0-1.0-233.0-0.0","0","0","70038","","null","","","null","25","","","","","","","","","","","","","","","",""
"","ITI","","html-keyboard-response","178","291199","0.0-1.0-234.0","0","0","70038","","null","","","null","25","","","","","","","","","","","","","","","NaN",""
"","S1","","html-keyboard-response","179","291462","0.0-1.0-236.0","0","0","70038","","null","","","null","26","","","","","","","","","","","","","","","",""
"","ISI","","html-keyboard-response","180","293474","0.0-1.0-237.0","0","0","70038","","null","","","null","26","NaN","","","","","","","","","","","","","","",""
"","S2","","html-keyboard-response","181","293737","0.0-1.0-238.0","0","0","70038","","null","","","null","26","","NaN","","","","","","","","","","","","","",""
"","response","","html-keyboard-response","182","293837","0.0-1.0-239.0","0","0","70038","","99","","","68","26","","","1","26","training","adjacent","DC","4","3","R.jpg","L.jpg","1","0","0","",""
"","feedback","","html-keyboard-response","183","294850","0.0-1.0-240.0-0.0","0","0","70038","","null","","","null","26","","","","","","","","","","","","","","","",""
"","time_out","","html-keyboard-response","184","296862","0.0-1.0-242.0-0.0","0","0","70038","","null","","","null","26","","","","","","","","","","","","","","","",""
"","ITI","","html-keyboard-response","185","297865","0.0-1.0-243.0","0","0","70038","","null","","","null","26","","","","","","","","","","","","","","","NaN",""
"","S1","","html-keyboard-response","186","298131","0.0-1.0-245.0","0","0","70038","","null","","","null","27","","","","","","","","","","","","","","","",""
"","ISI","","html-keyboard-response","187","300145","0.0-1.0-246.0","0","0","70038","","null","","","null","27","NaN","","","","","","","","","","","","","","",""
"","S2","","html-keyboard-response","188","300415","0.0-1.0-247.0","0","0","70038","","null","","","null","27","","NaN","","","","","","","","","","","","","",""
"","response","","html-keyboard-response","189","300843","0.0-1.0-248.0","0","0","70038","","425","","","75","27","","","1","27","training","adjacent","AB","1","2","Q.jpg","M.jpg","0","1","0","",""
"","feedback","","html-keyboard-response","190","301857","0.0-1.0-249.0-0.0","0","0","70038","","null","","","null","27","","","","","","","","","","","","","","","",""
"","time_out","","html-keyboard-response","191","303869","0.0-1.0-251.0-0.0","0","0","70038","","null","","","null","27","","","","","","","","","","","","","","","",""
"","ITI","","html-keyboard-response","192","304884","0.0-1.0-252.0","0","0","70038","","null","","","null","27","","","","","","","","","","","","","","","NaN",""
"","S1","","html-keyboard-response","193","305145","0.0-1.0-254.0","0","0","70038","","null","","","null","28","","","","","","","","","","","","","","","",""
"","ISI","","html-keyboard-response","194","307151","0.0-1.0-255.0","0","0","70038","","null","","","null","28","NaN","","","","","","","","","","","","","","",""
"","S2","","html-keyboard-response","195","307412","0.0-1.0-256.0","0","0","70038","","null","","","null","28","","NaN","","","","","","","","","","","","","",""
"","response","","html-keyboard-response","196","307707","0.0-1.0-257.0","0","0","70038","","293","","","68","28","","","1","28","training","adjacent","FG","6","7","O.jpg","N.jpg","1","1","1","",""
"","feedback","","html-keyboard-response","197","308710","0.0-1.0-258.0-0.0","0","0","70038","","null","","","null","28","","","","","","","","","","","","","","","",""
"","ITI","","html-keyboard-response","198","309712","0.0-1.0-261.0","0","0","70038","","null","","","null","28","","","","","","","","","","","","","","","NaN",""
"","S1","","html-keyboard-response","199","309965","0.0-1.0-263.0","0","0","70038","","null","","","null","29","","","","","","","","","","","","","","","",""
"","ISI","","html-keyboard-response","200","311975","0.0-1.0-264.0","0","0","70038","","null","","","null","29","NaN","","","","","","","","","","","","","","",""
"","S2","","html-keyboard-response","201","312227","0.0-1.0-265.0","0","0","70038","","null","","","null","29","","NaN","","","","","","","","","","","","","",""
"","response","","html-keyboard-response","202","312904","0.0-1.0-266.0","0","0","70038","","673","","","68","29","","","1","29","training","adjacent","FG","6","7","O.jpg","N.jpg","1","1","1","",""
"","feedback","","html-keyboard-response","203","313916","0.0-1.0-267.0-0.0","0","0","70038","","null","","","null","29","","","","","","","","","","","","","","","",""
"","ITI","","html-keyboard-response","204","314934","0.0-1.0-270.0","0","0","70038","","null","","","null","29","","","","","","","","","","","","","","","NaN",""
"","S1","","html-keyboard-response","205","315195","0.0-1.0-272.0","0","0","70038","","null","","","null","30","","","","","","","","","","","","","","","",""
"","ISI","","html-keyboard-response","206","317210","0.0-1.0-273.0","0","0","70038","","null","","","null","30","NaN","","","","","","","","","","","","","","",""
"","S2","","html-keyboard-response","207","317470","0.0-1.0-274.0","0","0","70038","","null","","","null","30","","NaN","","","","","","","","","","","","","",""
"","response","","html-keyboard-response","208","318061","0.0-1.0-275.0","0","0","70038","","588","","","68","30","","","1","30","training","adjacent","FG","6","7","O.jpg","N.jpg","1","1","1","",""
"","feedback","","html-keyboard-response","209","319079","0.0-1.0-276.0-0.0","0","0","70038","","null","","","null","30","","","","","","","","","","","","","","","",""
"","ITI","","html-keyboard-response","210","320087","0.0-1.0-279.0","0","0","70038","","null","","","null","30","","","","","","","","","","","","","","","NaN",""
"","S1","","html-keyboard-response","211","320349","0.0-1.0-281.0","0","0","70038","","null","","","null","31","","","","","","","","","","","","","","","",""
"","ISI","","html-keyboard-response","212","322365","0.0-1.0-282.0","0","0","70038","","null","","","null","31","NaN","","","","","","","","","","","","","","",""
"","S2","","html-keyboard-response","213","322628","0.0-1.0-283.0","0","0","70038","","null","","","null","31","","NaN","","","","","","","","","","","","","",""
"","response","","html-keyboard-response","214","322928","0.0-1.0-284.0","0","0","70038","","298","","","75","31","","","1","31","training","adjacent","AB","1","2","Q.jpg","M.jpg","0","1","0","",""
"","feedback","","html-keyboard-response","215","323936","0.0-1.0-285.0-0.0","0","0","70038","","null","","","null","31","","","","","","","","","","","","","","","",""
"","time_out","","html-keyboard-response","216","325945","0.0-1.0-287.0-0.0","0","0","70038","","null","","","null","31","","","","","","","","","","","","","","","",""
"","ITI","","html-keyboard-response","217","326950","0.0-1.0-288.0","0","0","70038","","null","","","null","31","","","","","","","","","","","","","","","NaN",""
"","S1","","html-keyboard-response","218","327213","0.0-1.0-290.0","0","0","70038","","null","","","null","32","","","","","","","","","","","","","","","",""
"","ISI","","html-keyboard-response","219","329227","0.0-1.0-291.0","0","0","70038","","255","","","68","32","d","","","","","","","","","","","","","","",""
"","S2","","html-keyboard-response","220","329486","0.0-1.0-292.0","0","0","70038","","null","","","null","32","","NaN","","","","","","","","","","","","","",""
"","response","","html-keyboard-response","221","329793","0.0-1.0-293.0","0","0","70038","","304","","","68","32","","","1","32","training","adjacent","FG","6","7","O.jpg","N.jpg","1","1","1","",""
"","feedback","","html-keyboard-response","222","330801","0.0-1.0-294.0-0.0","0","0","70038","","null","","","null","32","","","","","","","","","","","","","","","",""
"","ITI","","html-keyboard-response","223","331808","0.0-1.0-297.0","0","0","70038","","null","","","null","32","","","","","","","","","","","","","","","NaN",""
"","S1","","html-keyboard-response","224","332070","0.0-1.0-299.0","0","0","70038","","null","","","null","33","","","","","","","","","","","","","","","",""
"","ISI","","html-keyboard-response","225","334082","0.0-1.0-300.0","0","0","70038","","null","","","null","33","NaN","","","","","","","","","","","","","","",""
"","S2","","html-keyboard-response","226","334344","0.0-1.0-301.0","0","0","70038","","null","","","null","33","","NaN","","","","","","","","","","","","","",""
"","response","","html-keyboard-response","227","334639","0.0-1.0-302.0","0","0","70038","","293","","","68","33","","","1","33","training","adjacent","BC","2","3","M.jpg","L.jpg","1","1","1","",""
"","feedback","","html-keyboard-response","228","335646","0.0-1.0-303.0-0.0","0","0","70038","","null","","","null","33","","","","","","","","","","","","","","","",""
"","ITI","","html-keyboard-response","229","336658","0.0-1.0-306.0","0","0","70038","","null","","","null","33","","","","","","","","","","","","","","","NaN",""
"","S1","","html-keyboard-response","230","336924","0.0-1.0-308.0","0","0","70038","","null","","","null","34","","","","","","","","","","","","","","","",""
"","ISI","","html-keyboard-response","231","338938","0.0-1.0-309.0","0","0","70038","","null","","","null","34","NaN","","","","","","","","","","","","","","",""
"","S2","","html-keyboard-response","232","339202","0.0-1.0-310.0","0","0","70038","","null","","","null","34","","NaN","","","","","","","","","","","","","",""
"","response","","html-keyboard-response","233","339714","0.0-1.0-311.0","0","0","70038","","509","","","75","34","","","1","34","training","adjacent","DC","4","3","R.jpg","L.jpg","0","0","1","",""
"","feedback","","html-keyboard-response","234","340721","0.0-1.0-312.0-0.0","0","0","70038","","null","","","null","34","","","","","","","","","","","","","","","",""
"","ITI","","html-keyboard-response","235","341725","0.0-1.0-315.0","0","0","70038","","null","","","null","34","","","","","","","","","","","","","","","NaN",""
"","S1","","html-keyboard-response","236","341985","0.0-1.0-317.0","0","0","70038","","null","","","null","35","","","","","","","","","","","","","","","",""
"","ISI","","html-keyboard-response","237","343998","0.0-1.0-318.0","0","0","70038","","null","","","null","35","NaN","","","","","","","","","","","","","","",""
"","S2","","html-keyboard-response","238","344261","0.0-1.0-319.0","0","0","70038","","null","","","null","35","","NaN","","","","","","","","","","","","","",""
"","response","","html-keyboard-response","239","344813","0.0-1.0-320.0","0","0","70038","","551","","","68","35","","","1","35","training","adjacent","ED","5","4","P.jpg","R.jpg","1","0","0","",""
"","feedback","","html-keyboard-response","240","345827","0.0-1.0-321.0-0.0","0","0","70038","","null","","","null","35","","","","","","","","","","","","","","","",""
"","time_out","","html-keyboard-response","241","347840","0.0-1.0-323.0-0.0","0","0","70038","","null","","","null","35","","","","","","","","","","","","","","","",""
"","ITI","","html-keyboard-response","242","348849","0.0-1.0-324.0","0","0","70038","","null","","","null","35","","","","","","","","","","","","","","","NaN",""
"","S1","","html-keyboard-response","243","349113","0.0-1.0-326.0","0","0","70038","","null","","","null","36","","","","","","","","","","","","","","","",""
"","ISI","","html-keyboard-response","244","351128","0.0-1.0-327.0","0","0","70038","","null","","","null","36","NaN","","","","","","","","","","","","","","",""
"","S2","","html-keyboard-response","245","351392","0.0-1.0-328.0","0","0","70038","","null","","","null","36","","NaN","","","","","","","","","","","","","",""
"","response","","html-keyboard-response","246","351779","0.0-1.0-329.0","0","0","70038","","386","","","75","36","","","1","36","training","adjacent","BC","2","3","M.jpg","L.jpg","0","1","0","",""
"","feedback","","html-keyboard-response","247","352784","0.0-1.0-330.0-0.0","0","0","70038","","null","","","null","36","","","","","","","","","","","","","","","",""
"","time_out","","html-keyboard-response","248","354796","0.0-1.0-332.0-0.0","0","0","70038","","null","","","null","36","","","","","","","","","","","","","","","",""
"","ITI","","html-keyboard-response","249","355804","0.0-1.0-333.0","0","0","70038","","null","","","null","36","","","","","","","","","","","","","","","NaN",""
"","S1","","html-keyboard-response","250","356067","0.0-1.0-335.0","0","0","70038","","null","","","null","37","","","","","","","","","","","","","","","",""
"","ISI","","html-keyboard-response","251","358083","0.0-1.0-336.0","0","0","70038","","739","","","68","37","d","","","","","","","","","","","","","","",""
"","S2","","html-keyboard-response","252","358349","0.0-1.0-337.0","0","0","70038","","null","","","null","37","","NaN","","","","","","","","","","","","","",""
"","response","","html-keyboard-response","253","358887","0.0-1.0-338.0","0","0","70038","","536","","","68","37","","","1","37","training","adjacent","BA","2","1","M.jpg","Q.jpg","1","0","0","",""
"","feedback","","html-keyboard-response","254","359895","0.0-1.0-339.0-0.0","0","0","70038","","null","","","null","37","","","","","","","","","","","","","","","",""
"","time_out","","html-keyboard-response","255","361908","0.0-1.0-341.0-0.0","0","0","70038","","null","","","null","37","","","","","","","","","","","","","","","",""
"","ITI","","html-keyboard-response","256","362917","0.0-1.0-342.0","0","0","70038","","null","","","null","37","","","","","","","","","","","","","","","NaN",""
"","S1","","html-keyboard-response","257","363177","0.0-1.0-344.0","0","0","70038","","null","","","null","38","","","","","","","","","","","","","","","",""
"","ISI","","html-keyboard-response","258","365194","0.0-1.0-345.0","0","0","70038","","null","","","null","38","NaN","","","","","","","","","","","","","","",""
"","S2","","html-keyboard-response","259","365461","0.0-1.0-346.0","0","0","70038","","null","","","null","38","","NaN","","","","","","","","","","","","","",""
"","response","","html-keyboard-response","260","366229","0.0-1.0-347.0","0","0","70038","","766","","","75","38","","","1","38","training","adjacent","GF","7","6","N.jpg","O.jpg","0","0","1","",""
"","feedback","","html-keyboard-response","261","367238","0.0-1.0-348.0-0.0","0","0","70038","","null","","","null","38","","","","","","","","","","","","","","","",""
"","ITI","","html-keyboard-response","262","368257","0.0-1.0-351.0","0","0","70038","","null","","","null","38","","","","","","","","","","","","","","","NaN",""
"","S1","","html-keyboard-response","263","368517","0.0-1.0-353.0","0","0","70038","","null","","","null","39","","","","","","","","","","","","","","","",""
"","ISI","","html-keyboard-response","264","370533","0.0-1.0-354.0","0","0","70038","","null","","","null","39","NaN","","","","","","","","","","","","","","",""
"","S2","","html-keyboard-response","265","370796","0.0-1.0-355.0","0","0","70038","","null","","","null","39","","NaN","","","","","","","","","","","","","",""
"","response","","html-keyboard-response","266","372725","0.0-1.0-356.0","0","0","70038","","1925","","","75","39","","","1","39","training","adjacent","CD","3","4","L.jpg","R.jpg","0","1","0","",""
"","feedback","","html-keyboard-response","267","373730","0.0-1.0-357.0-0.0","0","0","70038","","null","","","null","39","","","","","","","","","","","","","","","",""
"","time_out","","html-keyboard-response","268","375742","0.0-1.0-359.0-0.0","0","0","70038","","null","","","null","39","","","","","","","","","","","","","","","",""
"","ITI","","html-keyboard-response","269","376747","0.0-1.0-360.0","0","0","70038","","null","","","null","39","","","","","","","","","","","","","","","NaN",""
"","S1","","html-keyboard-response","270","377011","0.0-1.0-362.0","0","0","70038","","null","","","null","40","","","","","","","","","","","","","","","",""
"","ISI","","html-keyboard-response","271","379026","0.0-1.0-363.0","0","0","70038","","null","","","null","40","NaN","","","","","","","","","","","","","","",""
"","S2","","html-keyboard-response","272","379288","0.0-1.0-364.0","0","0","70038","","null","","","null","40","","NaN","","","","","","","","","","","","","",""
"","response","","html-keyboard-response","273","379611","0.0-1.0-365.0","0","0","70038","","320","","","75","40","","","1","40","training","adjacent","AB","1","2","Q.jpg","M.jpg","0","1","0","",""
"","feedback","","html-keyboard-response","274","380619","0.0-1.0-366.0-0.0","0","0","70038","","null","","","null","40","","","","","","","","","","","","","","","",""
"","time_out","","html-keyboard-response","275","382627","0.0-1.0-368.0-0.0","0","0","70038","","null","","","null","40","","","","","","","","","","","","","","","",""
"","ITI","","html-keyboard-response","276","383633","0.0-1.0-369.0","0","0","70038","","152","","","75","40","","","","","","","","","","","","","","","k",""
"","S1","","html-keyboard-response","277","383894","0.0-1.0-371.0","0","0","70038","","null","","","null","41","","","","","","","","","","","","","","","",""
"","ISI","","html-keyboard-response","278","385907","0.0-1.0-372.0","0","0","70038","","null","","","null","41","NaN","","","","","","","","","","","","","","",""
"","S2","","html-keyboard-response","279","386170","0.0-1.0-373.0","0","0","70038","","null","","","null","41","","NaN","","","","","","","","","","","","","",""
"","response","","html-keyboard-response","280","386634","0.0-1.0-374.0","0","0","70038","","461","","","68","41","","","1","41","training","adjacent","BC","2","3","M.jpg","L.jpg","1","1","1","",""
"","feedback","","html-keyboard-response","281","387637","0.0-1.0-375.0-0.0","0","0","70038","","null","","","null","41","","","","","","","","","","","","","","","",""
"","ITI","","html-keyboard-response","282","388643","0.0-1.0-378.0","0","0","70038","","null","","","null","41","","","","","","","","","","","","","","","NaN",""
"","S1","","html-keyboard-response","283","388897","0.0-1.0-380.0","0","0","70038","","null","","","null","42","","","","","","","","","","","","","","","",""
"","ISI","","html-keyboard-response","284","390910","0.0-1.0-381.0","0","0","70038","","null","","","null","42","NaN","","","","","","","","","","","","","","",""
"","S2","","html-keyboard-response","285","391176","0.0-1.0-382.0","0","0","70038","","null","","","null","42","","NaN","","","","","","","","","","","","","",""
"","response","","html-keyboard-response","286","392695","0.0-1.0-383.0","0","0","70038","","1515","","","68","42","","","1","42","training","adjacent","DE","4","5","R.jpg","P.jpg","1","1","1","",""
"","feedback","","html-keyboard-response","287","393699","0.0-1.0-384.0-0.0","0","0","70038","","null","","","null","42","","","","","","","","","","","","","","","",""
"","ITI","","html-keyboard-response","288","394710","0.0-1.0-387.0","0","0","70038","","null","","","null","42","","","","","","","","","","","","","","","NaN",""
"","S1","","html-keyboard-response","289","394973","0.0-1.0-389.0","0","0","70038","","null","","","null","43","","","","","","","","","","","","","","","",""
"","ISI","","html-keyboard-response","290","396985","0.0-1.0-390.0","0","0","70038","","753","","","75","43","k","","","","","","","","","","","","","","",""
"","S2","","html-keyboard-response","291","397250","0.0-1.0-391.0","0","0","70038","","null","","","null","43","","NaN","","","","","","","","","","","","","",""
"","response","","html-keyboard-response","292","397423","0.0-1.0-392.0","0","0","70038","","171","","","75","43","","","1","43","training","adjacent","CB","3","2","L.jpg","M.jpg","0","0","1","",""
"","feedback","","html-keyboard-response","293","398431","0.0-1.0-393.0-0.0","0","0","70038","","null","","","null","43","","","","","","","","","","","","","","","",""
"","ITI","","html-keyboard-response","294","399450","0.0-1.0-396.0","0","0","70038","","null","","","null","43","","","","","","","","","","","","","","","NaN",""
"","S1","","html-keyboard-response","295","399712","0.0-1.0-398.0","0","0","70038","","null","","","null","44","","","","","","","","","","","","","","","",""
"","ISI","","html-keyboard-response","296","401725","0.0-1.0-399.0","0","0","70038","","null","","","null","44","NaN","","","","","","","","","","","","","","",""
"","S2","","html-keyboard-response","297","401992","0.0-1.0-400.0","0","0","70038","","null","","","null","44","","NaN","","","","","","","","","","","","","",""
"","response","","html-keyboard-response","298","402920","0.0-1.0-401.0","0","0","70038","","926","","","75","44","","","1","44","training","adjacent","EF","5","6","P.jpg","O.jpg","0","1","0","",""
"","feedback","","html-keyboard-response","299","403931","0.0-1.0-402.0-0.0","0","0","70038","","null","","","null","44","","","","","","","","","","","","","","","",""
"","time_out","","html-keyboard-response","300","405944","0.0-1.0-404.0-0.0","0","0","70038","","null","","","null","44","","","","","","","","","","","","","","","",""
"","ITI","","html-keyboard-response","301","406953","0.0-1.0-405.0","0","0","70038","","null","","","null","44","","","","","","","","","","","","","","","NaN",""
"","S1","","html-keyboard-response","302","407216","0.0-1.0-407.0","0","0","70038","","null","","","null","45","","","","","","","","","","","","","","","",""
"","ISI","","html-keyboard-response","303","409225","0.0-1.0-408.0","0","0","70038","","1914","","","68","45","d","","","","","","","","","","","","","","",""
"","S2","","html-keyboard-response","304","409491","0.0-1.0-409.0","0","0","70038","","null","","","null","45","","NaN","","","","","","","","","","","","","",""
"","response","","html-keyboard-response","305","410037","0.0-1.0-410.0","0","0","70038","","543","","","68","45","","","1","45","training","adjacent","GF","7","6","N.jpg","O.jpg","1","0","0","",""
"","feedback","","html-keyboard-response","306","411055","0.0-1.0-411.0-0.0","0","0","70038","","null","","","null","45","","","","","","","","","","","","","","","",""
"","time_out","","html-keyboard-response","307","413067","0.0-1.0-413.0-0.0","0","0","70038","","null","","","null","45","","","","","","","","","","","","","","","",""
"","ITI","","html-keyboard-response","308","414076","0.0-1.0-414.0","0","0","70038","","null","","","null","45","","","","","","","","","","","","","","","NaN",""
"","S1","","html-keyboard-response","309","414343","0.0-1.0-416.0","0","0","70038","","null","","","null","46","","","","","","","","","","","","","","","",""
"","ISI","","html-keyboard-response","310","416353","0.0-1.0-417.0","0","0","70038","","null","","","null","46","NaN","","","","","","","","","","","","","","",""
"","S2","","html-keyboard-response","311","416616","0.0-1.0-418.0","0","0","70038","","null","","","null","46","","NaN","","","","","","","","","","","","","",""
"","response","","html-keyboard-response","312","417186","0.0-1.0-419.0","0","0","70038","","567","","","75","46","","","1","46","training","adjacent","DC","4","3","R.jpg","L.jpg","0","0","1","",""
"","feedback","","html-keyboard-response","313","418196","0.0-1.0-420.0-0.0","0","0","70038","","null","","","null","46","","","","","","","","","","","","","","","",""
"","ITI","","html-keyboard-response","314","419205","0.0-1.0-423.0","0","0","70038","","null","","","null","46","","","","","","","","","","","","","","","NaN",""
"","S1","","html-keyboard-response","315","419467","0.0-1.0-425.0","0","0","70038","","null","","","null","47","","","","","","","","","","","","","","","",""
"","ISI","","html-keyboard-response","316","421481","0.0-1.0-426.0","0","0","70038","","null","","","null","47","NaN","","","","","","","","","","","","","","",""
"","S2","","html-keyboard-response","317","421739","0.0-1.0-427.0","0","0","70038","","null","","","null","47","","NaN","","","","","","","","","","","","","",""
"","response","","html-keyboard-response","318","422234","0.0-1.0-428.0","0","0","70038","","493","","","75","47","","","1","47","training","adjacent","EF","5","6","P.jpg","O.jpg","0","1","0","",""
"","feedback","","html-keyboard-response","319","423244","0.0-1.0-429.0-0.0","0","0","70038","","null","","","null","47","","","","","","","","","","","","","","","",""
"","time_out","","html-keyboard-response","320","425257","0.0-1.0-431.0-0.0","0","0","70038","","null","","","null","47","","","","","","","","","","","","","","","",""
"","ITI","","html-keyboard-response","321","426266","0.0-1.0-432.0","0","0","70038","","null","","","null","47","","","","","","","","","","","","","","","NaN",""
"","block_over","","html-keyboard-response","322","430112","0.0-1.0-433.0-0.0","0","0","70038","","3842","","","32","47","","","","","","","","","","","","","","","",""
"","S1","","html-keyboard-response","323","430380","0.0-1.0-434.0","0","0","70038","","null","","","null","48","","","","","","","","","","","","","","","",""
"","ISI","","html-keyboard-response","324","432384","0.0-1.0-435.0","0","0","70038","","null","","","null","48","NaN","","","","","","","","","","","","","","",""
"","S2","","html-keyboard-response","325","432651","0.0-1.0-436.0","0","0","70038","","null","","","null","48","","NaN","","","","","","","","","","","","","",""
"","response","","html-keyboard-response","326","433198","0.0-1.0-437.0","0","0","70038","","542","","","75","48","","","2","48","training","adjacent","CB","3","2","L.jpg","M.jpg","0","0","1","",""
"","feedback","","html-keyboard-response","327","434203","0.0-1.0-438.0-0.0","0","0","70038","","null","","","null","48","","","","","","","","","","","","","","","",""
"","ITI","","html-keyboard-response","328","435214","0.0-1.0-441.0","0","0","70038","","null","","","null","48","","","","","","","","","","","","","","","NaN",""
"","S1","","html-keyboard-response","329","435481","0.0-1.0-443.0","0","0","70038","","null","","","null","49","","","","","","","","","","","","","","","",""
"","ISI","","html-keyboard-response","330","437499","0.0-1.0-444.0","0","0","70038","","null","","","null","49","NaN","","","","","","","","","","","","","","",""
"","S2","","html-keyboard-response","331","437768","0.0-1.0-445.0","0","0","70038","","null","","","null","49","","NaN","","","","","","","","","","","","","",""
"","response","","html-keyboard-response","332","438366","0.0-1.0-446.0","0","0","70038","","594","","","68","49","","","2","49","training","adjacent","ED","5","4","P.jpg","R.jpg","1","0","0","",""
"","feedback","","html-keyboard-response","333","439382","0.0-1.0-447.0-0.0","0","0","70038","","null","","","null","49","","","","","","","","","","","","","","","",""
"","time_out","","html-keyboard-response","334","441388","0.0-1.0-449.0-0.0","0","0","70038","","null","","","null","49","","","","","","","","","","","","","","","",""
"","ITI","","html-keyboard-response","335","442398","0.0-1.0-450.0","0","0","70038","","null","","","null","49","","","","","","","","","","","","","","","NaN",""
"","S1","","html-keyboard-response","336","442667","0.0-1.0-452.0","0","0","70038","","null","","","null","50","","","","","","","","","","","","","","","",""
"","ISI","","html-keyboard-response","337","444679","0.0-1.0-453.0","0","0","70038","","null","","","null","50","NaN","","","","","","","","","","","","","","",""
"","S2","","html-keyboard-response","338","444947","0.0-1.0-454.0","0","0","70038","","null","","","null","50","","NaN","","","","","","","","","","","","","",""
"","response","","html-keyboard-response","339","445348","0.0-1.0-455.0","0","0","70038","","398","","","75","50","","","2","50","training","adjacent","CD","3","4","L.jpg","R.jpg","0","1","0","",""
"","feedback","","html-keyboard-response","340","446354","0.0-1.0-456.0-0.0","0","0","70038","","null","","","null","50","","","","","","","","","","","","","","","",""
"","time_out","","html-keyboard-response","341","448370","0.0-1.0-458.0-0.0","0","0","70038","","null","","","null","50","","","","","","","","","","","","","","","",""
"","ITI","","html-keyboard-response","342","449378","0.0-1.0-459.0","0","0","70038","","null","","","null","50","","","","","","","","","","","","","","","NaN",""
"","S1","","html-keyboard-response","343","449646","0.0-1.0-461.0","0","0","70038","","null","","","null","51","","","","","","","","","","","","","","","",""
"","ISI","","html-keyboard-response","344","451655","0.0-1.0-462.0","0","0","70038","","null","","","null","51","NaN","","","","","","","","","","","","","","",""
"","S2","","html-keyboard-response","345","451920","0.0-1.0-463.0","0","0","70038","","null","","","null","51","","NaN","","","","","","","","","","","","","",""
"","response","","html-keyboard-response","346","452390","0.0-1.0-464.0","0","0","70038","","468","","","75","51","","","2","51","training","adjacent","EF","5","6","P.jpg","O.jpg","0","1","0","",""
"","feedback","","html-keyboard-response","347","453409","0.0-1.0-465.0-0.0","0","0","70038","","null","","","null","51","","","","","","","","","","","","","","","",""
"","time_out","","html-keyboard-response","348","455424","0.0-1.0-467.0-0.0","0","0","70038","","null","","","null","51","","","","","","","","","","","","","","","",""
"","ITI","","html-keyboard-response","349","456441","0.0-1.0-468.0","0","0","70038","","null","","","null","51","","","","","","","","","","","","","","","NaN",""
"","S1","","html-keyboard-response","350","456702","0.0-1.0-470.0","0","0","70038","","null","","","null","52","","","","","","","","","","","","","","","",""
"","ISI","","html-keyboard-response","351","458719","0.0-1.0-471.0","0","0","70038","","116","","","68","52","d","","","","","","","","","","","","","","",""
"","S2","","html-keyboard-response","352","458988","0.0-1.0-472.0","0","0","70038","","null","","","null","52","","NaN","","","","","","","","","","","","","",""
"","response","","html-keyboard-response","353","459403","0.0-1.0-473.0","0","0","70038","","413","","","68","52","","","2","52","training","adjacent","BC","2","3","M.jpg","L.jpg","1","1","1","",""
"","feedback","","html-keyboard-response","354","460415","0.0-1.0-474.0-0.0","0","0","70038","","null","","","null","52","","","","","","","","","","","","","","","",""
"","ITI","","html-keyboard-response","355","461420","0.0-1.0-477.0","0","0","70038","","null","","","null","52","","","","","","","","","","","","","","","NaN",""
"","S1","","html-keyboard-response","356","461686","0.0-1.0-479.0","0","0","70038","","null","","","null","53","","","","","","","","","","","","","","","",""
"","ISI","","html-keyboard-response","357","463691","0.0-1.0-480.0","0","0","70038","","null","","","null","53","NaN","","","","","","","","","","","","","","",""
"","S2","","html-keyboard-response","358","463949","0.0-1.0-481.0","0","0","70038","","null","","","null","53","","NaN","","","","","","","","","","","","","",""
"","response","","html-keyboard-response","359","464702","0.0-1.0-482.0","0","0","70038","","750","","","68","53","","","2","53","training","adjacent","CB","3","2","L.jpg","M.jpg","1","0","0","",""
"","feedback","","html-keyboard-response","360","465714","0.0-1.0-483.0-0.0","0","0","70038","","null","","","null","53","","","","","","","","","","","","","","","",""
"","time_out","","html-keyboard-response","361","467720","0.0-1.0-485.0-0.0","0","0","70038","","null","","","null","53","","","","","","","","","","","","","","","",""
"","ITI","","html-keyboard-response","362","468727","0.0-1.0-486.0","0","0","70038","","null","","","null","53","","","","","","","","","","","","","","","NaN",""
"","S1","","html-keyboard-response","363","468996","0.0-1.0-488.0","0","0","70038","","null","","","null","54","","","","","","","","","","","","","","","",""
"","ISI","","html-keyboard-response","364","471015","0.0-1.0-489.0","0","0","70038","","null","","","null","54","NaN","","","","","","","","","","","","","","",""
"","S2","","html-keyboard-response","365","471284","0.0-1.0-490.0","0","0","70038","","null","","","null","54","","NaN","","","","","","","","","","","","","",""
"","response","","html-keyboard-response","366","471572","0.0-1.0-491.0","0","0","70038","","285","","","75","54","","","2","54","training","adjacent","AB","1","2","Q.jpg","M.jpg","0","1","0","",""
"","feedback","","html-keyboard-response","367","472578","0.0-1.0-492.0-0.0","0","0","70038","","null","","","null","54","","","","","","","","","","","","","","","",""
"","time_out","","html-keyboard-response","368","474596","0.0-1.0-494.0-0.0","0","0","70038","","null","","","null","54","","","","","","","","","","","","","","","",""
"","ITI","","html-keyboard-response","369","475603","0.0-1.0-495.0","0","0","70038","","null","","","null","54","","","","","","","","","","","","","","","NaN",""
"","S1","","html-keyboard-response","370","475867","0.0-1.0-497.0","0","0","70038","","null","","","null","55","","","","","","","","","","","","","","","",""
"","ISI","","html-keyboard-response","371","477873","0.0-1.0-498.0","0","0","70038","","1558","","","75","55","k","","","","","","","","","","","","","","",""
"","S2","","html-keyboard-response","372","478141","0.0-1.0-499.0","0","0","70038","","null","","","null","55","","NaN","","","","","","","","","","","","","",""
"","response","","html-keyboard-response","373","478301","0.0-1.0-500.0","0","0","70038","","157","","","75","55","","","2","55","training","adjacent","GF","7","6","N.jpg","O.jpg","0","0","1","",""
"","feedback","","html-keyboard-response","374","479309","0.0-1.0-501.0-0.0","0","0","70038","","null","","","null","55","","","","","","","","","","","","","","","",""
"","ITI","","html-keyboard-response","375","480323","0.0-1.0-504.0","0","0","70038","","null","","","null","55","","","","","","","","","","","","","","","NaN",""
"","S1","","html-keyboard-response","376","480593","0.0-1.0-506.0","0","0","70038","","null","","","null","56","","","","","","","","","","","","","","","",""
"","ISI","","html-keyboard-response","377","482604","0.0-1.0-507.0","0","0","70038","","null","","","null","56","NaN","","","","","","","","","","","","","","",""
"","S2","","html-keyboard-response","378","482870","0.0-1.0-508.0","0","0","70038","","null","","","null","56","","NaN","","","","","","","","","","","","","",""
"","response","","html-keyboard-response","379","483251","0.0-1.0-509.0","0","0","70038","","377","","","68","56","","","2","56","training","adjacent","FG","6","7","O.jpg","N.jpg","1","1","1","",""
"","feedback","","html-keyboard-response","380","484256","0.0-1.0-510.0-0.0","0","0","70038","","null","","","null","56","","","","","","","","","","","","","","","",""
"","ITI","","html-keyboard-response","381","485268","0.0-1.0-513.0","0","0","70038","","null","","","null","56","","","","","","","","","","","","","","","NaN",""
"","S1","","html-keyboard-response","382","485536","0.0-1.0-515.0","0","0","70038","","null","","","null","57","","","","","","","","","","","","","","","",""
"","ISI","","html-keyboard-response","383","487544","0.0-1.0-516.0","0","0","70038","","null","","","null","57","NaN","","","","","","","","","","","","","","",""
"","S2","","html-keyboard-response","384","487813","0.0-1.0-517.0","0","0","70038","","null","","","null","57","","NaN","","","","","","","","","","","","","",""
"","response","","html-keyboard-response","385","488280","0.0-1.0-518.0","0","0","70038","","463","","","75","57","","","2","57","training","adjacent","CB","3","2","L.jpg","M.jpg","0","0","1","",""
"","feedback","","html-keyboard-response","386","489297","0.0-1.0-519.0-0.0","0","0","70038","","null","","","null","57","","","","","","","","","","","","","","","",""
"","ITI","","html-keyboard-response","387","490310","0.0-1.0-522.0","0","0","70038","","null","","","null","57","","","","","","","","","","","","","","","NaN",""
"","S1","","html-keyboard-response","388","490577","0.0-1.0-524.0","0","0","70038","","null","","","null","58","","","","","","","","","","","","","","","",""
"","ISI","","html-keyboard-response","389","492589","0.0-1.0-525.0","0","0","70038","","null","","","null","58","NaN","","","","","","","","","","","","","","",""
"","S2","","html-keyboard-response","390","492856","0.0-1.0-526.0","0","0","70038","","null","","","null","58","","NaN","","","","","","","","","","","","","",""
"","response","","html-keyboard-response","391","493127","0.0-1.0-527.0","0","0","70038","","266","","","75","58","","","2","58","training","adjacent","ED","5","4","P.jpg","R.jpg","0","0","1","",""
"","feedback","","html-keyboard-response","392","494134","0.0-1.0-528.0-0.0","0","0","70038","","null","","","null","58","","","","","","","","","","","","","","","",""
"","ITI","","html-keyboard-response","393","495147","0.0-1.0-531.0","0","0","70038","","null","","","null","58","","","","","","","","","","","","","","","NaN",""
"","S1","","html-keyboard-response","394","495414","0.0-1.0-533.0","0","0","70038","","null","","","null","59","","","","","","","","","","","","","","","",""
"","ISI","","html-keyboard-response","395","497421","0.0-1.0-534.0","0","0","70038","","null","","","null","59","NaN","","","","","","","","","","","","","","",""
"","S2","","html-keyboard-response","396","497677","0.0-1.0-535.0","0","0","70038","","null","","","null","59","","NaN","","","","","","","","","","","","","",""
"","response","","html-keyboard-response","397","498199","0.0-1.0-536.0","0","0","70038","","518","","","75","59","","","2","59","training","adjacent","BC","2","3","M.jpg","L.jpg","0","1","0","",""
"","feedback","","html-keyboard-response","398","499217","0.0-1.0-537.0-0.0","0","0","70038","","null","","","null","59","","","","","","","","","","","","","","","",""
"","time_out","","html-keyboard-response","399","501236","0.0-1.0-539.0-0.0","0","0","70038","","null","","","null","59","","","","","","","","","","","","","","","",""
"","ITI","","html-keyboard-response","400","502246","0.0-1.0-540.0","0","0","70038","","null","","","null","59","","","","","","","","","","","","","","","NaN",""
"","S1","","html-keyboard-response","401","502513","0.0-1.0-542.0","0","0","70038","","null","","","null","60","","","","","","","","","","","","","","","",""
"","ISI","","html-keyboard-response","402","504519","0.0-1.0-543.0","0","0","70038","","null","","","null","60","NaN","","","","","","","","","","","","","","",""
"","S2","","html-keyboard-response","403","504783","0.0-1.0-544.0","0","0","70038","","null","","","null","60","","NaN","","","","","","","","","","","","","",""
"","response","","html-keyboard-response","404","505108","0.0-1.0-545.0","0","0","70038","","321","","","75","60","","","2","60","training","adjacent","CD","3","4","L.jpg","R.jpg","0","1","0","",""
"","feedback","","html-keyboard-response","405","506119","0.0-1.0-546.0-0.0","0","0","70038","","null","","","null","60","","","","","","","","","","","","","","","",""
"","time_out","","html-keyboard-response","406","508132","0.0-1.0-548.0-0.0","0","0","70038","","null","","","null","60","","","","","","","","","","","","","","","",""
"","ITI","","html-keyboard-response","407","509139","0.0-1.0-549.0","0","0","70038","","null","","","null","60","","","","","","","","","","","","","","","NaN",""
"","S1","","html-keyboard-response","408","509408","0.0-1.0-551.0","0","0","70038","","null","","","null","61","","","","","","","","","","","","","","","",""
"","ISI","","html-keyboard-response","409","511412","0.0-1.0-552.0","0","0","70038","","null","","","null","61","NaN","","","","","","","","","","","","","","",""
"","S2","","html-keyboard-response","410","511682","0.0-1.0-553.0","0","0","70038","","null","","","null","61","","NaN","","","","","","","","","","","","","",""
"","response","","html-keyboard-response","411","511939","0.0-1.0-554.0","0","0","70038","","255","","","75","61","","","2","61","training","adjacent","DC","4","3","R.jpg","L.jpg","0","0","1","",""
"","feedback","","html-keyboard-response","412","512957","0.0-1.0-555.0-0.0","0","0","70038","","null","","","null","61","","","","","","","","","","","","","","","",""
"","ITI","","html-keyboard-response","413","513967","0.0-1.0-558.0","0","0","70038","","null","","","null","61","","","","","","","","","","","","","","","NaN",""
"","S1","","html-keyboard-response","414","514232","0.0-1.0-560.0","0","0","70038","","null","","","null","62","","","","","","","","","","","","","","","",""
"","ISI","","html-keyboard-response","415","516239","0.0-1.0-561.0","0","0","70038","","null","","","null","62","NaN","","","","","","","","","","","","","","",""
"","S2","","html-keyboard-response","416","516493","0.0-1.0-562.0","0","0","70038","","null","","","null","62","","NaN","","","","","","","","","","","","","",""
"","response","","html-keyboard-response","417","516606","0.0-1.0-563.0","0","0","70038","","110","","","75","62","","","2","62","training","adjacent","DC","4","3","R.jpg","L.jpg","0","0","1","",""
"","feedback","","html-keyboard-response","418","517615","0.0-1.0-564.0-0.0","0","0","70038","","null","","","null","62","","","","","","","","","","","","","","","",""
"","ITI","","html-keyboard-response","419","518628","0.0-1.0-567.0","0","0","70038","","null","","","null","62","","","","","","","","","","","","","","","NaN",""
"","S1","","html-keyboard-response","420","518897","0.0-1.0-569.0","0","0","70038","","null","","","null","63","","","","","","","","","","","","","","","",""
"","ISI","","html-keyboard-response","421","520912","0.0-1.0-570.0","0","0","70038","","null","","","null","63","NaN","","","","","","","","","","","","","","",""
"","S2","","html-keyboard-response","422","521181","0.0-1.0-571.0","0","0","70038","","null","","","null","63","","NaN","","","","","","","","","","","","","",""
"","response","","html-keyboard-response","423","521272","0.0-1.0-572.0","0","0","70038","","87","","","75","63","","","2","63","training","adjacent","AB","1","2","Q.jpg","M.jpg","0","1","0","",""
"","feedback","","html-keyboard-response","424","522278","0.0-1.0-573.0-0.0","0","0","70038","","null","","","null","63","","","","","","","","","","","","","","","",""
"","time_out","","html-keyboard-response","425","524283","0.0-1.0-575.0-0.0","0","0","70038","","null","","","null","63","","","","","","","","","","","","","","","",""
"","ITI","","html-keyboard-response","426","525294","0.0-1.0-576.0","0","0","70038","","null","","","null","63","","","","","","","","","","","","","","","NaN",""
"","S1","","html-keyboard-response","427","525558","0.0-1.0-578.0","0","0","70038","","null","","","null","64","","","","","","","","","","","","","","","",""
"","ISI","","html-keyboard-response","428","527565","0.0-1.0-579.0","0","0","70038","","null","","","null","64","NaN","","","","","","","","","","","","","","",""
"","S2","","html-keyboard-response","429","527819","0.0-1.0-580.0","0","0","70038","","null","","","null","64","","NaN","","","","","","","","","","","","","",""
"","response","","html-keyboard-response","430","527858","0.0-1.0-581.0","0","0","70038","","36","","","75","64","","","2","64","training","adjacent","DC","4","3","R.jpg","L.jpg","0","0","1","",""
"","feedback","","html-keyboard-response","431","528876","0.0-1.0-582.0-0.0","0","0","70038","","null","","","null","64","","","","","","","","","","","","","","","",""
"","ITI","","html-keyboard-response","432","529885","0.0-1.0-585.0","0","0","70038","","null","","","null","64","","","","","","","","","","","","","","","NaN",""
"","S1","","html-keyboard-response","433","530153","0.0-1.0-587.0","0","0","70038","","null","","","null","65","","","","","","","","","","","","","","","",""
"","ISI","","html-keyboard-response","434","532161","0.0-1.0-588.0","0","0","70038","","null","","","null","65","NaN","","","","","","","","","","","","","","",""
"","S2","","html-keyboard-response","435","532427","0.0-1.0-589.0","0","0","70038","","null","","","null","65","","NaN","","","","","","","","","","","","","",""
"","response","","html-keyboard-response","436","532742","0.0-1.0-590.0","0","0","70038","","311","","","75","65","","","2","65","training","adjacent","DE","4","5","R.jpg","P.jpg","0","1","0","",""
"","feedback","","html-keyboard-response","437","533759","0.0-1.0-591.0-0.0","0","0","70038","","null","","","null","65","","","","","","","","","","","","","","","",""
"","time_out","","html-keyboard-response","438","535767","0.0-1.0-593.0-0.0","0","0","70038","","null","","","null","65","","","","","","","","","","","","","","","",""
"","ITI","","html-keyboard-response","439","536771","0.0-1.0-594.0","0","0","70038","","null","","","null","65","","","","","","","","","","","","","","","NaN",""
"","S1","","html-keyboard-response","440","537039","0.0-1.0-596.0","0","0","70038","","null","","","null","66","","","","","","","","","","","","","","","",""
"","ISI","","html-keyboard-response","441","539057","0.0-1.0-597.0","0","0","70038","","null","","","null","66","NaN","","","","","","","","","","","","","","",""
"","S2","","html-keyboard-response","442","539324","0.0-1.0-598.0","0","0","70038","","null","","","null","66","","NaN","","","","","","","","","","","","","",""
"","response","","html-keyboard-response","443","539927","0.0-1.0-599.0","0","0","70038","","600","","","68","66","","","2","66","training","adjacent","CD","3","4","L.jpg","R.jpg","1","1","1","",""
"","feedback","","html-keyboard-response","444","540936","0.0-1.0-600.0-0.0","0","0","70038","","null","","","null","66","","","","","","","","","","","","","","","",""
"","ITI","","html-keyboard-response","445","541942","0.0-1.0-603.0","0","0","70038","","null","","","null","66","","","","","","","","","","","","","","","NaN",""
"","S1","","html-keyboard-response","446","542212","0.0-1.0-605.0","0","0","70038","","null","","","null","67","","","","","","","","","","","","","","","",""
"","ISI","","html-keyboard-response","447","544219","0.0-1.0-606.0","0","0","70038","","null","","","null","67","NaN","","","","","","","","","","","","","","",""
"","S2","","html-keyboard-response","448","544487","0.0-1.0-607.0","0","0","70038","","null","","","null","67","","NaN","","","","","","","","","","","","","",""
"","response","","html-keyboard-response","449","544776","0.0-1.0-608.0","0","0","70038","","286","","","75","67","","","2","67","training","adjacent","BA","2","1","M.jpg","Q.jpg","0","0","1","",""
"","feedback","","html-keyboard-response","450","545793","0.0-1.0-609.0-0.0","0","0","70038","","null","","","null","67","","","","","","","","","","","","","","","",""
"","ITI","","html-keyboard-response","451","546811","0.0-1.0-612.0","0","0","70038","","null","","","null","67","","","","","","","","","","","","","","","NaN",""
"","S1","","html-keyboard-response","452","547080","0.0-1.0-614.0","0","0","70038","","null","","","null","68","","","","","","","","","","","","","","","",""
"","ISI","","html-keyboard-response","453","549086","0.0-1.0-615.0","0","0","70038","","null","","","null","68","NaN","","","","","","","","","","","","","","",""
"","S2","","html-keyboard-response","454","549354","0.0-1.0-616.0","0","0","70038","","null","","","null","68","","NaN","","","","","","","","","","","","","",""
"","response","","html-keyboard-response","455","549464","0.0-1.0-617.0","0","0","70038","","107","","","75","68","","","2","68","training","adjacent","EF","5","6","P.jpg","O.jpg","0","1","0","",""
"","feedback","","html-keyboard-response","456","550485","0.0-1.0-618.0-0.0","0","0","70038","","null","","","null","68","","","","","","","","","","","","","","","",""
"","time_out","","html-keyboard-response","457","552501","0.0-1.0-620.0-0.0","0","0","70038","","null","","","null","68","","","","","","","","","","","","","","","",""
"","ITI","","html-keyboard-response","458","553518","0.0-1.0-621.0","0","0","70038","","null","","","null","68","","","","","","","","","","","","","","","NaN",""
"","S1","","html-keyboard-response","459","553784","0.0-1.0-623.0","0","0","70038","","null","","","null","69","","","","","","","","","","","","","","","",""
"","ISI","","html-keyboard-response","460","555788","0.0-1.0-624.0","0","0","70038","","null","","","null","69","NaN","","","","","","","","","","","","","","",""
"","S2","","html-keyboard-response","461","556054","0.0-1.0-625.0","0","0","70038","","null","","","null","69","","NaN","","","","","","","","","","","","","",""
"","response","","html-keyboard-response","462","556399","0.0-1.0-626.0","0","0","70038","","342","","","68","69","","","2","69","training","adjacent","FG","6","7","O.jpg","N.jpg","1","1","1","",""
"","feedback","","html-keyboard-response","463","557411","0.0-1.0-627.0-0.0","0","0","70038","","null","","","null","69","","","","","","","","","","","","","","","",""
"","ITI","","html-keyboard-response","464","558418","0.0-1.0-630.0","0","0","70038","","null","","","null","69","","","","","","","","","","","","","","","NaN",""
"","S1","","html-keyboard-response","465","558687","0.0-1.0-632.0","0","0","70038","","null","","","null","70","","","","","","","","","","","","","","","",""
"","ISI","","html-keyboard-response","466","560697","0.0-1.0-633.0","0","0","70038","","null","","","null","70","NaN","","","","","","","","","","","","","","",""
"","S2","","html-keyboard-response","467","560967","0.0-1.0-634.0","0","0","70038","","null","","","null","70","","NaN","","","","","","","","","","","","","",""
"","response","","html-keyboard-response","468","561003","0.0-1.0-635.0","0","0","70038","","34","","","75","70","","","2","70","training","adjacent","ED","5","4","P.jpg","R.jpg","0","0","1","",""
"","feedback","","html-keyboard-response","469","562009","0.0-1.0-636.0-0.0","0","0","70038","","null","","","null","70","","","","","","","","","","","","","","","",""
"","ITI","","html-keyboard-response","470","563020","0.0-1.0-639.0","0","0","70038","","null","","","null","70","","","","","","","","","","","","","","","NaN",""
"","S1","","html-keyboard-response","471","563289","0.0-1.0-641.0","0","0","70038","","null","","","null","71","","","","","","","","","","","","","","","",""
"","ISI","","html-keyboard-response","472","565295","0.0-1.0-642.0","0","0","70038","","null","","","null","71","NaN","","","","","","","","","","","","","","",""
"","S2","","html-keyboard-response","473","565560","0.0-1.0-643.0","0","0","70038","","null","","","null","71","","NaN","","","","","","","","","","","","","",""
"","response","","html-keyboard-response","474","565649","0.0-1.0-644.0","0","0","70038","","83","","","75","71","","","2","71","training","adjacent","DC","4","3","R.jpg","L.jpg","0","0","1","",""
"","feedback","","html-keyboard-response","475","566660","0.0-1.0-645.0-0.0","0","0","70038","","null","","","null","71","","","","","","","","","","","","","","","",""
"","ITI","","html-keyboard-response","476","567669","0.0-1.0-648.0","0","0","70038","","null","","","null","71","","","","","","","","","","","","","","","NaN",""
"","S1","","html-keyboard-response","477","567938","0.0-1.0-650.0","0","0","70038","","null","","","null","72","","","","","","","","","","","","","","","",""
"","ISI","","html-keyboard-response","478","569946","0.0-1.0-651.0","0","0","70038","","null","","","null","72","NaN","","","","","","","","","","","","","","",""
"","S2","","html-keyboard-response","479","570212","0.0-1.0-652.0","0","0","70038","","null","","","null","72","","NaN","","","","","","","","","","","","","",""
"","response","","html-keyboard-response","480","570524","0.0-1.0-653.0","0","0","70038","","309","","","68","72","","","2","72","training","adjacent","AB","1","2","Q.jpg","M.jpg","1","1","1","",""
"","feedback","","html-keyboard-response","481","571539","0.0-1.0-654.0-0.0","0","0","70038","","null","","","null","72","","","","","","","","","","","","","","","",""
"","ITI","","html-keyboard-response","482","572545","0.0-1.0-657.0","0","0","70038","","null","","","null","72","","","","","","","","","","","","","","","NaN",""
"","S1","","html-keyboard-response","483","572812","0.0-1.0-659.0","0","0","70038","","null","","","null","73","","","","","","","","","","","","","","","",""
"","ISI","","html-keyboard-response","484","574822","0.0-1.0-660.0","0","0","70038","","null","","","null","73","NaN","","","","","","","","","","","","","","",""
"","S2","","html-keyboard-response","485","575093","0.0-1.0-661.0","0","0","70038","","null","","","null","73","","NaN","","","","","","","","","","","","","",""
"","response","","html-keyboard-response","486","575126","0.0-1.0-662.0","0","0","70038","","30","","","75","73","","","2","73","training","adjacent","BA","2","1","M.jpg","Q.jpg","0","0","1","",""
"","feedback","","html-keyboard-response","487","576142","0.0-1.0-663.0-0.0","0","0","70038","","null","","","null","73","","","","","","","","","","","","","","","",""
"","ITI","","html-keyboard-response","488","577156","0.0-1.0-666.0","0","0","70038","","null","","","null","73","","","","","","","","","","","","","","","NaN",""
"","S1","","html-keyboard-response","489","577423","0.0-1.0-668.0","0","0","70038","","null","","","null","74","","","","","","","","","","","","","","","",""
"","ISI","","html-keyboard-response","490","579430","0.0-1.0-669.0","0","0","70038","","null","","","null","74","NaN","","","","","","","","","","","","","","",""
"","S2","","html-keyboard-response","491","579697","0.0-1.0-670.0","0","0","70038","","null","","","null","74","","NaN","","","","","","","","","","","","","",""
"","response","","html-keyboard-response","492","579791","0.0-1.0-671.0","0","0","70038","","91","","","75","74","","","2","74","training","adjacent","BA","2","1","M.jpg","Q.jpg","0","0","1","",""
"","feedback","","html-keyboard-response","493","580811","0.0-1.0-672.0-0.0","0","0","70038","","null","","","null","74","","","","","","","","","","","","","","","",""
"","ITI","","html-keyboard-response","494","581825","0.0-1.0-675.0","0","0","70038","","null","","","null","74","","","","","","","","","","","","","","","NaN",""
"","S1","","html-keyboard-response","495","582090","0.0-1.0-677.0","0","0","70038","","null","","","null","75","","","","","","","","","","","","","","","",""
"","ISI","","html-keyboard-response","496","584096","0.0-1.0-678.0","0","0","70038","","null","","","null","75","NaN","","","","","","","","","","","","","","",""
"","S2","","html-keyboard-response","497","584363","0.0-1.0-679.0","0","0","70038","","null","","","null","75","","NaN","","","","","","","","","","","","","",""
"","response","","html-keyboard-response","498","584977","0.0-1.0-680.0","0","0","70038","","610","","","68","75","","","2","75","training","adjacent","CD","3","4","L.jpg","R.jpg","1","1","1","",""
"","feedback","","html-keyboard-response","499","585996","0.0-1.0-681.0-0.0","0","0","70038","","null","","","null","75","","","","","","","","","","","","","","","",""
"","ITI","","html-keyboard-response","500","587008","0.0-1.0-684.0","0","0","70038","","null","","","null","75","","","","","","","","","","","","","","","NaN",""
"","S1","","html-keyboard-response","501","587276","0.0-1.0-686.0","0","0","70038","","null","","","null","76","","","","","","","","","","","","","","","",""
"","ISI","","html-keyboard-response","502","589285","0.0-1.0-687.0","0","0","70038","","null","","","null","76","NaN","","","","","","","","","","","","","","",""
"","S2","","html-keyboard-response","503","589553","0.0-1.0-688.0","0","0","70038","","null","","","null","76","","NaN","","","","","","","","","","","","","",""
"","response","","html-keyboard-response","504","589754","0.0-1.0-689.0","0","0","70038","","198","","","75","76","","","2","76","training","adjacent","BC","2","3","M.jpg","L.jpg","0","1","0","",""
"","feedback","","html-keyboard-response","505","590767","0.0-1.0-690.0-0.0","0","0","70038","","null","","","null","76","","","","","","","","","","","","","","","",""
"","time_out","","html-keyboard-response","506","592785","0.0-1.0-692.0-0.0","0","0","70038","","null","","","null","76","","","","","","","","","","","","","","","",""
"","ITI","","html-keyboard-response","507","593799","0.0-1.0-693.0","0","0","70038","","null","","","null","76","","","","","","","","","","","","","","","NaN",""
"","S1","","html-keyboard-response","508","594066","0.0-1.0-695.0","0","0","70038","","null","","","null","77","","","","","","","","","","","","","","","",""
"","ISI","","html-keyboard-response","509","596071","0.0-1.0-696.0","0","0","70038","","null","","","null","77","NaN","","","","","","","","","","","","","","",""
"","S2","","html-keyboard-response","510","596340","0.0-1.0-697.0","0","0","70038","","null","","","null","77","","NaN","","","","","","","","","","","","","",""
"","response","","html-keyboard-response","511","596830","0.0-1.0-698.0","0","0","70038","","486","","","68","77","","","2","77","training","adjacent","BC","2","3","M.jpg","L.jpg","1","1","1","",""
"","feedback","","html-keyboard-response","512","597842","0.0-1.0-699.0-0.0","0","0","70038","","null","","","null","77","","","","","","","","","","","","","","","",""
"","ITI","","html-keyboard-response","513","598849","0.0-1.0-702.0","0","0","70038","","null","","","null","77","","","","","","","","","","","","","","","NaN",""
"","S1","","html-keyboard-response","514","599117","0.0-1.0-704.0","0","0","70038","","null","","","null","78","","","","","","","","","","","","","","","",""
"","ISI","","html-keyboard-response","515","601128","0.0-1.0-705.0","0","0","70038","","null","","","null","78","NaN","","","","","","","","","","","","","","",""
"","S2","","html-keyboard-response","516","601398","0.0-1.0-706.0","0","0","70038","","null","","","null","78","","NaN","","","","","","","","","","","","","",""
"","response","","html-keyboard-response","517","601737","0.0-1.0-707.0","0","0","70038","","336","","","68","78","","","2","78","training","adjacent","FG","6","7","O.jpg","N.jpg","1","1","1","",""
"","feedback","","html-keyboard-response","518","602757","0.0-1.0-708.0-0.0","0","0","70038","","null","","","null","78","","","","","","","","","","","","","","","",""
"","ITI","","html-keyboard-response","519","603772","0.0-1.0-711.0","0","0","70038","","null","","","null","78","","","","","","","","","","","","","","","NaN",""
"","S1","","html-keyboard-response","520","604027","0.0-1.0-713.0","0","0","70038","","null","","","null","79","","","","","","","","","","","","","","","",""
"","ISI","","html-keyboard-response","521","606032","0.0-1.0-714.0","0","0","70038","","null","","","null","79","NaN","","","","","","","","","","","","","","",""
"","S2","","html-keyboard-response","522","606301","0.0-1.0-715.0","0","0","70038","","null","","","null","79","","NaN","","","","","","","","","","","","","",""
"","response","","html-keyboard-response","523","606474","0.0-1.0-716.0","0","0","70038","","170","","","68","79","","","2","79","training","adjacent","FE","6","5","O.jpg","P.jpg","1","0","0","",""
"","feedback","","html-keyboard-response","524","607486","0.0-1.0-717.0-0.0","0","0","70038","","null","","","null","79","","","","","","","","","","","","","","","",""
"","time_out","","html-keyboard-response","525","609504","0.0-1.0-719.0-0.0","0","0","70038","","null","","","null","79","","","","","","","","","","","","","","","",""
"","ITI","","html-keyboard-response","526","610516","0.0-1.0-720.0","0","0","70038","","null","","","null","79","","","","","","","","","","","","","","","NaN",""
"","S1","","html-keyboard-response","527","610780","0.0-1.0-722.0","0","0","70038","","null","","","null","80","","","","","","","","","","","","","","","",""
"","ISI","","html-keyboard-response","528","612794","0.0-1.0-723.0","0","0","70038","","null","","","null","80","NaN","","","","","","","","","","","","","","",""
"","S2","","html-keyboard-response","529","613061","0.0-1.0-724.0","0","0","70038","","null","","","null","80","","NaN","","","","","","","","","","","","","",""
"","response","","html-keyboard-response","530","613179","0.0-1.0-725.0","0","0","70038","","114","","","75","80","","","2","80","training","adjacent","FE","6","5","O.jpg","P.jpg","0","0","1","",""
"","feedback","","html-keyboard-response","531","614194","0.0-1.0-726.0-0.0","0","0","70038","","null","","","null","80","","","","","","","","","","","","","","","",""
"","ITI","","html-keyboard-response","532","615203","0.0-1.0-729.0","0","0","70038","","null","","","null","80","","","","","","","","","","","","","","","NaN",""
"","S1","","html-keyboard-response","533","615472","0.0-1.0-731.0","0","0","70038","","null","","","null","81","","","","","","","","","","","","","","","",""
"","ISI","","html-keyboard-response","534","617492","0.0-1.0-732.0","0","0","70038","","null","","","null","81","NaN","","","","","","","","","","","","","","",""
"","S2","","html-keyboard-response","535","617760","0.0-1.0-733.0","0","0","70038","","null","","","null","81","","NaN","","","","","","","","","","","","","",""
"","response","","html-keyboard-response","536","618227","0.0-1.0-734.0","0","0","70038","","463","","","75","81","","","2","81","training","adjacent","DE","4","5","R.jpg","P.jpg","0","1","0","",""
"","feedback","","html-keyboard-response","537","619245","0.0-1.0-735.0-0.0","0","0","70038","","null","","","null","81","","","","","","","","","","","","","","","",""
"","time_out","","html-keyboard-response","538","621257","0.0-1.0-737.0-0.0","0","0","70038","","null","","","null","81","","","","","","","","","","","","","","","",""
"","ITI","","html-keyboard-response","539","622267","0.0-1.0-738.0","0","0","70038","","null","","","null","81","","","","","","","","","","","","","","","NaN",""
"","S1","","html-keyboard-response","540","622534","0.0-1.0-740.0","0","0","70038","","null","","","null","82","","","","","","","","","","","","","","","",""
"","ISI","","html-keyboard-response","541","624548","0.0-1.0-741.0","0","0","70038","","null","","","null","82","NaN","","","","","","","","","","","","","","",""
"","S2","","html-keyboard-response","542","624816","0.0-1.0-742.0","0","0","70038","","null","","","null","82","","NaN","","","","","","","","","","","","","",""
"","response","","html-keyboard-response","543","624947","0.0-1.0-743.0","0","0","70038","","128","","","68","82","","","2","82","training","adjacent","DE","4","5","R.jpg","P.jpg","1","1","1","",""
"","feedback","","html-keyboard-response","544","625964","0.0-1.0-744.0-0.0","0","0","70038","","null","","","null","82","","","","","","","","","","","","","","","",""
"","ITI","","html-keyboard-response","545","626982","0.0-1.0-747.0","0","0","70038","","null","","","null","82","","","","","","","","","","","","","","","NaN",""
"","S1","","html-keyboard-response","546","627251","0.0-1.0-749.0","0","0","70038","","null","","","null","83","","","","","","","","","","","","","","","",""
"","ISI","","html-keyboard-response","547","629265","0.0-1.0-750.0","0","0","70038","","null","","","null","83","NaN","","","","","","","","","","","","","","",""
"","S2","","html-keyboard-response","548","629532","0.0-1.0-751.0","0","0","70038","","null","","","null","83","","NaN","","","","","","","","","","","","","",""
"","response","","html-keyboard-response","549","629669","0.0-1.0-752.0","0","0","70038","","132","","","68","83","","","2","83","training","adjacent","DE","4","5","R.jpg","P.jpg","1","1","1","",""
"","feedback","","html-keyboard-response","550","630680","0.0-1.0-753.0-0.0","0","0","70038","","null","","","null","83","","","","","","","","","","","","","","","",""
"","ITI","","html-keyboard-response","551","631689","0.0-1.0-756.0","0","0","70038","","null","","","null","83","","","","","","","","","","","","","","","NaN",""
"","S1","","html-keyboard-response","552","631956","0.0-1.0-758.0","0","0","70038","","null","","","null","84","","","","","","","","","","","","","","","",""
"","ISI","","html-keyboard-response","553","633964","0.0-1.0-759.0","0","0","70038","","null","","","null","84","NaN","","","","","","","","","","","","","","",""
"","S2","","html-keyboard-response","554","634232","0.0-1.0-760.0","0","0","70038","","null","","","null","84","","NaN","","","","","","","","","","","","","",""
"","response","","html-keyboard-response","555","634560","0.0-1.0-761.0","0","0","70038","","324","","","75","84","","","2","84","training","adjacent","ED","5","4","P.jpg","R.jpg","0","0","1","",""
"","feedback","","html-keyboard-response","556","635571","0.0-1.0-762.0-0.0","0","0","70038","","null","","","null","84","","","","","","","","","","","","","","","",""
"","ITI","","html-keyboard-response","557","636585","0.0-1.0-765.0","0","0","70038","","null","","","null","84","","","","","","","","","","","","","","","NaN",""
"","S1","","html-keyboard-response","558","636852","0.0-1.0-767.0","0","0","70038","","null","","","null","85","","","","","","","","","","","","","","","",""
"","ISI","","html-keyboard-response","559","638860","0.0-1.0-768.0","0","0","70038","","null","","","null","85","NaN","","","","","","","","","","","","","","",""
"","S2","","html-keyboard-response","560","639126","0.0-1.0-769.0","0","0","70038","","null","","","null","85","","NaN","","","","","","","","","","","","","",""
"","response","","html-keyboard-response","561","639444","0.0-1.0-770.0","0","0","70038","","314","","","75","85","","","2","85","training","adjacent","BA","2","1","M.jpg","Q.jpg","0","0","1","",""
"","feedback","","html-keyboard-response","562","640461","0.0-1.0-771.0-0.0","0","0","70038","","null","","","null","85","","","","","","","","","","","","","","","",""
"","ITI","","html-keyboard-response","563","641469","0.0-1.0-774.0","0","0","70038","","null","","","null","85","","","","","","","","","","","","","","","NaN",""
"","S1","","html-keyboard-response","564","641736","0.0-1.0-776.0","0","0","70038","","null","","","null","86","","","","","","","","","","","","","","","",""
"","ISI","","html-keyboard-response","565","643741","0.0-1.0-777.0","0","0","70038","","null","","","null","86","NaN","","","","","","","","","","","","","","",""
"","S2","","html-keyboard-response","566","644009","0.0-1.0-778.0","0","0","70038","","null","","","null","86","","NaN","","","","","","","","","","","","","",""
"","response","","html-keyboard-response","567","644403","0.0-1.0-779.0","0","0","70038","","390","","","75","86","","","2","86","training","adjacent","FE","6","5","O.jpg","P.jpg","0","0","1","",""
"","feedback","","html-keyboard-response","568","645414","0.0-1.0-780.0-0.0","0","0","70038","","null","","","null","86","","","","","","","","","","","","","","","",""
"","ITI","","html-keyboard-response","569","646427","0.0-1.0-783.0","0","0","70038","","null","","","null","86","","","","","","","","","","","","","","","NaN",""
"","S1","","html-keyboard-response","570","646694","0.0-1.0-785.0","0","0","70038","","null","","","null","87","","","","","","","","","","","","","","","",""
"","ISI","","html-keyboard-response","571","648712","0.0-1.0-786.0","0","0","70038","","null","","","null","87","NaN","","","","","","","","","","","","","","",""
"","S2","","html-keyboard-response","572","648980","0.0-1.0-787.0","0","0","70038","","null","","","null","87","","NaN","","","","","","","","","","","","","",""
"","response","","html-keyboard-response","573","648985","0.0-1.0-788.0","0","0","70038","","0","","","68","87","","","2","87","training","adjacent","AB","1","2","Q.jpg","M.jpg","1","1","1","",""
"","feedback","","html-keyboard-response","574","649990","0.0-1.0-789.0-0.0","0","0","70038","","null","","","null","87","","","","","","","","","","","","","","","",""
"","ITI","","html-keyboard-response","575","651000","0.0-1.0-792.0","0","0","70038","","null","","","null","87","","","","","","","","","","","","","","","NaN",""
"","S1","","html-keyboard-response","576","651268","0.0-1.0-794.0","0","0","70038","","null","","","null","88","","","","","","","","","","","","","","","",""
"","ISI","","html-keyboard-response","577","653272","0.0-1.0-795.0","0","0","70038","","null","","","null","88","NaN","","","","","","","","","","","","","","",""
"","S2","","html-keyboard-response","578","653541","0.0-1.0-796.0","0","0","70038","","null","","","null","88","","NaN","","","","","","","","","","","","","",""
"","response","","html-keyboard-response","579","654068","0.0-1.0-797.0","0","0","70038","","524","","","68","88","","","2","88","training","adjacent","EF","5","6","P.jpg","O.jpg","1","1","1","",""
"","feedback","","html-keyboard-response","580","655090","0.0-1.0-798.0-0.0","0","0","70038","","null","","","null","88","","","","","","","","","","","","","","","",""
"","ITI","","html-keyboard-response","581","656098","0.0-1.0-801.0","0","0","70038","","null","","","null","88","","","","","","","","","","","","","","","NaN",""
"","S1","","html-keyboard-response","582","656364","0.0-1.0-803.0","0","0","70038","","null","","","null","89","","","","","","","","","","","","","","","",""
"","ISI","","html-keyboard-response","583","658374","0.0-1.0-804.0","0","0","70038","","null","","","null","89","NaN","","","","","","","","","","","","","","",""
