"success","ttype","start_time","trial_type","trial_index","time_elapsed","internal_node_id","warning","missed_checkup","PID","view_history","rt","responses","repeat_instructions","key_press","index","keypress_isi","keypress_S2","block","trial_num","phase","group_type","pair_type","S1_stim","S2_stim","S1_img","S2_img","S1_chosen","S1_higher","accuracy","keypress_iti","total_bonus_tally"
"true","full_screen","d03072023hr2159","fullscreen","0","3033","0.0-0.0","0","0","92605","","","","","","","","","","","","","","","","","","","","","",""
"","instructions","","instructions","1","46148","0.0-1.0-0.0-0.0","0","0","92605","[{""page_index"":0,""viewing_time"":6476},{""page_index"":1,""viewing_time"":18650},{""page_index"":2,""viewing_time"":6350},{""page_index"":1,""viewing_time"":8783},{""page_index"":2,""viewing_time"":1450},{""page_index"":3,""viewing_time"":1400}]","43110","","","","","","","","","","","","","","","","","","","",""
"","comprehension_check","","survey-multi-choice","2","72881","0.0-1.0-0.0-1.0","0","0","92605","","26725","{""Q0"":""True"",""Q1"":""D"",""Q2"":""Once the second image appears and while the screen 'MAKE A CHOICE' is shown"",""Q3"":""Green mark"",""Q4"":""either D or K""}","1","","","","","","","","","","","","","","","","","",""
"","missed_instruction_checkup","","html-keyboard-response","3","74509","0.0-1.0-0.0-2.0-0.0","0","1","92605","","1620","","","32","","","","","","","","","","","","","","","","",""
"","instructions","","instructions","4","95931","0.0-1.0-0.1-0.1","0","0","92605","[{""page_index"":0,""viewing_time"":5149},{""page_index"":1,""viewing_time"":9067},{""page_index"":2,""viewing_time"":6150},{""page_index"":3,""viewing_time"":1050}]","21416","","","","","","","","","","","","","","","","","","","",""
"","comprehension_check","","survey-multi-choice","5","116081","0.0-1.0-0.1-1.1","0","0","92605","","20142","{""Q0"":""True"",""Q1"":""K"",""Q2"":""Once the second image appears and while the screen 'MAKE A CHOICE' is shown"",""Q3"":""Green mark"",""Q4"":""either D or K""}","0","","","","","","","","","","","","","","","","","",""
"","start_exp","","html-keyboard-response","6","117129","0.0-1.0-1.0","0","0","92605","","1044","","","32","","","","","","","","","","","","","","","","",""
"","S1","","html-keyboard-response","7","117391","0.0-1.0-2.0","0","0","92605","","null","","","null","0","","","","","","","","","","","","","","","",""
"","ISI","","html-keyboard-response","8","118409","0.0-1.0-3.0","0","0","92605","","null","","","null","0","NaN","","","","","","","","","","","","","","",""
"","S2","","html-keyboard-response","9","118671","0.0-1.0-4.0","0","0","92605","","null","","","null","0","","NaN","","","","","","","","","","","","","",""
"","response","","html-keyboard-response","10","120000","0.0-1.0-5.0-0.0","0","0","92605","","1328","","","68","0","","","1","0","training","adjacent","ED","5","4","L.jpg","Q.jpg","0","0","1","",""
"","feedback","","html-keyboard-response","11","121014","0.0-1.0-6.0-0.0","0","0","92605","","null","","","null","0","","","","","","","","","","","","","","","",""
"","ITI","","html-keyboard-response","12","122026","0.0-1.0-9.0","0","0","92605","","null","","","null","0","","","","","","","","","","","","","","","NaN",""
"","S1","","html-keyboard-response","13","122283","0.0-1.0-11.0","0","0","92605","","null","","","null","1","","","","","","","","","","","","","","","",""
"","ISI","","html-keyboard-response","14","123295","0.0-1.0-12.0","0","0","92605","","null","","","null","1","NaN","","","","","","","","","","","","","","",""
"","S2","","html-keyboard-response","15","123561","0.0-1.0-13.0","0","0","92605","","null","","","null","1","","NaN","","","","","","","","","","","","","",""
"","response","","html-keyboard-response","16","123910","0.0-1.0-14.0-0.0","0","0","92605","","344","","","75","1","","","1","1","training","adjacent","EF","5","6","L.jpg","N.jpg","1","1","1","",""
"","feedback","","html-keyboard-response","17","124921","0.0-1.0-15.0-0.0","0","0","92605","","null","","","null","1","","","","","","","","","","","","","","","",""
"","ITI","","html-keyboard-response","18","125934","0.0-1.0-18.0","0","0","92605","","null","","","null","1","","","","","","","","","","","","","","","NaN",""
"","S1","","html-keyboard-response","19","126200","0.0-1.0-20.0","0","0","92605","","null","","","null","2","","","","","","","","","","","","","","","",""
"","ISI","","html-keyboard-response","20","127211","0.0-1.0-21.0","0","0","92605","","null","","","null","2","NaN","","","","","","","","","","","","","","",""
"","S2","","html-keyboard-response","21","127469","0.0-1.0-22.0","0","0","92605","","null","","","null","2","","NaN","","","","","","","","","","","","","",""
"","response","","html-keyboard-response","22","127754","0.0-1.0-23.0-0.0","0","0","92605","","280","","","75","2","","","1","2","training","adjacent","CB","3","2","M.jpg","O.jpg","1","0","0","",""
"","feedback","","html-keyboard-response","23","128766","0.0-1.0-24.0-0.0","0","0","92605","","null","","","null","2","","","","","","","","","","","","","","","",""
"","time_out","","html-keyboard-response","24","130775","0.0-1.0-26.0-0.0","0","0","92605","","null","","","null","2","","","","","","","","","","","","","","","",""
"","ITI","","html-keyboard-response","25","131785","0.0-1.0-27.0","0","0","92605","","null","","","null","2","","","","","","","","","","","","","","","NaN",""
"","S1","","html-keyboard-response","26","132046","0.0-1.0-29.0","0","0","92605","","null","","","null","3","","","","","","","","","","","","","","","",""
"","ISI","","html-keyboard-response","27","133054","0.0-1.0-30.0","0","0","92605","","null","","","null","3","NaN","","","","","","","","","","","","","","",""
"","S2","","html-keyboard-response","28","133321","0.0-1.0-31.0","0","0","92605","","null","","","null","3","","NaN","","","","","","","","","","","","","",""
"","response","","html-keyboard-response","29","133648","0.0-1.0-32.0-0.0","0","0","92605","","323","","","68","3","","","1","3","training","adjacent","ED","5","4","L.jpg","Q.jpg","0","0","1","",""
"","feedback","","html-keyboard-response","30","134665","0.0-1.0-33.0-0.0","0","0","92605","","null","","","null","3","","","","","","","","","","","","","","","",""
"","ITI","","html-keyboard-response","31","135678","0.0-1.0-36.0","0","0","92605","","null","","","null","3","","","","","","","","","","","","","","","NaN",""
"","S1","","html-keyboard-response","32","135945","0.0-1.0-38.0","0","0","92605","","null","","","null","4","","","","","","","","","","","","","","","",""
"","ISI","","html-keyboard-response","33","136958","0.0-1.0-39.0","0","0","92605","","null","","","null","4","NaN","","","","","","","","","","","","","","",""
"","S2","","html-keyboard-response","34","137214","0.0-1.0-40.0","0","0","92605","","null","","","null","4","","NaN","","","","","","","","","","","","","",""
"","response","","html-keyboard-response","35","137703","0.0-1.0-41.0-0.0","0","0","92605","","486","","","68","4","","","1","4","training","adjacent","DC","4","3","Q.jpg","M.jpg","0","0","1","",""
"","feedback","","html-keyboard-response","36","138718","0.0-1.0-42.0-0.0","0","0","92605","","null","","","null","4","","","","","","","","","","","","","","","",""
"","ITI","","html-keyboard-response","37","139726","0.0-1.0-45.0","0","0","92605","","null","","","null","4","","","","","","","","","","","","","","","NaN",""
"","S1","","html-keyboard-response","38","139993","0.0-1.0-47.0","0","0","92605","","null","","","null","5","","","","","","","","","","","","","","","",""
"","ISI","","html-keyboard-response","39","141006","0.0-1.0-48.0","0","0","92605","","null","","","null","5","NaN","","","","","","","","","","","","","","",""
"","S2","","html-keyboard-response","40","141272","0.0-1.0-49.0","0","0","92605","","null","","","null","5","","NaN","","","","","","","","","","","","","",""
"","response","","html-keyboard-response","41","141434","0.0-1.0-50.0-0.0","0","0","92605","","157","","","75","5","","","1","5","training","adjacent","FE","6","5","N.jpg","L.jpg","1","0","0","",""
"","feedback","","html-keyboard-response","42","142444","0.0-1.0-51.0-0.0","0","0","92605","","null","","","null","5","","","","","","","","","","","","","","","",""
"","time_out","","html-keyboard-response","43","144456","0.0-1.0-53.0-0.0","0","0","92605","","null","","","null","5","","","","","","","","","","","","","","","",""
"","ITI","","html-keyboard-response","44","145470","0.0-1.0-54.0","0","0","92605","","null","","","null","5","","","","","","","","","","","","","","","NaN",""
"","S1","","html-keyboard-response","45","145736","0.0-1.0-56.0","0","0","92605","","null","","","null","6","","","","","","","","","","","","","","","",""
"","ISI","","html-keyboard-response","46","146749","0.0-1.0-57.0","0","0","92605","","null","","","null","6","NaN","","","","","","","","","","","","","","",""
"","S2","","html-keyboard-response","47","147016","0.0-1.0-58.0","0","0","92605","","null","","","null","6","","NaN","","","","","","","","","","","","","",""
"","response","","html-keyboard-response","48","147540","0.0-1.0-59.0-0.0","0","0","92605","","519","","","75","6","","","1","6","training","adjacent","GF","7","6","R.jpg","N.jpg","1","0","0","",""
"","feedback","","html-keyboard-response","49","148552","0.0-1.0-60.0-0.0","0","0","92605","","null","","","null","6","","","","","","","","","","","","","","","",""
"","time_out","","html-keyboard-response","50","150568","0.0-1.0-62.0-0.0","0","0","92605","","null","","","null","6","","","","","","","","","","","","","","","",""
"","ITI","","html-keyboard-response","51","151581","0.0-1.0-63.0","0","0","92605","","null","","","null","6","","","","","","","","","","","","","","","NaN",""
"","S1","","html-keyboard-response","52","151848","0.0-1.0-65.0","0","0","92605","","null","","","null","7","","","","","","","","","","","","","","","",""
"","ISI","","html-keyboard-response","53","152861","0.0-1.0-66.0","0","0","92605","","null","","","null","7","NaN","","","","","","","","","","","","","","",""
"","S2","","html-keyboard-response","54","153128","0.0-1.0-67.0","0","0","92605","","null","","","null","7","","NaN","","","","","","","","","","","","","",""
"","response","","html-keyboard-response","55","153313","0.0-1.0-68.0-0.0","0","0","92605","","180","","","68","7","","","1","7","training","adjacent","DE","4","5","Q.jpg","L.jpg","0","1","0","",""
"","feedback","","html-keyboard-response","56","154328","0.0-1.0-69.0-0.0","0","0","92605","","null","","","null","7","","","","","","","","","","","","","","","",""
"","time_out","","html-keyboard-response","57","156344","0.0-1.0-71.0-0.0","0","0","92605","","null","","","null","7","","","","","","","","","","","","","","","",""
"","ITI","","html-keyboard-response","58","157357","0.0-1.0-72.0","0","0","92605","","null","","","null","7","","","","","","","","","","","","","","","NaN",""
"","S1","","html-keyboard-response","59","157624","0.0-1.0-74.0","0","0","92605","","null","","","null","8","","","","","","","","","","","","","","","",""
"","ISI","","html-keyboard-response","60","158637","0.0-1.0-75.0","0","0","92605","","null","","","null","8","NaN","","","","","","","","","","","","","","",""
"","S2","","html-keyboard-response","61","158904","0.0-1.0-76.0","0","0","92605","","null","","","null","8","","NaN","","","","","","","","","","","","","",""
"","response","","html-keyboard-response","62","159265","0.0-1.0-77.0-0.0","0","0","92605","","357","","","75","8","","","1","8","training","adjacent","GF","7","6","R.jpg","N.jpg","1","0","0","",""
"","feedback","","html-keyboard-response","63","160280","0.0-1.0-78.0-0.0","0","0","92605","","null","","","null","8","","","","","","","","","","","","","","","",""
"","time_out","","html-keyboard-response","64","162296","0.0-1.0-80.0-0.0","0","0","92605","","null","","","null","8","","","","","","","","","","","","","","","",""
"","ITI","","html-keyboard-response","65","163309","0.0-1.0-81.0","0","0","92605","","null","","","null","8","","","","","","","","","","","","","","","NaN",""
"","S1","","html-keyboard-response","66","163576","0.0-1.0-83.0","0","0","92605","","null","","","null","9","","","","","","","","","","","","","","","",""
"","ISI","","html-keyboard-response","67","164589","0.0-1.0-84.0","0","0","92605","","null","","","null","9","NaN","","","","","","","","","","","","","","",""
"","S2","","html-keyboard-response","68","164855","0.0-1.0-85.0","0","0","92605","","null","","","null","9","","NaN","","","","","","","","","","","","","",""
"","response","","html-keyboard-response","69","164898","0.0-1.0-86.0-0.0","0","0","92605","","38","","","75","9","","","1","9","training","adjacent","AB","1","2","P.jpg","O.jpg","1","1","1","",""
"","feedback","","html-keyboard-response","70","165910","0.0-1.0-87.0-0.0","0","0","92605","","null","","","null","9","","","","","","","","","","","","","","","",""
"","ITI","","html-keyboard-response","71","166925","0.0-1.0-90.0","0","0","92605","","null","","","null","9","","","","","","","","","","","","","","","NaN",""
"","S1","","html-keyboard-response","72","167191","0.0-1.0-92.0","0","0","92605","","null","","","null","10","","","","","","","","","","","","","","","",""
"","ISI","","html-keyboard-response","73","168205","0.0-1.0-93.0","0","0","92605","","null","","","null","10","NaN","","","","","","","","","","","","","","",""
"","S2","","html-keyboard-response","74","168471","0.0-1.0-94.0","0","0","92605","","null","","","null","10","","NaN","","","","","","","","","","","","","",""
"","response","","html-keyboard-response","75","168537","0.0-1.0-95.0-0.0","0","0","92605","","61","","","75","10","","","1","10","training","adjacent","CD","3","4","M.jpg","Q.jpg","1","1","1","",""
"","feedback","","html-keyboard-response","76","169549","0.0-1.0-96.0-0.0","0","0","92605","","null","","","null","10","","","","","","","","","","","","","","","",""
"","ITI","","html-keyboard-response","77","170557","0.0-1.0-99.0","0","0","92605","","null","","","null","10","","","","","","","","","","","","","","","NaN",""
"","S1","","html-keyboard-response","78","170823","0.0-1.0-101.0","0","0","92605","","null","","","null","11","","","","","","","","","","","","","","","",""
"","ISI","","html-keyboard-response","79","171836","0.0-1.0-102.0","0","0","92605","","null","","","null","11","NaN","","","","","","","","","","","","","","",""
"","S2","","html-keyboard-response","80","172103","0.0-1.0-103.0","0","0","92605","","null","","","null","11","","NaN","","","","","","","","","","","","","",""
"","response","","html-keyboard-response","81","172382","0.0-1.0-104.0-0.0","0","0","92605","","273","","","68","11","","","1","11","training","adjacent","AB","1","2","P.jpg","O.jpg","0","1","0","",""
"","feedback","","html-keyboard-response","82","173399","0.0-1.0-105.0-0.0","0","0","92605","","null","","","null","11","","","","","","","","","","","","","","","",""
"","time_out","","html-keyboard-response","83","175416","0.0-1.0-107.0-0.0","0","0","92605","","null","","","null","11","","","","","","","","","","","","","","","",""
"","ITI","","html-keyboard-response","84","176428","0.0-1.0-108.0","0","0","92605","","null","","","null","11","","","","","","","","","","","","","","","NaN",""
"","S1","","html-keyboard-response","85","176695","0.0-1.0-110.0","0","0","92605","","null","","","null","12","","","","","","","","","","","","","","","",""
"","ISI","","html-keyboard-response","86","177708","0.0-1.0-111.0","0","0","92605","","null","","","null","12","NaN","","","","","","","","","","","","","","",""
"","S2","","html-keyboard-response","87","177975","0.0-1.0-112.0","0","0","92605","","null","","","null","12","","NaN","","","","","","","","","","","","","",""
"","response","","html-keyboard-response","88","178001","0.0-1.0-113.0-0.0","0","0","92605","","22","","","68","12","","","1","12","training","adjacent","BC","2","3","O.jpg","M.jpg","0","1","0","",""
"","feedback","","html-keyboard-response","89","179015","0.0-1.0-114.0-0.0","0","0","92605","","null","","","null","12","","","","","","","","","","","","","","","",""
"","time_out","","html-keyboard-response","90","181031","0.0-1.0-116.0-0.0","0","0","92605","","null","","","null","12","","","","","","","","","","","","","","","",""
"","ITI","","html-keyboard-response","91","182044","0.0-1.0-117.0","0","0","92605","","null","","","null","12","","","","","","","","","","","","","","","NaN",""
"","S1","","html-keyboard-response","92","182311","0.0-1.0-119.0","0","0","92605","","null","","","null","13","","","","","","","","","","","","","","","",""
"","ISI","","html-keyboard-response","93","183324","0.0-1.0-120.0","0","0","92605","","null","","","null","13","NaN","","","","","","","","","","","","","","",""
"","S2","","html-keyboard-response","94","183591","0.0-1.0-121.0","0","0","92605","","null","","","null","13","","NaN","","","","","","","","","","","","","",""
"","response","","html-keyboard-response","95","183657","0.0-1.0-122.0-0.0","0","0","92605","","60","","","68","13","","","1","13","training","adjacent","FG","6","7","N.jpg","R.jpg","0","1","0","",""
"","feedback","","html-keyboard-response","96","184665","0.0-1.0-123.0-0.0","0","0","92605","","null","","","null","13","","","","","","","","","","","","","","","",""
"","time_out","","html-keyboard-response","97","186679","0.0-1.0-125.0-0.0","0","0","92605","","null","","","null","13","","","","","","","","","","","","","","","",""
"","ITI","","html-keyboard-response","98","187692","0.0-1.0-126.0","0","0","92605","","null","","","null","13","","","","","","","","","","","","","","","NaN",""
"","S1","","html-keyboard-response","99","187958","0.0-1.0-128.0","0","0","92605","","null","","","null","14","","","","","","","","","","","","","","","",""
"","ISI","","html-keyboard-response","100","188972","0.0-1.0-129.0","0","0","92605","","null","","","null","14","NaN","","","","","","","","","","","","","","",""
"","S2","","html-keyboard-response","101","189239","0.0-1.0-130.0","0","0","92605","","null","","","null","14","","NaN","","","","","","","","","","","","","",""
"","response","","html-keyboard-response","102","189287","0.0-1.0-131.0-0.0","0","0","92605","","44","","","75","14","","","1","14","training","adjacent","CD","3","4","M.jpg","Q.jpg","1","1","1","",""
"","feedback","","html-keyboard-response","103","190300","0.0-1.0-132.0-0.0","0","0","92605","","null","","","null","14","","","","","","","","","","","","","","","",""
"","ITI","","html-keyboard-response","104","191318","0.0-1.0-135.0","0","0","92605","","null","","","null","14","","","","","","","","","","","","","","","NaN",""
"","S1","","html-keyboard-response","105","191580","0.0-1.0-137.0","0","0","92605","","null","","","null","15","","","","","","","","","","","","","","","",""
"","ISI","","html-keyboard-response","106","192588","0.0-1.0-138.0","0","0","92605","","null","","","null","15","NaN","","","","","","","","","","","","","","",""
"","S2","","html-keyboard-response","107","192854","0.0-1.0-139.0","0","0","92605","","null","","","null","15","","NaN","","","","","","","","","","","","","",""
"","response","","html-keyboard-response","108","193139","0.0-1.0-140.0-0.0","0","0","92605","","280","","","75","15","","","1","15","training","adjacent","CB","3","2","M.jpg","O.jpg","1","0","0","",""
"","feedback","","html-keyboard-response","109","194150","0.0-1.0-141.0-0.0","0","0","92605","","null","","","null","15","","","","","","","","","","","","","","","",""
"","time_out","","html-keyboard-response","110","196166","0.0-1.0-143.0-0.0","0","0","92605","","null","","","null","15","","","","","","","","","","","","","","","",""
"","ITI","","html-keyboard-response","111","197180","0.0-1.0-144.0","0","0","92605","","null","","","null","15","","","","","","","","","","","","","","","NaN",""
"","S1","","html-keyboard-response","112","197443","0.0-1.0-146.0","0","0","92605","","null","","","null","16","","","","","","","","","","","","","","","",""
"","ISI","","html-keyboard-response","113","198453","0.0-1.0-147.0","0","0","92605","","null","","","null","16","NaN","","","","","","","","","","","","","","",""
"","S2","","html-keyboard-response","114","198716","0.0-1.0-148.0","0","0","92605","","null","","","null","16","","NaN","","","","","","","","","","","","","",""
"","response","","html-keyboard-response","115","199032","0.0-1.0-149.0-0.0","0","0","92605","","312","","","75","16","","","1","16","training","adjacent","FG","6","7","N.jpg","R.jpg","1","1","1","",""
"","feedback","","html-keyboard-response","116","200043","0.0-1.0-150.0-0.0","0","0","92605","","null","","","null","16","","","","","","","","","","","","","","","",""
"","ITI","","html-keyboard-response","117","201051","0.0-1.0-153.0","0","0","92605","","null","","","null","16","","","","","","","","","","","","","","","NaN",""
"","S1","","html-keyboard-response","118","201318","0.0-1.0-155.0","0","0","92605","","null","","","null","17","","","","","","","","","","","","","","","",""
"","ISI","","html-keyboard-response","119","202332","0.0-1.0-156.0","0","0","92605","","null","","","null","17","NaN","","","","","","","","","","","","","","",""
"","S2","","html-keyboard-response","120","202595","0.0-1.0-157.0","0","0","92605","","null","","","null","17","","NaN","","","","","","","","","","","","","",""
"","response","","html-keyboard-response","121","202746","0.0-1.0-158.0-0.0","0","0","92605","","147","","","75","17","","","1","17","training","adjacent","BC","2","3","O.jpg","M.jpg","1","1","1","",""
"","feedback","","html-keyboard-response","122","203756","0.0-1.0-159.0-0.0","0","0","92605","","null","","","null","17","","","","","","","","","","","","","","","",""
"","ITI","","html-keyboard-response","123","204774","0.0-1.0-162.0","0","0","92605","","null","","","null","17","","","","","","","","","","","","","","","NaN",""
"","S1","","html-keyboard-response","124","205035","0.0-1.0-164.0","0","0","92605","","null","","","null","18","","","","","","","","","","","","","","","",""
"","ISI","","html-keyboard-response","125","206043","0.0-1.0-165.0","0","0","92605","","null","","","null","18","NaN","","","","","","","","","","","","","","",""
"","S2","","html-keyboard-response","126","206310","0.0-1.0-166.0","0","0","92605","","null","","","null","18","","NaN","","","","","","","","","","","","","",""
"","response","","html-keyboard-response","127","206642","0.0-1.0-167.0-0.0","0","0","92605","","328","","","75","18","","","1","18","training","adjacent","EF","5","6","L.jpg","N.jpg","1","1","1","",""
"","feedback","","html-keyboard-response","128","207654","0.0-1.0-168.0-0.0","0","0","92605","","null","","","null","18","","","","","","","","","","","","","","","",""
"","ITI","","html-keyboard-response","129","208667","0.0-1.0-171.0","0","0","92605","","null","","","null","18","","","","","","","","","","","","","","","NaN",""
"","S1","","html-keyboard-response","130","208934","0.0-1.0-173.0","0","0","92605","","null","","","null","19","","","","","","","","","","","","","","","",""
"","ISI","","html-keyboard-response","131","209947","0.0-1.0-174.0","0","0","92605","","null","","","null","19","NaN","","","","","","","","","","","","","","",""
"","S2","","html-keyboard-response","132","210214","0.0-1.0-175.0","0","0","92605","","null","","","null","19","","NaN","","","","","","","","","","","","","",""
"","response","","html-keyboard-response","133","210625","0.0-1.0-176.0-0.0","0","0","92605","","407","","","75","19","","","1","19","training","adjacent","FE","6","5","N.jpg","L.jpg","1","0","0","",""
"","feedback","","html-keyboard-response","134","211638","0.0-1.0-177.0-0.0","0","0","92605","","null","","","null","19","","","","","","","","","","","","","","","",""
"","time_out","","html-keyboard-response","135","213653","0.0-1.0-179.0-0.0","0","0","92605","","null","","","null","19","","","","","","","","","","","","","","","",""
"","ITI","","html-keyboard-response","136","214667","0.0-1.0-180.0","0","0","92605","","null","","","null","19","","","","","","","","","","","","","","","NaN",""
"","S1","","html-keyboard-response","137","214934","0.0-1.0-182.0","0","0","92605","","null","","","null","20","","","","","","","","","","","","","","","",""
"","ISI","","html-keyboard-response","138","215947","0.0-1.0-183.0","0","0","92605","","null","","","null","20","NaN","","","","","","","","","","","","","","",""
"","S2","","html-keyboard-response","139","216214","0.0-1.0-184.0","0","0","92605","","null","","","null","20","","NaN","","","","","","","","","","","","","",""
"","response","","html-keyboard-response","140","216583","0.0-1.0-185.0-0.0","0","0","92605","","364","","","68","20","","","1","20","training","adjacent","GF","7","6","R.jpg","N.jpg","0","0","1","",""
"","feedback","","html-keyboard-response","141","217595","0.0-1.0-186.0-0.0","0","0","92605","","null","","","null","20","","","","","","","","","","","","","","","",""
"","ITI","","html-keyboard-response","142","218603","0.0-1.0-189.0","0","0","92605","","null","","","null","20","","","","","","","","","","","","","","","NaN",""
"","S1","","html-keyboard-response","143","218870","0.0-1.0-191.0","0","0","92605","","null","","","null","21","","","","","","","","","","","","","","","",""
"","ISI","","html-keyboard-response","144","219883","0.0-1.0-192.0","0","0","92605","","null","","","null","21","NaN","","","","","","","","","","","","","","",""
"","S2","","html-keyboard-response","145","220150","0.0-1.0-193.0","0","0","92605","","null","","","null","21","","NaN","","","","","","","","","","","","","",""
"","response","","html-keyboard-response","146","220207","0.0-1.0-194.0-0.0","0","0","92605","","53","","","68","21","","","1","21","training","adjacent","GF","7","6","R.jpg","N.jpg","0","0","1","",""
"","feedback","","html-keyboard-response","147","221221","0.0-1.0-195.0-0.0","0","0","92605","","null","","","null","21","","","","","","","","","","","","","","","",""
"","ITI","","html-keyboard-response","148","222235","0.0-1.0-198.0","0","0","92605","","null","","","null","21","","","","","","","","","","","","","","","NaN",""
"","S1","","html-keyboard-response","149","222502","0.0-1.0-200.0","0","0","92605","","null","","","null","22","","","","","","","","","","","","","","","",""
"","ISI","","html-keyboard-response","150","223515","0.0-1.0-201.0","0","0","92605","","null","","","null","22","NaN","","","","","","","","","","","","","","",""
"","S2","","html-keyboard-response","151","223781","0.0-1.0-202.0","0","0","92605","","null","","","null","22","","NaN","","","","","","","","","","","","","",""
"","response","","html-keyboard-response","152","224077","0.0-1.0-203.0-0.0","0","0","92605","","290","","","68","22","","","1","22","training","adjacent","BC","2","3","O.jpg","M.jpg","0","1","0","",""
"","feedback","","html-keyboard-response","153","225094","0.0-1.0-204.0-0.0","0","0","92605","","null","","","null","22","","","","","","","","","","","","","","","",""
"","time_out","","html-keyboard-response","154","227109","0.0-1.0-206.0-0.0","0","0","92605","","null","","","null","22","","","","","","","","","","","","","","","",""
"","ITI","","html-keyboard-response","155","228123","0.0-1.0-207.0","0","0","92605","","null","","","null","22","","","","","","","","","","","","","","","NaN",""
"","S1","","html-keyboard-response","156","228389","0.0-1.0-209.0","0","0","92605","","null","","","null","23","","","","","","","","","","","","","","","",""
"","ISI","","html-keyboard-response","157","229403","0.0-1.0-210.0","0","0","92605","","423","","","75","23","k","","","","","","","","","","","","","","",""
"","S2","","html-keyboard-response","158","229669","0.0-1.0-211.0","0","0","92605","","null","","","null","23","","NaN","","","","","","","","","","","","","",""
"","response","","html-keyboard-response","159","230078","0.0-1.0-212.0-0.0","0","0","92605","","403","","","75","23","","","1","23","training","adjacent","DC","4","3","Q.jpg","M.jpg","1","0","0","",""
"","feedback","","html-keyboard-response","160","231093","0.0-1.0-213.0-0.0","0","0","92605","","null","","","null","23","","","","","","","","","","","","","","","",""
"","time_out","","html-keyboard-response","161","233109","0.0-1.0-215.0-0.0","0","0","92605","","null","","","null","23","","","","","","","","","","","","","","","",""
"","ITI","","html-keyboard-response","162","234123","0.0-1.0-216.0","0","0","92605","","null","","","null","23","","","","","","","","","","","","","","","NaN",""
"","S1","","html-keyboard-response","163","234389","0.0-1.0-218.0","0","0","92605","","null","","","null","24","","","","","","","","","","","","","","","",""
"","ISI","","html-keyboard-response","164","235402","0.0-1.0-219.0","0","0","92605","","null","","","null","24","NaN","","","","","","","","","","","","","","",""
"","S2","","html-keyboard-response","165","235669","0.0-1.0-220.0","0","0","92605","","null","","","null","24","","NaN","","","","","","","","","","","","","",""
"","response","","html-keyboard-response","166","235989","0.0-1.0-221.0-0.0","0","0","92605","","314","","","75","24","","","1","24","training","adjacent","ED","5","4","L.jpg","Q.jpg","1","0","0","",""
"","feedback","","html-keyboard-response","167","237002","0.0-1.0-222.0-0.0","0","0","92605","","null","","","null","24","","","","","","","","","","","","","","","",""
"","time_out","","html-keyboard-response","168","239018","0.0-1.0-224.0-0.0","0","0","92605","","null","","","null","24","","","","","","","","","","","","","","","",""
"","ITI","","html-keyboard-response","169","240026","0.0-1.0-225.0","0","0","92605","","null","","","null","24","","","","","","","","","","","","","","","NaN",""
"","S1","","html-keyboard-response","170","240293","0.0-1.0-227.0","0","0","92605","","null","","","null","25","","","","","","","","","","","","","","","",""
"","ISI","","html-keyboard-response","171","241304","0.0-1.0-228.0","0","0","92605","","null","","","null","25","NaN","","","","","","","","","","","","","","",""
"","S2","","html-keyboard-response","172","241562","0.0-1.0-229.0","0","0","92605","","null","","","null","25","","NaN","","","","","","","","","","","","","",""
"","response","","html-keyboard-response","173","241923","0.0-1.0-230.0-0.0","0","0","92605","","355","","","68","25","","","1","25","training","adjacent","DE","4","5","Q.jpg","L.jpg","0","1","0","",""
"","feedback","","html-keyboard-response","174","242935","0.0-1.0-231.0-0.0","0","0","92605","","null","","","null","25","","","","","","","","","","","","","","","",""
"","time_out","","html-keyboard-response","175","244949","0.0-1.0-233.0-0.0","0","0","92605","","null","","","null","25","","","","","","","","","","","","","","","",""
"","ITI","","html-keyboard-response","176","245962","0.0-1.0-234.0","0","0","92605","","null","","","null","25","","","","","","","","","","","","","","","NaN",""
"","S1","","html-keyboard-response","177","246228","0.0-1.0-236.0","0","0","92605","","null","","","null","26","","","","","","","","","","","","","","","",""
"","ISI","","html-keyboard-response","178","247242","0.0-1.0-237.0","0","0","92605","","null","","","null","26","NaN","","","","","","","","","","","","","","",""
"","S2","","html-keyboard-response","179","247508","0.0-1.0-238.0","0","0","92605","","null","","","null","26","","NaN","","","","","","","","","","","","","",""
"","response","","html-keyboard-response","180","248296","0.0-1.0-239.0-0.0","0","0","92605","","783","","","75","26","","","1","26","training","adjacent","EF","5","6","L.jpg","N.jpg","1","1","1","",""
"","feedback","","html-keyboard-response","181","249305","0.0-1.0-240.0-0.0","0","0","92605","","null","","","null","26","","","","","","","","","","","","","","","",""
"","ITI","","html-keyboard-response","182","250313","0.0-1.0-243.0","0","0","92605","","null","","","null","26","","","","","","","","","","","","","","","NaN",""
"","S1","","html-keyboard-response","183","250580","0.0-1.0-245.0","0","0","92605","","null","","","null","27","","","","","","","","","","","","","","","",""
"","ISI","","html-keyboard-response","184","251594","0.0-1.0-246.0","0","0","92605","","null","","","null","27","NaN","","","","","","","","","","","","","","",""
"","S2","","html-keyboard-response","185","251860","0.0-1.0-247.0","0","0","92605","","null","","","null","27","","NaN","","","","","","","","","","","","","",""
"","response","","html-keyboard-response","186","252076","0.0-1.0-248.0-0.0","0","0","92605","","211","","","75","27","","","1","27","training","adjacent","BA","2","1","O.jpg","P.jpg","1","0","0","",""
"","feedback","","html-keyboard-response","187","253092","0.0-1.0-249.0-0.0","0","0","92605","","null","","","null","27","","","","","","","","","","","","","","","",""
"","time_out","","html-keyboard-response","188","255108","0.0-1.0-251.0-0.0","0","0","92605","","null","","","null","27","","","","","","","","","","","","","","","",""
"","ITI","","html-keyboard-response","189","256121","0.0-1.0-252.0","0","0","92605","","null","","","null","27","","","","","","","","","","","","","","","NaN",""
"","S1","","html-keyboard-response","190","256388","0.0-1.0-254.0","0","0","92605","","null","","","null","28","","","","","","","","","","","","","","","",""
"","ISI","","html-keyboard-response","191","257401","0.0-1.0-255.0","0","0","92605","","null","","","null","28","NaN","","","","","","","","","","","","","","",""
"","S2","","html-keyboard-response","192","257668","0.0-1.0-256.0","0","0","92605","","null","","","null","28","","NaN","","","","","","","","","","","","","",""
"","response","","html-keyboard-response","193","257842","0.0-1.0-257.0-0.0","0","0","92605","","169","","","75","28","","","1","28","training","adjacent","FG","6","7","N.jpg","R.jpg","1","1","1","",""
"","feedback","","html-keyboard-response","194","258857","0.0-1.0-258.0-0.0","0","0","92605","","null","","","null","28","","","","","","","","","","","","","","","",""
"","ITI","","html-keyboard-response","195","259876","0.0-1.0-261.0","0","0","92605","","null","","","null","28","","","","","","","","","","","","","","","NaN",""
"","S1","","html-keyboard-response","196","260137","0.0-1.0-263.0","0","0","92605","","null","","","null","29","","","","","","","","","","","","","","","",""
"","ISI","","html-keyboard-response","197","261145","0.0-1.0-264.0","0","0","92605","","null","","","null","29","NaN","","","","","","","","","","","","","","",""
"","S2","","html-keyboard-response","198","261412","0.0-1.0-265.0","0","0","92605","","null","","","null","29","","NaN","","","","","","","","","","","","","",""
"","response","","html-keyboard-response","199","261444","0.0-1.0-266.0-0.0","0","0","92605","","28","","","75","29","","","1","29","training","adjacent","DE","4","5","Q.jpg","L.jpg","1","1","1","",""
"","feedback","","html-keyboard-response","200","262457","0.0-1.0-267.0-0.0","0","0","92605","","null","","","null","29","","","","","","","","","","","","","","","",""
"","ITI","","html-keyboard-response","201","263465","0.0-1.0-270.0","0","0","92605","","null","","","null","29","","","","","","","","","","","","","","","NaN",""
"","S1","","html-keyboard-response","202","263732","0.0-1.0-272.0","0","0","92605","","null","","","null","30","","","","","","","","","","","","","","","",""
"","ISI","","html-keyboard-response","203","264745","0.0-1.0-273.0","0","0","92605","","null","","","null","30","NaN","","","","","","","","","","","","","","",""
"","S2","","html-keyboard-response","204","265012","0.0-1.0-274.0","0","0","92605","","null","","","null","30","","NaN","","","","","","","","","","","","","",""
"","response","","html-keyboard-response","205","265326","0.0-1.0-275.0-0.0","0","0","92605","","308","","","68","30","","","1","30","training","adjacent","ED","5","4","L.jpg","Q.jpg","0","0","1","",""
"","feedback","","html-keyboard-response","206","266340","0.0-1.0-276.0-0.0","0","0","92605","","null","","","null","30","","","","","","","","","","","","","","","",""
"","ITI","","html-keyboard-response","207","267353","0.0-1.0-279.0","0","0","92605","","null","","","null","30","","","","","","","","","","","","","","","NaN",""
"","S1","","html-keyboard-response","208","267620","0.0-1.0-281.0","0","0","92605","","null","","","null","31","","","","","","","","","","","","","","","",""
"","ISI","","html-keyboard-response","209","268633","0.0-1.0-282.0","0","0","92605","","null","","","null","31","NaN","","","","","","","","","","","","","","",""
"","S2","","html-keyboard-response","210","268900","0.0-1.0-283.0","0","0","92605","","null","","","null","31","","NaN","","","","","","","","","","","","","",""
"","response","","html-keyboard-response","211","269690","0.0-1.0-284.0-0.0","0","0","92605","","784","","","68","31","","","1","31","training","adjacent","BA","2","1","O.jpg","P.jpg","0","0","1","",""
"","feedback","","html-keyboard-response","212","270707","0.0-1.0-285.0-0.0","0","0","92605","","null","","","null","31","","","","","","","","","","","","","","","",""
"","ITI","","html-keyboard-response","213","271721","0.0-1.0-288.0","0","0","92605","","null","","","null","31","","","","","","","","","","","","","","","NaN",""
"","S1","","html-keyboard-response","214","271988","0.0-1.0-290.0","0","0","92605","","null","","","null","32","","","","","","","","","","","","","","","",""
"","ISI","","html-keyboard-response","215","273001","0.0-1.0-291.0","0","0","92605","","null","","","null","32","NaN","","","","","","","","","","","","","","",""
"","S2","","html-keyboard-response","216","273257","0.0-1.0-292.0","0","0","92605","","null","","","null","32","","NaN","","","","","","","","","","","","","",""
"","response","","html-keyboard-response","217","274127","0.0-1.0-293.0-0.0","0","0","92605","","865","","","68","32","","","1","32","training","adjacent","AB","1","2","P.jpg","O.jpg","0","1","0","",""
"","feedback","","html-keyboard-response","218","275139","0.0-1.0-294.0-0.0","0","0","92605","","null","","","null","32","","","","","","","","","","","","","","","",""
"","time_out","","html-keyboard-response","219","277155","0.0-1.0-296.0-0.0","0","0","92605","","null","","","null","32","","","","","","","","","","","","","","","",""
"","ITI","","html-keyboard-response","220","278168","0.0-1.0-297.0","0","0","92605","","null","","","null","32","","","","","","","","","","","","","","","NaN",""
"","S1","","html-keyboard-response","221","278435","0.0-1.0-299.0","0","0","92605","","null","","","null","33","","","","","","","","","","","","","","","",""
"","ISI","","html-keyboard-response","222","279448","0.0-1.0-300.0","0","0","92605","","null","","","null","33","NaN","","","","","","","","","","","","","","",""
"","S2","","html-keyboard-response","223","279714","0.0-1.0-301.0","0","0","92605","","null","","","null","33","","NaN","","","","","","","","","","","","","",""
"","response","","html-keyboard-response","224","280044","0.0-1.0-302.0-0.0","0","0","92605","","325","","","75","33","","","1","33","training","adjacent","EF","5","6","L.jpg","N.jpg","1","1","1","",""
"","feedback","","html-keyboard-response","225","281059","0.0-1.0-303.0-0.0","0","0","92605","","null","","","null","33","","","","","","","","","","","","","","","",""
"","ITI","","html-keyboard-response","226","282072","0.0-1.0-306.0","0","0","92605","","null","","","null","33","","","","","","","","","","","","","","","NaN",""
"","S1","","html-keyboard-response","227","282339","0.0-1.0-308.0","0","0","92605","","null","","","null","34","","","","","","","","","","","","","","","",""
"","ISI","","html-keyboard-response","228","283352","0.0-1.0-309.0","0","0","92605","","null","","","null","34","NaN","","","","","","","","","","","","","","",""
"","S2","","html-keyboard-response","229","283619","0.0-1.0-310.0","0","0","92605","","null","","","null","34","","NaN","","","","","","","","","","","","","",""
"","response","","html-keyboard-response","230","283846","0.0-1.0-311.0-0.0","0","0","92605","","222","","","68","34","","","1","34","training","adjacent","DC","4","3","Q.jpg","M.jpg","0","0","1","",""
"","feedback","","html-keyboard-response","231","284856","0.0-1.0-312.0-0.0","0","0","92605","","null","","","null","34","","","","","","","","","","","","","","","",""
"","ITI","","html-keyboard-response","232","285864","0.0-1.0-315.0","0","0","92605","","null","","","null","34","","","","","","","","","","","","","","","NaN",""
"","S1","","html-keyboard-response","233","286131","0.0-1.0-317.0","0","0","92605","","null","","","null","35","","","","","","","","","","","","","","","",""
"","ISI","","html-keyboard-response","234","287144","0.0-1.0-318.0","0","0","92605","","null","","","null","35","NaN","","","","","","","","","","","","","","",""
"","S2","","html-keyboard-response","235","287411","0.0-1.0-319.0","0","0","92605","","null","","","null","35","","NaN","","","","","","","","","","","","","",""
"","response","","html-keyboard-response","236","287911","0.0-1.0-320.0-0.0","0","0","92605","","495","","","75","35","","","1","35","training","adjacent","CD","3","4","M.jpg","Q.jpg","1","1","1","",""
"","feedback","","html-keyboard-response","237","288919","0.0-1.0-321.0-0.0","0","0","92605","","null","","","null","35","","","","","","","","","","","","","","","",""
"","ITI","","html-keyboard-response","238","289928","0.0-1.0-324.0","0","0","92605","","null","","","null","35","","","","","","","","","","","","","","","NaN",""
"","S1","","html-keyboard-response","239","290195","0.0-1.0-326.0","0","0","92605","","null","","","null","36","","","","","","","","","","","","","","","",""
"","ISI","","html-keyboard-response","240","291208","0.0-1.0-327.0","0","0","92605","","null","","","null","36","NaN","","","","","","","","","","","","","","",""
"","S2","","html-keyboard-response","241","291474","0.0-1.0-328.0","0","0","92605","","null","","","null","36","","NaN","","","","","","","","","","","","","",""
"","response","","html-keyboard-response","242","291908","0.0-1.0-329.0-0.0","0","0","92605","","429","","","75","36","","","1","36","training","adjacent","FE","6","5","N.jpg","L.jpg","1","0","0","",""
"","feedback","","html-keyboard-response","243","292920","0.0-1.0-330.0-0.0","0","0","92605","","null","","","null","36","","","","","","","","","","","","","","","",""
"","time_out","","html-keyboard-response","244","294933","0.0-1.0-332.0-0.0","0","0","92605","","null","","","null","36","","","","","","","","","","","","","","","",""
"","ITI","","html-keyboard-response","245","295944","0.0-1.0-333.0","0","0","92605","","null","","","null","36","","","","","","","","","","","","","","","NaN",""
"","S1","","html-keyboard-response","246","296210","0.0-1.0-335.0","0","0","92605","","null","","","null","37","","","","","","","","","","","","","","","",""
"","ISI","","html-keyboard-response","247","297224","0.0-1.0-336.0","0","0","92605","","null","","","null","37","NaN","","","","","","","","","","","","","","",""
"","S2","","html-keyboard-response","248","297490","0.0-1.0-337.0","0","0","92605","","null","","","null","37","","NaN","","","","","","","","","","","","","",""
"","response","","html-keyboard-response","249","297861","0.0-1.0-338.0-0.0","0","0","92605","","365","","","75","37","","","1","37","training","adjacent","FG","6","7","N.jpg","R.jpg","1","1","1","",""
"","feedback","","html-keyboard-response","250","298872","0.0-1.0-339.0-0.0","0","0","92605","","null","","","null","37","","","","","","","","","","","","","","","",""
"","ITI","","html-keyboard-response","251","299887","0.0-1.0-342.0","0","0","92605","","null","","","null","37","","","","","","","","","","","","","","","NaN",""
"","S1","","html-keyboard-response","252","300152","0.0-1.0-344.0","0","0","92605","","null","","","null","38","","","","","","","","","","","","","","","",""
"","ISI","","html-keyboard-response","253","301160","0.0-1.0-345.0","0","0","92605","","null","","","null","38","NaN","","","","","","","","","","","","","","",""
"","S2","","html-keyboard-response","254","301426","0.0-1.0-346.0","0","0","92605","","null","","","null","38","","NaN","","","","","","","","","","","","","",""
"","response","","html-keyboard-response","255","301709","0.0-1.0-347.0-0.0","0","0","92605","","278","","","75","38","","","1","38","training","adjacent","CB","3","2","M.jpg","O.jpg","1","0","0","",""
"","feedback","","html-keyboard-response","256","302722","0.0-1.0-348.0-0.0","0","0","92605","","null","","","null","38","","","","","","","","","","","","","","","",""
"","time_out","","html-keyboard-response","257","304738","0.0-1.0-350.0-0.0","0","0","92605","","null","","","null","38","","","","","","","","","","","","","","","",""
"","ITI","","html-keyboard-response","258","305752","0.0-1.0-351.0","0","0","92605","","null","","","null","38","","","","","","","","","","","","","","","NaN",""
"","S1","","html-keyboard-response","259","306018","0.0-1.0-353.0","0","0","92605","","null","","","null","39","","","","","","","","","","","","","","","",""
"","ISI","","html-keyboard-response","260","307032","0.0-1.0-354.0","0","0","92605","","null","","","null","39","NaN","","","","","","","","","","","","","","",""
"","S2","","html-keyboard-response","261","307298","0.0-1.0-355.0","0","0","92605","","null","","","null","39","","NaN","","","","","","","","","","","","","",""
"","response","","html-keyboard-response","262","307901","0.0-1.0-356.0-0.0","0","0","92605","","598","","","75","39","","","1","39","training","adjacent","BC","2","3","O.jpg","M.jpg","1","1","1","",""
"","feedback","","html-keyboard-response","263","308914","0.0-1.0-357.0-0.0","0","0","92605","","null","","","null","39","","","","","","","","","","","","","","","",""
"","ITI","","html-keyboard-response","264","309927","0.0-1.0-360.0","0","0","92605","","null","","","null","39","","","","","","","","","","","","","","","NaN",""
"","S1","","html-keyboard-response","265","310194","0.0-1.0-362.0","0","0","92605","","null","","","null","40","","","","","","","","","","","","","","","",""
"","ISI","","html-keyboard-response","266","311207","0.0-1.0-363.0","0","0","92605","","null","","","null","40","NaN","","","","","","","","","","","","","","",""
"","S2","","html-keyboard-response","267","311474","0.0-1.0-364.0","0","0","92605","","null","","","null","40","","NaN","","","","","","","","","","","","","",""
"","response","","html-keyboard-response","268","313239","0.0-1.0-365.0-0.0","0","0","92605","","null","","","null","40","","","1","40","training","adjacent","CD","3","4","M.jpg","Q.jpg","NaN","1","0","",""
"","too_slow_prompt","","html-keyboard-response","269","314258","0.0-1.0-367.0-0.0","1","0","92605","","null","","","null","","","","","","","","","","","","","","","","",""
"","time_out","","html-keyboard-response","270","316274","0.0-1.0-368.0-0.0","0","0","92605","","null","","","null","40","","","","","","","","","","","","","","","",""
"","ITI","","html-keyboard-response","271","317287","0.0-1.0-369.0","0","0","92605","","null","","","null","40","","","","","","","","","","","","","","","NaN",""
"","S1","","html-keyboard-response","272","317554","0.0-1.0-371.0","0","0","92605","","null","","","null","41","","","","","","","","","","","","","","","",""
"","ISI","","html-keyboard-response","273","318567","0.0-1.0-372.0","0","0","92605","","null","","","null","41","NaN","","","","","","","","","","","","","","",""
"","S2","","html-keyboard-response","274","318834","0.0-1.0-373.0","0","0","92605","","null","","","null","41","","NaN","","","","","","","","","","","","","",""
"","response","","html-keyboard-response","275","319462","0.0-1.0-374.0-0.0","0","0","92605","","623","","","75","41","","","1","41","training","adjacent","BA","2","1","O.jpg","P.jpg","1","0","0","",""
"","feedback","","html-keyboard-response","276","320471","0.0-1.0-375.0-0.0","0","0","92605","","null","","","null","41","","","","","","","","","","","","","","","",""
"","time_out","","html-keyboard-response","277","322487","0.0-1.0-377.0-0.0","0","0","92605","","null","","","null","41","","","","","","","","","","","","","","","",""
"","ITI","","html-keyboard-response","278","323495","0.0-1.0-378.0","0","0","92605","","null","","","null","41","","","","","","","","","","","","","","","NaN",""
"","S1","","html-keyboard-response","279","323761","0.0-1.0-380.0","0","0","92605","","null","","","null","42","","","","","","","","","","","","","","","",""
"","ISI","","html-keyboard-response","280","324775","0.0-1.0-381.0","0","0","92605","","null","","","null","42","NaN","","","","","","","","","","","","","","",""
"","S2","","html-keyboard-response","281","325041","0.0-1.0-382.0","0","0","92605","","null","","","null","42","","NaN","","","","","","","","","","","","","",""
"","response","","html-keyboard-response","282","325466","0.0-1.0-383.0-0.0","0","0","92605","","419","","","68","42","","","1","42","training","adjacent","DE","4","5","Q.jpg","L.jpg","0","1","0","",""
"","feedback","","html-keyboard-response","283","326481","0.0-1.0-384.0-0.0","0","0","92605","","null","","","null","42","","","","","","","","","","","","","","","",""
"","time_out","","html-keyboard-response","284","328498","0.0-1.0-386.0-0.0","0","0","92605","","null","","","null","42","","","","","","","","","","","","","","","",""
"","ITI","","html-keyboard-response","285","329511","0.0-1.0-387.0","0","0","92605","","null","","","null","42","","","","","","","","","","","","","","","NaN",""
"","S1","","html-keyboard-response","286","329777","0.0-1.0-389.0","0","0","92605","","null","","","null","43","","","","","","","","","","","","","","","",""
"","ISI","","html-keyboard-response","287","330791","0.0-1.0-390.0","0","0","92605","","null","","","null","43","NaN","","","","","","","","","","","","","","",""
"","S2","","html-keyboard-response","288","331057","0.0-1.0-391.0","0","0","92605","","null","","","null","43","","NaN","","","","","","","","","","","","","",""
"","response","","html-keyboard-response","289","331327","0.0-1.0-392.0-0.0","0","0","92605","","264","","","68","43","","","1","43","training","adjacent","DC","4","3","Q.jpg","M.jpg","0","0","1","",""
"","feedback","","html-keyboard-response","290","332343","0.0-1.0-393.0-0.0","0","0","92605","","null","","","null","43","","","","","","","","","","","","","","","",""
"","ITI","","html-keyboard-response","291","333361","0.0-1.0-396.0","0","0","92605","","null","","","null","43","","","","","","","","","","","","","","","NaN",""
"","S1","","html-keyboard-response","292","333622","0.0-1.0-398.0","0","0","92605","","null","","","null","44","","","","","","","","","","","","","","","",""
"","ISI","","html-keyboard-response","293","334630","0.0-1.0-399.0","0","0","92605","","null","","","null","44","NaN","","","","","","","","","","","","","","",""
"","S2","","html-keyboard-response","294","334897","0.0-1.0-400.0","0","0","92605","","null","","","null","44","","NaN","","","","","","","","","","","","","",""
"","response","","html-keyboard-response","295","335146","0.0-1.0-401.0-0.0","0","0","92605","","244","","","68","44","","","1","44","training","adjacent","BA","2","1","O.jpg","P.jpg","0","0","1","",""
"","feedback","","html-keyboard-response","296","336161","0.0-1.0-402.0-0.0","0","0","92605","","null","","","null","44","","","","","","","","","","","","","","","",""
"","ITI","","html-keyboard-response","297","337174","0.0-1.0-405.0","0","0","92605","","null","","","null","44","","","","","","","","","","","","","","","NaN",""
"","S1","","html-keyboard-response","298","337441","0.0-1.0-407.0","0","0","92605","","null","","","null","45","","","","","","","","","","","","","","","",""
"","ISI","","html-keyboard-response","299","338454","0.0-1.0-408.0","0","0","92605","","null","","","null","45","NaN","","","","","","","","","","","","","","",""
"","S2","","html-keyboard-response","300","338719","0.0-1.0-409.0","0","0","92605","","null","","","null","45","","NaN","","","","","","","","","","","","","",""
"","response","","html-keyboard-response","301","339157","0.0-1.0-410.0-0.0","0","0","92605","","433","","","75","45","","","1","45","training","adjacent","CB","3","2","M.jpg","O.jpg","1","0","0","",""
"","feedback","","html-keyboard-response","302","340166","0.0-1.0-411.0-0.0","0","0","92605","","null","","","null","45","","","","","","","","","","","","","","","",""
"","time_out","","html-keyboard-response","303","342182","0.0-1.0-413.0-0.0","0","0","92605","","null","","","null","45","","","","","","","","","","","","","","","",""
"","ITI","","html-keyboard-response","304","343201","0.0-1.0-414.0","0","0","92605","","null","","","null","45","","","","","","","","","","","","","","","NaN",""
"","S1","","html-keyboard-response","305","343462","0.0-1.0-416.0","0","0","92605","","null","","","null","46","","","","","","","","","","","","","","","",""
"","ISI","","html-keyboard-response","306","344470","0.0-1.0-417.0","0","0","92605","","null","","","null","46","NaN","","","","","","","","","","","","","","",""
"","S2","","html-keyboard-response","307","344736","0.0-1.0-418.0","0","0","92605","","null","","","null","46","","NaN","","","","","","","","","","","","","",""
"","response","","html-keyboard-response","308","345088","0.0-1.0-419.0-0.0","0","0","92605","","346","","","75","46","","","1","46","training","adjacent","AB","1","2","P.jpg","O.jpg","1","1","1","",""
"","feedback","","html-keyboard-response","309","346099","0.0-1.0-420.0-0.0","0","0","92605","","null","","","null","46","","","","","","","","","","","","","","","",""
"","ITI","","html-keyboard-response","310","347109","0.0-1.0-423.0","0","0","92605","","null","","","null","46","","","","","","","","","","","","","","","NaN",""
"","S1","","html-keyboard-response","311","347377","0.0-1.0-425.0","0","0","92605","","null","","","null","47","","","","","","","","","","","","","","","",""
"","ISI","","html-keyboard-response","312","348390","0.0-1.0-426.0","0","0","92605","","null","","","null","47","NaN","","","","","","","","","","","","","","",""
"","S2","","html-keyboard-response","313","348657","0.0-1.0-427.0","0","0","92605","","null","","","null","47","","NaN","","","","","","","","","","","","","",""
"","response","","html-keyboard-response","314","348924","0.0-1.0-428.0-0.0","0","0","92605","","262","","","75","47","","","1","47","training","adjacent","FE","6","5","N.jpg","L.jpg","1","0","0","",""
"","feedback","","html-keyboard-response","315","349937","0.0-1.0-429.0-0.0","0","0","92605","","null","","","null","47","","","","","","","","","","","","","","","",""
"","time_out","","html-keyboard-response","316","351952","0.0-1.0-431.0-0.0","0","0","92605","","null","","","null","47","","","","","","","","","","","","","","","",""
"","ITI","","html-keyboard-response","317","352966","0.0-1.0-432.0","0","0","92605","","null","","","null","47","","","","","","","","","","","","","","","NaN",""
"","block_over","","html-keyboard-response","318","381579","0.0-1.0-433.0-0.0","0","0","92605","","28607","","","32","47","","","","","","","","","","","","","","","",""
"","S1","","html-keyboard-response","319","381844","0.0-1.0-434.0","0","0","92605","","null","","","null","48","","","","","","","","","","","","","","","",""
"","ISI","","html-keyboard-response","320","382853","0.0-1.0-435.0","0","0","92605","","null","","","null","48","NaN","","","","","","","","","","","","","","",""
"","S2","","html-keyboard-response","321","383119","0.0-1.0-436.0","0","0","92605","","null","","","null","48","","NaN","","","","","","","","","","","","","",""
"","response","","html-keyboard-response","322","383382","0.0-1.0-437.0-0.0","0","0","92605","","258","","","75","48","","","2","48","training","adjacent","FE","6","5","N.jpg","L.jpg","1","0","0","",""
"","feedback","","html-keyboard-response","323","384399","0.0-1.0-438.0-0.0","0","0","92605","","null","","","null","48","","","","","","","","","","","","","","","",""
"","time_out","","html-keyboard-response","324","386415","0.0-1.0-440.0-0.0","0","0","92605","","null","","","null","48","","","","","","","","","","","","","","","",""
"","ITI","","html-keyboard-response","325","387431","0.0-1.0-441.0","0","0","92605","","null","","","null","48","","","","","","","","","","","","","","","NaN",""
"","S1","","html-keyboard-response","326","387695","0.0-1.0-443.0","0","0","92605","","null","","","null","49","","","","","","","","","","","","","","","",""
"","ISI","","html-keyboard-response","327","388709","0.0-1.0-444.0","0","0","92605","","499","","","75","49","k","","","","","","","","","","","","","","",""
"","S2","","html-keyboard-response","328","388975","0.0-1.0-445.0","0","0","92605","","null","","","null","49","","NaN","","","","","","","","","","","","","",""
"","response","","html-keyboard-response","329","389084","0.0-1.0-446.0-0.0","0","0","92605","","104","","","75","49","","","2","49","training","adjacent","CB","3","2","M.jpg","O.jpg","1","0","0","",""
"","feedback","","html-keyboard-response","330","390100","0.0-1.0-447.0-0.0","0","0","92605","","null","","","null","49","","","","","","","","","","","","","","","",""
"","time_out","","html-keyboard-response","331","392111","0.0-1.0-449.0-0.0","0","0","92605","","null","","","null","49","","","","","","","","","","","","","","","",""
"","ITI","","html-keyboard-response","332","393125","0.0-1.0-450.0","0","0","92605","","null","","","null","49","","","","","","","","","","","","","","","NaN",""
"","S1","","html-keyboard-response","333","393391","0.0-1.0-452.0","0","0","92605","","null","","","null","50","","","","","","","","","","","","","","","",""
"","ISI","","html-keyboard-response","334","394403","0.0-1.0-453.0","0","0","92605","","null","","","null","50","NaN","","","","","","","","","","","","","","",""
"","S2","","html-keyboard-response","335","394671","0.0-1.0-454.0","0","0","92605","","null","","","null","50","","NaN","","","","","","","","","","","","","",""
"","response","","html-keyboard-response","336","395084","0.0-1.0-455.0-0.0","0","0","92605","","407","","","75","50","","","2","50","training","adjacent","DC","4","3","Q.jpg","M.jpg","1","0","0","",""
"","feedback","","html-keyboard-response","337","396095","0.0-1.0-456.0-0.0","0","0","92605","","null","","","null","50","","","","","","","","","","","","","","","",""
"","time_out","","html-keyboard-response","338","398111","0.0-1.0-458.0-0.0","0","0","92605","","null","","","null","50","","","","","","","","","","","","","","","",""
"","ITI","","html-keyboard-response","339","399124","0.0-1.0-459.0","0","0","92605","","null","","","null","50","","","","","","","","","","","","","","","NaN",""
"","S1","","html-keyboard-response","340","399391","0.0-1.0-461.0","0","0","92605","","null","","","null","51","","","","","","","","","","","","","","","",""
"","ISI","","html-keyboard-response","341","400404","0.0-1.0-462.0","0","0","92605","","null","","","null","51","NaN","","","","","","","","","","","","","","",""
"","S2","","html-keyboard-response","342","400670","0.0-1.0-463.0","0","0","92605","","null","","","null","51","","NaN","","","","","","","","","","","","","",""
"","response","","html-keyboard-response","343","400861","0.0-1.0-464.0-0.0","0","0","92605","","185","","","75","51","","","2","51","training","adjacent","BA","2","1","O.jpg","P.jpg","1","0","0","",""
"","feedback","","html-keyboard-response","344","401876","0.0-1.0-465.0-0.0","0","0","92605","","null","","","null","51","","","","","","","","","","","","","","","",""
"","time_out","","html-keyboard-response","345","403886","0.0-1.0-467.0-0.0","0","0","92605","","null","","","null","51","","","","","","","","","","","","","","","",""
"","ITI","","html-keyboard-response","346","404899","0.0-1.0-468.0","0","0","92605","","null","","","null","51","","","","","","","","","","","","","","","NaN",""
"","S1","","html-keyboard-response","347","405166","0.0-1.0-470.0","0","0","92605","","null","","","null","52","","","","","","","","","","","","","","","",""
"","ISI","","html-keyboard-response","348","406179","0.0-1.0-471.0","0","0","92605","","null","","","null","52","NaN","","","","","","","","","","","","","","",""
"","S2","","html-keyboard-response","349","406446","0.0-1.0-472.0","0","0","92605","","null","","","null","52","","NaN","","","","","","","","","","","","","",""
"","response","","html-keyboard-response","350","406745","0.0-1.0-473.0-0.0","0","0","92605","","294","","","68","52","","","2","52","training","adjacent","FE","6","5","N.jpg","L.jpg","0","0","1","",""
"","feedback","","html-keyboard-response","351","407758","0.0-1.0-474.0-0.0","0","0","92605","","null","","","null","52","","","","","","","","","","","","","","","",""
"","ITI","","html-keyboard-response","352","408771","0.0-1.0-477.0","0","0","92605","","null","","","null","52","","","","","","","","","","","","","","","NaN",""
"","S1","","html-keyboard-response","353","409038","0.0-1.0-479.0","0","0","92605","","null","","","null","53","","","","","","","","","","","","","","","",""
"","ISI","","html-keyboard-response","354","410051","0.0-1.0-480.0","0","0","92605","","null","","","null","53","NaN","","","","","","","","","","","","","","",""
"","S2","","html-keyboard-response","355","410318","0.0-1.0-481.0","0","0","92605","","null","","","null","53","","NaN","","","","","","","","","","","","","",""
"","response","","html-keyboard-response","356","410407","0.0-1.0-482.0-0.0","0","0","92605","","84","","","68","53","","","2","53","training","adjacent","ED","5","4","L.jpg","Q.jpg","0","0","1","",""
"","feedback","","html-keyboard-response","357","411422","0.0-1.0-483.0-0.0","0","0","92605","","null","","","null","53","","","","","","","","","","","","","","","",""
"","ITI","","html-keyboard-response","358","412435","0.0-1.0-486.0","0","0","92605","","null","","","null","53","","","","","","","","","","","","","","","NaN",""
"","S1","","html-keyboard-response","359","412702","0.0-1.0-488.0","0","0","92605","","null","","","null","54","","","","","","","","","","","","","","","",""
"","ISI","","html-keyboard-response","360","413710","0.0-1.0-489.0","0","0","92605","","null","","","null","54","NaN","","","","","","","","","","","","","","",""
"","S2","","html-keyboard-response","361","413971","0.0-1.0-490.0","0","0","92605","","null","","","null","54","","NaN","","","","","","","","","","","","","",""
"","response","","html-keyboard-response","362","414274","0.0-1.0-491.0-0.0","0","0","92605","","298","","","68","54","","","2","54","training","adjacent","FG","6","7","N.jpg","R.jpg","0","1","0","",""
"","feedback","","html-keyboard-response","363","415283","0.0-1.0-492.0-0.0","0","0","92605","","null","","","null","54","","","","","","","","","","","","","","","",""
"","time_out","","html-keyboard-response","364","417294","0.0-1.0-494.0-0.0","0","0","92605","","null","","","null","54","","","","","","","","","","","","","","","",""
"","ITI","","html-keyboard-response","365","418307","0.0-1.0-495.0","0","0","92605","","null","","","null","54","","","","","","","","","","","","","","","NaN",""
"","S1","","html-keyboard-response","366","418571","0.0-1.0-497.0","0","0","92605","","null","","","null","55","","","","","","","","","","","","","","","",""
"","ISI","","html-keyboard-response","367","419582","0.0-1.0-498.0","0","0","92605","","null","","","null","55","NaN","","","","","","","","","","","","","","",""
"","S2","","html-keyboard-response","368","419843","0.0-1.0-499.0","0","0","92605","","null","","","null","55","","NaN","","","","","","","","","","","","","",""
"","response","","html-keyboard-response","369","420095","0.0-1.0-500.0-0.0","0","0","92605","","247","","","75","55","","","2","55","training","adjacent","DE","4","5","Q.jpg","L.jpg","1","1","1","",""
"","feedback","","html-keyboard-response","370","421107","0.0-1.0-501.0-0.0","0","0","92605","","null","","","null","55","","","","","","","","","","","","","","","",""
"","ITI","","html-keyboard-response","371","422115","0.0-1.0-504.0","0","0","92605","","null","","","null","55","","","","","","","","","","","","","","","NaN",""
"","S1","","html-keyboard-response","372","422382","0.0-1.0-506.0","0","0","92605","","null","","","null","56","","","","","","","","","","","","","","","",""
"","ISI","","html-keyboard-response","373","423392","0.0-1.0-507.0","0","0","92605","","null","","","null","56","NaN","","","","","","","","","","","","","","",""
"","S2","","html-keyboard-response","374","423651","0.0-1.0-508.0","0","0","92605","","null","","","null","56","","NaN","","","","","","","","","","","","","",""
"","response","","html-keyboard-response","375","423962","0.0-1.0-509.0-0.0","0","0","92605","","305","","","75","56","","","2","56","training","adjacent","CB","3","2","M.jpg","O.jpg","1","0","0","",""
"","feedback","","html-keyboard-response","376","424970","0.0-1.0-510.0-0.0","0","0","92605","","null","","","null","56","","","","","","","","","","","","","","","",""
"","time_out","","html-keyboard-response","377","426979","0.0-1.0-512.0-0.0","0","0","92605","","null","","","null","56","","","","","","","","","","","","","","","",""
"","ITI","","html-keyboard-response","378","427997","0.0-1.0-513.0","0","0","92605","","null","","","null","56","","","","","","","","","","","","","","","NaN",""
"","S1","","html-keyboard-response","379","428255","0.0-1.0-515.0","0","0","92605","","null","","","null","57","","","","","","","","","","","","","","","",""
"","ISI","","html-keyboard-response","380","429266","0.0-1.0-516.0","0","0","92605","","null","","","null","57","NaN","","","","","","","","","","","","","","",""
"","S2","","html-keyboard-response","381","429533","0.0-1.0-517.0","0","0","92605","","null","","","null","57","","NaN","","","","","","","","","","","","","",""
"","response","","html-keyboard-response","382","429922","0.0-1.0-518.0-0.0","0","0","92605","","383","","","75","57","","","2","57","training","adjacent","DC","4","3","Q.jpg","M.jpg","1","0","0","",""
"","feedback","","html-keyboard-response","383","430930","0.0-1.0-519.0-0.0","0","0","92605","","null","","","null","57","","","","","","","","","","","","","","","",""
"","time_out","","html-keyboard-response","384","432941","0.0-1.0-521.0-0.0","0","0","92605","","null","","","null","57","","","","","","","","","","","","","","","",""
"","ITI","","html-keyboard-response","385","433955","0.0-1.0-522.0","0","0","92605","","null","","","null","57","","","","","","","","","","","","","","","NaN",""
"","S1","","html-keyboard-response","386","434221","0.0-1.0-524.0","0","0","92605","","null","","","null","58","","","","","","","","","","","","","","","",""
"","ISI","","html-keyboard-response","387","435234","0.0-1.0-525.0","0","0","92605","","null","","","null","58","NaN","","","","","","","","","","","","","","",""
"","S2","","html-keyboard-response","388","435501","0.0-1.0-526.0","0","0","92605","","null","","","null","58","","NaN","","","","","","","","","","","","","",""
"","response","","html-keyboard-response","389","435820","0.0-1.0-527.0-0.0","0","0","92605","","313","","","75","58","","","2","58","training","adjacent","EF","5","6","L.jpg","N.jpg","1","1","1","",""
"","feedback","","html-keyboard-response","390","436834","0.0-1.0-528.0-0.0","0","0","92605","","null","","","null","58","","","","","","","","","","","","","","","",""
"","ITI","","html-keyboard-response","391","437853","0.0-1.0-531.0","0","0","92605","","null","","","null","58","","","","","","","","","","","","","","","NaN",""
"","S1","","html-keyboard-response","392","438114","0.0-1.0-533.0","0","0","92605","","null","","","null","59","","","","","","","","","","","","","","","",""
"","ISI","","html-keyboard-response","393","439122","0.0-1.0-534.0","0","0","92605","","null","","","null","59","NaN","","","","","","","","","","","","","","",""
"","S2","","html-keyboard-response","394","439389","0.0-1.0-535.0","0","0","92605","","null","","","null","59","","NaN","","","","","","","","","","","","","",""
"","response","","html-keyboard-response","395","439696","0.0-1.0-536.0-0.0","0","0","92605","","302","","","68","59","","","2","59","training","adjacent","FE","6","5","N.jpg","L.jpg","0","0","1","",""
"","feedback","","html-keyboard-response","396","440706","0.0-1.0-537.0-0.0","0","0","92605","","null","","","null","59","","","","","","","","","","","","","","","",""
"","ITI","","html-keyboard-response","397","441725","0.0-1.0-540.0","0","0","92605","","null","","","null","59","","","","","","","","","","","","","","","NaN",""
"","S1","","html-keyboard-response","398","441986","0.0-1.0-542.0","0","0","92605","","null","","","null","60","","","","","","","","","","","","","","","",""
"","ISI","","html-keyboard-response","399","442994","0.0-1.0-543.0","0","0","92605","","null","","","null","60","NaN","","","","","","","","","","","","","","",""
"","S2","","html-keyboard-response","400","443259","0.0-1.0-544.0","0","0","92605","","null","","","null","60","","NaN","","","","","","","","","","","","","",""
"","response","","html-keyboard-response","401","443840","0.0-1.0-545.0-0.0","0","0","92605","","579","","","68","60","","","2","60","training","adjacent","GF","7","6","R.jpg","N.jpg","0","0","1","",""
"","feedback","","html-keyboard-response","402","444850","0.0-1.0-546.0-0.0","0","0","92605","","null","","","null","60","","","","","","","","","","","","","","","",""
"","ITI","","html-keyboard-response","403","445868","0.0-1.0-549.0","0","0","92605","","null","","","null","60","","","","","","","","","","","","","","","NaN",""
"","S1","","html-keyboard-response","404","446130","0.0-1.0-551.0","0","0","92605","","null","","","null","61","","","","","","","","","","","","","","","",""
"","ISI","","html-keyboard-response","405","447138","0.0-1.0-552.0","0","0","92605","","null","","","null","61","NaN","","","","","","","","","","","","","","",""
"","S2","","html-keyboard-response","406","447404","0.0-1.0-553.0","0","0","92605","","null","","","null","61","","NaN","","","","","","","","","","","","","",""
"","response","","html-keyboard-response","407","447992","0.0-1.0-554.0-0.0","0","0","92605","","583","","","68","61","","","2","61","training","adjacent","AB","1","2","P.jpg","O.jpg","0","1","0","",""
"","feedback","","html-keyboard-response","408","449004","0.0-1.0-555.0-0.0","0","0","92605","","null","","","null","61","","","","","","","","","","","","","","","",""
"","time_out","","html-keyboard-response","409","451020","0.0-1.0-557.0-0.0","0","0","92605","","null","","","null","61","","","","","","","","","","","","","","","",""
"","ITI","","html-keyboard-response","410","452034","0.0-1.0-558.0","0","0","92605","","null","","","null","61","","","","","","","","","","","","","","","NaN",""
"","S1","","html-keyboard-response","411","452300","0.0-1.0-560.0","0","0","92605","","null","","","null","62","","","","","","","","","","","","","","","",""
"","ISI","","html-keyboard-response","412","453314","0.0-1.0-561.0","0","0","92605","","null","","","null","62","NaN","","","","","","","","","","","","","","",""
"","S2","","html-keyboard-response","413","453580","0.0-1.0-562.0","0","0","92605","","null","","","null","62","","NaN","","","","","","","","","","","","","",""
"","response","","html-keyboard-response","414","454003","0.0-1.0-563.0-0.0","0","0","92605","","418","","","75","62","","","2","62","training","adjacent","EF","5","6","L.jpg","N.jpg","1","1","1","",""
"","feedback","","html-keyboard-response","415","455020","0.0-1.0-564.0-0.0","0","0","92605","","null","","","null","62","","","","","","","","","","","","","","","",""
"","ITI","","html-keyboard-response","416","456034","0.0-1.0-567.0","0","0","92605","","null","","","null","62","","","","","","","","","","","","","","","NaN",""
"","S1","","html-keyboard-response","417","456300","0.0-1.0-569.0","0","0","92605","","null","","","null","63","","","","","","","","","","","","","","","",""
"","ISI","","html-keyboard-response","418","457314","0.0-1.0-570.0","0","0","92605","","null","","","null","63","NaN","","","","","","","","","","","","","","",""
"","S2","","html-keyboard-response","419","457580","0.0-1.0-571.0","0","0","92605","","null","","","null","63","","NaN","","","","","","","","","","","","","",""
"","response","","html-keyboard-response","420","459346","0.0-1.0-572.0-0.0","0","0","92605","","null","","","null","63","","","2","63","training","adjacent","DE","4","5","Q.jpg","L.jpg","NaN","1","0","",""
"","too_slow_prompt","","html-keyboard-response","421","460364","0.0-1.0-574.0-0.0","1","0","92605","","null","","","null","","","","","","","","","","","","","","","","",""
"","time_out","","html-keyboard-response","422","462380","0.0-1.0-575.0-0.0","0","0","92605","","null","","","null","63","","","","","","","","","","","","","","","",""
"","ITI","","html-keyboard-response","423","463393","0.0-1.0-576.0","0","0","92605","","null","","","null","63","","","","","","","","","","","","","","","NaN",""
"","S1","","html-keyboard-response","424","463660","0.0-1.0-578.0","0","0","92605","","null","","","null","64","","","","","","","","","","","","","","","",""
"","ISI","","html-keyboard-response","425","464675","0.0-1.0-579.0","0","0","92605","","null","","","null","64","NaN","","","","","","","","","","","","","","",""
"","S2","","html-keyboard-response","426","464940","0.0-1.0-580.0","0","0","92605","","null","","","null","64","","NaN","","","","","","","","","","","","","",""
"","response","","html-keyboard-response","427","465403","0.0-1.0-581.0-0.0","0","0","92605","","458","","","75","64","","","2","64","training","adjacent","BC","2","3","O.jpg","M.jpg","1","1","1","",""
"","feedback","","html-keyboard-response","428","466417","0.0-1.0-582.0-0.0","0","0","92605","","null","","","null","64","","","","","","","","","","","","","","","",""
"","ITI","","html-keyboard-response","429","467425","0.0-1.0-585.0","0","0","92605","","null","","","null","64","","","","","","","","","","","","","","","NaN",""
"","S1","","html-keyboard-response","430","467692","0.0-1.0-587.0","0","0","92605","","null","","","null","65","","","","","","","","","","","","","","","",""
"","ISI","","html-keyboard-response","431","468708","0.0-1.0-588.0","0","0","92605","","null","","","null","65","NaN","","","","","","","","","","","","","","",""
"","S2","","html-keyboard-response","432","468972","0.0-1.0-589.0","0","0","92605","","null","","","null","65","","NaN","","","","","","","","","","","","","",""
"","response","","html-keyboard-response","433","470368","0.0-1.0-590.0-0.0","0","0","92605","","1391","","","75","65","","","2","65","training","adjacent","FG","6","7","N.jpg","R.jpg","1","1","1","",""
"","feedback","","html-keyboard-response","434","471377","0.0-1.0-591.0-0.0","0","0","92605","","null","","","null","65","","","","","","","","","","","","","","","",""
"","ITI","","html-keyboard-response","435","472396","0.0-1.0-594.0","0","0","92605","","null","","","null","65","","","","","","","","","","","","","","","NaN",""
"","S1","","html-keyboard-response","436","472657","0.0-1.0-596.0","0","0","92605","","null","","","null","66","","","","","","","","","","","","","","","",""
"","ISI","","html-keyboard-response","437","473665","0.0-1.0-597.0","0","0","92605","","null","","","null","66","NaN","","","","","","","","","","","","","","",""
"","S2","","html-keyboard-response","438","473932","0.0-1.0-598.0","0","0","92605","","null","","","null","66","","NaN","","","","","","","","","","","","","",""
"","response","","html-keyboard-response","439","474630","0.0-1.0-599.0-0.0","0","0","92605","","694","","","68","66","","","2","66","training","adjacent","FG","6","7","N.jpg","R.jpg","0","1","0","",""
"","feedback","","html-keyboard-response","440","475643","0.0-1.0-600.0-0.0","0","0","92605","","null","","","null","66","","","","","","","","","","","","","","","",""
"","time_out","","html-keyboard-response","441","477660","0.0-1.0-602.0-0.0","0","0","92605","","null","","","null","66","","","","","","","","","","","","","","","",""
"","ITI","","html-keyboard-response","442","478669","0.0-1.0-603.0","0","0","92605","","null","","","null","66","","","","","","","","","","","","","","","NaN",""
"","S1","","html-keyboard-response","443","478925","0.0-1.0-605.0","0","0","92605","","null","","","null","67","","","","","","","","","","","","","","","",""
"","ISI","","html-keyboard-response","444","479937","0.0-1.0-606.0","0","0","92605","","null","","","null","67","NaN","","","","","","","","","","","","","","",""
"","S2","","html-keyboard-response","445","480203","0.0-1.0-607.0","0","0","92605","","null","","","null","67","","NaN","","","","","","","","","","","","","",""
"","response","","html-keyboard-response","446","480536","0.0-1.0-608.0-0.0","0","0","92605","","328","","","75","67","","","2","67","training","adjacent","FE","6","5","N.jpg","L.jpg","1","0","0","",""
"","feedback","","html-keyboard-response","447","481553","0.0-1.0-609.0-0.0","0","0","92605","","null","","","null","67","","","","","","","","","","","","","","","",""
"","time_out","","html-keyboard-response","448","483568","0.0-1.0-611.0-0.0","0","0","92605","","null","","","null","67","","","","","","","","","","","","","","","",""
"","ITI","","html-keyboard-response","449","484576","0.0-1.0-612.0","0","0","92605","","null","","","null","67","","","","","","","","","","","","","","","NaN",""
"","S1","","html-keyboard-response","450","484843","0.0-1.0-614.0","0","0","92605","","null","","","null","68","","","","","","","","","","","","","","","",""
"","ISI","","html-keyboard-response","451","485856","0.0-1.0-615.0","0","0","92605","","null","","","null","68","NaN","","","","","","","","","","","","","","",""
"","S2","","html-keyboard-response","452","486123","0.0-1.0-616.0","0","0","92605","","null","","","null","68","","NaN","","","","","","","","","","","","","",""
"","response","","html-keyboard-response","453","486279","0.0-1.0-617.0-0.0","0","0","92605","","151","","","68","68","","","2","68","training","adjacent","BC","2","3","O.jpg","M.jpg","0","1","0","",""
"","feedback","","html-keyboard-response","454","487291","0.0-1.0-618.0-0.0","0","0","92605","","null","","","null","68","","","","","","","","","","","","","","","",""
"","time_out","","html-keyboard-response","455","489307","0.0-1.0-620.0-0.0","0","0","92605","","null","","","null","68","","","","","","","","","","","","","","","",""
"","ITI","","html-keyboard-response","456","490320","0.0-1.0-621.0","0","0","92605","","null","","","null","68","","","","","","","","","","","","","","","NaN",""
"","S1","","html-keyboard-response","457","490587","0.0-1.0-623.0","0","0","92605","","null","","","null","69","","","","","","","","","","","","","","","",""
"","ISI","","html-keyboard-response","458","491600","0.0-1.0-624.0","0","0","92605","","null","","","null","69","NaN","","","","","","","","","","","","","","",""
"","S2","","html-keyboard-response","459","491867","0.0-1.0-625.0","0","0","92605","","null","","","null","69","","NaN","","","","","","","","","","","","","",""
"","response","","html-keyboard-response","460","492357","0.0-1.0-626.0-0.0","0","0","92605","","485","","","68","69","","","2","69","training","adjacent","GF","7","6","R.jpg","N.jpg","0","0","1","",""
"","feedback","","html-keyboard-response","461","493369","0.0-1.0-627.0-0.0","0","0","92605","","null","","","null","69","","","","","","","","","","","","","","","",""
"","ITI","","html-keyboard-response","462","494384","0.0-1.0-630.0","0","0","92605","","null","","","null","69","","","","","","","","","","","","","","","NaN",""
"","S1","","html-keyboard-response","463","494651","0.0-1.0-632.0","0","0","92605","","null","","","null","70","","","","","","","","","","","","","","","",""
"","ISI","","html-keyboard-response","464","495664","0.0-1.0-633.0","0","0","92605","","null","","","null","70","NaN","","","","","","","","","","","","","","",""
"","S2","","html-keyboard-response","465","495931","0.0-1.0-634.0","0","0","92605","","null","","","null","70","","NaN","","","","","","","","","","","","","",""
"","response","","html-keyboard-response","466","496415","0.0-1.0-635.0-0.0","0","0","92605","","479","","","68","70","","","2","70","training","adjacent","EF","5","6","L.jpg","N.jpg","0","1","0","",""
"","feedback","","html-keyboard-response","467","497424","0.0-1.0-636.0-0.0","0","0","92605","","null","","","null","70","","","","","","","","","","","","","","","",""
"","time_out","","html-keyboard-response","468","499434","0.0-1.0-638.0-0.0","0","0","92605","","null","","","null","70","","","","","","","","","","","","","","","",""
"","ITI","","html-keyboard-response","469","500448","0.0-1.0-639.0","0","0","92605","","null","","","null","70","","","","","","","","","","","","","","","NaN",""
"","S1","","html-keyboard-response","470","500714","0.0-1.0-641.0","0","0","92605","","null","","","null","71","","","","","","","","","","","","","","","",""
"","ISI","","html-keyboard-response","471","501728","0.0-1.0-642.0","0","0","92605","","null","","","null","71","NaN","","","","","","","","","","","","","","",""
"","S2","","html-keyboard-response","472","501994","0.0-1.0-643.0","0","0","92605","","null","","","null","71","","NaN","","","","","","","","","","","","","",""
"","response","","html-keyboard-response","473","502306","0.0-1.0-644.0-0.0","0","0","92605","","307","","","75","71","","","2","71","training","adjacent","CD","3","4","M.jpg","Q.jpg","1","1","1","",""
"","feedback","","html-keyboard-response","474","503322","0.0-1.0-645.0-0.0","0","0","92605","","null","","","null","71","","","","","","","","","","","","","","","",""
"","ITI","","html-keyboard-response","475","504336","0.0-1.0-648.0","0","0","92605","","null","","","null","71","","","","","","","","","","","","","","","NaN",""
"","S1","","html-keyboard-response","476","504602","0.0-1.0-650.0","0","0","92605","","null","","","null","72","","","","","","","","","","","","","","","",""
"","ISI","","html-keyboard-response","477","505616","0.0-1.0-651.0","0","0","92605","","null","","","null","72","NaN","","","","","","","","","","","","","","",""
"","S2","","html-keyboard-response","478","505882","0.0-1.0-652.0","0","0","92605","","null","","","null","72","","NaN","","","","","","","","","","","","","",""
"","response","","html-keyboard-response","479","507061","0.0-1.0-653.0-0.0","0","0","92605","","1175","","","75","72","","","2","72","training","adjacent","CB","3","2","M.jpg","O.jpg","1","0","0","",""
"","feedback","","html-keyboard-response","480","508070","0.0-1.0-654.0-0.0","0","0","92605","","null","","","null","72","","","","","","","","","","","","","","","",""
"","time_out","","html-keyboard-response","481","510078","0.0-1.0-656.0-0.0","0","0","92605","","null","","","null","72","","","","","","","","","","","","","","","",""
"","ITI","","html-keyboard-response","482","511088","0.0-1.0-657.0","0","0","92605","","null","","","null","72","","","","","","","","","","","","","","","NaN",""
"","S1","","html-keyboard-response","483","511354","0.0-1.0-659.0","0","0","92605","","null","","","null","73","","","","","","","","","","","","","","","",""
"","ISI","","html-keyboard-response","484","512367","0.0-1.0-660.0","0","0","92605","","null","","","null","73","NaN","","","","","","","","","","","","","","",""
"","S2","","html-keyboard-response","485","512634","0.0-1.0-661.0","0","0","92605","","null","","","null","73","","NaN","","","","","","","","","","","","","",""
"","response","","html-keyboard-response","486","513192","0.0-1.0-662.0-0.0","0","0","92605","","553","","","75","73","","","2","73","training","adjacent","ED","5","4","L.jpg","Q.jpg","1","0","0","",""
"","feedback","","html-keyboard-response","487","514207","0.0-1.0-663.0-0.0","0","0","92605","","null","","","null","73","","","","","","","","","","","","","","","",""
"","time_out","","html-keyboard-response","488","516223","0.0-1.0-665.0-0.0","0","0","92605","","null","","","null","73","","","","","","","","","","","","","","","",""
"","ITI","","html-keyboard-response","489","517231","0.0-1.0-666.0","0","0","92605","","null","","","null","73","","","","","","","","","","","","","","","NaN",""
"","S1","","html-keyboard-response","490","517498","0.0-1.0-668.0","0","0","92605","","null","","","null","74","","","","","","","","","","","","","","","",""
"","ISI","","html-keyboard-response","491","518511","0.0-1.0-669.0","0","0","92605","","null","","","null","74","NaN","","","","","","","","","","","","","","",""
"","S2","","html-keyboard-response","492","518777","0.0-1.0-670.0","0","0","92605","","null","","","null","74","","NaN","","","","","","","","","","","","","",""
"","response","","html-keyboard-response","493","519797","0.0-1.0-671.0-0.0","0","0","92605","","1016","","","75","74","","","2","74","training","adjacent","CD","3","4","M.jpg","Q.jpg","1","1","1","",""
"","feedback","","html-keyboard-response","494","520811","0.0-1.0-672.0-0.0","0","0","92605","","null","","","null","74","","","","","","","","","","","","","","","",""
"","ITI","","html-keyboard-response","495","521824","0.0-1.0-675.0","0","0","92605","","null","","","null","74","","","","","","","","","","","","","","","NaN",""
"","S1","","html-keyboard-response","496","522091","0.0-1.0-677.0","0","0","92605","","null","","","null","75","","","","","","","","","","","","","","","",""
"","ISI","","html-keyboard-response","497","523105","0.0-1.0-678.0","0","0","92605","","null","","","null","75","NaN","","","","","","","","","","","","","","",""
"","S2","","html-keyboard-response","498","523371","0.0-1.0-679.0","0","0","92605","","null","","","null","75","","NaN","","","","","","","","","","","","","",""
"","response","","html-keyboard-response","499","523656","0.0-1.0-680.0-0.0","0","0","92605","","280","","","68","75","","","2","75","training","adjacent","ED","5","4","L.jpg","Q.jpg","0","0","1","",""
"","feedback","","html-keyboard-response","500","524672","0.0-1.0-681.0-0.0","0","0","92605","","null","","","null","75","","","","","","","","","","","","","","","",""
"","ITI","","html-keyboard-response","501","525691","0.0-1.0-684.0","0","0","92605","","null","","","null","75","","","","","","","","","","","","","","","NaN",""
"","S1","","html-keyboard-response","502","525952","0.0-1.0-686.0","0","0","92605","","null","","","null","76","","","","","","","","","","","","","","","",""
"","ISI","","html-keyboard-response","503","526960","0.0-1.0-687.0","0","0","92605","","null","","","null","76","NaN","","","","","","","","","","","","","","",""
"","S2","","html-keyboard-response","504","527227","0.0-1.0-688.0","0","0","92605","","null","","","null","76","","NaN","","","","","","","","","","","","","",""
"","response","","html-keyboard-response","505","527774","0.0-1.0-689.0-0.0","0","0","92605","","541","","","75","76","","","2","76","training","adjacent","AB","1","2","P.jpg","O.jpg","1","1","1","",""
"","feedback","","html-keyboard-response","506","528785","0.0-1.0-690.0-0.0","0","0","92605","","null","","","null","76","","","","","","","","","","","","","","","",""
"","ITI","","html-keyboard-response","507","529793","0.0-1.0-693.0","0","0","92605","","null","","","null","76","","","","","","","","","","","","","","","NaN",""
"","S1","","html-keyboard-response","508","530060","0.0-1.0-695.0","0","0","92605","","null","","","null","77","","","","","","","","","","","","","","","",""
"","ISI","","html-keyboard-response","509","531073","0.0-1.0-696.0","0","0","92605","","null","","","null","77","NaN","","","","","","","","","","","","","","",""
"","S2","","html-keyboard-response","510","531340","0.0-1.0-697.0","0","0","92605","","null","","","null","77","","NaN","","","","","","","","","","","","","",""
"","response","","html-keyboard-response","511","531669","0.0-1.0-698.0-0.0","0","0","92605","","324","","","75","77","","","2","77","training","adjacent","DC","4","3","Q.jpg","M.jpg","1","0","0","",""
"","feedback","","html-keyboard-response","512","532684","0.0-1.0-699.0-0.0","0","0","92605","","null","","","null","77","","","","","","","","","","","","","","","",""
"","time_out","","html-keyboard-response","513","534700","0.0-1.0-701.0-0.0","0","0","92605","","null","","","null","77","","","","","","","","","","","","","","","",""
"","ITI","","html-keyboard-response","514","535714","0.0-1.0-702.0","0","0","92605","","null","","","null","77","","","","","","","","","","","","","","","NaN",""
"","S1","","html-keyboard-response","515","535980","0.0-1.0-704.0","0","0","92605","","null","","","null","78","","","","","","","","","","","","","","","",""
"","ISI","","html-keyboard-response","516","536990","0.0-1.0-705.0","0","0","92605","","null","","","null","78","NaN","","","","","","","","","","","","","","",""
"","S2","","html-keyboard-response","517","537246","0.0-1.0-706.0","0","0","92605","","null","","","null","78","","NaN","","","","","","","","","","","","","",""
"","response","","html-keyboard-response","518","539006","0.0-1.0-707.0-0.0","0","0","92605","","null","","","null","78","","","2","78","training","adjacent","DE","4","5","Q.jpg","L.jpg","NaN","1","0","",""
"","too_slow_prompt","","html-keyboard-response","519","540017","0.0-1.0-709.0-0.0","1","0","92605","","null","","","null","","","","","","","","","","","","","","","","",""
"","time_out","","html-keyboard-response","520","542028","0.0-1.0-710.0-0.0","0","0","92605","","null","","","null","78","","","","","","","","","","","","","","","",""
"","ITI","","html-keyboard-response","521","543042","0.0-1.0-711.0","0","0","92605","","null","","","null","78","","","","","","","","","","","","","","","NaN",""
"","S1","","html-keyboard-response","522","543308","0.0-1.0-713.0","0","0","92605","","null","","","null","79","","","","","","","","","","","","","","","",""
"","ISI","","html-keyboard-response","523","544322","0.0-1.0-714.0","0","0","92605","","null","","","null","79","NaN","","","","","","","","","","","","","","",""
"","S2","","html-keyboard-response","524","544588","0.0-1.0-715.0","0","0","92605","","null","","","null","79","","NaN","","","","","","","","","","","","","",""
"","response","","html-keyboard-response","525","544986","0.0-1.0-716.0-0.0","0","0","92605","","393","","","68","79","","","2","79","training","adjacent","AB","1","2","P.jpg","O.jpg","0","1","0","",""
"","feedback","","html-keyboard-response","526","546001","0.0-1.0-717.0-0.0","0","0","92605","","null","","","null","79","","","","","","","","","","","","","","","",""
"","time_out","","html-keyboard-response","527","548012","0.0-1.0-719.0-0.0","0","0","92605","","null","","","null","79","","","","","","","","","","","","","","","",""
"","ITI","","html-keyboard-response","528","549026","0.0-1.0-720.0","0","0","92605","","null","","","null","79","","","","","","","","","","","","","","","NaN",""
"","S1","","html-keyboard-response","529","549292","0.0-1.0-722.0","0","0","92605","","null","","","null","80","","","","","","","","","","","","","","","",""
"","ISI","","html-keyboard-response","530","550306","0.0-1.0-723.0","0","0","92605","","null","","","null","80","NaN","","","","","","","","","","","","","","",""
"","S2","","html-keyboard-response","531","550572","0.0-1.0-724.0","0","0","92605","","null","","","null","80","","NaN","","","","","","","","","","","","","",""
"","response","","html-keyboard-response","532","551149","0.0-1.0-725.0-0.0","0","0","92605","","571","","","75","80","","","2","80","training","adjacent","GF","7","6","R.jpg","N.jpg","1","0","0","",""
"","feedback","","html-keyboard-response","533","552162","0.0-1.0-726.0-0.0","0","0","92605","","null","","","null","80","","","","","","","","","","","","","","","",""
"","time_out","","html-keyboard-response","534","554178","0.0-1.0-728.0-0.0","0","0","92605","","null","","","null","80","","","","","","","","","","","","","","","",""
"","ITI","","html-keyboard-response","535","555185","0.0-1.0-729.0","0","0","92605","","null","","","null","80","","","","","","","","","","","","","","","NaN",""
"","S1","","html-keyboard-response","536","555452","0.0-1.0-731.0","0","0","92605","","null","","","null","81","","","","","","","","","","","","","","","",""
"","ISI","","html-keyboard-response","537","556466","0.0-1.0-732.0","0","0","92605","","null","","","null","81","NaN","","","","","","","","","","","","","","",""
"","S2","","html-keyboard-response","538","556732","0.0-1.0-733.0","0","0","92605","","null","","","null","81","","NaN","","","","","","","","","","","","","",""
"","response","","html-keyboard-response","539","557063","0.0-1.0-734.0-0.0","0","0","92605","","325","","","75","81","","","2","81","training","adjacent","AB","1","2","P.jpg","O.jpg","1","1","1","",""
"","feedback","","html-keyboard-response","540","558076","0.0-1.0-735.0-0.0","0","0","92605","","null","","","null","81","","","","","","","","","","","","","","","",""
"","ITI","","html-keyboard-response","541","559090","0.0-1.0-738.0","0","0","92605","","null","","","null","81","","","","","","","","","","","","","","","NaN",""
"","S1","","html-keyboard-response","542","559356","0.0-1.0-740.0","0","0","92605","","null","","","null","82","","","","","","","","","","","","","","","",""
"","ISI","","html-keyboard-response","543","560369","0.0-1.0-741.0","0","0","92605","","937","","","75","82","k","","","","","","","","","","","","","","",""
"","S2","","html-keyboard-response","544","560636","0.0-1.0-742.0","0","0","92605","","null","","","null","82","","NaN","","","","","","","","","","","","","",""
"","response","","html-keyboard-response","545","561127","0.0-1.0-743.0-0.0","0","0","92605","","486","","","75","82","","","2","82","training","adjacent","BA","2","1","O.jpg","P.jpg","1","0","0","",""
"","feedback","","html-keyboard-response","546","562140","0.0-1.0-744.0-0.0","0","0","92605","","null","","","null","82","","","","","","","","","","","","","","","",""
"","time_out","","html-keyboard-response","547","564156","0.0-1.0-746.0-0.0","0","0","92605","","null","","","null","82","","","","","","","","","","","","","","","",""
"","ITI","","html-keyboard-response","548","565169","0.0-1.0-747.0","0","0","92605","","null","","","null","82","","","","","","","","","","","","","","","NaN",""
"","S1","","html-keyboard-response","549","565436","0.0-1.0-749.0","0","0","92605","","null","","","null","83","","","","","","","","","","","","","","","",""
"","ISI","","html-keyboard-response","550","566450","0.0-1.0-750.0","0","0","92605","","null","","","null","83","NaN","","","","","","","","","","","","","","",""
"","S2","","html-keyboard-response","551","566716","0.0-1.0-751.0","0","0","92605","","null","","","null","83","","NaN","","","","","","","","","","","","","",""
"","response","","html-keyboard-response","552","566989","0.0-1.0-752.0-0.0","0","0","92605","","267","","","68","83","","","2","83","training","adjacent","CD","3","4","M.jpg","Q.jpg","0","1","0","",""
"","feedback","","html-keyboard-response","553","567998","0.0-1.0-753.0-0.0","0","0","92605","","null","","","null","83","","","","","","","","","","","","","","","",""
"","time_out","","html-keyboard-response","554","570012","0.0-1.0-755.0-0.0","0","0","92605","","null","","","null","83","","","","","","","","","","","","","","","",""
"","ITI","","html-keyboard-response","555","571025","0.0-1.0-756.0","0","0","92605","","null","","","null","83","","","","","","","","","","","","","","","NaN",""
"","S1","","html-keyboard-response","556","571292","0.0-1.0-758.0","0","0","92605","","null","","","null","84","","","","","","","","","","","","","","","",""
"","ISI","","html-keyboard-response","557","572306","0.0-1.0-759.0","0","0","92605","","null","","","null","84","NaN","","","","","","","","","","","","","","",""
"","S2","","html-keyboard-response","558","572572","0.0-1.0-760.0","0","0","92605","","null","","","null","84","","NaN","","","","","","","","","","","","","",""
"","response","","html-keyboard-response","559","572938","0.0-1.0-761.0-0.0","0","0","92605","","360","","","75","84","","","2","84","training","adjacent","BA","2","1","O.jpg","P.jpg","1","0","0","",""
"","feedback","","html-keyboard-response","560","573954","0.0-1.0-762.0-0.0","0","0","92605","","null","","","null","84","","","","","","","","","","","","","","","",""
"","time_out","","html-keyboard-response","561","575969","0.0-1.0-764.0-0.0","0","0","92605","","null","","","null","84","","","","","","","","","","","","","","","",""
"","ITI","","html-keyboard-response","562","576977","0.0-1.0-765.0","0","0","92605","","null","","","null","84","","","","","","","","","","","","","","","NaN",""
"","S1","","html-keyboard-response","563","577244","0.0-1.0-767.0","0","0","92605","","null","","","null","85","","","","","","","","","","","","","","","",""
"","ISI","","html-keyboard-response","564","578257","0.0-1.0-768.0","0","0","92605","","null","","","null","85","NaN","","","","","","","","","","","","","","",""
"","S2","","html-keyboard-response","565","578524","0.0-1.0-769.0","0","0","92605","","null","","","null","85","","NaN","","","","","","","","","","","","","",""
"","response","","html-keyboard-response","566","579172","0.0-1.0-770.0-0.0","0","0","92605","","643","","","68","85","","","2","85","training","adjacent","ED","5","4","L.jpg","Q.jpg","0","0","1","",""
"","feedback","","html-keyboard-response","567","580188","0.0-1.0-771.0-0.0","0","0","92605","","null","","","null","85","","","","","","","","","","","","","","","",""
"","ITI","","html-keyboard-response","568","581201","0.0-1.0-774.0","0","0","92605","","null","","","null","85","","","","","","","","","","","","","","","NaN",""
"","S1","","html-keyboard-response","569","581468","0.0-1.0-776.0","0","0","92605","","null","","","null","86","","","","","","","","","","","","","","","",""
"","ISI","","html-keyboard-response","570","582481","0.0-1.0-777.0","0","0","92605","","null","","","null","86","NaN","","","","","","","","","","","","","","",""
"","S2","","html-keyboard-response","571","582748","0.0-1.0-778.0","0","0","92605","","null","","","null","86","","NaN","","","","","","","","","","","","","",""
"","response","","html-keyboard-response","572","584113","0.0-1.0-779.0-0.0","0","0","92605","","1360","","","68","86","","","2","86","training","adjacent","DE","4","5","Q.jpg","L.jpg","0","1","0","",""
"","feedback","","html-keyboard-response","573","585131","0.0-1.0-780.0-0.0","0","0","92605","","null","","","null","86","","","","","","","","","","","","","","","",""
"","time_out","","html-keyboard-response","574","587147","0.0-1.0-782.0-0.0","0","0","92605","","null","","","null","86","","","","","","","","","","","","","","","",""
"","ITI","","html-keyboard-response","575","588161","0.0-1.0-783.0","0","0","92605","","null","","","null","86","","","","","","","","","","","","","","","NaN",""
"","S1","","html-keyboard-response","576","588427","0.0-1.0-785.0","0","0","92605","","null","","","null","87","","","","","","","","","","","","","","","",""
"","ISI","","html-keyboard-response","577","589441","0.0-1.0-786.0","0","0","92605","","null","","","null","87","NaN","","","","","","","","","","","","","","",""
"","S2","","html-keyboard-response","578","589707","0.0-1.0-787.0","0","0","92605","","null","","","null","87","","NaN","","","","","","","","","","","","","",""
"","response","","html-keyboard-response","579","590010","0.0-1.0-788.0-0.0","0","0","92605","","298","","","68","87","","","2","87","training","adjacent","CD","3","4","M.jpg","Q.jpg","0","1","0","",""
"","feedback","","html-keyboard-response","580","591025","0.0-1.0-789.0-0.0","0","0","92605","","null","","","null","87","","","","","","","","","","","","","","","",""
