"success","ttype","start_time","trial_type","trial_index","time_elapsed","internal_node_id","warning","missed_checkup","PID","view_history","rt","responses","repeat_instructions","key_press","index","keypress_isi","keypress_S2","block","trial_num","phase","group_type","pair_type","S1_stim","S2_stim","S1_img","S2_img","S1_chosen","S1_higher","accuracy","keypress_iti","total_bonus_tally"
"true","full_screen","d03082023hr1516","fullscreen","0","29451","0.0-0.0","0","0","77553","","","","","","","","","","","","","","","","","","","","","",""
"","instructions","","instructions","1","89762","0.0-1.0-0.0-0.0","0","0","77553","[{""page_index"":0,""viewing_time"":11937},{""page_index"":1,""viewing_time"":29567},{""page_index"":2,""viewing_time"":15100},{""page_index"":3,""viewing_time"":3700}]","60305","","","","","","","","","","","","","","","","","","","",""
"","comprehension_check","","survey-multi-choice","2","118578","0.0-1.0-0.0-1.0","0","0","77553","","28809","{""Q0"":""True"",""Q1"":""D"",""Q2"":""Once the second image appears and while the screen 'MAKE A CHOICE' is shown"",""Q3"":""Green mark"",""Q4"":""either D or K""}","1","","","","","","","","","","","","","","","","","",""
"","missed_instruction_checkup","","html-keyboard-response","3","120594","0.0-1.0-0.0-2.0-0.0","0","1","77553","","2008","","","32","","","","","","","","","","","","","","","","",""
"","instructions","","instructions","4","143310","0.0-1.0-0.1-0.1","0","0","77553","[{""page_index"":0,""viewing_time"":2211},{""page_index"":1,""viewing_time"":11866},{""page_index"":2,""viewing_time"":6500},{""page_index"":3,""viewing_time"":2134}]","22711","","","","","","","","","","","","","","","","","","","",""
"","comprehension_check","","survey-multi-choice","5","154878","0.0-1.0-0.1-1.1","0","0","77553","","11559","{""Q0"":""True"",""Q1"":""K"",""Q2"":""Once the second image appears and while the screen 'MAKE A CHOICE' is shown"",""Q3"":""Green mark"",""Q4"":""either D or K""}","0","","","","","","","","","","","","","","","","","",""
"","start_exp","","html-keyboard-response","6","156514","0.0-1.0-1.0","0","0","77553","","1630","","","32","","","","","","","","","","","","","","","","",""
"","S1","","html-keyboard-response","7","156775","0.0-1.0-2.0","0","0","77553","","null","","","null","0","","","","","","","","","","","","","","","",""
"","ISI","","html-keyboard-response","8","156935","0.0-1.0-3.0","0","0","77553","","null","","","null","0","NaN","","","","","","","","","","","","","","",""
"","S2","","html-keyboard-response","9","157194","0.0-1.0-4.0","0","0","77553","","null","","","null","0","","NaN","","","","","","","","","","","","","",""
"","response","","html-keyboard-response","10","158156","0.0-1.0-5.0-0.0","0","0","77553","","958","","","68","0","","","1","0","training","adjacent","BA","2","1","L.jpg","R.jpg","0","0","1","",""
"","feedback","","html-keyboard-response","11","159165","0.0-1.0-6.0-0.0","0","0","77553","","null","","","null","0","","","","","","","","","","","","","","","",""
"","ITI","","html-keyboard-response","12","160178","0.0-1.0-9.0","0","0","77553","","null","","","null","0","","","","","","","","","","","","","","","NaN",""
"","S1","","html-keyboard-response","13","160434","0.0-1.0-11.0","0","0","77553","","null","","","null","1","","","","","","","","","","","","","","","",""
"","ISI","","html-keyboard-response","14","160595","0.0-1.0-12.0","0","0","77553","","null","","","null","1","NaN","","","","","","","","","","","","","","",""
"","S2","","html-keyboard-response","15","160851","0.0-1.0-13.0","0","0","77553","","null","","","null","1","","NaN","","","","","","","","","","","","","",""
"","response","","html-keyboard-response","16","161320","0.0-1.0-14.0-0.0","0","0","77553","","464","","","68","1","","","1","1","training","adjacent","DC","4","3","M.jpg","O.jpg","0","0","1","",""
"","feedback","","html-keyboard-response","17","162333","0.0-1.0-15.0-0.0","0","0","77553","","null","","","null","1","","","","","","","","","","","","","","","",""
"","ITI","","html-keyboard-response","18","163350","0.0-1.0-18.0","0","0","77553","","null","","","null","1","","","","","","","","","","","","","","","NaN",""
"","S1","","html-keyboard-response","19","163613","0.0-1.0-20.0","0","0","77553","","null","","","null","2","","","","","","","","","","","","","","","",""
"","ISI","","html-keyboard-response","20","163773","0.0-1.0-21.0","0","0","77553","","null","","","null","2","NaN","","","","","","","","","","","","","","",""
"","S2","","html-keyboard-response","21","164035","0.0-1.0-22.0","0","0","77553","","null","","","null","2","","NaN","","","","","","","","","","","","","",""
"","response","","html-keyboard-response","22","164527","0.0-1.0-23.0-0.0","0","0","77553","","492","","","75","2","","","1","2","training","adjacent","GF","7","6","P.jpg","Q.jpg","1","0","0","",""
"","feedback","","html-keyboard-response","23","165542","0.0-1.0-24.0-0.0","0","0","77553","","null","","","null","2","","","","","","","","","","","","","","","",""
"","time_out","","html-keyboard-response","24","167558","0.0-1.0-26.0-0.0","0","0","77553","","null","","","null","2","","","","","","","","","","","","","","","",""
"","ITI","","html-keyboard-response","25","168562","0.0-1.0-27.0","0","0","77553","","null","","","null","2","","","","","","","","","","","","","","","NaN",""
"","S1","","html-keyboard-response","26","168818","0.0-1.0-29.0","0","0","77553","","null","","","null","3","","","","","","","","","","","","","","","",""
"","ISI","","html-keyboard-response","27","168978","0.0-1.0-30.0","0","0","77553","","null","","","null","3","NaN","","","","","","","","","","","","","","",""
"","S2","","html-keyboard-response","28","169234","0.0-1.0-31.0","0","0","77553","","null","","","null","3","","NaN","","","","","","","","","","","","","",""
"","response","","html-keyboard-response","29","169840","0.0-1.0-32.0-0.0","0","0","77553","","602","","","68","3","","","1","3","training","adjacent","EF","5","6","N.jpg","Q.jpg","0","1","0","",""
"","feedback","","html-keyboard-response","30","170853","0.0-1.0-33.0-0.0","0","0","77553","","null","","","null","3","","","","","","","","","","","","","","","",""
"","time_out","","html-keyboard-response","31","172866","0.0-1.0-35.0-0.0","0","0","77553","","null","","","null","3","","","","","","","","","","","","","","","",""
"","ITI","","html-keyboard-response","32","173878","0.0-1.0-36.0","0","0","77553","","null","","","null","3","","","","","","","","","","","","","","","NaN",""
"","S1","","html-keyboard-response","33","174140","0.0-1.0-38.0","0","0","77553","","null","","","null","4","","","","","","","","","","","","","","","",""
"","ISI","","html-keyboard-response","34","174297","0.0-1.0-39.0","0","0","77553","","null","","","null","4","NaN","","","","","","","","","","","","","","",""
"","S2","","html-keyboard-response","35","174552","0.0-1.0-40.0","0","0","77553","","null","","","null","4","","NaN","","","","","","","","","","","","","",""
"","response","","html-keyboard-response","36","175062","0.0-1.0-41.0-0.0","0","0","77553","","507","","","75","4","","","1","4","training","adjacent","EF","5","6","N.jpg","Q.jpg","1","1","1","",""
"","feedback","","html-keyboard-response","37","176076","0.0-1.0-42.0-0.0","0","0","77553","","null","","","null","4","","","","","","","","","","","","","","","",""
"","ITI","","html-keyboard-response","38","177093","0.0-1.0-45.0","0","0","77553","","null","","","null","4","","","","","","","","","","","","","","","NaN",""
"","S1","","html-keyboard-response","39","177356","0.0-1.0-47.0","0","0","77553","","null","","","null","5","","","","","","","","","","","","","","","",""
"","ISI","","html-keyboard-response","40","177512","0.0-1.0-48.0","0","0","77553","","null","","","null","5","NaN","","","","","","","","","","","","","","",""
"","S2","","html-keyboard-response","41","177769","0.0-1.0-49.0","0","0","77553","","null","","","null","5","","NaN","","","","","","","","","","","","","",""
"","response","","html-keyboard-response","42","178043","0.0-1.0-50.0-0.0","0","0","77553","","274","","","75","5","","","1","5","training","adjacent","DC","4","3","M.jpg","O.jpg","1","0","0","",""
"","feedback","","html-keyboard-response","43","179052","0.0-1.0-51.0-0.0","0","0","77553","","null","","","null","5","","","","","","","","","","","","","","","",""
"","time_out","","html-keyboard-response","44","181064","0.0-1.0-53.0-0.0","0","0","77553","","null","","","null","5","","","","","","","","","","","","","","","",""
"","ITI","","html-keyboard-response","45","182076","0.0-1.0-54.0","0","0","77553","","null","","","null","5","","","","","","","","","","","","","","","NaN",""
"","S1","","html-keyboard-response","46","182338","0.0-1.0-56.0","0","0","77553","","null","","","null","6","","","","","","","","","","","","","","","",""
"","ISI","","html-keyboard-response","47","182500","0.0-1.0-57.0","0","0","77553","","null","","","null","6","NaN","","","","","","","","","","","","","","",""
"","S2","","html-keyboard-response","48","182763","0.0-1.0-58.0","0","0","77553","","null","","","null","6","","NaN","","","","","","","","","","","","","",""
"","response","","html-keyboard-response","49","182931","0.0-1.0-59.0-0.0","0","0","77553","","164","","","75","6","","","1","6","training","adjacent","BA","2","1","L.jpg","R.jpg","1","0","0","",""
"","feedback","","html-keyboard-response","50","183941","0.0-1.0-60.0-0.0","0","0","77553","","null","","","null","6","","","","","","","","","","","","","","","",""
"","time_out","","html-keyboard-response","51","185957","0.0-1.0-62.0-0.0","0","0","77553","","null","","","null","6","","","","","","","","","","","","","","","",""
"","ITI","","html-keyboard-response","52","186971","0.0-1.0-63.0","0","0","77553","","null","","","null","6","","","","","","","","","","","","","","","NaN",""
"","S1","","html-keyboard-response","53","187237","0.0-1.0-65.0","0","0","77553","","null","","","null","7","","","","","","","","","","","","","","","",""
"","ISI","","html-keyboard-response","54","187394","0.0-1.0-66.0","0","0","77553","","null","","","null","7","NaN","","","","","","","","","","","","","","",""
"","S2","","html-keyboard-response","55","187659","0.0-1.0-67.0","0","0","77553","","null","","","null","7","","NaN","","","","","","","","","","","","","",""
"","response","","html-keyboard-response","56","188163","0.0-1.0-68.0-0.0","0","0","77553","","498","","","68","7","","","1","7","training","adjacent","FE","6","5","Q.jpg","N.jpg","0","0","1","",""
"","feedback","","html-keyboard-response","57","189170","0.0-1.0-69.0-0.0","0","0","77553","","null","","","null","7","","","","","","","","","","","","","","","",""
"","ITI","","html-keyboard-response","58","190181","0.0-1.0-72.0","0","0","77553","","null","","","null","7","","","","","","","","","","","","","","","NaN",""
"","S1","","html-keyboard-response","59","190443","0.0-1.0-74.0","0","0","77553","","null","","","null","8","","","","","","","","","","","","","","","",""
"","ISI","","html-keyboard-response","60","190603","0.0-1.0-75.0","0","0","77553","","null","","","null","8","NaN","","","","","","","","","","","","","","",""
"","S2","","html-keyboard-response","61","190869","0.0-1.0-76.0","0","0","77553","","null","","","null","8","","NaN","","","","","","","","","","","","","",""
"","response","","html-keyboard-response","62","191556","0.0-1.0-77.0-0.0","0","0","77553","","683","","","68","8","","","1","8","training","adjacent","ED","5","4","N.jpg","M.jpg","0","0","1","",""
"","feedback","","html-keyboard-response","63","192571","0.0-1.0-78.0-0.0","0","0","77553","","null","","","null","8","","","","","","","","","","","","","","","",""
"","ITI","","html-keyboard-response","64","193575","0.0-1.0-81.0","0","0","77553","","null","","","null","8","","","","","","","","","","","","","","","NaN",""
"","S1","","html-keyboard-response","65","193831","0.0-1.0-83.0","0","0","77553","","null","","","null","9","","","","","","","","","","","","","","","",""
"","ISI","","html-keyboard-response","66","193993","0.0-1.0-84.0","0","0","77553","","null","","","null","9","NaN","","","","","","","","","","","","","","",""
"","S2","","html-keyboard-response","67","194247","0.0-1.0-85.0","0","0","77553","","null","","","null","9","","NaN","","","","","","","","","","","","","",""
"","response","","html-keyboard-response","68","194528","0.0-1.0-86.0-0.0","0","0","77553","","281","","","75","9","","","1","9","training","adjacent","CB","3","2","O.jpg","L.jpg","1","0","0","",""
"","feedback","","html-keyboard-response","69","195540","0.0-1.0-87.0-0.0","0","0","77553","","null","","","null","9","","","","","","","","","","","","","","","",""
"","time_out","","html-keyboard-response","70","197556","0.0-1.0-89.0-0.0","0","0","77553","","null","","","null","9","","","","","","","","","","","","","","","",""
"","ITI","","html-keyboard-response","71","198566","0.0-1.0-90.0","0","0","77553","","null","","","null","9","","","","","","","","","","","","","","","NaN",""
"","S1","","html-keyboard-response","72","198824","0.0-1.0-92.0","0","0","77553","","null","","","null","10","","","","","","","","","","","","","","","",""
"","ISI","","html-keyboard-response","73","198983","0.0-1.0-93.0","0","0","77553","","null","","","null","10","NaN","","","","","","","","","","","","","","",""
"","S2","","html-keyboard-response","74","199239","0.0-1.0-94.0","0","0","77553","","null","","","null","10","","NaN","","","","","","","","","","","","","",""
"","response","","html-keyboard-response","75","200051","0.0-1.0-95.0-0.0","0","0","77553","","811","","","75","10","","","1","10","training","adjacent","EF","5","6","N.jpg","Q.jpg","1","1","1","",""
"","feedback","","html-keyboard-response","76","201066","0.0-1.0-96.0-0.0","0","0","77553","","null","","","null","10","","","","","","","","","","","","","","","",""
"","ITI","","html-keyboard-response","77","202075","0.0-1.0-99.0","0","0","77553","","null","","","null","10","","","","","","","","","","","","","","","NaN",""
"","S1","","html-keyboard-response","78","202340","0.0-1.0-101.0","0","0","77553","","null","","","null","11","","","","","","","","","","","","","","","",""
"","ISI","","html-keyboard-response","79","202496","0.0-1.0-102.0","0","0","77553","","null","","","null","11","NaN","","","","","","","","","","","","","","",""
"","S2","","html-keyboard-response","80","202752","0.0-1.0-103.0","0","0","77553","","null","","","null","11","","NaN","","","","","","","","","","","","","",""
"","response","","html-keyboard-response","81","203168","0.0-1.0-104.0-0.0","0","0","77553","","414","","","68","11","","","1","11","training","adjacent","CD","3","4","O.jpg","M.jpg","0","1","0","",""
"","feedback","","html-keyboard-response","82","204180","0.0-1.0-105.0-0.0","0","0","77553","","null","","","null","11","","","","","","","","","","","","","","","",""
"","time_out","","html-keyboard-response","83","206196","0.0-1.0-107.0-0.0","0","0","77553","","null","","","null","11","","","","","","","","","","","","","","","",""
"","ITI","","html-keyboard-response","84","207210","0.0-1.0-108.0","0","0","77553","","null","","","null","11","","","","","","","","","","","","","","","NaN",""
"","S1","","html-keyboard-response","85","207476","0.0-1.0-110.0","0","0","77553","","null","","","null","12","","","","","","","","","","","","","","","",""
"","ISI","","html-keyboard-response","86","207635","0.0-1.0-111.0","0","0","77553","","null","","","null","12","NaN","","","","","","","","","","","","","","",""
"","S2","","html-keyboard-response","87","207898","0.0-1.0-112.0","0","0","77553","","null","","","null","12","","NaN","","","","","","","","","","","","","",""
"","response","","html-keyboard-response","88","208350","0.0-1.0-113.0-0.0","0","0","77553","","447","","","75","12","","","1","12","training","adjacent","DE","4","5","M.jpg","N.jpg","1","1","1","",""
"","feedback","","html-keyboard-response","89","209360","0.0-1.0-114.0-0.0","0","0","77553","","null","","","null","12","","","","","","","","","","","","","","","",""
"","ITI","","html-keyboard-response","90","210371","0.0-1.0-117.0","0","0","77553","","null","","","null","12","","","","","","","","","","","","","","","NaN",""
"","S1","","html-keyboard-response","91","210634","0.0-1.0-119.0","0","0","77553","","null","","","null","13","","","","","","","","","","","","","","","",""
"","ISI","","html-keyboard-response","92","210794","0.0-1.0-120.0","0","0","77553","","null","","","null","13","NaN","","","","","","","","","","","","","","",""
"","S2","","html-keyboard-response","93","211059","0.0-1.0-121.0","0","0","77553","","null","","","null","13","","NaN","","","","","","","","","","","","","",""
"","response","","html-keyboard-response","94","211296","0.0-1.0-122.0-0.0","0","0","77553","","232","","","75","13","","","1","13","training","adjacent","CD","3","4","O.jpg","M.jpg","1","1","1","",""
"","feedback","","html-keyboard-response","95","212307","0.0-1.0-123.0-0.0","0","0","77553","","null","","","null","13","","","","","","","","","","","","","","","",""
"","ITI","","html-keyboard-response","96","213318","0.0-1.0-126.0","0","0","77553","","null","","","null","13","","","","","","","","","","","","","","","NaN",""
"","S1","","html-keyboard-response","97","213576","0.0-1.0-128.0","0","0","77553","","null","","","null","14","","","","","","","","","","","","","","","",""
"","ISI","","html-keyboard-response","98","213734","0.0-1.0-129.0","0","0","77553","","null","","","null","14","NaN","","","","","","","","","","","","","","",""
"","S2","","html-keyboard-response","99","213994","0.0-1.0-130.0","0","0","77553","","null","","","null","14","","NaN","","","","","","","","","","","","","",""
"","response","","html-keyboard-response","100","214222","0.0-1.0-131.0-0.0","0","0","77553","","223","","","75","14","","","1","14","training","adjacent","BC","2","3","L.jpg","O.jpg","1","1","1","",""
"","feedback","","html-keyboard-response","101","215235","0.0-1.0-132.0-0.0","0","0","77553","","null","","","null","14","","","","","","","","","","","","","","","",""
"","ITI","","html-keyboard-response","102","216246","0.0-1.0-135.0","0","0","77553","","null","","","null","14","","","","","","","","","","","","","","","NaN",""
"","S1","","html-keyboard-response","103","216502","0.0-1.0-137.0","0","0","77553","","null","","","null","15","","","","","","","","","","","","","","","",""
"","ISI","","html-keyboard-response","104","216662","0.0-1.0-138.0","0","0","77553","","null","","","null","15","NaN","","","","","","","","","","","","","","",""
"","S2","","html-keyboard-response","105","216922","0.0-1.0-139.0","0","0","77553","","null","","","null","15","","NaN","","","","","","","","","","","","","",""
"","response","","html-keyboard-response","106","217544","0.0-1.0-140.0-0.0","0","0","77553","","622","","","68","15","","","1","15","training","adjacent","FG","6","7","Q.jpg","P.jpg","0","1","0","",""
"","feedback","","html-keyboard-response","107","218553","0.0-1.0-141.0-0.0","0","0","77553","","null","","","null","15","","","","","","","","","","","","","","","",""
"","time_out","","html-keyboard-response","108","220563","0.0-1.0-143.0-0.0","0","0","77553","","null","","","null","15","","","","","","","","","","","","","","","",""
"","ITI","","html-keyboard-response","109","221578","0.0-1.0-144.0","0","0","77553","","null","","","null","15","","","","","","","","","","","","","","","NaN",""
"","S1","","html-keyboard-response","110","221843","0.0-1.0-146.0","0","0","77553","","null","","","null","16","","","","","","","","","","","","","","","",""
"","ISI","","html-keyboard-response","111","222003","0.0-1.0-147.0","0","0","77553","","null","","","null","16","NaN","","","","","","","","","","","","","","",""
"","S2","","html-keyboard-response","112","222265","0.0-1.0-148.0","0","0","77553","","null","","","null","16","","NaN","","","","","","","","","","","","","",""
"","response","","html-keyboard-response","113","222394","0.0-1.0-149.0-0.0","0","0","77553","","124","","","75","16","","","1","16","training","adjacent","AB","1","2","R.jpg","L.jpg","1","1","1","",""
"","feedback","","html-keyboard-response","114","223407","0.0-1.0-150.0-0.0","0","0","77553","","null","","","null","16","","","","","","","","","","","","","","","",""
"","ITI","","html-keyboard-response","115","224415","0.0-1.0-153.0","0","0","77553","","null","","","null","16","","","","","","","","","","","","","","","NaN",""
"","S1","","html-keyboard-response","116","224675","0.0-1.0-155.0","0","0","77553","","null","","","null","17","","","","","","","","","","","","","","","",""
"","ISI","","html-keyboard-response","117","224835","0.0-1.0-156.0","0","0","77553","","null","","","null","17","NaN","","","","","","","","","","","","","","",""
"","S2","","html-keyboard-response","118","225097","0.0-1.0-157.0","0","0","77553","","null","","","null","17","","NaN","","","","","","","","","","","","","",""
"","response","","html-keyboard-response","119","225370","0.0-1.0-158.0-0.0","0","0","77553","","268","","","75","17","","","1","17","training","adjacent","CB","3","2","O.jpg","L.jpg","1","0","0","",""
"","feedback","","html-keyboard-response","120","226386","0.0-1.0-159.0-0.0","0","0","77553","","null","","","null","17","","","","","","","","","","","","","","","",""
"","time_out","","html-keyboard-response","121","228398","0.0-1.0-161.0-0.0","0","0","77553","","null","","","null","17","","","","","","","","","","","","","","","",""
"","ITI","","html-keyboard-response","122","229410","0.0-1.0-162.0","0","0","77553","","null","","","null","17","","","","","","","","","","","","","","","NaN",""
"","S1","","html-keyboard-response","123","229673","0.0-1.0-164.0","0","0","77553","","null","","","null","18","","","","","","","","","","","","","","","",""
"","ISI","","html-keyboard-response","124","229833","0.0-1.0-165.0","0","0","77553","","null","","","null","18","NaN","","","","","","","","","","","","","","",""
"","S2","","html-keyboard-response","125","230098","0.0-1.0-166.0","0","0","77553","","null","","","null","18","","NaN","","","","","","","","","","","","","",""
"","response","","html-keyboard-response","126","230355","0.0-1.0-167.0-0.0","0","0","77553","","251","","","68","18","","","1","18","training","adjacent","FG","6","7","Q.jpg","P.jpg","0","1","0","",""
"","feedback","","html-keyboard-response","127","231365","0.0-1.0-168.0-0.0","0","0","77553","","null","","","null","18","","","","","","","","","","","","","","","",""
"","time_out","","html-keyboard-response","128","233375","0.0-1.0-170.0-0.0","0","0","77553","","null","","","null","18","","","","","","","","","","","","","","","",""
"","ITI","","html-keyboard-response","129","234382","0.0-1.0-171.0","0","0","77553","","null","","","null","18","","","","","","","","","","","","","","","NaN",""
"","S1","","html-keyboard-response","130","234638","0.0-1.0-173.0","0","0","77553","","null","","","null","19","","","","","","","","","","","","","","","",""
"","ISI","","html-keyboard-response","131","234798","0.0-1.0-174.0","0","0","77553","","null","","","null","19","NaN","","","","","","","","","","","","","","",""
"","S2","","html-keyboard-response","132","235055","0.0-1.0-175.0","0","0","77553","","null","","","null","19","","NaN","","","","","","","","","","","","","",""
"","response","","html-keyboard-response","133","235400","0.0-1.0-176.0-0.0","0","0","77553","","344","","","68","19","","","1","19","training","adjacent","BA","2","1","L.jpg","R.jpg","0","0","1","",""
"","feedback","","html-keyboard-response","134","236407","0.0-1.0-177.0-0.0","0","0","77553","","null","","","null","19","","","","","","","","","","","","","","","",""
"","ITI","","html-keyboard-response","135","237411","0.0-1.0-180.0","0","0","77553","","null","","","null","19","","","","","","","","","","","","","","","NaN",""
"","S1","","html-keyboard-response","136","237668","0.0-1.0-182.0","0","0","77553","","null","","","null","20","","","","","","","","","","","","","","","",""
"","ISI","","html-keyboard-response","137","237829","0.0-1.0-183.0","0","0","77553","","null","","","null","20","NaN","","","","","","","","","","","","","","",""
"","S2","","html-keyboard-response","138","238088","0.0-1.0-184.0","0","0","77553","","null","","","null","20","","NaN","","","","","","","","","","","","","",""
"","response","","html-keyboard-response","139","238346","0.0-1.0-185.0-0.0","0","0","77553","","253","","","75","20","","","1","20","training","adjacent","BA","2","1","L.jpg","R.jpg","1","0","0","",""
"","feedback","","html-keyboard-response","140","239362","0.0-1.0-186.0-0.0","0","0","77553","","null","","","null","20","","","","","","","","","","","","","","","",""
"","time_out","","html-keyboard-response","141","241378","0.0-1.0-188.0-0.0","0","0","77553","","null","","","null","20","","","","","","","","","","","","","","","",""
"","ITI","","html-keyboard-response","142","242392","0.0-1.0-189.0","0","0","77553","","null","","","null","20","","","","","","","","","","","","","","","NaN",""
"","S1","","html-keyboard-response","143","242655","0.0-1.0-191.0","0","0","77553","","null","","","null","21","","","","","","","","","","","","","","","",""
"","ISI","","html-keyboard-response","144","242814","0.0-1.0-192.0","0","0","77553","","null","","","null","21","NaN","","","","","","","","","","","","","","",""
"","S2","","html-keyboard-response","145","243070","0.0-1.0-193.0","0","0","77553","","null","","","null","21","","NaN","","","","","","","","","","","","","",""
"","response","","html-keyboard-response","146","243561","0.0-1.0-194.0-0.0","0","0","77553","","487","","","68","21","","","1","21","training","adjacent","FG","6","7","Q.jpg","P.jpg","0","1","0","",""
"","feedback","","html-keyboard-response","147","244573","0.0-1.0-195.0-0.0","0","0","77553","","null","","","null","21","","","","","","","","","","","","","","","",""
"","time_out","","html-keyboard-response","148","246580","0.0-1.0-197.0-0.0","0","0","77553","","null","","","null","21","","","","","","","","","","","","","","","",""
"","ITI","","html-keyboard-response","149","247588","0.0-1.0-198.0","0","0","77553","","null","","","null","21","","","","","","","","","","","","","","","NaN",""
"","S1","","html-keyboard-response","150","247844","0.0-1.0-200.0","0","0","77553","","null","","","null","22","","","","","","","","","","","","","","","",""
"","ISI","","html-keyboard-response","151","248004","0.0-1.0-201.0","0","0","77553","","null","","","null","22","NaN","","","","","","","","","","","","","","",""
"","S2","","html-keyboard-response","152","248260","0.0-1.0-202.0","0","0","77553","","null","","","null","22","","NaN","","","","","","","","","","","","","",""
"","response","","html-keyboard-response","153","248801","0.0-1.0-203.0-0.0","0","0","77553","","540","","","75","22","","","1","22","training","adjacent","FG","6","7","Q.jpg","P.jpg","1","1","1","",""
"","feedback","","html-keyboard-response","154","249815","0.0-1.0-204.0-0.0","0","0","77553","","null","","","null","22","","","","","","","","","","","","","","","",""
"","ITI","","html-keyboard-response","155","250824","0.0-1.0-207.0","0","0","77553","","null","","","null","22","","","","","","","","","","","","","","","NaN",""
"","S1","","html-keyboard-response","156","251089","0.0-1.0-209.0","0","0","77553","","null","","","null","23","","","","","","","","","","","","","","","",""
"","ISI","","html-keyboard-response","157","251245","0.0-1.0-210.0","0","0","77553","","null","","","null","23","NaN","","","","","","","","","","","","","","",""
"","S2","","html-keyboard-response","158","251501","0.0-1.0-211.0","0","0","77553","","null","","","null","23","","NaN","","","","","","","","","","","","","",""
"","response","","html-keyboard-response","159","251924","0.0-1.0-212.0-0.0","0","0","77553","","419","","","68","23","","","1","23","training","adjacent","DC","4","3","M.jpg","O.jpg","0","0","1","",""
"","feedback","","html-keyboard-response","160","252935","0.0-1.0-213.0-0.0","0","0","77553","","null","","","null","23","","","","","","","","","","","","","","","",""
"","ITI","","html-keyboard-response","161","253940","0.0-1.0-216.0","0","0","77553","","null","","","null","23","","","","","","","","","","","","","","","NaN",""
"","S1","","html-keyboard-response","162","254195","0.0-1.0-218.0","0","0","77553","","null","","","null","24","","","","","","","","","","","","","","","",""
"","ISI","","html-keyboard-response","163","254355","0.0-1.0-219.0","0","0","77553","","null","","","null","24","NaN","","","","","","","","","","","","","","",""
"","S2","","html-keyboard-response","164","254612","0.0-1.0-220.0","0","0","77553","","null","","","null","24","","NaN","","","","","","","","","","","","","",""
"","response","","html-keyboard-response","165","255325","0.0-1.0-221.0-0.0","0","0","77553","","709","","","75","24","","","1","24","training","adjacent","CD","3","4","O.jpg","M.jpg","1","1","1","",""
"","feedback","","html-keyboard-response","166","256337","0.0-1.0-222.0-0.0","0","0","77553","","null","","","null","24","","","","","","","","","","","","","","","",""
"","ITI","","html-keyboard-response","167","257349","0.0-1.0-225.0","0","0","77553","","null","","","null","24","","","","","","","","","","","","","","","NaN",""
"","S1","","html-keyboard-response","168","257603","0.0-1.0-227.0","0","0","77553","","null","","","null","25","","","","","","","","","","","","","","","",""
"","ISI","","html-keyboard-response","169","257766","0.0-1.0-228.0","0","0","77553","","null","","","null","25","NaN","","","","","","","","","","","","","","",""
"","S2","","html-keyboard-response","170","258019","0.0-1.0-229.0","0","0","77553","","null","","","null","25","","NaN","","","","","","","","","","","","","",""
"","response","","html-keyboard-response","171","258194","0.0-1.0-230.0-0.0","0","0","77553","","172","","","75","25","","","1","25","training","adjacent","CB","3","2","O.jpg","L.jpg","1","0","0","",""
"","feedback","","html-keyboard-response","172","259207","0.0-1.0-231.0-0.0","0","0","77553","","null","","","null","25","","","","","","","","","","","","","","","",""
"","time_out","","html-keyboard-response","173","261223","0.0-1.0-233.0-0.0","0","0","77553","","null","","","null","25","","","","","","","","","","","","","","","",""
"","ITI","","html-keyboard-response","174","262238","0.0-1.0-234.0","0","0","77553","","null","","","null","25","","","","","","","","","","","","","","","NaN",""
"","S1","","html-keyboard-response","175","262499","0.0-1.0-236.0","0","0","77553","","null","","","null","26","","","","","","","","","","","","","","","",""
"","ISI","","html-keyboard-response","176","262659","0.0-1.0-237.0","0","0","77553","","null","","","null","26","NaN","","","","","","","","","","","","","","",""
"","S2","","html-keyboard-response","177","262917","0.0-1.0-238.0","0","0","77553","","null","","","null","26","","NaN","","","","","","","","","","","","","",""
"","response","","html-keyboard-response","178","263379","0.0-1.0-239.0-0.0","0","0","77553","","456","","","75","26","","","1","26","training","adjacent","FE","6","5","Q.jpg","N.jpg","1","0","0","",""
"","feedback","","html-keyboard-response","179","264388","0.0-1.0-240.0-0.0","0","0","77553","","null","","","null","26","","","","","","","","","","","","","","","",""
"","time_out","","html-keyboard-response","180","266400","0.0-1.0-242.0-0.0","0","0","77553","","null","","","null","26","","","","","","","","","","","","","","","",""
"","ITI","","html-keyboard-response","181","267414","0.0-1.0-243.0","0","0","77553","","null","","","null","26","","","","","","","","","","","","","","","NaN",""
"","S1","","html-keyboard-response","182","267680","0.0-1.0-245.0","0","0","77553","","null","","","null","27","","","","","","","","","","","","","","","",""
"","ISI","","html-keyboard-response","183","267836","0.0-1.0-246.0","0","0","77553","","null","","","null","27","NaN","","","","","","","","","","","","","","",""
"","S2","","html-keyboard-response","184","268092","0.0-1.0-247.0","0","0","77553","","null","","","null","27","","NaN","","","","","","","","","","","","","",""
"","response","","html-keyboard-response","185","268497","0.0-1.0-248.0-0.0","0","0","77553","","400","","","68","27","","","1","27","training","adjacent","EF","5","6","N.jpg","Q.jpg","0","1","0","",""
"","feedback","","html-keyboard-response","186","269511","0.0-1.0-249.0-0.0","0","0","77553","","null","","","null","27","","","","","","","","","","","","","","","",""
"","time_out","","html-keyboard-response","187","271522","0.0-1.0-251.0-0.0","0","0","77553","","null","","","null","27","","","","","","","","","","","","","","","",""
"","ITI","","html-keyboard-response","188","272530","0.0-1.0-252.0","0","0","77553","","null","","","null","27","","","","","","","","","","","","","","","NaN",""
"","S1","","html-keyboard-response","189","272790","0.0-1.0-254.0","0","0","77553","","null","","","null","28","","","","","","","","","","","","","","","",""
"","ISI","","html-keyboard-response","190","272950","0.0-1.0-255.0","0","0","77553","","null","","","null","28","NaN","","","","","","","","","","","","","","",""
"","S2","","html-keyboard-response","191","273216","0.0-1.0-256.0","0","0","77553","","null","","","null","28","","NaN","","","","","","","","","","","","","",""
"","response","","html-keyboard-response","192","273651","0.0-1.0-257.0-0.0","0","0","77553","","434","","","75","28","","","1","28","training","adjacent","FE","6","5","Q.jpg","N.jpg","1","0","0","",""
"","feedback","","html-keyboard-response","193","274662","0.0-1.0-258.0-0.0","0","0","77553","","null","","","null","28","","","","","","","","","","","","","","","",""
"","time_out","","html-keyboard-response","194","276674","0.0-1.0-260.0-0.0","0","0","77553","","null","","","null","28","","","","","","","","","","","","","","","",""
"","ITI","","html-keyboard-response","195","277682","0.0-1.0-261.0","0","0","77553","","null","","","null","28","","","","","","","","","","","","","","","NaN",""
"","S1","","html-keyboard-response","196","277938","0.0-1.0-263.0","0","0","77553","","null","","","null","29","","","","","","","","","","","","","","","",""
"","ISI","","html-keyboard-response","197","278101","0.0-1.0-264.0","0","0","77553","","null","","","null","29","NaN","","","","","","","","","","","","","","",""
"","S2","","html-keyboard-response","198","278367","0.0-1.0-265.0","0","0","77553","","null","","","null","29","","NaN","","","","","","","","","","","","","",""
"","response","","html-keyboard-response","199","278854","0.0-1.0-266.0-0.0","0","0","77553","","485","","","75","29","","","1","29","training","adjacent","ED","5","4","N.jpg","M.jpg","1","0","0","",""
"","feedback","","html-keyboard-response","200","279858","0.0-1.0-267.0-0.0","0","0","77553","","null","","","null","29","","","","","","","","","","","","","","","",""
"","time_out","","html-keyboard-response","201","281868","0.0-1.0-269.0-0.0","0","0","77553","","null","","","null","29","","","","","","","","","","","","","","","",""
"","ITI","","html-keyboard-response","202","282879","0.0-1.0-270.0","0","0","77553","","null","","","null","29","","","","","","","","","","","","","","","NaN",""
"","S1","","html-keyboard-response","203","283142","0.0-1.0-272.0","0","0","77553","","null","","","null","30","","","","","","","","","","","","","","","",""
"","ISI","","html-keyboard-response","204","283298","0.0-1.0-273.0","0","0","77553","","null","","","null","30","NaN","","","","","","","","","","","","","","",""
"","S2","","html-keyboard-response","205","283554","0.0-1.0-274.0","0","0","77553","","null","","","null","30","","NaN","","","","","","","","","","","","","",""
"","response","","html-keyboard-response","206","284147","0.0-1.0-275.0-0.0","0","0","77553","","590","","","75","30","","","1","30","training","adjacent","ED","5","4","N.jpg","M.jpg","1","0","0","",""
"","feedback","","html-keyboard-response","207","285158","0.0-1.0-276.0-0.0","0","0","77553","","null","","","null","30","","","","","","","","","","","","","","","",""
"","time_out","","html-keyboard-response","208","287170","0.0-1.0-278.0-0.0","0","0","77553","","null","","","null","30","","","","","","","","","","","","","","","",""
"","ITI","","html-keyboard-response","209","288182","0.0-1.0-279.0","0","0","77553","","null","","","null","30","","","","","","","","","","","","","","","NaN",""
"","S1","","html-keyboard-response","210","288443","0.0-1.0-281.0","0","0","77553","","null","","","null","31","","","","","","","","","","","","","","","",""
"","ISI","","html-keyboard-response","211","288603","0.0-1.0-282.0","0","0","77553","","null","","","null","31","NaN","","","","","","","","","","","","","","",""
"","S2","","html-keyboard-response","212","288859","0.0-1.0-283.0","0","0","77553","","null","","","null","31","","NaN","","","","","","","","","","","","","",""
"","response","","html-keyboard-response","213","289053","0.0-1.0-284.0-0.0","0","0","77553","","193","","","68","31","","","1","31","training","adjacent","DE","4","5","M.jpg","N.jpg","0","1","0","",""
"","feedback","","html-keyboard-response","214","290063","0.0-1.0-285.0-0.0","0","0","77553","","null","","","null","31","","","","","","","","","","","","","","","",""
"","time_out","","html-keyboard-response","215","292079","0.0-1.0-287.0-0.0","0","0","77553","","null","","","null","31","","","","","","","","","","","","","","","",""
"","ITI","","html-keyboard-response","216","293093","0.0-1.0-288.0","0","0","77553","","null","","","null","31","","","","","","","","","","","","","","","NaN",""
"","S1","","html-keyboard-response","217","293358","0.0-1.0-290.0","0","0","77553","","null","","","null","32","","","","","","","","","","","","","","","",""
"","ISI","","html-keyboard-response","218","293518","0.0-1.0-291.0","0","0","77553","","null","","","null","32","NaN","","","","","","","","","","","","","","",""
"","S2","","html-keyboard-response","219","293781","0.0-1.0-292.0","0","0","77553","","null","","","null","32","","NaN","","","","","","","","","","","","","",""
"","response","","html-keyboard-response","220","294052","0.0-1.0-293.0-0.0","0","0","77553","","266","","","75","32","","","1","32","training","adjacent","CB","3","2","O.jpg","L.jpg","1","0","0","",""
"","feedback","","html-keyboard-response","221","295057","0.0-1.0-294.0-0.0","0","0","77553","","null","","","null","32","","","","","","","","","","","","","","","",""
"","time_out","","html-keyboard-response","222","297066","0.0-1.0-296.0-0.0","0","0","77553","","null","","","null","32","","","","","","","","","","","","","","","",""
"","ITI","","html-keyboard-response","223","298078","0.0-1.0-297.0","0","0","77553","","null","","","null","32","","","","","","","","","","","","","","","NaN",""
"","S1","","html-keyboard-response","224","298340","0.0-1.0-299.0","0","0","77553","","null","","","null","33","","","","","","","","","","","","","","","",""
"","ISI","","html-keyboard-response","225","298501","0.0-1.0-300.0","0","0","77553","","null","","","null","33","NaN","","","","","","","","","","","","","","",""
"","S2","","html-keyboard-response","226","298766","0.0-1.0-301.0","0","0","77553","","null","","","null","33","","NaN","","","","","","","","","","","","","",""
"","response","","html-keyboard-response","227","299451","0.0-1.0-302.0-0.0","0","0","77553","","679","","","68","33","","","1","33","training","adjacent","GF","7","6","P.jpg","Q.jpg","0","0","1","",""
"","feedback","","html-keyboard-response","228","300462","0.0-1.0-303.0-0.0","0","0","77553","","null","","","null","33","","","","","","","","","","","","","","","",""
"","ITI","","html-keyboard-response","229","301473","0.0-1.0-306.0","0","0","77553","","null","","","null","33","","","","","","","","","","","","","","","NaN",""
"","S1","","html-keyboard-response","230","301728","0.0-1.0-308.0","0","0","77553","","null","","","null","34","","","","","","","","","","","","","","","",""
"","ISI","","html-keyboard-response","231","301889","0.0-1.0-309.0","0","0","77553","","null","","","null","34","NaN","","","","","","","","","","","","","","",""
"","S2","","html-keyboard-response","232","302148","0.0-1.0-310.0","0","0","77553","","null","","","null","34","","NaN","","","","","","","","","","","","","",""
"","response","","html-keyboard-response","233","302518","0.0-1.0-311.0-0.0","0","0","77553","","365","","","68","34","","","1","34","training","adjacent","GF","7","6","P.jpg","Q.jpg","0","0","1","",""
"","feedback","","html-keyboard-response","234","303530","0.0-1.0-312.0-0.0","0","0","77553","","null","","","null","34","","","","","","","","","","","","","","","",""
"","ITI","","html-keyboard-response","235","304542","0.0-1.0-315.0","0","0","77553","","null","","","null","34","","","","","","","","","","","","","","","NaN",""
"","S1","","html-keyboard-response","236","304804","0.0-1.0-317.0","0","0","77553","","null","","","null","35","","","","","","","","","","","","","","","",""
"","ISI","","html-keyboard-response","237","304964","0.0-1.0-318.0","0","0","77553","","null","","","null","35","NaN","","","","","","","","","","","","","","",""
"","S2","","html-keyboard-response","238","305230","0.0-1.0-319.0","0","0","77553","","null","","","null","35","","NaN","","","","","","","","","","","","","",""
"","response","","html-keyboard-response","239","305578","0.0-1.0-320.0-0.0","0","0","77553","","343","","","68","35","","","1","35","training","adjacent","BC","2","3","L.jpg","O.jpg","0","1","0","",""
"","feedback","","html-keyboard-response","240","306590","0.0-1.0-321.0-0.0","0","0","77553","","null","","","null","35","","","","","","","","","","","","","","","",""
"","time_out","","html-keyboard-response","241","308606","0.0-1.0-323.0-0.0","0","0","77553","","null","","","null","35","","","","","","","","","","","","","","","",""
"","ITI","","html-keyboard-response","242","309616","0.0-1.0-324.0","0","0","77553","","null","","","null","35","","","","","","","","","","","","","","","NaN",""
"","S1","","html-keyboard-response","243","309872","0.0-1.0-326.0","0","0","77553","","null","","","null","36","","","","","","","","","","","","","","","",""
"","ISI","","html-keyboard-response","244","310032","0.0-1.0-327.0","0","0","77553","","null","","","null","36","NaN","","","","","","","","","","","","","","",""
"","S2","","html-keyboard-response","245","310292","0.0-1.0-328.0","0","0","77553","","null","","","null","36","","NaN","","","","","","","","","","","","","",""
"","response","","html-keyboard-response","246","310836","0.0-1.0-329.0-0.0","0","0","77553","","539","","","68","36","","","1","36","training","adjacent","GF","7","6","P.jpg","Q.jpg","0","0","1","",""
"","feedback","","html-keyboard-response","247","311849","0.0-1.0-330.0-0.0","0","0","77553","","null","","","null","36","","","","","","","","","","","","","","","",""
"","ITI","","html-keyboard-response","248","312858","0.0-1.0-333.0","0","0","77553","","null","","","null","36","","","","","","","","","","","","","","","NaN",""
"","S1","","html-keyboard-response","249","313115","0.0-1.0-335.0","0","0","77553","","null","","","null","37","","","","","","","","","","","","","","","",""
"","ISI","","html-keyboard-response","250","313277","0.0-1.0-336.0","0","0","77553","","null","","","null","37","NaN","","","","","","","","","","","","","","",""
"","S2","","html-keyboard-response","251","313540","0.0-1.0-337.0","0","0","77553","","null","","","null","37","","NaN","","","","","","","","","","","","","",""
"","response","","html-keyboard-response","252","314412","0.0-1.0-338.0-0.0","0","0","77553","","867","","","68","37","","","1","37","training","adjacent","DE","4","5","M.jpg","N.jpg","0","1","0","",""
"","feedback","","html-keyboard-response","253","315428","0.0-1.0-339.0-0.0","0","0","77553","","null","","","null","37","","","","","","","","","","","","","","","",""
"","time_out","","html-keyboard-response","254","317433","0.0-1.0-341.0-0.0","0","0","77553","","null","","","null","37","","","","","","","","","","","","","","","",""
"","ITI","","html-keyboard-response","255","318445","0.0-1.0-342.0","0","0","77553","","null","","","null","37","","","","","","","","","","","","","","","NaN",""
"","S1","","html-keyboard-response","256","318707","0.0-1.0-344.0","0","0","77553","","null","","","null","38","","","","","","","","","","","","","","","",""
"","ISI","","html-keyboard-response","257","318867","0.0-1.0-345.0","0","0","77553","","null","","","null","38","NaN","","","","","","","","","","","","","","",""
"","S2","","html-keyboard-response","258","319133","0.0-1.0-346.0","0","0","77553","","null","","","null","38","","NaN","","","","","","","","","","","","","",""
"","response","","html-keyboard-response","259","319619","0.0-1.0-347.0-0.0","0","0","77553","","484","","","75","38","","","1","38","training","adjacent","AB","1","2","R.jpg","L.jpg","1","1","1","",""
"","feedback","","html-keyboard-response","260","320627","0.0-1.0-348.0-0.0","0","0","77553","","null","","","null","38","","","","","","","","","","","","","","","",""
"","ITI","","html-keyboard-response","261","321645","0.0-1.0-351.0","0","0","77553","","null","","","null","38","","","","","","","","","","","","","","","NaN",""
"","S1","","html-keyboard-response","262","321907","0.0-1.0-353.0","0","0","77553","","null","","","null","39","","","","","","","","","","","","","","","",""
"","ISI","","html-keyboard-response","263","322067","0.0-1.0-354.0","0","0","77553","","null","","","null","39","NaN","","","","","","","","","","","","","","",""
"","S2","","html-keyboard-response","264","322333","0.0-1.0-355.0","0","0","77553","","null","","","null","39","","NaN","","","","","","","","","","","","","",""
"","response","","html-keyboard-response","265","322766","0.0-1.0-356.0-0.0","0","0","77553","","429","","","68","39","","","1","39","training","adjacent","BC","2","3","L.jpg","O.jpg","0","1","0","",""
"","feedback","","html-keyboard-response","266","323779","0.0-1.0-357.0-0.0","0","0","77553","","null","","","null","39","","","","","","","","","","","","","","","",""
"","time_out","","html-keyboard-response","267","325791","0.0-1.0-359.0-0.0","0","0","77553","","null","","","null","39","","","","","","","","","","","","","","","",""
"","ITI","","html-keyboard-response","268","326802","0.0-1.0-360.0","0","0","77553","","null","","","null","39","","","","","","","","","","","","","","","NaN",""
"","S1","","html-keyboard-response","269","327068","0.0-1.0-362.0","0","0","77553","","null","","","null","40","","","","","","","","","","","","","","","",""
"","ISI","","html-keyboard-response","270","327228","0.0-1.0-363.0","0","0","77553","","null","","","null","40","NaN","","","","","","","","","","","","","","",""
"","S2","","html-keyboard-response","271","327491","0.0-1.0-364.0","0","0","77553","","null","","","null","40","","NaN","","","","","","","","","","","","","",""
"","response","","html-keyboard-response","272","327757","0.0-1.0-365.0-0.0","0","0","77553","","261","","","75","40","","","1","40","training","adjacent","DE","4","5","M.jpg","N.jpg","1","1","1","",""
"","feedback","","html-keyboard-response","273","328771","0.0-1.0-366.0-0.0","0","0","77553","","null","","","null","40","","","","","","","","","","","","","","","",""
"","ITI","","html-keyboard-response","274","329784","0.0-1.0-369.0","0","0","77553","","null","","","null","40","","","","","","","","","","","","","","","NaN",""
"","S1","","html-keyboard-response","275","330040","0.0-1.0-371.0","0","0","77553","","null","","","null","41","","","","","","","","","","","","","","","",""
"","ISI","","html-keyboard-response","276","330200","0.0-1.0-372.0","0","0","77553","","null","","","null","41","NaN","","","","","","","","","","","","","","",""
"","S2","","html-keyboard-response","277","330456","0.0-1.0-373.0","0","0","77553","","null","","","null","41","","NaN","","","","","","","","","","","","","",""
"","response","","html-keyboard-response","278","330801","0.0-1.0-374.0-0.0","0","0","77553","","340","","","75","41","","","1","41","training","adjacent","AB","1","2","R.jpg","L.jpg","1","1","1","",""
"","feedback","","html-keyboard-response","279","331811","0.0-1.0-375.0-0.0","0","0","77553","","null","","","null","41","","","","","","","","","","","","","","","",""
"","ITI","","html-keyboard-response","280","332828","0.0-1.0-378.0","0","0","77553","","null","","","null","41","","","","","","","","","","","","","","","NaN",""
"","S1","","html-keyboard-response","281","333090","0.0-1.0-380.0","0","0","77553","","null","","","null","42","","","","","","","","","","","","","","","",""
"","ISI","","html-keyboard-response","282","333251","0.0-1.0-381.0","0","0","77553","","null","","","null","42","NaN","","","","","","","","","","","","","","",""
"","S2","","html-keyboard-response","283","333516","0.0-1.0-382.0","0","0","77553","","null","","","null","42","","NaN","","","","","","","","","","","","","",""
"","response","","html-keyboard-response","284","333789","0.0-1.0-383.0-0.0","0","0","77553","","271","","","75","42","","","1","42","training","adjacent","CD","3","4","O.jpg","M.jpg","1","1","1","",""
"","feedback","","html-keyboard-response","285","334802","0.0-1.0-384.0-0.0","0","0","77553","","null","","","null","42","","","","","","","","","","","","","","","",""
"","ITI","","html-keyboard-response","286","335810","0.0-1.0-387.0","0","0","77553","","null","","","null","42","","","","","","","","","","","","","","","NaN",""
"","S1","","html-keyboard-response","287","336075","0.0-1.0-389.0","0","0","77553","","null","","","null","43","","","","","","","","","","","","","","","",""
"","ISI","","html-keyboard-response","288","336236","0.0-1.0-390.0","0","0","77553","","null","","","null","43","NaN","","","","","","","","","","","","","","",""
"","S2","","html-keyboard-response","289","336494","0.0-1.0-391.0","0","0","77553","","null","","","null","43","","NaN","","","","","","","","","","","","","",""
"","response","","html-keyboard-response","290","336870","0.0-1.0-392.0-0.0","0","0","77553","","375","","","75","43","","","1","43","training","adjacent","BC","2","3","L.jpg","O.jpg","1","1","1","",""
"","feedback","","html-keyboard-response","291","337880","0.0-1.0-393.0-0.0","0","0","77553","","null","","","null","43","","","","","","","","","","","","","","","",""
"","ITI","","html-keyboard-response","292","338892","0.0-1.0-396.0","0","0","77553","","null","","","null","43","","","","","","","","","","","","","","","NaN",""
"","S1","","html-keyboard-response","293","339154","0.0-1.0-398.0","0","0","77553","","null","","","null","44","","","","","","","","","","","","","","","",""
"","ISI","","html-keyboard-response","294","339311","0.0-1.0-399.0","0","0","77553","","null","","","null","44","NaN","","","","","","","","","","","","","","",""
"","S2","","html-keyboard-response","295","339566","0.0-1.0-400.0","0","0","77553","","null","","","null","44","","NaN","","","","","","","","","","","","","",""
"","response","","html-keyboard-response","296","339773","0.0-1.0-401.0-0.0","0","0","77553","","201","","","75","44","","","1","44","training","adjacent","FE","6","5","Q.jpg","N.jpg","1","0","0","",""
"","feedback","","html-keyboard-response","297","340786","0.0-1.0-402.0-0.0","0","0","77553","","null","","","null","44","","","","","","","","","","","","","","","",""
"","time_out","","html-keyboard-response","298","342796","0.0-1.0-404.0-0.0","0","0","77553","","null","","","null","44","","","","","","","","","","","","","","","",""
"","ITI","","html-keyboard-response","299","343806","0.0-1.0-405.0","0","0","77553","","null","","","null","44","","","","","","","","","","","","","","","NaN",""
"","S1","","html-keyboard-response","300","344066","0.0-1.0-407.0","0","0","77553","","null","","","null","45","","","","","","","","","","","","","","","",""
"","ISI","","html-keyboard-response","301","344222","0.0-1.0-408.0","0","0","77553","","null","","","null","45","NaN","","","","","","","","","","","","","","",""
"","S2","","html-keyboard-response","302","344477","0.0-1.0-409.0","0","0","77553","","null","","","null","45","","NaN","","","","","","","","","","","","","",""
"","response","","html-keyboard-response","303","344751","0.0-1.0-410.0-0.0","0","0","77553","","272","","","68","45","","","1","45","training","adjacent","DC","4","3","M.jpg","O.jpg","0","0","1","",""
"","feedback","","html-keyboard-response","304","345762","0.0-1.0-411.0-0.0","0","0","77553","","null","","","null","45","","","","","","","","","","","","","","","",""
"","ITI","","html-keyboard-response","305","346770","0.0-1.0-414.0","0","0","77553","","null","","","null","45","","","","","","","","","","","","","","","NaN",""
"","S1","","html-keyboard-response","306","347035","0.0-1.0-416.0","0","0","77553","","null","","","null","46","","","","","","","","","","","","","","","",""
"","ISI","","html-keyboard-response","307","347195","0.0-1.0-417.0","0","0","77553","","null","","","null","46","NaN","","","","","","","","","","","","","","",""
"","S2","","html-keyboard-response","308","347458","0.0-1.0-418.0","0","0","77553","","null","","","null","46","","NaN","","","","","","","","","","","","","",""
"","response","","html-keyboard-response","309","347684","0.0-1.0-419.0-0.0","0","0","77553","","225","","","75","46","","","1","46","training","adjacent","ED","5","4","N.jpg","M.jpg","1","0","0","",""
"","feedback","","html-keyboard-response","310","348695","0.0-1.0-420.0-0.0","0","0","77553","","null","","","null","46","","","","","","","","","","","","","","","",""
"","time_out","","html-keyboard-response","311","350705","0.0-1.0-422.0-0.0","0","0","77553","","null","","","null","46","","","","","","","","","","","","","","","",""
"","ITI","","html-keyboard-response","312","351713","0.0-1.0-423.0","0","0","77553","","null","","","null","46","","","","","","","","","","","","","","","NaN",""
"","S1","","html-keyboard-response","313","351976","0.0-1.0-425.0","0","0","77553","","null","","","null","47","","","","","","","","","","","","","","","",""
"","ISI","","html-keyboard-response","314","352138","0.0-1.0-426.0","0","0","77553","","null","","","null","47","NaN","","","","","","","","","","","","","","",""
"","S2","","html-keyboard-response","315","352401","0.0-1.0-427.0","0","0","77553","","null","","","null","47","","NaN","","","","","","","","","","","","","",""
"","response","","html-keyboard-response","316","352674","0.0-1.0-428.0-0.0","0","0","77553","","268","","","68","47","","","1","47","training","adjacent","AB","1","2","R.jpg","L.jpg","0","1","0","",""
"","feedback","","html-keyboard-response","317","353687","0.0-1.0-429.0-0.0","0","0","77553","","null","","","null","47","","","","","","","","","","","","","","","",""
"","time_out","","html-keyboard-response","318","355693","0.0-1.0-431.0-0.0","0","0","77553","","null","","","null","47","","","","","","","","","","","","","","","",""
"","ITI","","html-keyboard-response","319","356702","0.0-1.0-432.0","0","0","77553","","null","","","null","47","","","","","","","","","","","","","","","NaN",""
"","block_over","","html-keyboard-response","320","360698","0.0-1.0-433.0-0.0","0","0","77553","","3991","","","32","47","","","","","","","","","","","","","","","",""
"","S1","","html-keyboard-response","321","360961","0.0-1.0-434.0","0","0","77553","","null","","","null","48","","","","","","","","","","","","","","","",""
"","ISI","","html-keyboard-response","322","361121","0.0-1.0-435.0","0","0","77553","","null","","","null","48","NaN","","","","","","","","","","","","","","",""
"","S2","","html-keyboard-response","323","361382","0.0-1.0-436.0","0","0","77553","","null","","","null","48","","NaN","","","","","","","","","","","","","",""
"","response","","html-keyboard-response","324","362009","0.0-1.0-437.0-0.0","0","0","77553","","625","","","68","48","","","2","48","training","adjacent","DC","4","3","M.jpg","O.jpg","0","0","1","",""
"","feedback","","html-keyboard-response","325","363018","0.0-1.0-438.0-0.0","0","0","77553","","null","","","null","48","","","","","","","","","","","","","","","",""
"","ITI","","html-keyboard-response","326","364033","0.0-1.0-441.0","0","0","77553","","null","","","null","48","","","","","","","","","","","","","","","NaN",""
"","S1","","html-keyboard-response","327","364298","0.0-1.0-443.0","0","0","77553","","null","","","null","49","","","","","","","","","","","","","","","",""
"","ISI","","html-keyboard-response","328","364458","0.0-1.0-444.0","0","0","77553","","null","","","null","49","NaN","","","","","","","","","","","","","","",""
"","S2","","html-keyboard-response","329","364717","0.0-1.0-445.0","0","0","77553","","null","","","null","49","","NaN","","","","","","","","","","","","","",""
"","response","","html-keyboard-response","330","364850","0.0-1.0-446.0-0.0","0","0","77553","","131","","","75","49","","","2","49","training","adjacent","FG","6","7","Q.jpg","P.jpg","1","1","1","",""
"","feedback","","html-keyboard-response","331","365866","0.0-1.0-447.0-0.0","0","0","77553","","null","","","null","49","","","","","","","","","","","","","","","",""
"","ITI","","html-keyboard-response","332","366880","0.0-1.0-450.0","0","0","77553","","null","","","null","49","","","","","","","","","","","","","","","NaN",""
"","S1","","html-keyboard-response","333","367146","0.0-1.0-452.0","0","0","77553","","null","","","null","50","","","","","","","","","","","","","","","",""
"","ISI","","html-keyboard-response","334","367302","0.0-1.0-453.0","0","0","77553","","null","","","null","50","NaN","","","","","","","","","","","","","","",""
"","S2","","html-keyboard-response","335","367558","0.0-1.0-454.0","0","0","77553","","null","","","null","50","","NaN","","","","","","","","","","","","","",""
"","response","","html-keyboard-response","336","367824","0.0-1.0-455.0-0.0","0","0","77553","","264","","","75","50","","","2","50","training","adjacent","EF","5","6","N.jpg","Q.jpg","1","1","1","",""
"","feedback","","html-keyboard-response","337","368833","0.0-1.0-456.0-0.0","0","0","77553","","null","","","null","50","","","","","","","","","","","","","","","",""
"","ITI","","html-keyboard-response","338","369846","0.0-1.0-459.0","0","0","77553","","null","","","null","50","","","","","","","","","","","","","","","NaN",""
"","S1","","html-keyboard-response","339","370102","0.0-1.0-461.0","0","0","77553","","null","","","null","51","","","","","","","","","","","","","","","",""
"","ISI","","html-keyboard-response","340","370262","0.0-1.0-462.0","0","0","77553","","null","","","null","51","NaN","","","","","","","","","","","","","","",""
"","S2","","html-keyboard-response","341","370518","0.0-1.0-463.0","0","0","77553","","null","","","null","51","","NaN","","","","","","","","","","","","","",""
"","response","","html-keyboard-response","342","370769","0.0-1.0-464.0-0.0","0","0","77553","","251","","","75","51","","","2","51","training","adjacent","CD","3","4","O.jpg","M.jpg","1","1","1","",""
"","feedback","","html-keyboard-response","343","371786","0.0-1.0-465.0-0.0","0","0","77553","","null","","","null","51","","","","","","","","","","","","","","","",""
"","ITI","","html-keyboard-response","344","372797","0.0-1.0-468.0","0","0","77553","","null","","","null","51","","","","","","","","","","","","","","","NaN",""
"","S1","","html-keyboard-response","345","373052","0.0-1.0-470.0","0","0","77553","","null","","","null","52","","","","","","","","","","","","","","","",""
"","ISI","","html-keyboard-response","346","373215","0.0-1.0-471.0","0","0","77553","","null","","","null","52","NaN","","","","","","","","","","","","","","",""
"","S2","","html-keyboard-response","347","373478","0.0-1.0-472.0","0","0","77553","","null","","","null","52","","NaN","","","","","","","","","","","","","",""
"","response","","html-keyboard-response","348","373734","0.0-1.0-473.0-0.0","0","0","77553","","255","","","68","52","","","2","52","training","adjacent","EF","5","6","N.jpg","Q.jpg","0","1","0","",""
"","feedback","","html-keyboard-response","349","374746","0.0-1.0-474.0-0.0","0","0","77553","","null","","","null","52","","","","","","","","","","","","","","","",""
"","time_out","","html-keyboard-response","350","376758","0.0-1.0-476.0-0.0","0","0","77553","","null","","","null","52","","","","","","","","","","","","","","","",""
"","ITI","","html-keyboard-response","351","377766","0.0-1.0-477.0","0","0","77553","","null","","","null","52","","","","","","","","","","","","","","","NaN",""
"","S1","","html-keyboard-response","352","378021","0.0-1.0-479.0","0","0","77553","","null","","","null","53","","","","","","","","","","","","","","","",""
"","ISI","","html-keyboard-response","353","378181","0.0-1.0-480.0","0","0","77553","","null","","","null","53","NaN","","","","","","","","","","","","","","",""
"","S2","","html-keyboard-response","354","378438","0.0-1.0-481.0","0","0","77553","","null","","","null","53","","NaN","","","","","","","","","","","","","",""
"","response","","html-keyboard-response","355","378580","0.0-1.0-482.0-0.0","0","0","77553","","141","","","75","53","","","2","53","training","adjacent","FE","6","5","Q.jpg","N.jpg","1","0","0","",""
"","feedback","","html-keyboard-response","356","379589","0.0-1.0-483.0-0.0","0","0","77553","","null","","","null","53","","","","","","","","","","","","","","","",""
"","time_out","","html-keyboard-response","357","381599","0.0-1.0-485.0-0.0","0","0","77553","","null","","","null","53","","","","","","","","","","","","","","","",""
"","ITI","","html-keyboard-response","358","382608","0.0-1.0-486.0","0","0","77553","","null","","","null","53","","","","","","","","","","","","","","","NaN",""
"","S1","","html-keyboard-response","359","382873","0.0-1.0-488.0","0","0","77553","","null","","","null","54","","","","","","","","","","","","","","","",""
"","ISI","","html-keyboard-response","360","383033","0.0-1.0-489.0","0","0","77553","","null","","","null","54","NaN","","","","","","","","","","","","","","",""
"","S2","","html-keyboard-response","361","383292","0.0-1.0-490.0","0","0","77553","","null","","","null","54","","NaN","","","","","","","","","","","","","",""
"","response","","html-keyboard-response","362","383553","0.0-1.0-491.0-0.0","0","0","77553","","259","","","75","54","","","2","54","training","adjacent","AB","1","2","R.jpg","L.jpg","1","1","1","",""
"","feedback","","html-keyboard-response","363","384565","0.0-1.0-492.0-0.0","0","0","77553","","null","","","null","54","","","","","","","","","","","","","","","",""
"","ITI","","html-keyboard-response","364","385577","0.0-1.0-495.0","0","0","77553","","null","","","null","54","","","","","","","","","","","","","","","NaN",""
"","S1","","html-keyboard-response","365","385839","0.0-1.0-497.0","0","0","77553","","null","","","null","55","","","","","","","","","","","","","","","",""
"","ISI","","html-keyboard-response","366","386001","0.0-1.0-498.0","0","0","77553","","null","","","null","55","NaN","","","","","","","","","","","","","","",""
"","S2","","html-keyboard-response","367","386265","0.0-1.0-499.0","0","0","77553","","null","","","null","55","","NaN","","","","","","","","","","","","","",""
"","response","","html-keyboard-response","368","386603","0.0-1.0-500.0-0.0","0","0","77553","","333","","","75","55","","","2","55","training","adjacent","EF","5","6","N.jpg","Q.jpg","1","1","1","",""
"","feedback","","html-keyboard-response","369","387612","0.0-1.0-501.0-0.0","0","0","77553","","null","","","null","55","","","","","","","","","","","","","","","",""
"","ITI","","html-keyboard-response","370","388623","0.0-1.0-504.0","0","0","77553","","null","","","null","55","","","","","","","","","","","","","","","NaN",""
"","S1","","html-keyboard-response","371","388889","0.0-1.0-506.0","0","0","77553","","null","","","null","56","","","","","","","","","","","","","","","",""
"","ISI","","html-keyboard-response","372","389046","0.0-1.0-507.0","0","0","77553","","null","","","null","56","NaN","","","","","","","","","","","","","","",""
"","S2","","html-keyboard-response","373","389311","0.0-1.0-508.0","0","0","77553","","null","","","null","56","","NaN","","","","","","","","","","","","","",""
"","response","","html-keyboard-response","374","389664","0.0-1.0-509.0-0.0","0","0","77553","","348","","","75","56","","","2","56","training","adjacent","DC","4","3","M.jpg","O.jpg","1","0","0","",""
"","feedback","","html-keyboard-response","375","390679","0.0-1.0-510.0-0.0","0","0","77553","","null","","","null","56","","","","","","","","","","","","","","","",""
"","time_out","","html-keyboard-response","376","392684","0.0-1.0-512.0-0.0","0","0","77553","","null","","","null","56","","","","","","","","","","","","","","","",""
"","ITI","","html-keyboard-response","377","393691","0.0-1.0-513.0","0","0","77553","","null","","","null","56","","","","","","","","","","","","","","","NaN",""
"","S1","","html-keyboard-response","378","393947","0.0-1.0-515.0","0","0","77553","","null","","","null","57","","","","","","","","","","","","","","","",""
"","ISI","","html-keyboard-response","379","394111","0.0-1.0-516.0","0","0","77553","","null","","","null","57","NaN","","","","","","","","","","","","","","",""
"","S2","","html-keyboard-response","380","394376","0.0-1.0-517.0","0","0","77553","","null","","","null","57","","NaN","","","","","","","","","","","","","",""
"","response","","html-keyboard-response","381","394556","0.0-1.0-518.0-0.0","0","0","77553","","174","","","68","57","","","2","57","training","adjacent","GF","7","6","P.jpg","Q.jpg","0","0","1","",""
"","feedback","","html-keyboard-response","382","395567","0.0-1.0-519.0-0.0","0","0","77553","","null","","","null","57","","","","","","","","","","","","","","","",""
"","ITI","","html-keyboard-response","383","396584","0.0-1.0-522.0","0","0","77553","","null","","","null","57","","","","","","","","","","","","","","","NaN",""
"","S1","","html-keyboard-response","384","396847","0.0-1.0-524.0","0","0","77553","","null","","","null","58","","","","","","","","","","","","","","","",""
"","ISI","","html-keyboard-response","385","397005","0.0-1.0-525.0","0","0","77553","","null","","","null","58","NaN","","","","","","","","","","","","","","",""
"","S2","","html-keyboard-response","386","397269","0.0-1.0-526.0","0","0","77553","","null","","","null","58","","NaN","","","","","","","","","","","","","",""
"","response","","html-keyboard-response","387","397807","0.0-1.0-527.0-0.0","0","0","77553","","537","","","75","58","","","2","58","training","adjacent","FG","6","7","Q.jpg","P.jpg","1","1","1","",""
"","feedback","","html-keyboard-response","388","398811","0.0-1.0-528.0-0.0","0","0","77553","","null","","","null","58","","","","","","","","","","","","","","","",""
"","ITI","","html-keyboard-response","389","399818","0.0-1.0-531.0","0","0","77553","","null","","","null","58","","","","","","","","","","","","","","","NaN",""
"","S1","","html-keyboard-response","390","400072","0.0-1.0-533.0","0","0","77553","","null","","","null","59","","","","","","","","","","","","","","","",""
"","ISI","","html-keyboard-response","391","400232","0.0-1.0-534.0","0","0","77553","","null","","","null","59","NaN","","","","","","","","","","","","","","",""
"","S2","","html-keyboard-response","392","400488","0.0-1.0-535.0","0","0","77553","","null","","","null","59","","NaN","","","","","","","","","","","","","",""
"","response","","html-keyboard-response","393","400825","0.0-1.0-536.0-0.0","0","0","77553","","336","","","68","59","","","2","59","training","adjacent","AB","1","2","R.jpg","L.jpg","0","1","0","",""
"","feedback","","html-keyboard-response","394","401832","0.0-1.0-537.0-0.0","0","0","77553","","null","","","null","59","","","","","","","","","","","","","","","",""
"","time_out","","html-keyboard-response","395","403843","0.0-1.0-539.0-0.0","0","0","77553","","null","","","null","59","","","","","","","","","","","","","","","",""
"","ITI","","html-keyboard-response","396","404855","0.0-1.0-540.0","0","0","77553","","null","","","null","59","","","","","","","","","","","","","","","NaN",""
"","S1","","html-keyboard-response","397","405110","0.0-1.0-542.0","0","0","77553","","null","","","null","60","","","","","","","","","","","","","","","",""
"","ISI","","html-keyboard-response","398","405270","0.0-1.0-543.0","0","0","77553","","null","","","null","60","NaN","","","","","","","","","","","","","","",""
"","S2","","html-keyboard-response","399","405525","0.0-1.0-544.0","0","0","77553","","null","","","null","60","","NaN","","","","","","","","","","","","","",""
"","response","","html-keyboard-response","400","406117","0.0-1.0-545.0-0.0","0","0","77553","","586","","","75","60","","","2","60","training","adjacent","BA","2","1","L.jpg","R.jpg","1","0","0","",""
"","feedback","","html-keyboard-response","401","407126","0.0-1.0-546.0-0.0","0","0","77553","","null","","","null","60","","","","","","","","","","","","","","","",""
"","time_out","","html-keyboard-response","402","409135","0.0-1.0-548.0-0.0","0","0","77553","","null","","","null","60","","","","","","","","","","","","","","","",""
"","ITI","","html-keyboard-response","403","410145","0.0-1.0-549.0","0","0","77553","","null","","","null","60","","","","","","","","","","","","","","","NaN",""
"","S1","","html-keyboard-response","404","410407","0.0-1.0-551.0","0","0","77553","","null","","","null","61","","","","","","","","","","","","","","","",""
"","ISI","","html-keyboard-response","405","410567","0.0-1.0-552.0","0","0","77553","","null","","","null","61","NaN","","","","","","","","","","","","","","",""
"","S2","","html-keyboard-response","406","410832","0.0-1.0-553.0","0","0","77553","","null","","","null","61","","NaN","","","","","","","","","","","","","",""
"","response","","html-keyboard-response","407","411323","0.0-1.0-554.0-0.0","0","0","77553","","486","","","68","61","","","2","61","training","adjacent","BC","2","3","L.jpg","O.jpg","0","1","0","",""
"","feedback","","html-keyboard-response","408","412334","0.0-1.0-555.0-0.0","0","0","77553","","null","","","null","61","","","","","","","","","","","","","","","",""
"","time_out","","html-keyboard-response","409","414345","0.0-1.0-557.0-0.0","0","0","77553","","null","","","null","61","","","","","","","","","","","","","","","",""
"","ITI","","html-keyboard-response","410","415355","0.0-1.0-558.0","0","0","77553","","null","","","null","61","","","","","","","","","","","","","","","NaN",""
"","S1","","html-keyboard-response","411","415616","0.0-1.0-560.0","0","0","77553","","null","","","null","62","","","","","","","","","","","","","","","",""
"","ISI","","html-keyboard-response","412","415777","0.0-1.0-561.0","0","0","77553","","null","","","null","62","NaN","","","","","","","","","","","","","","",""
"","S2","","html-keyboard-response","413","416042","0.0-1.0-562.0","0","0","77553","","null","","","null","62","","NaN","","","","","","","","","","","","","",""
"","response","","html-keyboard-response","414","417043","0.0-1.0-563.0-0.0","0","0","77553","","997","","","75","62","","","2","62","training","adjacent","FG","6","7","Q.jpg","P.jpg","1","1","1","",""
"","feedback","","html-keyboard-response","415","418056","0.0-1.0-564.0-0.0","0","0","77553","","null","","","null","62","","","","","","","","","","","","","","","",""
"","ITI","","html-keyboard-response","416","419069","0.0-1.0-567.0","0","0","77553","","null","","","null","62","","","","","","","","","","","","","","","NaN",""
"","S1","","html-keyboard-response","417","419335","0.0-1.0-569.0","0","0","77553","","null","","","null","63","","","","","","","","","","","","","","","",""
"","ISI","","html-keyboard-response","418","419494","0.0-1.0-570.0","0","0","77553","","null","","","null","63","NaN","","","","","","","","","","","","","","",""
"","S2","","html-keyboard-response","419","419757","0.0-1.0-571.0","0","0","77553","","null","","","null","63","","NaN","","","","","","","","","","","","","",""
"","response","","html-keyboard-response","420","420316","0.0-1.0-572.0-0.0","0","0","77553","","553","","","68","63","","","2","63","training","adjacent","BC","2","3","L.jpg","O.jpg","0","1","0","",""
"","feedback","","html-keyboard-response","421","421321","0.0-1.0-573.0-0.0","0","0","77553","","null","","","null","63","","","","","","","","","","","","","","","",""
"","time_out","","html-keyboard-response","422","423332","0.0-1.0-575.0-0.0","0","0","77553","","null","","","null","63","","","","","","","","","","","","","","","",""
"","ITI","","html-keyboard-response","423","424341","0.0-1.0-576.0","0","0","77553","","null","","","null","63","","","","","","","","","","","","","","","NaN",""
"","S1","","html-keyboard-response","424","424597","0.0-1.0-578.0","0","0","77553","","null","","","null","64","","","","","","","","","","","","","","","",""
"","ISI","","html-keyboard-response","425","424759","0.0-1.0-579.0","0","0","77553","","null","","","null","64","NaN","","","","","","","","","","","","","","",""
"","S2","","html-keyboard-response","426","425017","0.0-1.0-580.0","0","0","77553","","null","","","null","64","","NaN","","","","","","","","","","","","","",""
"","response","","html-keyboard-response","427","425350","0.0-1.0-581.0-0.0","0","0","77553","","331","","","75","64","","","2","64","training","adjacent","CD","3","4","O.jpg","M.jpg","1","1","1","",""
"","feedback","","html-keyboard-response","428","426356","0.0-1.0-582.0-0.0","0","0","77553","","null","","","null","64","","","","","","","","","","","","","","","",""
"","ITI","","html-keyboard-response","429","427364","0.0-1.0-585.0","0","0","77553","","null","","","null","64","","","","","","","","","","","","","","","NaN",""
"","S1","","html-keyboard-response","430","427620","0.0-1.0-587.0","0","0","77553","","null","","","null","65","","","","","","","","","","","","","","","",""
"","ISI","","html-keyboard-response","431","427783","0.0-1.0-588.0","0","0","77553","","null","","","null","65","NaN","","","","","","","","","","","","","","",""
"","S2","","html-keyboard-response","432","428048","0.0-1.0-589.0","0","0","77553","","null","","","null","65","","NaN","","","","","","","","","","","","","",""
"","response","","html-keyboard-response","433","428300","0.0-1.0-590.0-0.0","0","0","77553","","248","","","68","65","","","2","65","training","adjacent","ED","5","4","N.jpg","M.jpg","0","0","1","",""
"","feedback","","html-keyboard-response","434","429311","0.0-1.0-591.0-0.0","0","0","77553","","null","","","null","65","","","","","","","","","","","","","","","",""
"","ITI","","html-keyboard-response","435","430326","0.0-1.0-594.0","0","0","77553","","null","","","null","65","","","","","","","","","","","","","","","NaN",""
"","S1","","html-keyboard-response","436","430591","0.0-1.0-596.0","0","0","77553","","null","","","null","66","","","","","","","","","","","","","","","",""
"","ISI","","html-keyboard-response","437","430751","0.0-1.0-597.0","0","0","77553","","null","","","null","66","NaN","","","","","","","","","","","","","","",""
"","S2","","html-keyboard-response","438","431013","0.0-1.0-598.0","0","0","77553","","null","","","null","66","","NaN","","","","","","","","","","","","","",""
"","response","","html-keyboard-response","439","431425","0.0-1.0-599.0-0.0","0","0","77553","","407","","","75","66","","","2","66","training","adjacent","CD","3","4","O.jpg","M.jpg","1","1","1","",""
"","feedback","","html-keyboard-response","440","432434","0.0-1.0-600.0-0.0","0","0","77553","","null","","","null","66","","","","","","","","","","","","","","","",""
"","ITI","","html-keyboard-response","441","433445","0.0-1.0-603.0","0","0","77553","","null","","","null","66","","","","","","","","","","","","","","","NaN",""
"","S1","","html-keyboard-response","442","433710","0.0-1.0-605.0","0","0","77553","","null","","","null","67","","","","","","","","","","","","","","","",""
"","ISI","","html-keyboard-response","443","433870","0.0-1.0-606.0","0","0","77553","","null","","","null","67","NaN","","","","","","","","","","","","","","",""
"","S2","","html-keyboard-response","444","434132","0.0-1.0-607.0","0","0","77553","","null","","","null","67","","NaN","","","","","","","","","","","","","",""
"","response","","html-keyboard-response","445","434432","0.0-1.0-608.0-0.0","0","0","77553","","298","","","68","67","","","2","67","training","adjacent","GF","7","6","P.jpg","Q.jpg","0","0","1","",""
"","feedback","","html-keyboard-response","446","435440","0.0-1.0-609.0-0.0","0","0","77553","","null","","","null","67","","","","","","","","","","","","","","","",""
"","ITI","","html-keyboard-response","447","436450","0.0-1.0-612.0","0","0","77553","","null","","","null","67","","","","","","","","","","","","","","","NaN",""
"","S1","","html-keyboard-response","448","436704","0.0-1.0-614.0","0","0","77553","","null","","","null","68","","","","","","","","","","","","","","","",""
"","ISI","","html-keyboard-response","449","436866","0.0-1.0-615.0","0","0","77553","","null","","","null","68","NaN","","","","","","","","","","","","","","",""
"","S2","","html-keyboard-response","450","437133","0.0-1.0-616.0","0","0","77553","","null","","","null","68","","NaN","","","","","","","","","","","","","",""
"","response","","html-keyboard-response","451","437184","0.0-1.0-617.0-0.0","0","0","77553","","46","","","75","68","","","2","68","training","adjacent","DE","4","5","M.jpg","N.jpg","1","1","1","",""
"","feedback","","html-keyboard-response","452","438195","0.0-1.0-618.0-0.0","0","0","77553","","null","","","null","68","","","","","","","","","","","","","","","",""
"","ITI","","html-keyboard-response","453","439209","0.0-1.0-621.0","0","0","77553","","null","","","null","68","","","","","","","","","","","","","","","NaN",""
"","S1","","html-keyboard-response","454","439471","0.0-1.0-623.0","0","0","77553","","null","","","null","69","","","","","","","","","","","","","","","",""
"","ISI","","html-keyboard-response","455","439631","0.0-1.0-624.0","0","0","77553","","null","","","null","69","NaN","","","","","","","","","","","","","","",""
"","S2","","html-keyboard-response","456","439889","0.0-1.0-625.0","0","0","77553","","null","","","null","69","","NaN","","","","","","","","","","","","","",""
"","response","","html-keyboard-response","457","440366","0.0-1.0-626.0-0.0","0","0","77553","","476","","","75","69","","","2","69","training","adjacent","FE","6","5","Q.jpg","N.jpg","1","0","0","",""
"","feedback","","html-keyboard-response","458","441374","0.0-1.0-627.0-0.0","0","0","77553","","null","","","null","69","","","","","","","","","","","","","","","",""
"","time_out","","html-keyboard-response","459","443384","0.0-1.0-629.0-0.0","0","0","77553","","null","","","null","69","","","","","","","","","","","","","","","",""
"","ITI","","html-keyboard-response","460","444391","0.0-1.0-630.0","0","0","77553","","null","","","null","69","","","","","","","","","","","","","","","NaN",""
"","S1","","html-keyboard-response","461","444647","0.0-1.0-632.0","0","0","77553","","null","","","null","70","","","","","","","","","","","","","","","",""
"","ISI","","html-keyboard-response","462","444808","0.0-1.0-633.0","0","0","77553","","null","","","null","70","NaN","","","","","","","","","","","","","","",""
"","S2","","html-keyboard-response","463","445067","0.0-1.0-634.0","0","0","77553","","null","","","null","70","","NaN","","","","","","","","","","","","","",""
"","response","","html-keyboard-response","464","445219","0.0-1.0-635.0-0.0","0","0","77553","","147","","","75","70","","","2","70","training","adjacent","ED","5","4","N.jpg","M.jpg","1","0","0","",""
"","feedback","","html-keyboard-response","465","446235","0.0-1.0-636.0-0.0","0","0","77553","","null","","","null","70","","","","","","","","","","","","","","","",""
"","time_out","","html-keyboard-response","466","448246","0.0-1.0-638.0-0.0","0","0","77553","","null","","","null","70","","","","","","","","","","","","","","","",""
"","ITI","","html-keyboard-response","467","449258","0.0-1.0-639.0","0","0","77553","","null","","","null","70","","","","","","","","","","","","","","","NaN",""
"","S1","","html-keyboard-response","468","449521","0.0-1.0-641.0","0","0","77553","","null","","","null","71","","","","","","","","","","","","","","","",""
"","ISI","","html-keyboard-response","469","449681","0.0-1.0-642.0","0","0","77553","","null","","","null","71","NaN","","","","","","","","","","","","","","",""
"","S2","","html-keyboard-response","470","449946","0.0-1.0-643.0","0","0","77553","","null","","","null","71","","NaN","","","","","","","","","","","","","",""
"","response","","html-keyboard-response","471","450006","0.0-1.0-644.0-0.0","0","0","77553","","55","","","75","71","","","2","71","training","adjacent","CB","3","2","O.jpg","L.jpg","1","0","0","",""
"","feedback","","html-keyboard-response","472","451014","0.0-1.0-645.0-0.0","0","0","77553","","null","","","null","71","","","","","","","","","","","","","","","",""
"","time_out","","html-keyboard-response","473","453024","0.0-1.0-647.0-0.0","0","0","77553","","null","","","null","71","","","","","","","","","","","","","","","",""
"","ITI","","html-keyboard-response","474","454042","0.0-1.0-648.0","0","0","77553","","null","","","null","71","","","","","","","","","","","","","","","NaN",""
"","S1","","html-keyboard-response","475","454304","0.0-1.0-650.0","0","0","77553","","null","","","null","72","","","","","","","","","","","","","","","",""
"","ISI","","html-keyboard-response","476","454464","0.0-1.0-651.0","0","0","77553","","null","","","null","72","NaN","","","","","","","","","","","","","","",""
"","S2","","html-keyboard-response","477","454729","0.0-1.0-652.0","0","0","77553","","null","","","null","72","","NaN","","","","","","","","","","","","","",""
"","response","","html-keyboard-response","478","454732","0.0-1.0-653.0-0.0","0","0","77553","","1","","","75","72","","","2","72","training","adjacent","CB","3","2","O.jpg","L.jpg","1","0","0","",""
"","feedback","","html-keyboard-response","479","455744","0.0-1.0-654.0-0.0","0","0","77553","","null","","","null","72","","","","","","","","","","","","","","","",""
"","time_out","","html-keyboard-response","480","457756","0.0-1.0-656.0-0.0","0","0","77553","","null","","","null","72","","","","","","","","","","","","","","","",""
"","ITI","","html-keyboard-response","481","458767","0.0-1.0-657.0","0","0","77553","","null","","","null","72","","","","","","","","","","","","","","","NaN",""
"","S1","","html-keyboard-response","482","459033","0.0-1.0-659.0","0","0","77553","","null","","","null","73","","","","","","","","","","","","","","","",""
"","ISI","","html-keyboard-response","483","459192","0.0-1.0-660.0","0","0","77553","","null","","","null","73","NaN","","","","","","","","","","","","","","",""
"","S2","","html-keyboard-response","484","459451","0.0-1.0-661.0","0","0","77553","","null","","","null","73","","NaN","","","","","","","","","","","","","",""
"","response","","html-keyboard-response","485","459542","0.0-1.0-662.0-0.0","0","0","77553","","89","","","75","73","","","2","73","training","adjacent","GF","7","6","P.jpg","Q.jpg","1","0","0","",""
"","feedback","","html-keyboard-response","486","460549","0.0-1.0-663.0-0.0","0","0","77553","","null","","","null","73","","","","","","","","","","","","","","","",""
"","time_out","","html-keyboard-response","487","462559","0.0-1.0-665.0-0.0","0","0","77553","","null","","","null","73","","","","","","","","","","","","","","","",""
"","ITI","","html-keyboard-response","488","463564","0.0-1.0-666.0","0","0","77553","","null","","","null","73","","","","","","","","","","","","","","","NaN",""
"","S1","","html-keyboard-response","489","463819","0.0-1.0-668.0","0","0","77553","","null","","","null","74","","","","","","","","","","","","","","","",""
"","ISI","","html-keyboard-response","490","463982","0.0-1.0-669.0","0","0","77553","","null","","","null","74","NaN","","","","","","","","","","","","","","",""
"","S2","","html-keyboard-response","491","464247","0.0-1.0-670.0","0","0","77553","","null","","","null","74","","NaN","","","","","","","","","","","","","",""
"","response","","html-keyboard-response","492","464364","0.0-1.0-671.0-0.0","0","0","77553","","112","","","75","74","","","2","74","training","adjacent","BA","2","1","L.jpg","R.jpg","1","0","0","",""
"","feedback","","html-keyboard-response","493","465371","0.0-1.0-672.0-0.0","0","0","77553","","null","","","null","74","","","","","","","","","","","","","","","",""
"","time_out","","html-keyboard-response","494","467384","0.0-1.0-674.0-0.0","0","0","77553","","null","","","null","74","","","","","","","","","","","","","","","",""
"","ITI","","html-keyboard-response","495","468398","0.0-1.0-675.0","0","0","77553","","null","","","null","74","","","","","","","","","","","","","","","NaN",""
"","S1","","html-keyboard-response","496","468664","0.0-1.0-677.0","0","0","77553","","null","","","null","75","","","","","","","","","","","","","","","",""
"","ISI","","html-keyboard-response","497","468824","0.0-1.0-678.0","0","0","77553","","null","","","null","75","NaN","","","","","","","","","","","","","","",""
"","S2","","html-keyboard-response","498","469083","0.0-1.0-679.0","0","0","77553","","null","","","null","75","","NaN","","","","","","","","","","","","","",""
"","response","","html-keyboard-response","499","469348","0.0-1.0-680.0-0.0","0","0","77553","","262","","","68","75","","","2","75","training","adjacent","BC","2","3","L.jpg","O.jpg","0","1","0","",""
"","feedback","","html-keyboard-response","500","470360","0.0-1.0-681.0-0.0","0","0","77553","","null","","","null","75","","","","","","","","","","","","","","","",""
"","time_out","","html-keyboard-response","501","472372","0.0-1.0-683.0-0.0","0","0","77553","","null","","","null","75","","","","","","","","","","","","","","","",""
"","ITI","","html-keyboard-response","502","473384","0.0-1.0-684.0","0","0","77553","","null","","","null","75","","","","","","","","","","","","","","","NaN",""
"","S1","","html-keyboard-response","503","473646","0.0-1.0-686.0","0","0","77553","","null","","","null","76","","","","","","","","","","","","","","","",""
"","ISI","","html-keyboard-response","504","473806","0.0-1.0-687.0","0","0","77553","","null","","","null","76","NaN","","","","","","","","","","","","","","",""
"","S2","","html-keyboard-response","505","474071","0.0-1.0-688.0","0","0","77553","","null","","","null","76","","NaN","","","","","","","","","","","","","",""
"","response","","html-keyboard-response","506","474286","0.0-1.0-689.0-0.0","0","0","77553","","210","","","75","76","","","2","76","training","adjacent","CD","3","4","O.jpg","M.jpg","1","1","1","",""
"","feedback","","html-keyboard-response","507","475303","0.0-1.0-690.0-0.0","0","0","77553","","null","","","null","76","","","","","","","","","","","","","","","",""
"","ITI","","html-keyboard-response","508","476313","0.0-1.0-693.0","0","0","77553","","null","","","null","76","","","","","","","","","","","","","","","NaN",""
"","S1","","html-keyboard-response","509","476570","0.0-1.0-695.0","0","0","77553","","null","","","null","77","","","","","","","","","","","","","","","",""
"","ISI","","html-keyboard-response","510","476730","0.0-1.0-696.0","0","0","77553","","null","","","null","77","NaN","","","","","","","","","","","","","","",""
"","S2","","html-keyboard-response","511","476986","0.0-1.0-697.0","0","0","77553","","null","","","null","77","","NaN","","","","","","","","","","","","","",""
"","response","","html-keyboard-response","512","477173","0.0-1.0-698.0-0.0","0","0","77553","","186","","","75","77","","","2","77","training","adjacent","FE","6","5","Q.jpg","N.jpg","1","0","0","",""
"","feedback","","html-keyboard-response","513","478183","0.0-1.0-699.0-0.0","0","0","77553","","null","","","null","77","","","","","","","","","","","","","","","",""
"","time_out","","html-keyboard-response","514","480199","0.0-1.0-701.0-0.0","0","0","77553","","null","","","null","77","","","","","","","","","","","","","","","",""
"","ITI","","html-keyboard-response","515","481214","0.0-1.0-702.0","0","0","77553","","null","","","null","77","","","","","","","","","","","","","","","NaN",""
"","S1","","html-keyboard-response","516","481475","0.0-1.0-704.0","0","0","77553","","null","","","null","78","","","","","","","","","","","","","","","",""
"","ISI","","html-keyboard-response","517","481635","0.0-1.0-705.0","0","0","77553","","null","","","null","78","NaN","","","","","","","","","","","","","","",""
"","S2","","html-keyboard-response","518","481891","0.0-1.0-706.0","0","0","77553","","null","","","null","78","","NaN","","","","","","","","","","","","","",""
"","response","","html-keyboard-response","519","482389","0.0-1.0-707.0-0.0","0","0","77553","","498","","","75","78","","","2","78","training","adjacent","ED","5","4","N.jpg","M.jpg","1","0","0","",""
"","feedback","","html-keyboard-response","520","483396","0.0-1.0-708.0-0.0","0","0","77553","","null","","","null","78","","","","","","","","","","","","","","","",""
"","time_out","","html-keyboard-response","521","485401","0.0-1.0-710.0-0.0","0","0","77553","","null","","","null","78","","","","","","","","","","","","","","","",""
"","ITI","","html-keyboard-response","522","486413","0.0-1.0-711.0","0","0","77553","","null","","","null","78","","","","","","","","","","","","","","","NaN",""
"","S1","","html-keyboard-response","523","486678","0.0-1.0-713.0","0","0","77553","","null","","","null","79","","","","","","","","","","","","","","","",""
"","ISI","","html-keyboard-response","524","486838","0.0-1.0-714.0","0","0","77553","","null","","","null","79","NaN","","","","","","","","","","","","","","",""
"","S2","","html-keyboard-response","525","487101","0.0-1.0-715.0","0","0","77553","","null","","","null","79","","NaN","","","","","","","","","","","","","",""
"","response","","html-keyboard-response","526","487344","0.0-1.0-716.0-0.0","0","0","77553","","242","","","75","79","","","2","79","training","adjacent","DE","4","5","M.jpg","N.jpg","1","1","1","",""
"","feedback","","html-keyboard-response","527","488354","0.0-1.0-717.0-0.0","0","0","77553","","null","","","null","79","","","","","","","","","","","","","","","",""
"","ITI","","html-keyboard-response","528","489366","0.0-1.0-720.0","0","0","77553","","null","","","null","79","","","","","","","","","","","","","","","NaN",""
"","S1","","html-keyboard-response","529","489629","0.0-1.0-722.0","0","0","77553","","null","","","null","80","","","","","","","","","","","","","","","",""
"","ISI","","html-keyboard-response","530","489789","0.0-1.0-723.0","0","0","77553","","null","","","null","80","NaN","","","","","","","","","","","","","","",""
"","S2","","html-keyboard-response","531","490054","0.0-1.0-724.0","0","0","77553","","null","","","null","80","","NaN","","","","","","","","","","","","","",""
"","response","","html-keyboard-response","532","490389","0.0-1.0-725.0-0.0","0","0","77553","","328","","","68","80","","","2","80","training","adjacent","GF","7","6","P.jpg","Q.jpg","0","0","1","",""
"","feedback","","html-keyboard-response","533","491404","0.0-1.0-726.0-0.0","0","0","77553","","null","","","null","80","","","","","","","","","","","","","","","",""
"","ITI","","html-keyboard-response","534","492422","0.0-1.0-729.0","0","0","77553","","null","","","null","80","","","","","","","","","","","","","","","NaN",""
"","S1","","html-keyboard-response","535","492685","0.0-1.0-731.0","0","0","77553","","null","","","null","81","","","","","","","","","","","","","","","",""
"","ISI","","html-keyboard-response","536","492845","0.0-1.0-732.0","0","0","77553","","null","","","null","81","NaN","","","","","","","","","","","","","","",""
"","S2","","html-keyboard-response","537","493110","0.0-1.0-733.0","0","0","77553","","null","","","null","81","","NaN","","","","","","","","","","","","","",""
"","response","","html-keyboard-response","538","493739","0.0-1.0-734.0-0.0","0","0","77553","","623","","","68","81","","","2","81","training","adjacent","DC","4","3","M.jpg","O.jpg","0","0","1","",""
"","feedback","","html-keyboard-response","539","494745","0.0-1.0-735.0-0.0","0","0","77553","","null","","","null","81","","","","","","","","","","","","","","","",""
"","ITI","","html-keyboard-response","540","495756","0.0-1.0-738.0","0","0","77553","","null","","","null","81","","","","","","","","","","","","","","","NaN",""
"","S1","","html-keyboard-response","541","496018","0.0-1.0-740.0","0","0","77553","","null","","","null","82","","","","","","","","","","","","","","","",""
"","ISI","","html-keyboard-response","542","496178","0.0-1.0-741.0","0","0","77553","","null","","","null","82","NaN","","","","","","","","","","","","","","",""
"","S2","","html-keyboard-response","543","496434","0.0-1.0-742.0","0","0","77553","","null","","","null","82","","NaN","","","","","","","","","","","","","",""
"","response","","html-keyboard-response","544","497080","0.0-1.0-743.0-0.0","0","0","77553","","642","","","75","82","","","2","82","training","adjacent","FG","6","7","Q.jpg","P.jpg","1","1","1","",""
"","feedback","","html-keyboard-response","545","498092","0.0-1.0-744.0-0.0","0","0","77553","","null","","","null","82","","","","","","","","","","","","","","","",""
"","ITI","","html-keyboard-response","546","499106","0.0-1.0-747.0","0","0","77553","","null","","","null","82","","","","","","","","","","","","","","","NaN",""
"","S1","","html-keyboard-response","547","499364","0.0-1.0-749.0","0","0","77553","","null","","","null","83","","","","","","","","","","","","","","","",""
"","ISI","","html-keyboard-response","548","499526","0.0-1.0-750.0","0","0","77553","","null","","","null","83","NaN","","","","","","","","","","","","","","",""
"","S2","","html-keyboard-response","549","499788","0.0-1.0-751.0","0","0","77553","","null","","","null","83","","NaN","","","","","","","","","","","","","",""
"","response","","html-keyboard-response","550","500102","0.0-1.0-752.0-0.0","0","0","77553","","309","","","68","83","","","2","83","training","adjacent","DC","4","3","M.jpg","O.jpg","0","0","1","",""
"","feedback","","html-keyboard-response","551","501116","0.0-1.0-753.0-0.0","0","0","77553","","null","","","null","83","","","","","","","","","","","","","","","",""
"","ITI","","html-keyboard-response","552","502133","0.0-1.0-756.0","0","0","77553","","null","","","null","83","","","","","","","","","","","","","","","NaN",""
"","S1","","html-keyboard-response","553","502392","0.0-1.0-758.0","0","0","77553","","null","","","null","84","","","","","","","","","","","","","","","",""
"","ISI","","html-keyboard-response","554","502545","0.0-1.0-759.0","0","0","77553","","null","","","null","84","NaN","","","","","","","","","","","","","","",""
"","S2","","html-keyboard-response","555","502802","0.0-1.0-760.0","0","0","77553","","null","","","null","84","","NaN","","","","","","","","","","","","","",""
"","response","","html-keyboard-response","556","503129","0.0-1.0-761.0-0.0","0","0","77553","","326","","","68","84","","","2","84","training","adjacent","CB","3","2","O.jpg","L.jpg","0","0","1","",""
"","feedback","","html-keyboard-response","557","504136","0.0-1.0-762.0-0.0","0","0","77553","","null","","","null","84","","","","","","","","","","","","","","","",""
"","ITI","","html-keyboard-response","558","505148","0.0-1.0-765.0","0","0","77553","","null","","","null","84","","","","","","","","","","","","","","","NaN",""
"","S1","","html-keyboard-response","559","505413","0.0-1.0-767.0","0","0","77553","","null","","","null","85","","","","","","","","","","","","","","","",""
"","ISI","","html-keyboard-response","560","505573","0.0-1.0-768.0","0","0","77553","","null","","","null","85","NaN","","","","","","","","","","","","","","",""
"","S2","","html-keyboard-response","561","505836","0.0-1.0-769.0","0","0","77553","","null","","","null","85","","NaN","","","","","","","","","","","","","",""
"","response","","html-keyboard-response","562","506278","0.0-1.0-770.0-0.0","0","0","77553","","440","","","75","85","","","2","85","training","adjacent","FE","6","5","Q.jpg","N.jpg","1","0","0","",""
"","feedback","","html-keyboard-response","563","507292","0.0-1.0-771.0-0.0","0","0","77553","","null","","","null","85","","","","","","","","","","","","","","","",""
"","time_out","","html-keyboard-response","564","509308","0.0-1.0-773.0-0.0","0","0","77553","","null","","","null","85","","","","","","","","","","","","","","","",""
"","ITI","","html-keyboard-response","565","510325","0.0-1.0-774.0","0","0","77553","","null","","","null","85","","","","","","","","","","","","","","","NaN",""
"","S1","","html-keyboard-response","566","510587","0.0-1.0-776.0","0","0","77553","","null","","","null","86","","","","","","","","","","","","","","","",""
"","ISI","","html-keyboard-response","567","510748","0.0-1.0-777.0","0","0","77553","","null","","","null","86","NaN","","","","","","","","","","","","","","",""
"","S2","","html-keyboard-response","568","511013","0.0-1.0-778.0","0","0","77553","","null","","","null","86","","NaN","","","","","","","","","","","","","",""
"","response","","html-keyboard-response","569","511479","0.0-1.0-779.0-0.0","0","0","77553","","465","","","68","86","","","2","86","training","adjacent","DE","4","5","M.jpg","N.jpg","0","1","0","",""
"","feedback","","html-keyboard-response","570","512491","0.0-1.0-780.0-0.0","0","0","77553","","null","","","null","86","","","","","","","","","","","","","","","",""
"","time_out","","html-keyboard-response","571","514504","0.0-1.0-782.0-0.0","0","0","77553","","null","","","null","86","","","","","","","","","","","","","","","",""
"","ITI","","html-keyboard-response","572","515515","0.0-1.0-783.0","0","0","77553","","null","","","null","86","","","","","","","","","","","","","","","NaN",""
"","S1","","html-keyboard-response","573","515781","0.0-1.0-785.0","0","0","77553","","null","","","null","87","","","","","","","","","","","","","","","",""
"","ISI","","html-keyboard-response","574","515940","0.0-1.0-786.0","0","0","77553","","null","","","null","87","NaN","","","","","","","","","","","","","","",""
"","S2","","html-keyboard-response","575","516203","0.0-1.0-787.0","0","0","77553","","null","","","null","87","","NaN","","","","","","","","","","","","","",""
"","response","","html-keyboard-response","576","517652","0.0-1.0-788.0-0.0","0","0","77553","","1447","","","75","87","","","2","87","training","adjacent","BA","2","1","L.jpg","R.jpg","1","0","0","",""
"","feedback","","html-keyboard-response","577","518667","0.0-1.0-789.0-0.0","0","0","77553","","null","","","null","87","","","","","","","","","","","","","","","",""
"","time_out","","html-keyboard-response","578","520679","0.0-1.0-791.0-0.0","0","0","77553","","null","","","null","87","","","","","","","","","","","","","","","",""
"","ITI","","html-keyboard-response","579","521691","0.0-1.0-792.0","0","0","77553","","null","","","null","87","","","","","","","","","","","","","","","NaN",""
"","S1","","html-keyboard-response","580","521956","0.0-1.0-794.0","0","0","77553","","null","","","null","88","","","","","","","","","","","","","","","",""
