"success","ttype","start_time","trial_type","trial_index","time_elapsed","internal_node_id","warning","missed_checkup","PID","view_history","rt","responses","repeat_instructions","key_press","index","keypress_isi","keypress_S2","block","trial_num","phase","group_type","pair_type","S1_stim","S2_stim","S1_img","S2_img","S1_chosen","S1_higher","accuracy","keypress_iti","total_bonus_tally"
"true","full_screen","d04072023hr0310","fullscreen","0","4517","0.0-0.0","0","0","49867","","","","","","","","","","","","","","","","","","","","","",""
"","instructions","","instructions","1","95126","0.0-1.0-0.0-0.0","0","0","49867","[{""page_index"":0,""viewing_time"":5734},{""page_index"":1,""viewing_time"":74760},{""page_index"":2,""viewing_time"":8424},{""page_index"":3,""viewing_time"":1688}]","90607","","","","","","","","","","","","","","","","","","","",""
"","comprehension_check","","survey-multi-choice","2","107326","0.0-1.0-0.0-1.0","0","0","49867","","12196","{""Q0"":""True"",""Q1"":""K"",""Q2"":""Once the second image appears and while the screen 'MAKE A CHOICE' is shown"",""Q3"":""Green mark"",""Q4"":""either D or K""}","0","","","","","","","","","","","","","","","","","",""
"","start_exp","","html-keyboard-response","3","109900","0.0-1.0-1.0","0","0","49867","","2572","","","32","","","","","","","","","","","","","","","","",""
"","S1","","html-keyboard-response","4","110061","0.0-1.0-2.0","0","0","49867","","null","","","null","0","","","","","","","","","","","","","","","",""
"","ISI","","html-keyboard-response","5","112068","0.0-1.0-3.0","0","0","49867","","null","","","null","0","NaN","","","","","","","","","","","","","","",""
"","S2","","html-keyboard-response","6","112224","0.0-1.0-4.0","0","0","49867","","null","","","null","0","","NaN","","","","","","","","","","","","","",""
"","response","","html-keyboard-response","7","112512","0.0-1.0-5.0-0.0","0","0","49867","","285","","","68","0","","","1","0","training","adjacent","BC","2","3","O.jpg","N.jpg","0","1","0","",""
"","feedback","","html-keyboard-response","8","113525","0.0-1.0-6.0-0.0","0","0","49867","","null","","","null","0","","","","","","","","","","","","","","","",""
"","time_out","","html-keyboard-response","9","115534","0.0-1.0-8.0-0.0","0","0","49867","","null","","","null","0","","","","","","","","","","","","","","","",""
"","ITI","","html-keyboard-response","10","116544","0.0-1.0-9.0","0","0","49867","","null","","","null","0","","","","","","","","","","","","","","","NaN",""
"","S1","","html-keyboard-response","11","116699","0.0-1.0-11.0","0","0","49867","","null","","","null","1","","","","","","","","","","","","","","","",""
"","ISI","","html-keyboard-response","12","118704","0.0-1.0-12.0","0","0","49867","","null","","","null","1","NaN","","","","","","","","","","","","","","",""
"","S2","","html-keyboard-response","13","118859","0.0-1.0-13.0","0","0","49867","","null","","","null","1","","NaN","","","","","","","","","","","","","",""
"","response","","html-keyboard-response","14","119172","0.0-1.0-14.0-0.0","0","0","49867","","310","","","75","1","","","1","1","training","adjacent","EF","5","6","P.jpg","L.jpg","1","1","1","",""
"","feedback","","html-keyboard-response","15","120181","0.0-1.0-15.0-0.0","0","0","49867","","null","","","null","1","","","","","","","","","","","","","","","",""
"","ITI","","html-keyboard-response","16","121190","0.0-1.0-18.0","0","0","49867","","null","","","null","1","","","","","","","","","","","","","","","NaN",""
"","S1","","html-keyboard-response","17","121348","0.0-1.0-20.0","0","0","49867","","null","","","null","2","","","","","","","","","","","","","","","",""
"","ISI","","html-keyboard-response","18","123353","0.0-1.0-21.0","0","0","49867","","null","","","null","2","NaN","","","","","","","","","","","","","","",""
"","S2","","html-keyboard-response","19","123509","0.0-1.0-22.0","0","0","49867","","null","","","null","2","","NaN","","","","","","","","","","","","","",""
"","response","","html-keyboard-response","20","123986","0.0-1.0-23.0-0.0","0","0","49867","","476","","","75","2","","","1","2","training","adjacent","FG","6","7","L.jpg","R.jpg","1","1","1","",""
"","feedback","","html-keyboard-response","21","125000","0.0-1.0-24.0-0.0","0","0","49867","","null","","","null","2","","","","","","","","","","","","","","","",""
"","ITI","","html-keyboard-response","22","126010","0.0-1.0-27.0","0","0","49867","","null","","","null","2","","","","","","","","","","","","","","","NaN",""
"","S1","","html-keyboard-response","23","126165","0.0-1.0-29.0","0","0","49867","","null","","","null","3","","","","","","","","","","","","","","","",""
"","ISI","","html-keyboard-response","24","128175","0.0-1.0-30.0","0","0","49867","","null","","","null","3","NaN","","","","","","","","","","","","","","",""
"","S2","","html-keyboard-response","25","128334","0.0-1.0-31.0","0","0","49867","","null","","","null","3","","NaN","","","","","","","","","","","","","",""
"","response","","html-keyboard-response","26","128634","0.0-1.0-32.0-0.0","0","0","49867","","297","","","75","3","","","1","3","training","adjacent","DE","4","5","Q.jpg","P.jpg","1","1","1","",""
"","feedback","","html-keyboard-response","27","129645","0.0-1.0-33.0-0.0","0","0","49867","","null","","","null","3","","","","","","","","","","","","","","","",""
"","ITI","","html-keyboard-response","28","130654","0.0-1.0-36.0","0","0","49867","","null","","","null","3","","","","","","","","","","","","","","","NaN",""
"","S1","","html-keyboard-response","29","130818","0.0-1.0-38.0","0","0","49867","","null","","","null","4","","","","","","","","","","","","","","","",""
"","ISI","","html-keyboard-response","30","132824","0.0-1.0-39.0","0","0","49867","","null","","","null","4","NaN","","","","","","","","","","","","","","",""
"","S2","","html-keyboard-response","31","132980","0.0-1.0-40.0","0","0","49867","","null","","","null","4","","NaN","","","","","","","","","","","","","",""
"","response","","html-keyboard-response","32","133185","0.0-1.0-41.0-0.0","0","0","49867","","203","","","75","4","","","1","4","training","adjacent","CB","3","2","N.jpg","O.jpg","1","0","0","",""
"","feedback","","html-keyboard-response","33","134191","0.0-1.0-42.0-0.0","0","0","49867","","null","","","null","4","","","","","","","","","","","","","","","",""
"","time_out","","html-keyboard-response","34","136195","0.0-1.0-44.0-0.0","0","0","49867","","null","","","null","4","","","","","","","","","","","","","","","",""
"","ITI","","html-keyboard-response","35","137201","0.0-1.0-45.0","0","0","49867","","null","","","null","4","","","","","","","","","","","","","","","NaN",""
"","S1","","html-keyboard-response","36","137358","0.0-1.0-47.0","0","0","49867","","null","","","null","5","","","","","","","","","","","","","","","",""
"","ISI","","html-keyboard-response","37","139367","0.0-1.0-48.0","0","0","49867","","null","","","null","5","NaN","","","","","","","","","","","","","","",""
"","S2","","html-keyboard-response","38","139525","0.0-1.0-49.0","0","0","49867","","null","","","null","5","","NaN","","","","","","","","","","","","","",""
"","response","","html-keyboard-response","39","139725","0.0-1.0-50.0-0.0","0","0","49867","","198","","","68","5","","","1","5","training","adjacent","BC","2","3","O.jpg","N.jpg","0","1","0","",""
"","feedback","","html-keyboard-response","40","140729","0.0-1.0-51.0-0.0","0","0","49867","","null","","","null","5","","","","","","","","","","","","","","","",""
"","time_out","","html-keyboard-response","41","142735","0.0-1.0-53.0-0.0","0","0","49867","","null","","","null","5","","","","","","","","","","","","","","","",""
"","ITI","","html-keyboard-response","42","143739","0.0-1.0-54.0","0","0","49867","","null","","","null","5","","","","","","","","","","","","","","","NaN",""
"","S1","","html-keyboard-response","43","143895","0.0-1.0-56.0","0","0","49867","","null","","","null","6","","","","","","","","","","","","","","","",""
"","ISI","","html-keyboard-response","44","145905","0.0-1.0-57.0","0","0","49867","","null","","","null","6","NaN","","","","","","","","","","","","","","",""
"","S2","","html-keyboard-response","45","146072","0.0-1.0-58.0","0","0","49867","","null","","","null","6","","NaN","","","","","","","","","","","","","",""
"","response","","html-keyboard-response","46","146199","0.0-1.0-59.0-0.0","0","0","49867","","124","","","75","6","","","1","6","training","adjacent","BA","2","1","O.jpg","M.jpg","1","0","0","",""
"","feedback","","html-keyboard-response","47","147203","0.0-1.0-60.0-0.0","0","0","49867","","null","","","null","6","","","","","","","","","","","","","","","",""
"","time_out","","html-keyboard-response","48","149207","0.0-1.0-62.0-0.0","0","0","49867","","null","","","null","6","","","","","","","","","","","","","","","",""
"","ITI","","html-keyboard-response","49","150218","0.0-1.0-63.0","0","0","49867","","null","","","null","6","","","","","","","","","","","","","","","NaN",""
"","S1","","html-keyboard-response","50","150373","0.0-1.0-65.0","0","0","49867","","null","","","null","7","","","","","","","","","","","","","","","",""
"","ISI","","html-keyboard-response","51","152380","0.0-1.0-66.0","0","0","49867","","1858","","","68","7","d","","","","","","","","","","","","","","",""
"","S2","","html-keyboard-response","52","152536","0.0-1.0-67.0","0","0","49867","","null","","","null","7","","NaN","","","","","","","","","","","","","",""
"","response","","html-keyboard-response","53","153031","0.0-1.0-68.0-0.0","0","0","49867","","492","","","68","7","","","1","7","training","adjacent","DC","4","3","Q.jpg","N.jpg","0","0","1","",""
"","feedback","","html-keyboard-response","54","154034","0.0-1.0-69.0-0.0","0","0","49867","","null","","","null","7","","","","","","","","","","","","","","","",""
"","ITI","","html-keyboard-response","55","155044","0.0-1.0-72.0","0","0","49867","","null","","","null","7","","","","","","","","","","","","","","","NaN",""
"","S1","","html-keyboard-response","56","155201","0.0-1.0-74.0","0","0","49867","","null","","","null","8","","","","","","","","","","","","","","","",""
"","ISI","","html-keyboard-response","57","157204","0.0-1.0-75.0","0","0","49867","","null","","","null","8","NaN","","","","","","","","","","","","","","",""
"","S2","","html-keyboard-response","58","157361","0.0-1.0-76.0","0","0","49867","","null","","","null","8","","NaN","","","","","","","","","","","","","",""
"","response","","html-keyboard-response","59","157591","0.0-1.0-77.0-0.0","0","0","49867","","228","","","75","8","","","1","8","training","adjacent","FE","6","5","L.jpg","P.jpg","1","0","0","",""
"","feedback","","html-keyboard-response","60","158597","0.0-1.0-78.0-0.0","0","0","49867","","null","","","null","8","","","","","","","","","","","","","","","",""
"","time_out","","html-keyboard-response","61","160605","0.0-1.0-80.0-0.0","0","0","49867","","null","","","null","8","","","","","","","","","","","","","","","",""
"","ITI","","html-keyboard-response","62","161616","0.0-1.0-81.0","0","0","49867","","null","","","null","8","","","","","","","","","","","","","","","NaN",""
"","S1","","html-keyboard-response","63","161774","0.0-1.0-83.0","0","0","49867","","null","","","null","9","","","","","","","","","","","","","","","",""
"","ISI","","html-keyboard-response","64","163782","0.0-1.0-84.0","0","0","49867","","null","","","null","9","NaN","","","","","","","","","","","","","","",""
"","S2","","html-keyboard-response","65","163939","0.0-1.0-85.0","0","0","49867","","null","","","null","9","","NaN","","","","","","","","","","","","","",""
"","response","","html-keyboard-response","66","164045","0.0-1.0-86.0-0.0","0","0","49867","","105","","","68","9","","","1","9","training","adjacent","FG","6","7","L.jpg","R.jpg","0","1","0","",""
"","feedback","","html-keyboard-response","67","165058","0.0-1.0-87.0-0.0","0","0","49867","","null","","","null","9","","","","","","","","","","","","","","","",""
"","time_out","","html-keyboard-response","68","167067","0.0-1.0-89.0-0.0","0","0","49867","","null","","","null","9","","","","","","","","","","","","","","","",""
"","ITI","","html-keyboard-response","69","168076","0.0-1.0-90.0","0","0","49867","","null","","","null","9","","","","","","","","","","","","","","","NaN",""
"","S1","","html-keyboard-response","70","168234","0.0-1.0-92.0","0","0","49867","","null","","","null","10","","","","","","","","","","","","","","","",""
"","ISI","","html-keyboard-response","71","170238","0.0-1.0-93.0","0","0","49867","","null","","","null","10","NaN","","","","","","","","","","","","","","",""
"","S2","","html-keyboard-response","72","170396","0.0-1.0-94.0","0","0","49867","","null","","","null","10","","NaN","","","","","","","","","","","","","",""
"","response","","html-keyboard-response","73","170692","0.0-1.0-95.0-0.0","0","0","49867","","294","","","75","10","","","1","10","training","adjacent","DE","4","5","Q.jpg","P.jpg","1","1","1","",""
"","feedback","","html-keyboard-response","74","171695","0.0-1.0-96.0-0.0","0","0","49867","","null","","","null","10","","","","","","","","","","","","","","","",""
"","ITI","","html-keyboard-response","75","172699","0.0-1.0-99.0","0","0","49867","","null","","","null","10","","","","","","","","","","","","","","","NaN",""
"","S1","","html-keyboard-response","76","172855","0.0-1.0-101.0","0","0","49867","","null","","","null","11","","","","","","","","","","","","","","","",""
"","ISI","","html-keyboard-response","77","174863","0.0-1.0-102.0","0","0","49867","","null","","","null","11","NaN","","","","","","","","","","","","","","",""
"","S2","","html-keyboard-response","78","175017","0.0-1.0-103.0","0","0","49867","","null","","","null","11","","NaN","","","","","","","","","","","","","",""
"","response","","html-keyboard-response","79","175267","0.0-1.0-104.0-0.0","0","0","49867","","248","","","75","11","","","1","11","training","adjacent","GF","7","6","R.jpg","L.jpg","1","0","0","",""
"","feedback","","html-keyboard-response","80","176276","0.0-1.0-105.0-0.0","0","0","49867","","null","","","null","11","","","","","","","","","","","","","","","",""
"","time_out","","html-keyboard-response","81","178279","0.0-1.0-107.0-0.0","0","0","49867","","null","","","null","11","","","","","","","","","","","","","","","",""
"","ITI","","html-keyboard-response","82","179288","0.0-1.0-108.0","0","0","49867","","null","","","null","11","","","","","","","","","","","","","","","NaN",""
"","S1","","html-keyboard-response","83","179453","0.0-1.0-110.0","0","0","49867","","null","","","null","12","","","","","","","","","","","","","","","",""
"","ISI","","html-keyboard-response","84","181459","0.0-1.0-111.0","0","0","49867","","null","","","null","12","NaN","","","","","","","","","","","","","","",""
"","S2","","html-keyboard-response","85","181615","0.0-1.0-112.0","0","0","49867","","null","","","null","12","","NaN","","","","","","","","","","","","","",""
"","response","","html-keyboard-response","86","181729","0.0-1.0-113.0-0.0","0","0","49867","","112","","","68","12","","","1","12","training","adjacent","EF","5","6","P.jpg","L.jpg","0","1","0","",""
"","feedback","","html-keyboard-response","87","182736","0.0-1.0-114.0-0.0","0","0","49867","","null","","","null","12","","","","","","","","","","","","","","","",""
"","time_out","","html-keyboard-response","88","184746","0.0-1.0-116.0-0.0","0","0","49867","","null","","","null","12","","","","","","","","","","","","","","","",""
"","ITI","","html-keyboard-response","89","185750","0.0-1.0-117.0","0","0","49867","","null","","","null","12","","","","","","","","","","","","","","","NaN",""
"","S1","","html-keyboard-response","90","185906","0.0-1.0-119.0","0","0","49867","","null","","","null","13","","","","","","","","","","","","","","","",""
"","ISI","","html-keyboard-response","91","187909","0.0-1.0-120.0","0","0","49867","","null","","","null","13","NaN","","","","","","","","","","","","","","",""
"","S2","","html-keyboard-response","92","188069","0.0-1.0-121.0","0","0","49867","","null","","","null","13","","NaN","","","","","","","","","","","","","",""
"","response","","html-keyboard-response","93","188308","0.0-1.0-122.0-0.0","0","0","49867","","236","","","75","13","","","1","13","training","adjacent","AB","1","2","M.jpg","O.jpg","1","1","1","",""
"","feedback","","html-keyboard-response","94","189318","0.0-1.0-123.0-0.0","0","0","49867","","null","","","null","13","","","","","","","","","","","","","","","",""
"","ITI","","html-keyboard-response","95","190327","0.0-1.0-126.0","0","0","49867","","null","","","null","13","","","","","","","","","","","","","","","NaN",""
"","S1","","html-keyboard-response","96","190484","0.0-1.0-128.0","0","0","49867","","null","","","null","14","","","","","","","","","","","","","","","",""
"","ISI","","html-keyboard-response","97","192491","0.0-1.0-129.0","0","0","49867","","null","","","null","14","NaN","","","","","","","","","","","","","","",""
"","S2","","html-keyboard-response","98","192647","0.0-1.0-130.0","0","0","49867","","null","","","null","14","","NaN","","","","","","","","","","","","","",""
"","response","","html-keyboard-response","99","192881","0.0-1.0-131.0-0.0","0","0","49867","","232","","","68","14","","","1","14","training","adjacent","CB","3","2","N.jpg","O.jpg","0","0","1","",""
"","feedback","","html-keyboard-response","100","193886","0.0-1.0-132.0-0.0","0","0","49867","","null","","","null","14","","","","","","","","","","","","","","","",""
"","ITI","","html-keyboard-response","101","194892","0.0-1.0-135.0","0","0","49867","","null","","","null","14","","","","","","","","","","","","","","","NaN",""
"","S1","","html-keyboard-response","102","195049","0.0-1.0-137.0","0","0","49867","","null","","","null","15","","","","","","","","","","","","","","","",""
"","ISI","","html-keyboard-response","103","197059","0.0-1.0-138.0","0","0","49867","","null","","","null","15","NaN","","","","","","","","","","","","","","",""
"","S2","","html-keyboard-response","104","197223","0.0-1.0-139.0","0","0","49867","","null","","","null","15","","NaN","","","","","","","","","","","","","",""
"","response","","html-keyboard-response","105","197699","0.0-1.0-140.0-0.0","0","0","49867","","474","","","75","15","","","1","15","training","adjacent","ED","5","4","P.jpg","Q.jpg","1","0","0","",""
"","feedback","","html-keyboard-response","106","198704","0.0-1.0-141.0-0.0","0","0","49867","","null","","","null","15","","","","","","","","","","","","","","","",""
"","time_out","","html-keyboard-response","107","200714","0.0-1.0-143.0-0.0","0","0","49867","","null","","","null","15","","","","","","","","","","","","","","","",""
"","ITI","","html-keyboard-response","108","201718","0.0-1.0-144.0","0","0","49867","","null","","","null","15","","","","","","","","","","","","","","","NaN",""
"","S1","","html-keyboard-response","109","201874","0.0-1.0-146.0","0","0","49867","","null","","","null","16","","","","","","","","","","","","","","","",""
"","ISI","","html-keyboard-response","110","203879","0.0-1.0-147.0","0","0","49867","","null","","","null","16","NaN","","","","","","","","","","","","","","",""
"","S2","","html-keyboard-response","111","204037","0.0-1.0-148.0","0","0","49867","","null","","","null","16","","NaN","","","","","","","","","","","","","",""
"","response","","html-keyboard-response","112","204293","0.0-1.0-149.0-0.0","0","0","49867","","255","","","68","16","","","1","16","training","adjacent","GF","7","6","R.jpg","L.jpg","0","0","1","",""
"","feedback","","html-keyboard-response","113","205299","0.0-1.0-150.0-0.0","0","0","49867","","null","","","null","16","","","","","","","","","","","","","","","",""
"","ITI","","html-keyboard-response","114","206308","0.0-1.0-153.0","0","0","49867","","null","","","null","16","","","","","","","","","","","","","","","NaN",""
"","S1","","html-keyboard-response","115","206466","0.0-1.0-155.0","0","0","49867","","null","","","null","17","","","","","","","","","","","","","","","",""
"","ISI","","html-keyboard-response","116","208473","0.0-1.0-156.0","0","0","49867","","null","","","null","17","NaN","","","","","","","","","","","","","","",""
"","S2","","html-keyboard-response","117","208629","0.0-1.0-157.0","0","0","49867","","null","","","null","17","","NaN","","","","","","","","","","","","","",""
"","response","","html-keyboard-response","118","208855","0.0-1.0-158.0-0.0","0","0","49867","","223","","","75","17","","","1","17","training","adjacent","BA","2","1","O.jpg","M.jpg","1","0","0","",""
"","feedback","","html-keyboard-response","119","209865","0.0-1.0-159.0-0.0","0","0","49867","","null","","","null","17","","","","","","","","","","","","","","","",""
"","time_out","","html-keyboard-response","120","211876","0.0-1.0-161.0-0.0","0","0","49867","","null","","","null","17","","","","","","","","","","","","","","","",""
"","ITI","","html-keyboard-response","121","212881","0.0-1.0-162.0","0","0","49867","","null","","","null","17","","","","","","","","","","","","","","","NaN",""
"","S1","","html-keyboard-response","122","213039","0.0-1.0-164.0","0","0","49867","","null","","","null","18","","","","","","","","","","","","","","","",""
"","ISI","","html-keyboard-response","123","215048","0.0-1.0-165.0","0","0","49867","","null","","","null","18","NaN","","","","","","","","","","","","","","",""
"","S2","","html-keyboard-response","124","215205","0.0-1.0-166.0","0","0","49867","","null","","","null","18","","NaN","","","","","","","","","","","","","",""
"","response","","html-keyboard-response","125","215537","0.0-1.0-167.0-0.0","0","0","49867","","330","","","75","18","","","1","18","training","adjacent","ED","5","4","P.jpg","Q.jpg","1","0","0","",""
"","feedback","","html-keyboard-response","126","216545","0.0-1.0-168.0-0.0","0","0","49867","","null","","","null","18","","","","","","","","","","","","","","","",""
"","time_out","","html-keyboard-response","127","218548","0.0-1.0-170.0-0.0","0","0","49867","","null","","","null","18","","","","","","","","","","","","","","","",""
"","ITI","","html-keyboard-response","128","219557","0.0-1.0-171.0","0","0","49867","","null","","","null","18","","","","","","","","","","","","","","","NaN",""
"","S1","","html-keyboard-response","129","219716","0.0-1.0-173.0","0","0","49867","","null","","","null","19","","","","","","","","","","","","","","","",""
"","ISI","","html-keyboard-response","130","221722","0.0-1.0-174.0","0","0","49867","","null","","","null","19","NaN","","","","","","","","","","","","","","",""
"","S2","","html-keyboard-response","131","221880","0.0-1.0-175.0","0","0","49867","","null","","","null","19","","NaN","","","","","","","","","","","","","",""
"","response","","html-keyboard-response","132","222075","0.0-1.0-176.0-0.0","0","0","49867","","192","","","68","19","","","1","19","training","adjacent","FE","6","5","L.jpg","P.jpg","0","0","1","",""
"","feedback","","html-keyboard-response","133","223086","0.0-1.0-177.0-0.0","0","0","49867","","null","","","null","19","","","","","","","","","","","","","","","",""
"","ITI","","html-keyboard-response","134","224090","0.0-1.0-180.0","0","0","49867","","null","","","null","19","","","","","","","","","","","","","","","NaN",""
"","S1","","html-keyboard-response","135","224247","0.0-1.0-182.0","0","0","49867","","null","","","null","20","","","","","","","","","","","","","","","",""
"","ISI","","html-keyboard-response","136","226249","0.0-1.0-183.0","0","0","49867","","null","","","null","20","NaN","","","","","","","","","","","","","","",""
"","S2","","html-keyboard-response","137","226406","0.0-1.0-184.0","0","0","49867","","null","","","null","20","","NaN","","","","","","","","","","","","","",""
"","response","","html-keyboard-response","138","226609","0.0-1.0-185.0-0.0","0","0","49867","","200","","","68","20","","","1","20","training","adjacent","FE","6","5","L.jpg","P.jpg","0","0","1","",""
"","feedback","","html-keyboard-response","139","227613","0.0-1.0-186.0-0.0","0","0","49867","","null","","","null","20","","","","","","","","","","","","","","","",""
"","ITI","","html-keyboard-response","140","228623","0.0-1.0-189.0","0","0","49867","","null","","","null","20","","","","","","","","","","","","","","","NaN",""
"","S1","","html-keyboard-response","141","228782","0.0-1.0-191.0","0","0","49867","","null","","","null","21","","","","","","","","","","","","","","","",""
"","ISI","","html-keyboard-response","142","230791","0.0-1.0-192.0","0","0","49867","","null","","","null","21","NaN","","","","","","","","","","","","","","",""
"","S2","","html-keyboard-response","143","230951","0.0-1.0-193.0","0","0","49867","","null","","","null","21","","NaN","","","","","","","","","","","","","",""
"","response","","html-keyboard-response","144","231257","0.0-1.0-194.0-0.0","0","0","49867","","304","","","75","21","","","1","21","training","adjacent","EF","5","6","P.jpg","L.jpg","1","1","1","",""
"","feedback","","html-keyboard-response","145","232269","0.0-1.0-195.0-0.0","0","0","49867","","null","","","null","21","","","","","","","","","","","","","","","",""
"","ITI","","html-keyboard-response","146","233279","0.0-1.0-198.0","0","0","49867","","null","","","null","21","","","","","","","","","","","","","","","NaN",""
"","S1","","html-keyboard-response","147","233435","0.0-1.0-200.0","0","0","49867","","null","","","null","22","","","","","","","","","","","","","","","",""
"","ISI","","html-keyboard-response","148","235440","0.0-1.0-201.0","0","0","49867","","2002","","","68","22","d","","","","","","","","","","","","","","",""
"","S2","","html-keyboard-response","149","235595","0.0-1.0-202.0","0","0","49867","","null","","","null","22","","NaN","","","","","","","","","","","","","",""
"","response","","html-keyboard-response","150","236214","0.0-1.0-203.0-0.0","0","0","49867","","616","","","75","22","","","1","22","training","adjacent","CB","3","2","N.jpg","O.jpg","1","0","0","",""
"","feedback","","html-keyboard-response","151","237220","0.0-1.0-204.0-0.0","0","0","49867","","null","","","null","22","","","","","","","","","","","","","","","",""
"","time_out","","html-keyboard-response","152","239230","0.0-1.0-206.0-0.0","0","0","49867","","null","","","null","22","","","","","","","","","","","","","","","",""
"","ITI","","html-keyboard-response","153","240239","0.0-1.0-207.0","0","0","49867","","null","","","null","22","","","","","","","","","","","","","","","NaN",""
"","S1","","html-keyboard-response","154","240395","0.0-1.0-209.0","0","0","49867","","null","","","null","23","","","","","","","","","","","","","","","",""
"","ISI","","html-keyboard-response","155","242402","0.0-1.0-210.0","0","0","49867","","null","","","null","23","NaN","","","","","","","","","","","","","","",""
"","S2","","html-keyboard-response","156","242566","0.0-1.0-211.0","0","0","49867","","null","","","null","23","","NaN","","","","","","","","","","","","","",""
"","response","","html-keyboard-response","157","242842","0.0-1.0-212.0-0.0","0","0","49867","","274","","","68","23","","","1","23","training","adjacent","FE","6","5","L.jpg","P.jpg","0","0","1","",""
"","feedback","","html-keyboard-response","158","243846","0.0-1.0-213.0-0.0","0","0","49867","","null","","","null","23","","","","","","","","","","","","","","","",""
"","ITI","","html-keyboard-response","159","244857","0.0-1.0-216.0","0","0","49867","","null","","","null","23","","","","","","","","","","","","","","","NaN",""
"","S1","","html-keyboard-response","160","245015","0.0-1.0-218.0","0","0","49867","","null","","","null","24","","","","","","","","","","","","","","","",""
"","ISI","","html-keyboard-response","161","247021","0.0-1.0-219.0","0","0","49867","","null","","","null","24","NaN","","","","","","","","","","","","","","",""
"","S2","","html-keyboard-response","162","247179","0.0-1.0-220.0","0","0","49867","","null","","","null","24","","NaN","","","","","","","","","","","","","",""
"","response","","html-keyboard-response","163","247671","0.0-1.0-221.0-0.0","0","0","49867","","491","","","68","24","","","1","24","training","adjacent","BA","2","1","O.jpg","M.jpg","0","0","1","",""
"","feedback","","html-keyboard-response","164","248674","0.0-1.0-222.0-0.0","0","0","49867","","null","","","null","24","","","","","","","","","","","","","","","",""
"","ITI","","html-keyboard-response","165","249681","0.0-1.0-225.0","0","0","49867","","null","","","null","24","","","","","","","","","","","","","","","NaN",""
"","S1","","html-keyboard-response","166","249836","0.0-1.0-227.0","0","0","49867","","null","","","null","25","","","","","","","","","","","","","","","",""
"","ISI","","html-keyboard-response","167","251842","0.0-1.0-228.0","0","0","49867","","null","","","null","25","NaN","","","","","","","","","","","","","","",""
"","S2","","html-keyboard-response","168","251999","0.0-1.0-229.0","0","0","49867","","null","","","null","25","","NaN","","","","","","","","","","","","","",""
"","response","","html-keyboard-response","169","252248","0.0-1.0-230.0-0.0","0","0","49867","","246","","","68","25","","","1","25","training","adjacent","FG","6","7","L.jpg","R.jpg","0","1","0","",""
"","feedback","","html-keyboard-response","170","253254","0.0-1.0-231.0-0.0","0","0","49867","","null","","","null","25","","","","","","","","","","","","","","","",""
"","time_out","","html-keyboard-response","171","255260","0.0-1.0-233.0-0.0","0","0","49867","","null","","","null","25","","","","","","","","","","","","","","","",""
"","ITI","","html-keyboard-response","172","256278","0.0-1.0-234.0","0","0","49867","","null","","","null","25","","","","","","","","","","","","","","","NaN",""
"","S1","","html-keyboard-response","173","256435","0.0-1.0-236.0","0","0","49867","","null","","","null","26","","","","","","","","","","","","","","","",""
"","ISI","","html-keyboard-response","174","258440","0.0-1.0-237.0","0","0","49867","","null","","","null","26","NaN","","","","","","","","","","","","","","",""
"","S2","","html-keyboard-response","175","258603","0.0-1.0-238.0","0","0","49867","","null","","","null","26","","NaN","","","","","","","","","","","","","",""
"","response","","html-keyboard-response","176","258871","0.0-1.0-239.0-0.0","0","0","49867","","266","","","68","26","","","1","26","training","adjacent","EF","5","6","P.jpg","L.jpg","0","1","0","",""
"","feedback","","html-keyboard-response","177","259882","0.0-1.0-240.0-0.0","0","0","49867","","null","","","null","26","","","","","","","","","","","","","","","",""
"","time_out","","html-keyboard-response","178","261888","0.0-1.0-242.0-0.0","0","0","49867","","null","","","null","26","","","","","","","","","","","","","","","",""
"","ITI","","html-keyboard-response","179","262895","0.0-1.0-243.0","0","0","49867","","null","","","null","26","","","","","","","","","","","","","","","NaN",""
"","S1","","html-keyboard-response","180","263052","0.0-1.0-245.0","0","0","49867","","null","","","null","27","","","","","","","","","","","","","","","",""
"","ISI","","html-keyboard-response","181","265056","0.0-1.0-246.0","0","0","49867","","null","","","null","27","NaN","","","","","","","","","","","","","","",""
"","S2","","html-keyboard-response","182","265216","0.0-1.0-247.0","0","0","49867","","null","","","null","27","","NaN","","","","","","","","","","","","","",""
"","response","","html-keyboard-response","183","265440","0.0-1.0-248.0-0.0","0","0","49867","","222","","","75","27","","","1","27","training","adjacent","CD","3","4","N.jpg","Q.jpg","1","1","1","",""
"","feedback","","html-keyboard-response","184","266450","0.0-1.0-249.0-0.0","0","0","49867","","null","","","null","27","","","","","","","","","","","","","","","",""
"","ITI","","html-keyboard-response","185","267458","0.0-1.0-252.0","0","0","49867","","null","","","null","27","","","","","","","","","","","","","","","NaN",""
"","S1","","html-keyboard-response","186","267616","0.0-1.0-254.0","0","0","49867","","null","","","null","28","","","","","","","","","","","","","","","",""
"","ISI","","html-keyboard-response","187","269618","0.0-1.0-255.0","0","0","49867","","null","","","null","28","NaN","","","","","","","","","","","","","","",""
"","S2","","html-keyboard-response","188","269777","0.0-1.0-256.0","0","0","49867","","null","","","null","28","","NaN","","","","","","","","","","","","","",""
"","response","","html-keyboard-response","189","269967","0.0-1.0-257.0-0.0","0","0","49867","","187","","","68","28","","","1","28","training","adjacent","DE","4","5","Q.jpg","P.jpg","0","1","0","",""
"","feedback","","html-keyboard-response","190","270971","0.0-1.0-258.0-0.0","0","0","49867","","null","","","null","28","","","","","","","","","","","","","","","",""
"","time_out","","html-keyboard-response","191","272979","0.0-1.0-260.0-0.0","0","0","49867","","null","","","null","28","","","","","","","","","","","","","","","",""
"","ITI","","html-keyboard-response","192","273987","0.0-1.0-261.0","0","0","49867","","null","","","null","28","","","","","","","","","","","","","","","NaN",""
"","S1","","html-keyboard-response","193","274143","0.0-1.0-263.0","0","0","49867","","null","","","null","29","","","","","","","","","","","","","","","",""
"","ISI","","html-keyboard-response","194","276146","0.0-1.0-264.0","0","0","49867","","null","","","null","29","NaN","","","","","","","","","","","","","","",""
"","S2","","html-keyboard-response","195","276315","0.0-1.0-265.0","0","0","49867","","null","","","null","29","","NaN","","","","","","","","","","","","","",""
"","response","","html-keyboard-response","196","276478","0.0-1.0-266.0-0.0","0","0","49867","","161","","","75","29","","","1","29","training","adjacent","CD","3","4","N.jpg","Q.jpg","1","1","1","",""
"","feedback","","html-keyboard-response","197","277481","0.0-1.0-267.0-0.0","0","0","49867","","null","","","null","29","","","","","","","","","","","","","","","",""
"","ITI","","html-keyboard-response","198","278485","0.0-1.0-270.0","0","0","49867","","null","","","null","29","","","","","","","","","","","","","","","NaN",""
"","S1","","html-keyboard-response","199","278640","0.0-1.0-272.0","0","0","49867","","null","","","null","30","","","","","","","","","","","","","","","",""
"","ISI","","html-keyboard-response","200","280650","0.0-1.0-273.0","0","0","49867","","null","","","null","30","NaN","","","","","","","","","","","","","","",""
"","S2","","html-keyboard-response","201","280807","0.0-1.0-274.0","0","0","49867","","null","","","null","30","","NaN","","","","","","","","","","","","","",""
"","response","","html-keyboard-response","202","281134","0.0-1.0-275.0-0.0","0","0","49867","","324","","","68","30","","","1","30","training","adjacent","FG","6","7","L.jpg","R.jpg","0","1","0","",""
"","feedback","","html-keyboard-response","203","282139","0.0-1.0-276.0-0.0","0","0","49867","","null","","","null","30","","","","","","","","","","","","","","","",""
"","time_out","","html-keyboard-response","204","284142","0.0-1.0-278.0-0.0","0","0","49867","","null","","","null","30","","","","","","","","","","","","","","","",""
"","ITI","","html-keyboard-response","205","285148","0.0-1.0-279.0","0","0","49867","","null","","","null","30","","","","","","","","","","","","","","","NaN",""
"","S1","","html-keyboard-response","206","285304","0.0-1.0-281.0","0","0","49867","","null","","","null","31","","","","","","","","","","","","","","","",""
"","ISI","","html-keyboard-response","207","287312","0.0-1.0-282.0","0","0","49867","","null","","","null","31","NaN","","","","","","","","","","","","","","",""
"","S2","","html-keyboard-response","208","287467","0.0-1.0-283.0","0","0","49867","","null","","","null","31","","NaN","","","","","","","","","","","","","",""
"","response","","html-keyboard-response","209","287823","0.0-1.0-284.0-0.0","0","0","49867","","355","","","75","31","","","1","31","training","adjacent","CD","3","4","N.jpg","Q.jpg","1","1","1","",""
"","feedback","","html-keyboard-response","210","288833","0.0-1.0-285.0-0.0","0","0","49867","","null","","","null","31","","","","","","","","","","","","","","","",""
"","ITI","","html-keyboard-response","211","289837","0.0-1.0-288.0","0","0","49867","","null","","","null","31","","","","","","","","","","","","","","","NaN",""
"","S1","","html-keyboard-response","212","289994","0.0-1.0-290.0","0","0","49867","","null","","","null","32","","","","","","","","","","","","","","","",""
"","ISI","","html-keyboard-response","213","291997","0.0-1.0-291.0","0","0","49867","","null","","","null","32","NaN","","","","","","","","","","","","","","",""
"","S2","","html-keyboard-response","214","292155","0.0-1.0-292.0","0","0","49867","","null","","","null","32","","NaN","","","","","","","","","","","","","",""
"","response","","html-keyboard-response","215","292584","0.0-1.0-293.0-0.0","0","0","49867","","427","","","68","32","","","1","32","training","adjacent","CB","3","2","N.jpg","O.jpg","0","0","1","",""
"","feedback","","html-keyboard-response","216","293589","0.0-1.0-294.0-0.0","0","0","49867","","null","","","null","32","","","","","","","","","","","","","","","",""
"","ITI","","html-keyboard-response","217","294608","0.0-1.0-297.0","0","0","49867","","null","","","null","32","","","","","","","","","","","","","","","NaN",""
"","S1","","html-keyboard-response","218","294766","0.0-1.0-299.0","0","0","49867","","null","","","null","33","","","","","","","","","","","","","","","",""
"","ISI","","html-keyboard-response","219","296773","0.0-1.0-300.0","0","0","49867","","null","","","null","33","NaN","","","","","","","","","","","","","","",""
"","S2","","html-keyboard-response","220","296929","0.0-1.0-301.0","0","0","49867","","null","","","null","33","","NaN","","","","","","","","","","","","","",""
"","response","","html-keyboard-response","221","297095","0.0-1.0-302.0-0.0","0","0","49867","","163","","","75","33","","","1","33","training","adjacent","DC","4","3","Q.jpg","N.jpg","1","0","0","",""
"","feedback","","html-keyboard-response","222","298101","0.0-1.0-303.0-0.0","0","0","49867","","null","","","null","33","","","","","","","","","","","","","","","",""
"","time_out","","html-keyboard-response","223","300107","0.0-1.0-305.0-0.0","0","0","49867","","null","","","null","33","","","","","","","","","","","","","","","",""
"","ITI","","html-keyboard-response","224","301114","0.0-1.0-306.0","0","0","49867","","null","","","null","33","","","","","","","","","","","","","","","NaN",""
"","S1","","html-keyboard-response","225","301274","0.0-1.0-308.0","0","0","49867","","null","","","null","34","","","","","","","","","","","","","","","",""
"","ISI","","html-keyboard-response","226","303278","0.0-1.0-309.0","0","0","49867","","null","","","null","34","NaN","","","","","","","","","","","","","","",""
"","S2","","html-keyboard-response","227","303434","0.0-1.0-310.0","0","0","49867","","null","","","null","34","","NaN","","","","","","","","","","","","","",""
"","response","","html-keyboard-response","228","303651","0.0-1.0-311.0-0.0","0","0","49867","","216","","","68","34","","","1","34","training","adjacent","DE","4","5","Q.jpg","P.jpg","0","1","0","",""
"","feedback","","html-keyboard-response","229","304661","0.0-1.0-312.0-0.0","0","0","49867","","null","","","null","34","","","","","","","","","","","","","","","",""
"","time_out","","html-keyboard-response","230","306663","0.0-1.0-314.0-0.0","0","0","49867","","null","","","null","34","","","","","","","","","","","","","","","",""
"","ITI","","html-keyboard-response","231","307672","0.0-1.0-315.0","0","0","49867","","null","","","null","34","","","","","","","","","","","","","","","NaN",""
"","S1","","html-keyboard-response","232","307827","0.0-1.0-317.0","0","0","49867","","null","","","null","35","","","","","","","","","","","","","","","",""
"","ISI","","html-keyboard-response","233","309830","0.0-1.0-318.0","0","0","49867","","646","","","75","35","k","","","","","","","","","","","","","","",""
"","S2","","html-keyboard-response","234","309989","0.0-1.0-319.0","0","0","49867","","null","","","null","35","","NaN","","","","","","","","","","","","","",""
"","response","","html-keyboard-response","235","310162","0.0-1.0-320.0-0.0","0","0","49867","","172","","","75","35","","","1","35","training","adjacent","GF","7","6","R.jpg","L.jpg","1","0","0","",""
"","feedback","","html-keyboard-response","236","311171","0.0-1.0-321.0-0.0","0","0","49867","","null","","","null","35","","","","","","","","","","","","","","","",""
"","time_out","","html-keyboard-response","237","313181","0.0-1.0-323.0-0.0","0","0","49867","","null","","","null","35","","","","","","","","","","","","","","","",""
"","ITI","","html-keyboard-response","238","314187","0.0-1.0-324.0","0","0","49867","","null","","","null","35","","","","","","","","","","","","","","","NaN",""
"","S1","","html-keyboard-response","239","314350","0.0-1.0-326.0","0","0","49867","","null","","","null","36","","","","","","","","","","","","","","","",""
"","ISI","","html-keyboard-response","240","316357","0.0-1.0-327.0","0","0","49867","","null","","","null","36","NaN","","","","","","","","","","","","","","",""
"","S2","","html-keyboard-response","241","316515","0.0-1.0-328.0","0","0","49867","","null","","","null","36","","NaN","","","","","","","","","","","","","",""
"","response","","html-keyboard-response","242","316687","0.0-1.0-329.0-0.0","0","0","49867","","170","","","68","36","","","1","36","training","adjacent","BC","2","3","O.jpg","N.jpg","0","1","0","",""
"","feedback","","html-keyboard-response","243","317706","0.0-1.0-330.0-0.0","0","0","49867","","null","","","null","36","","","","","","","","","","","","","","","",""
"","time_out","","html-keyboard-response","244","319715","0.0-1.0-332.0-0.0","0","0","49867","","null","","","null","36","","","","","","","","","","","","","","","",""
"","ITI","","html-keyboard-response","245","320725","0.0-1.0-333.0","0","0","49867","","null","","","null","36","","","","","","","","","","","","","","","NaN",""
"","S1","","html-keyboard-response","246","320882","0.0-1.0-335.0","0","0","49867","","null","","","null","37","","","","","","","","","","","","","","","",""
"","ISI","","html-keyboard-response","247","322891","0.0-1.0-336.0","0","0","49867","","null","","","null","37","NaN","","","","","","","","","","","","","","",""
"","S2","","html-keyboard-response","248","323047","0.0-1.0-337.0","0","0","49867","","null","","","null","37","","NaN","","","","","","","","","","","","","",""
"","response","","html-keyboard-response","249","323239","0.0-1.0-338.0-0.0","0","0","49867","","190","","","75","37","","","1","37","training","adjacent","DC","4","3","Q.jpg","N.jpg","1","0","0","",""
"","feedback","","html-keyboard-response","250","324242","0.0-1.0-339.0-0.0","0","0","49867","","null","","","null","37","","","","","","","","","","","","","","","",""
"","time_out","","html-keyboard-response","251","326250","0.0-1.0-341.0-0.0","0","0","49867","","null","","","null","37","","","","","","","","","","","","","","","",""
"","ITI","","html-keyboard-response","252","327256","0.0-1.0-342.0","0","0","49867","","null","","","null","37","","","","","","","","","","","","","","","NaN",""
"","S1","","html-keyboard-response","253","327414","0.0-1.0-344.0","0","0","49867","","null","","","null","38","","","","","","","","","","","","","","","",""
"","ISI","","html-keyboard-response","254","329423","0.0-1.0-345.0","0","0","49867","","455","","","68","38","d","","","","","","","","","","","","","","",""
"","S2","","html-keyboard-response","255","329581","0.0-1.0-346.0","0","0","49867","","null","","","null","38","","NaN","","","","","","","","","","","","","",""
"","response","","html-keyboard-response","256","329748","0.0-1.0-347.0-0.0","0","0","49867","","164","","","68","38","","","1","38","training","adjacent","BA","2","1","O.jpg","M.jpg","0","0","1","",""
"","feedback","","html-keyboard-response","257","330754","0.0-1.0-348.0-0.0","0","0","49867","","null","","","null","38","","","","","","","","","","","","","","","",""
"","ITI","","html-keyboard-response","258","331771","0.0-1.0-351.0","0","0","49867","","null","","","null","38","","","","","","","","","","","","","","","NaN",""
"","S1","","html-keyboard-response","259","331934","0.0-1.0-353.0","0","0","49867","","null","","","null","39","","","","","","","","","","","","","","","",""
"","ISI","","html-keyboard-response","260","333941","0.0-1.0-354.0","0","0","49867","","null","","","null","39","NaN","","","","","","","","","","","","","","",""
"","S2","","html-keyboard-response","261","334096","0.0-1.0-355.0","0","0","49867","","null","","","null","39","","NaN","","","","","","","","","","","","","",""
"","response","","html-keyboard-response","262","334303","0.0-1.0-356.0-0.0","0","0","49867","","205","","","68","39","","","1","39","training","adjacent","DC","4","3","Q.jpg","N.jpg","0","0","1","",""
"","feedback","","html-keyboard-response","263","335310","0.0-1.0-357.0-0.0","0","0","49867","","null","","","null","39","","","","","","","","","","","","","","","",""
"","ITI","","html-keyboard-response","264","336318","0.0-1.0-360.0","0","0","49867","","null","","","null","39","","","","","","","","","","","","","","","NaN",""
"","S1","","html-keyboard-response","265","336485","0.0-1.0-362.0","0","0","49867","","null","","","null","40","","","","","","","","","","","","","","","",""
"","ISI","","html-keyboard-response","266","338492","0.0-1.0-363.0","0","0","49867","","null","","","null","40","NaN","","","","","","","","","","","","","","",""
"","S2","","html-keyboard-response","267","338635","0.0-1.0-364.0","0","0","49867","","140","","","68","40","","d","1","40","training","adjacent","AB","1","2","M.jpg","O.jpg","0","1","0","",""
"","feedback","","html-keyboard-response","268","339639","0.0-1.0-366.0-0.0","0","0","49867","","null","","","null","40","","","","","","","","","","","","","","","",""
"","time_out","","html-keyboard-response","269","341647","0.0-1.0-368.0-0.0","0","0","49867","","null","","","null","40","","","","","","","","","","","","","","","",""
"","ITI","","html-keyboard-response","270","342654","0.0-1.0-369.0","0","0","49867","","null","","","null","40","","","","","","","","","","","","","","","NaN",""
"","S1","","html-keyboard-response","271","342812","0.0-1.0-371.0","0","0","49867","","null","","","null","41","","","","","","","","","","","","","","","",""
"","ISI","","html-keyboard-response","272","344821","0.0-1.0-372.0","0","0","49867","","null","","","null","41","NaN","","","","","","","","","","","","","","",""
"","S2","","html-keyboard-response","273","344980","0.0-1.0-373.0","0","0","49867","","null","","","null","41","","NaN","","","","","","","","","","","","","",""
"","response","","html-keyboard-response","274","345164","0.0-1.0-374.0-0.0","0","0","49867","","181","","","68","41","","","1","41","training","adjacent","AB","1","2","M.jpg","O.jpg","0","1","0","",""
"","feedback","","html-keyboard-response","275","346174","0.0-1.0-375.0-0.0","0","0","49867","","null","","","null","41","","","","","","","","","","","","","","","",""
"","time_out","","html-keyboard-response","276","348179","0.0-1.0-377.0-0.0","0","0","49867","","null","","","null","41","","","","","","","","","","","","","","","",""
"","ITI","","html-keyboard-response","277","349182","0.0-1.0-378.0","0","0","49867","","null","","","null","41","","","","","","","","","","","","","","","NaN",""
"","S1","","html-keyboard-response","278","349339","0.0-1.0-380.0","0","0","49867","","null","","","null","42","","","","","","","","","","","","","","","",""
"","ISI","","html-keyboard-response","279","351342","0.0-1.0-381.0","0","0","49867","","null","","","null","42","NaN","","","","","","","","","","","","","","",""
"","S2","","html-keyboard-response","280","351500","0.0-1.0-382.0","0","0","49867","","null","","","null","42","","NaN","","","","","","","","","","","","","",""
"","response","","html-keyboard-response","281","352084","0.0-1.0-383.0-0.0","0","0","49867","","582","","","75","42","","","1","42","training","adjacent","GF","7","6","R.jpg","L.jpg","1","0","0","",""
"","feedback","","html-keyboard-response","282","353093","0.0-1.0-384.0-0.0","0","0","49867","","null","","","null","42","","","","","","","","","","","","","","","",""
"","time_out","","html-keyboard-response","283","355101","0.0-1.0-386.0-0.0","0","0","49867","","null","","","null","42","","","","","","","","","","","","","","","",""
"","ITI","","html-keyboard-response","284","356105","0.0-1.0-387.0","0","0","49867","","null","","","null","42","","","","","","","","","","","","","","","NaN",""
"","S1","","html-keyboard-response","285","356262","0.0-1.0-389.0","0","0","49867","","null","","","null","43","","","","","","","","","","","","","","","",""
"","ISI","","html-keyboard-response","286","358273","0.0-1.0-390.0","0","0","49867","","209","","","68","43","d","","","","","","","","","","","","","","",""
"","S2","","html-keyboard-response","287","358430","0.0-1.0-391.0","0","0","49867","","null","","","null","43","","NaN","","","","","","","","","","","","","",""
"","response","","html-keyboard-response","288","358632","0.0-1.0-392.0-0.0","0","0","49867","","199","","","68","43","","","1","43","training","adjacent","AB","1","2","M.jpg","O.jpg","0","1","0","",""
"","feedback","","html-keyboard-response","289","359638","0.0-1.0-393.0-0.0","0","0","49867","","null","","","null","43","","","","","","","","","","","","","","","",""
"","time_out","","html-keyboard-response","290","361648","0.0-1.0-395.0-0.0","0","0","49867","","null","","","null","43","","","","","","","","","","","","","","","",""
"","ITI","","html-keyboard-response","291","362656","0.0-1.0-396.0","0","0","49867","","null","","","null","43","","","","","","","","","","","","","","","NaN",""
"","S1","","html-keyboard-response","292","362822","0.0-1.0-398.0","0","0","49867","","null","","","null","44","","","","","","","","","","","","","","","",""
"","ISI","","html-keyboard-response","293","364830","0.0-1.0-399.0","0","0","49867","","null","","","null","44","NaN","","","","","","","","","","","","","","",""
"","S2","","html-keyboard-response","294","364986","0.0-1.0-400.0","0","0","49867","","null","","","null","44","","NaN","","","","","","","","","","","","","",""
"","response","","html-keyboard-response","295","365075","0.0-1.0-401.0-0.0","0","0","49867","","87","","","75","44","","","1","44","training","adjacent","ED","5","4","P.jpg","Q.jpg","1","0","0","",""
"","feedback","","html-keyboard-response","296","366082","0.0-1.0-402.0-0.0","0","0","49867","","null","","","null","44","","","","","","","","","","","","","","","",""
"","time_out","","html-keyboard-response","297","368088","0.0-1.0-404.0-0.0","0","0","49867","","null","","","null","44","","","","","","","","","","","","","","","",""
"","ITI","","html-keyboard-response","298","369097","0.0-1.0-405.0","0","0","49867","","null","","","null","44","","","","","","","","","","","","","","","NaN",""
"","S1","","html-keyboard-response","299","369254","0.0-1.0-407.0","0","0","49867","","null","","","null","45","","","","","","","","","","","","","","","",""
"","ISI","","html-keyboard-response","300","371264","0.0-1.0-408.0","0","0","49867","","null","","","null","45","NaN","","","","","","","","","","","","","","",""
"","S2","","html-keyboard-response","301","371419","0.0-1.0-409.0","0","0","49867","","null","","","null","45","","NaN","","","","","","","","","","","","","",""
"","response","","html-keyboard-response","302","371578","0.0-1.0-410.0-0.0","0","0","49867","","157","","","75","45","","","1","45","training","adjacent","BC","2","3","O.jpg","N.jpg","1","1","1","",""
"","feedback","","html-keyboard-response","303","372581","0.0-1.0-411.0-0.0","0","0","49867","","null","","","null","45","","","","","","","","","","","","","","","",""
"","ITI","","html-keyboard-response","304","373584","0.0-1.0-414.0","0","0","49867","","null","","","null","45","","","","","","","","","","","","","","","NaN",""
"","S1","","html-keyboard-response","305","373741","0.0-1.0-416.0","0","0","49867","","null","","","null","46","","","","","","","","","","","","","","","",""
"","ISI","","html-keyboard-response","306","375745","0.0-1.0-417.0","0","0","49867","","null","","","null","46","NaN","","","","","","","","","","","","","","",""
"","S2","","html-keyboard-response","307","375902","0.0-1.0-418.0","0","0","49867","","null","","","null","46","","NaN","","","","","","","","","","","","","",""
"","response","","html-keyboard-response","308","376137","0.0-1.0-419.0-0.0","0","0","49867","","233","","","75","46","","","1","46","training","adjacent","ED","5","4","P.jpg","Q.jpg","1","0","0","",""
"","feedback","","html-keyboard-response","309","377141","0.0-1.0-420.0-0.0","0","0","49867","","null","","","null","46","","","","","","","","","","","","","","","",""
"","time_out","","html-keyboard-response","310","379148","0.0-1.0-422.0-0.0","0","0","49867","","null","","","null","46","","","","","","","","","","","","","","","",""
"","ITI","","html-keyboard-response","311","380155","0.0-1.0-423.0","0","0","49867","","null","","","null","46","","","","","","","","","","","","","","","NaN",""
"","S1","","html-keyboard-response","312","380314","0.0-1.0-425.0","0","0","49867","","null","","","null","47","","","","","","","","","","","","","","","",""
"","ISI","","html-keyboard-response","313","382323","0.0-1.0-426.0","0","0","49867","","null","","","null","47","NaN","","","","","","","","","","","","","","",""
"","S2","","html-keyboard-response","314","382481","0.0-1.0-427.0","0","0","49867","","null","","","null","47","","NaN","","","","","","","","","","","","","",""
"","response","","html-keyboard-response","315","382483","0.0-1.0-428.0-0.0","0","0","49867","","0","","","68","47","","","1","47","training","adjacent","CD","3","4","N.jpg","Q.jpg","0","1","0","",""
"","feedback","","html-keyboard-response","316","383491","0.0-1.0-429.0-0.0","0","0","49867","","null","","","null","47","","","","","","","","","","","","","","","",""
"","time_out","","html-keyboard-response","317","385499","0.0-1.0-431.0-0.0","0","0","49867","","null","","","null","47","","","","","","","","","","","","","","","",""
"","ITI","","html-keyboard-response","318","386508","0.0-1.0-432.0","0","0","49867","","null","","","null","47","","","","","","","","","","","","","","","NaN",""
"","block_over","","html-keyboard-response","319","419789","0.0-1.0-433.0-0.0","0","0","49867","","33277","","","32","47","","","","","","","","","","","","","","","",""
"","S1","","html-keyboard-response","320","419947","0.0-1.0-434.0","0","0","49867","","null","","","null","48","","","","","","","","","","","","","","","",""
"","ISI","","html-keyboard-response","321","421954","0.0-1.0-435.0","0","0","49867","","null","","","null","48","NaN","","","","","","","","","","","","","","",""
"","S2","","html-keyboard-response","322","422113","0.0-1.0-436.0","0","0","49867","","null","","","null","48","","NaN","","","","","","","","","","","","","",""
"","response","","html-keyboard-response","323","422832","0.0-1.0-437.0-0.0","0","0","49867","","716","","","68","48","","","2","48","training","adjacent","EF","5","6","P.jpg","L.jpg","0","1","0","",""
"","feedback","","html-keyboard-response","324","423835","0.0-1.0-438.0-0.0","0","0","49867","","null","","","null","48","","","","","","","","","","","","","","","",""
"","time_out","","html-keyboard-response","325","425838","0.0-1.0-440.0-0.0","0","0","49867","","null","","","null","48","","","","","","","","","","","","","","","",""
"","ITI","","html-keyboard-response","326","426849","0.0-1.0-441.0","0","0","49867","","null","","","null","48","","","","","","","","","","","","","","","NaN",""
"","S1","","html-keyboard-response","327","427006","0.0-1.0-443.0","0","0","49867","","null","","","null","49","","","","","","","","","","","","","","","",""
"","ISI","","html-keyboard-response","328","429016","0.0-1.0-444.0","0","0","49867","","366","","","75","49","k","","","","","","","","","","","","","","",""
"","S2","","html-keyboard-response","329","429172","0.0-1.0-445.0","0","0","49867","","null","","","null","49","","NaN","","","","","","","","","","","","","",""
"","response","","html-keyboard-response","330","429426","0.0-1.0-446.0-0.0","0","0","49867","","252","","","75","49","","","2","49","training","adjacent","DC","4","3","Q.jpg","N.jpg","1","0","0","",""
"","feedback","","html-keyboard-response","331","430430","0.0-1.0-447.0-0.0","0","0","49867","","null","","","null","49","","","","","","","","","","","","","","","",""
"","time_out","","html-keyboard-response","332","432440","0.0-1.0-449.0-0.0","0","0","49867","","null","","","null","49","","","","","","","","","","","","","","","",""
"","ITI","","html-keyboard-response","333","433449","0.0-1.0-450.0","0","0","49867","","null","","","null","49","","","","","","","","","","","","","","","NaN",""
"","S1","","html-keyboard-response","334","433606","0.0-1.0-452.0","0","0","49867","","null","","","null","50","","","","","","","","","","","","","","","",""
"","ISI","","html-keyboard-response","335","435616","0.0-1.0-453.0","0","0","49867","","383","","","75","50","k","","","","","","","","","","","","","","",""
"","S2","","html-keyboard-response","336","435773","0.0-1.0-454.0","0","0","49867","","null","","","null","50","","NaN","","","","","","","","","","","","","",""
"","response","","html-keyboard-response","337","436293","0.0-1.0-455.0-0.0","0","0","49867","","519","","","75","50","","","2","50","training","adjacent","ED","5","4","P.jpg","Q.jpg","1","0","0","",""
"","feedback","","html-keyboard-response","338","437304","0.0-1.0-456.0-0.0","0","0","49867","","null","","","null","50","","","","","","","","","","","","","","","",""
"","time_out","","html-keyboard-response","339","439314","0.0-1.0-458.0-0.0","0","0","49867","","null","","","null","50","","","","","","","","","","","","","","","",""
"","ITI","","html-keyboard-response","340","440322","0.0-1.0-459.0","0","0","49867","","null","","","null","50","","","","","","","","","","","","","","","NaN",""
"","S1","","html-keyboard-response","341","440480","0.0-1.0-461.0","0","0","49867","","null","","","null","51","","","","","","","","","","","","","","","",""
"","ISI","","html-keyboard-response","342","442486","0.0-1.0-462.0","0","0","49867","","null","","","null","51","NaN","","","","","","","","","","","","","","",""
"","S2","","html-keyboard-response","343","442643","0.0-1.0-463.0","0","0","49867","","null","","","null","51","","NaN","","","","","","","","","","","","","",""
"","response","","html-keyboard-response","344","442881","0.0-1.0-464.0-0.0","0","0","49867","","236","","","75","51","","","2","51","training","adjacent","CB","3","2","N.jpg","O.jpg","1","0","0","",""
"","feedback","","html-keyboard-response","345","443887","0.0-1.0-465.0-0.0","0","0","49867","","null","","","null","51","","","","","","","","","","","","","","","",""
"","time_out","","html-keyboard-response","346","445892","0.0-1.0-467.0-0.0","0","0","49867","","null","","","null","51","","","","","","","","","","","","","","","",""
"","ITI","","html-keyboard-response","347","446911","0.0-1.0-468.0","0","0","49867","","null","","","null","51","","","","","","","","","","","","","","","NaN",""
"","S1","","html-keyboard-response","348","447074","0.0-1.0-470.0","0","0","49867","","null","","","null","52","","","","","","","","","","","","","","","",""
"","ISI","","html-keyboard-response","349","449079","0.0-1.0-471.0","0","0","49867","","88","","","75","52","k","","","","","","","","","","","","","","",""
"","S2","","html-keyboard-response","350","449244","0.0-1.0-472.0","0","0","49867","","null","","","null","52","","NaN","","","","","","","","","","","","","",""
"","response","","html-keyboard-response","351","449371","0.0-1.0-473.0-0.0","0","0","49867","","124","","","68","52","","","2","52","training","adjacent","GF","7","6","R.jpg","L.jpg","0","0","1","",""
"","feedback","","html-keyboard-response","352","450379","0.0-1.0-474.0-0.0","0","0","49867","","null","","","null","52","","","","","","","","","","","","","","","",""
"","ITI","","html-keyboard-response","353","451388","0.0-1.0-477.0","0","0","49867","","null","","","null","52","","","","","","","","","","","","","","","NaN",""
"","S1","","html-keyboard-response","354","451543","0.0-1.0-479.0","0","0","49867","","null","","","null","53","","","","","","","","","","","","","","","",""
"","ISI","","html-keyboard-response","355","453552","0.0-1.0-480.0","0","0","49867","","null","","","null","53","NaN","","","","","","","","","","","","","","",""
"","S2","","html-keyboard-response","356","453711","0.0-1.0-481.0","0","0","49867","","null","","","null","53","","NaN","","","","","","","","","","","","","",""
"","response","","html-keyboard-response","357","453835","0.0-1.0-482.0-0.0","0","0","49867","","122","","","68","53","","","2","53","training","adjacent","GF","7","6","R.jpg","L.jpg","0","0","1","",""
"","feedback","","html-keyboard-response","358","454844","0.0-1.0-483.0-0.0","0","0","49867","","null","","","null","53","","","","","","","","","","","","","","","",""
"","ITI","","html-keyboard-response","359","455849","0.0-1.0-486.0","0","0","49867","","null","","","null","53","","","","","","","","","","","","","","","NaN",""
"","S1","","html-keyboard-response","360","456007","0.0-1.0-488.0","0","0","49867","","null","","","null","54","","","","","","","","","","","","","","","",""
"","ISI","","html-keyboard-response","361","458011","0.0-1.0-489.0","0","0","49867","","null","","","null","54","NaN","","","","","","","","","","","","","","",""
"","S2","","html-keyboard-response","362","458168","0.0-1.0-490.0","0","0","49867","","null","","","null","54","","NaN","","","","","","","","","","","","","",""
"","response","","html-keyboard-response","363","458250","0.0-1.0-491.0-0.0","0","0","49867","","79","","","68","54","","","2","54","training","adjacent","AB","1","2","M.jpg","O.jpg","0","1","0","",""
"","feedback","","html-keyboard-response","364","459261","0.0-1.0-492.0-0.0","0","0","49867","","null","","","null","54","","","","","","","","","","","","","","","",""
"","time_out","","html-keyboard-response","365","461268","0.0-1.0-494.0-0.0","0","0","49867","","null","","","null","54","","","","","","","","","","","","","","","",""
"","ITI","","html-keyboard-response","366","462275","0.0-1.0-495.0","0","0","49867","","810","","","68","54","","","","","","","","","","","","","","","d",""
"","S1","","html-keyboard-response","367","462434","0.0-1.0-497.0","0","0","49867","","null","","","null","55","","","","","","","","","","","","","","","",""
"","ISI","","html-keyboard-response","368","464441","0.0-1.0-498.0","0","0","49867","","200","","","68","55","d","","","","","","","","","","","","","","",""
"","S2","","html-keyboard-response","369","464513","0.0-1.0-499.0","0","0","49867","","69","","","68","55","","d","2","55","training","adjacent","DE","4","5","Q.jpg","P.jpg","0","1","0","",""
"","feedback","","html-keyboard-response","370","465524","0.0-1.0-501.0-0.0","0","0","49867","","null","","","null","55","","","","","","","","","","","","","","","",""
"","time_out","","html-keyboard-response","371","467533","0.0-1.0-503.0-0.0","0","0","49867","","null","","","null","55","","","","","","","","","","","","","","","",""
"","ITI","","html-keyboard-response","372","468541","0.0-1.0-504.0","0","0","49867","","null","","","null","55","","","","","","","","","","","","","","","NaN",""
"","S1","","html-keyboard-response","373","468698","0.0-1.0-506.0","0","0","49867","","null","","","null","56","","","","","","","","","","","","","","","",""
"","ISI","","html-keyboard-response","374","470701","0.0-1.0-507.0","0","0","49867","","257","","","75","56","k","","","","","","","","","","","","","","",""
"","S2","","html-keyboard-response","375","470857","0.0-1.0-508.0","0","0","49867","","null","","","null","56","","NaN","","","","","","","","","","","","","",""
"","response","","html-keyboard-response","376","471096","0.0-1.0-509.0-0.0","0","0","49867","","238","","","75","56","","","2","56","training","adjacent","CB","3","2","N.jpg","O.jpg","1","0","0","",""
"","feedback","","html-keyboard-response","377","472105","0.0-1.0-510.0-0.0","0","0","49867","","null","","","null","56","","","","","","","","","","","","","","","",""
"","time_out","","html-keyboard-response","378","474114","0.0-1.0-512.0-0.0","0","0","49867","","null","","","null","56","","","","","","","","","","","","","","","",""
"","ITI","","html-keyboard-response","379","475125","0.0-1.0-513.0","0","0","49867","","null","","","null","56","","","","","","","","","","","","","","","NaN",""
"","S1","","html-keyboard-response","380","475290","0.0-1.0-515.0","0","0","49867","","null","","","null","57","","","","","","","","","","","","","","","",""
"","ISI","","html-keyboard-response","381","477298","0.0-1.0-516.0","0","0","49867","","191","","","68","57","d","","","","","","","","","","","","","","",""
"","S2","","html-keyboard-response","382","477454","0.0-1.0-517.0","0","0","49867","","null","","","null","57","","NaN","","","","","","","","","","","","","",""
"","response","","html-keyboard-response","383","477693","0.0-1.0-518.0-0.0","0","0","49867","","237","","","68","57","","","2","57","training","adjacent","CD","3","4","N.jpg","Q.jpg","0","1","0","",""
"","feedback","","html-keyboard-response","384","478704","0.0-1.0-519.0-0.0","0","0","49867","","null","","","null","57","","","","","","","","","","","","","","","",""
"","time_out","","html-keyboard-response","385","480714","0.0-1.0-521.0-0.0","0","0","49867","","null","","","null","57","","","","","","","","","","","","","","","",""
"","ITI","","html-keyboard-response","386","481719","0.0-1.0-522.0","0","0","49867","","null","","","null","57","","","","","","","","","","","","","","","NaN",""
"","S1","","html-keyboard-response","387","481874","0.0-1.0-524.0","0","0","49867","","null","","","null","58","","","","","","","","","","","","","","","",""
"","ISI","","html-keyboard-response","388","483881","0.0-1.0-525.0","0","0","49867","","null","","","null","58","NaN","","","","","","","","","","","","","","",""
"","S2","","html-keyboard-response","389","484037","0.0-1.0-526.0","0","0","49867","","null","","","null","58","","NaN","","","","","","","","","","","","","",""
"","response","","html-keyboard-response","390","484145","0.0-1.0-527.0-0.0","0","0","49867","","107","","","68","58","","","2","58","training","adjacent","FG","6","7","L.jpg","R.jpg","0","1","0","",""
"","feedback","","html-keyboard-response","391","485151","0.0-1.0-528.0-0.0","0","0","49867","","null","","","null","58","","","","","","","","","","","","","","","",""
"","time_out","","html-keyboard-response","392","487161","0.0-1.0-530.0-0.0","0","0","49867","","null","","","null","58","","","","","","","","","","","","","","","",""
"","ITI","","html-keyboard-response","393","488171","0.0-1.0-531.0","0","0","49867","","null","","","null","58","","","","","","","","","","","","","","","NaN",""
"","S1","","html-keyboard-response","394","488326","0.0-1.0-533.0","0","0","49867","","null","","","null","59","","","","","","","","","","","","","","","",""
"","ISI","","html-keyboard-response","395","490334","0.0-1.0-534.0","0","0","49867","","null","","","null","59","NaN","","","","","","","","","","","","","","",""
"","S2","","html-keyboard-response","396","490496","0.0-1.0-535.0","0","0","49867","","null","","","null","59","","NaN","","","","","","","","","","","","","",""
"","response","","html-keyboard-response","397","490909","0.0-1.0-536.0-0.0","0","0","49867","","411","","","75","59","","","2","59","training","adjacent","DE","4","5","Q.jpg","P.jpg","1","1","1","",""
"","feedback","","html-keyboard-response","398","491923","0.0-1.0-537.0-0.0","0","0","49867","","null","","","null","59","","","","","","","","","","","","","","","",""
"","ITI","","html-keyboard-response","399","492929","0.0-1.0-540.0","0","0","49867","","435","","","68","59","","","","","","","","","","","","","","","d",""
"","S1","","html-keyboard-response","400","493082","0.0-1.0-542.0","0","0","49867","","null","","","null","60","","","","","","","","","","","","","","","",""
"","ISI","","html-keyboard-response","401","495087","0.0-1.0-543.0","0","0","49867","","null","","","null","60","NaN","","","","","","","","","","","","","","",""
"","S2","","html-keyboard-response","402","495240","0.0-1.0-544.0","0","0","49867","","null","","","null","60","","NaN","","","","","","","","","","","","","",""
"","response","","html-keyboard-response","403","495387","0.0-1.0-545.0-0.0","0","0","49867","","145","","","75","60","","","2","60","training","adjacent","CD","3","4","N.jpg","Q.jpg","1","1","1","",""
"","feedback","","html-keyboard-response","404","496396","0.0-1.0-546.0-0.0","0","0","49867","","null","","","null","60","","","","","","","","","","","","","","","",""
"","ITI","","html-keyboard-response","405","497404","0.0-1.0-549.0","0","0","49867","","null","","","null","60","","","","","","","","","","","","","","","NaN",""
"","S1","","html-keyboard-response","406","497562","0.0-1.0-551.0","0","0","49867","","null","","","null","61","","","","","","","","","","","","","","","",""
"","ISI","","html-keyboard-response","407","499568","0.0-1.0-552.0","0","0","49867","","null","","","null","61","NaN","","","","","","","","","","","","","","",""
"","S2","","html-keyboard-response","408","499721","0.0-1.0-553.0","0","0","49867","","null","","","null","61","","NaN","","","","","","","","","","","","","",""
"","response","","html-keyboard-response","409","499911","0.0-1.0-554.0-0.0","0","0","49867","","187","","","75","61","","","2","61","training","adjacent","BC","2","3","O.jpg","N.jpg","1","1","1","",""
"","feedback","","html-keyboard-response","410","500920","0.0-1.0-555.0-0.0","0","0","49867","","null","","","null","61","","","","","","","","","","","","","","","",""
"","ITI","","html-keyboard-response","411","501929","0.0-1.0-558.0","0","0","49867","","320","","","68","61","","","","","","","","","","","","","","","d",""
"","S1","","html-keyboard-response","412","502082","0.0-1.0-560.0","0","0","49867","","null","","","null","62","","","","","","","","","","","","","","","",""
"","ISI","","html-keyboard-response","413","504091","0.0-1.0-561.0","0","0","49867","","null","","","null","62","NaN","","","","","","","","","","","","","","",""
"","S2","","html-keyboard-response","414","504244","0.0-1.0-562.0","0","0","49867","","null","","","null","62","","NaN","","","","","","","","","","","","","",""
"","response","","html-keyboard-response","415","504911","0.0-1.0-563.0-0.0","0","0","49867","","664","","","68","62","","","2","62","training","adjacent","DC","4","3","Q.jpg","N.jpg","0","0","1","",""
"","feedback","","html-keyboard-response","416","505921","0.0-1.0-564.0-0.0","0","0","49867","","null","","","null","62","","","","","","","","","","","","","","","",""
"","ITI","","html-keyboard-response","417","506925","0.0-1.0-567.0","0","0","49867","","null","","","null","62","","","","","","","","","","","","","","","NaN",""
"","S1","","html-keyboard-response","418","507092","0.0-1.0-569.0","0","0","49867","","null","","","null","63","","","","","","","","","","","","","","","",""
"","ISI","","html-keyboard-response","419","509096","0.0-1.0-570.0","0","0","49867","","null","","","null","63","NaN","","","","","","","","","","","","","","",""
"","S2","","html-keyboard-response","420","509253","0.0-1.0-571.0","0","0","49867","","null","","","null","63","","NaN","","","","","","","","","","","","","",""
"","response","","html-keyboard-response","421","509917","0.0-1.0-572.0-0.0","0","0","49867","","662","","","75","63","","","2","63","training","adjacent","ED","5","4","P.jpg","Q.jpg","1","0","0","",""
"","feedback","","html-keyboard-response","422","510928","0.0-1.0-573.0-0.0","0","0","49867","","null","","","null","63","","","","","","","","","","","","","","","",""
"","time_out","","html-keyboard-response","423","512931","0.0-1.0-575.0-0.0","0","0","49867","","null","","","null","63","","","","","","","","","","","","","","","",""
"","ITI","","html-keyboard-response","424","513940","0.0-1.0-576.0","0","0","49867","","null","","","null","63","","","","","","","","","","","","","","","NaN",""
"","S1","","html-keyboard-response","425","514097","0.0-1.0-578.0","0","0","49867","","null","","","null","64","","","","","","","","","","","","","","","",""
"","ISI","","html-keyboard-response","426","516107","0.0-1.0-579.0","0","0","49867","","null","","","null","64","NaN","","","","","","","","","","","","","","",""
"","S2","","html-keyboard-response","427","516264","0.0-1.0-580.0","0","0","49867","","null","","","null","64","","NaN","","","","","","","","","","","","","",""
"","response","","html-keyboard-response","428","516416","0.0-1.0-581.0-0.0","0","0","49867","","149","","","68","64","","","2","64","training","adjacent","FE","6","5","L.jpg","P.jpg","0","0","1","",""
"","feedback","","html-keyboard-response","429","517433","0.0-1.0-582.0-0.0","0","0","49867","","null","","","null","64","","","","","","","","","","","","","","","",""
"","ITI","","html-keyboard-response","430","518452","0.0-1.0-585.0","0","0","49867","","null","","","null","64","","","","","","","","","","","","","","","NaN",""
"","S1","","html-keyboard-response","431","518607","0.0-1.0-587.0","0","0","49867","","null","","","null","65","","","","","","","","","","","","","","","",""
"","ISI","","html-keyboard-response","432","520616","0.0-1.0-588.0","0","0","49867","","null","","","null","65","NaN","","","","","","","","","","","","","","",""
"","S2","","html-keyboard-response","433","520773","0.0-1.0-589.0","0","0","49867","","null","","","null","65","","NaN","","","","","","","","","","","","","",""
"","response","","html-keyboard-response","434","521038","0.0-1.0-590.0-0.0","0","0","49867","","263","","","68","65","","","2","65","training","adjacent","FE","6","5","L.jpg","P.jpg","0","0","1","",""
"","feedback","","html-keyboard-response","435","522041","0.0-1.0-591.0-0.0","0","0","49867","","null","","","null","65","","","","","","","","","","","","","","","",""
"","ITI","","html-keyboard-response","436","523050","0.0-1.0-594.0","0","0","49867","","null","","","null","65","","","","","","","","","","","","","","","NaN",""
"","S1","","html-keyboard-response","437","523207","0.0-1.0-596.0","0","0","49867","","null","","","null","66","","","","","","","","","","","","","","","",""
"","ISI","","html-keyboard-response","438","525216","0.0-1.0-597.0","0","0","49867","","null","","","null","66","NaN","","","","","","","","","","","","","","",""
"","S2","","html-keyboard-response","439","525381","0.0-1.0-598.0","0","0","49867","","null","","","null","66","","NaN","","","","","","","","","","","","","",""
"","response","","html-keyboard-response","440","525585","0.0-1.0-599.0-0.0","0","0","49867","","201","","","68","66","","","2","66","training","adjacent","BA","2","1","O.jpg","M.jpg","0","0","1","",""
"","feedback","","html-keyboard-response","441","526596","0.0-1.0-600.0-0.0","0","0","49867","","null","","","null","66","","","","","","","","","","","","","","","",""
"","ITI","","html-keyboard-response","442","527605","0.0-1.0-603.0","0","0","49867","","null","","","null","66","","","","","","","","","","","","","","","NaN",""
"","S1","","html-keyboard-response","443","527761","0.0-1.0-605.0","0","0","49867","","null","","","null","67","","","","","","","","","","","","","","","",""
"","ISI","","html-keyboard-response","444","529768","0.0-1.0-606.0","0","0","49867","","null","","","null","67","NaN","","","","","","","","","","","","","","",""
"","S2","","html-keyboard-response","445","529924","0.0-1.0-607.0","0","0","49867","","null","","","null","67","","NaN","","","","","","","","","","","","","",""
"","response","","html-keyboard-response","446","530082","0.0-1.0-608.0-0.0","0","0","49867","","156","","","68","67","","","2","67","training","adjacent","CD","3","4","N.jpg","Q.jpg","0","1","0","",""
"","feedback","","html-keyboard-response","447","531100","0.0-1.0-609.0-0.0","0","0","49867","","null","","","null","67","","","","","","","","","","","","","","","",""
"","time_out","","html-keyboard-response","448","533105","0.0-1.0-611.0-0.0","0","0","49867","","null","","","null","67","","","","","","","","","","","","","","","",""
"","ITI","","html-keyboard-response","449","534112","0.0-1.0-612.0","0","0","49867","","null","","","null","67","","","","","","","","","","","","","","","NaN",""
"","S1","","html-keyboard-response","450","534268","0.0-1.0-614.0","0","0","49867","","null","","","null","68","","","","","","","","","","","","","","","",""
"","ISI","","html-keyboard-response","451","536273","0.0-1.0-615.0","0","0","49867","","1792","","","68","68","d","","","","","","","","","","","","","","",""
"","S2","","html-keyboard-response","452","536430","0.0-1.0-616.0","0","0","49867","","null","","","null","68","","NaN","","","","","","","","","","","","","",""
"","response","","html-keyboard-response","453","536644","0.0-1.0-617.0-0.0","0","0","49867","","212","","","75","68","","","2","68","training","adjacent","CB","3","2","N.jpg","O.jpg","1","0","0","",""
"","feedback","","html-keyboard-response","454","537653","0.0-1.0-618.0-0.0","0","0","49867","","null","","","null","68","","","","","","","","","","","","","","","",""
"","time_out","","html-keyboard-response","455","539660","0.0-1.0-620.0-0.0","0","0","49867","","null","","","null","68","","","","","","","","","","","","","","","",""
"","ITI","","html-keyboard-response","456","540666","0.0-1.0-621.0","0","0","49867","","null","","","null","68","","","","","","","","","","","","","","","NaN",""
"","S1","","html-keyboard-response","457","540823","0.0-1.0-623.0","0","0","49867","","null","","","null","69","","","","","","","","","","","","","","","",""
"","ISI","","html-keyboard-response","458","542828","0.0-1.0-624.0","0","0","49867","","498","","","68","69","d","","","","","","","","","","","","","","",""
"","S2","","html-keyboard-response","459","542915","0.0-1.0-625.0","0","0","49867","","85","","","75","69","","k","2","69","training","adjacent","FE","6","5","L.jpg","P.jpg","1","0","0","",""
"","feedback","","html-keyboard-response","460","543919","0.0-1.0-627.0-0.0","0","0","49867","","null","","","null","69","","","","","","","","","","","","","","","",""
"","time_out","","html-keyboard-response","461","545924","0.0-1.0-629.0-0.0","0","0","49867","","null","","","null","69","","","","","","","","","","","","","","","",""
"","ITI","","html-keyboard-response","462","546934","0.0-1.0-630.0","0","0","49867","","991","","","68","69","","","","","","","","","","","","","","","d",""
"","S1","","html-keyboard-response","463","547090","0.0-1.0-632.0","0","0","49867","","null","","","null","70","","","","","","","","","","","","","","","",""
"","ISI","","html-keyboard-response","464","549099","0.0-1.0-633.0","0","0","49867","","574","","","68","70","d","","","","","","","","","","","","","","",""
"","S2","","html-keyboard-response","465","549256","0.0-1.0-634.0","0","0","49867","","null","","","null","70","","NaN","","","","","","","","","","","","","",""
"","response","","html-keyboard-response","466","550151","0.0-1.0-635.0-0.0","0","0","49867","","892","","","68","70","","","2","70","training","adjacent","BC","2","3","O.jpg","N.jpg","0","1","0","",""
"","feedback","","html-keyboard-response","467","551156","0.0-1.0-636.0-0.0","0","0","49867","","null","","","null","70","","","","","","","","","","","","","","","",""
"","time_out","","html-keyboard-response","468","553162","0.0-1.0-638.0-0.0","0","0","49867","","null","","","null","70","","","","","","","","","","","","","","","",""
"","ITI","","html-keyboard-response","469","554168","0.0-1.0-639.0","0","0","49867","","null","","","null","70","","","","","","","","","","","","","","","NaN",""
"","S1","","html-keyboard-response","470","554324","0.0-1.0-641.0","0","0","49867","","null","","","null","71","","","","","","","","","","","","","","","",""
"","ISI","","html-keyboard-response","471","556334","0.0-1.0-642.0","0","0","49867","","200","","","75","71","k","","","","","","","","","","","","","","",""
"","S2","","html-keyboard-response","472","556492","0.0-1.0-643.0","0","0","49867","","null","","","null","71","","NaN","","","","","","","","","","","","","",""
"","response","","html-keyboard-response","473","556600","0.0-1.0-644.0-0.0","0","0","49867","","106","","","75","71","","","2","71","training","adjacent","AB","1","2","M.jpg","O.jpg","1","1","1","",""
"","feedback","","html-keyboard-response","474","557608","0.0-1.0-645.0-0.0","0","0","49867","","null","","","null","71","","","","","","","","","","","","","","","",""
"","ITI","","html-keyboard-response","475","558617","0.0-1.0-648.0","0","0","49867","","null","","","null","71","","","","","","","","","","","","","","","NaN",""
"","S1","","html-keyboard-response","476","558775","0.0-1.0-650.0","0","0","49867","","null","","","null","72","","","","","","","","","","","","","","","",""
"","ISI","","html-keyboard-response","477","560783","0.0-1.0-651.0","0","0","49867","","null","","","null","72","NaN","","","","","","","","","","","","","","",""
"","S2","","html-keyboard-response","478","560939","0.0-1.0-652.0","0","0","49867","","null","","","null","72","","NaN","","","","","","","","","","","","","",""
"","response","","html-keyboard-response","479","561170","0.0-1.0-653.0-0.0","0","0","49867","","228","","","75","72","","","2","72","training","adjacent","CB","3","2","N.jpg","O.jpg","1","0","0","",""
"","feedback","","html-keyboard-response","480","562178","0.0-1.0-654.0-0.0","0","0","49867","","null","","","null","72","","","","","","","","","","","","","","","",""
"","time_out","","html-keyboard-response","481","564188","0.0-1.0-656.0-0.0","0","0","49867","","null","","","null","72","","","","","","","","","","","","","","","",""
"","ITI","","html-keyboard-response","482","565195","0.0-1.0-657.0","0","0","49867","","null","","","null","72","","","","","","","","","","","","","","","NaN",""
"","S1","","html-keyboard-response","483","565352","0.0-1.0-659.0","0","0","49867","","null","","","null","73","","","","","","","","","","","","","","","",""
"","ISI","","html-keyboard-response","484","567362","0.0-1.0-660.0","0","0","49867","","163","","","83","73","s","","","","","","","","","","","","","","",""
"","S2","","html-keyboard-response","485","567519","0.0-1.0-661.0","0","0","49867","","null","","","null","73","","NaN","","","","","","","","","","","","","",""
"","response","","html-keyboard-response","486","568154","0.0-1.0-662.0-0.0","0","0","49867","","633","","","75","73","","","2","73","training","adjacent","BC","2","3","O.jpg","N.jpg","1","1","1","",""
"","feedback","","html-keyboard-response","487","569159","0.0-1.0-663.0-0.0","0","0","49867","","null","","","null","73","","","","","","","","","","","","","","","",""
"","ITI","","html-keyboard-response","488","570163","0.0-1.0-666.0","0","0","49867","","null","","","null","73","","","","","","","","","","","","","","","NaN",""
"","S1","","html-keyboard-response","489","570320","0.0-1.0-668.0","0","0","49867","","null","","","null","74","","","","","","","","","","","","","","","",""
"","ISI","","html-keyboard-response","490","572324","0.0-1.0-669.0","0","0","49867","","1304","","","75","74","k","","","","","","","","","","","","","","",""
"","S2","","html-keyboard-response","491","572480","0.0-1.0-670.0","0","0","49867","","null","","","null","74","","NaN","","","","","","","","","","","","","",""
"","response","","html-keyboard-response","492","572674","0.0-1.0-671.0-0.0","0","0","49867","","191","","","75","74","","","2","74","training","adjacent","FG","6","7","L.jpg","R.jpg","1","1","1","",""
"","feedback","","html-keyboard-response","493","573685","0.0-1.0-672.0-0.0","0","0","49867","","null","","","null","74","","","","","","","","","","","","","","","",""
"","ITI","","html-keyboard-response","494","574689","0.0-1.0-675.0","0","0","49867","","null","","","null","74","","","","","","","","","","","","","","","NaN",""
"","S1","","html-keyboard-response","495","574845","0.0-1.0-677.0","0","0","49867","","null","","","null","75","","","","","","","","","","","","","","","",""
"","ISI","","html-keyboard-response","496","576851","0.0-1.0-678.0","0","0","49867","","1486","","","75","75","k","","","","","","","","","","","","","","",""
"","S2","","html-keyboard-response","497","576905","0.0-1.0-679.0","0","0","49867","","51","","","75","75","","k","2","75","training","adjacent","BA","2","1","O.jpg","M.jpg","1","0","0","",""
"","feedback","","html-keyboard-response","498","577910","0.0-1.0-681.0-0.0","0","0","49867","","null","","","null","75","","","","","","","","","","","","","","","",""
"","time_out","","html-keyboard-response","499","579912","0.0-1.0-683.0-0.0","0","0","49867","","null","","","null","75","","","","","","","","","","","","","","","",""
"","ITI","","html-keyboard-response","500","580918","0.0-1.0-684.0","0","0","49867","","null","","","null","75","","","","","","","","","","","","","","","NaN",""
"","S1","","html-keyboard-response","501","581077","0.0-1.0-686.0","0","0","49867","","null","","","null","76","","","","","","","","","","","","","","","",""
"","ISI","","html-keyboard-response","502","583081","0.0-1.0-687.0","0","0","49867","","null","","","null","76","NaN","","","","","","","","","","","","","","",""
"","S2","","html-keyboard-response","503","583240","0.0-1.0-688.0","0","0","49867","","null","","","null","76","","NaN","","","","","","","","","","","","","",""
"","response","","html-keyboard-response","504","583357","0.0-1.0-689.0-0.0","0","0","49867","","114","","","75","76","","","2","76","training","adjacent","EF","5","6","P.jpg","L.jpg","1","1","1","",""
"","feedback","","html-keyboard-response","505","584365","0.0-1.0-690.0-0.0","0","0","49867","","null","","","null","76","","","","","","","","","","","","","","","",""
"","ITI","","html-keyboard-response","506","585373","0.0-1.0-693.0","0","0","49867","","null","","","null","76","","","","","","","","","","","","","","","NaN",""
"","S1","","html-keyboard-response","507","585529","0.0-1.0-695.0","0","0","49867","","null","","","null","77","","","","","","","","","","","","","","","",""
"","ISI","","html-keyboard-response","508","587538","0.0-1.0-696.0","0","0","49867","","null","","","null","77","NaN","","","","","","","","","","","","","","",""
"","S2","","html-keyboard-response","509","587697","0.0-1.0-697.0","0","0","49867","","null","","","null","77","","NaN","","","","","","","","","","","","","",""
"","response","","html-keyboard-response","510","588006","0.0-1.0-698.0-0.0","0","0","49867","","308","","","75","77","","","2","77","training","adjacent","EF","5","6","P.jpg","L.jpg","1","1","1","",""
"","feedback","","html-keyboard-response","511","589016","0.0-1.0-699.0-0.0","0","0","49867","","null","","","null","77","","","","","","","","","","","","","","","",""
"","ITI","","html-keyboard-response","512","590023","0.0-1.0-702.0","0","0","49867","","null","","","null","77","","","","","","","","","","","","","","","NaN",""
"","S1","","html-keyboard-response","513","590180","0.0-1.0-704.0","0","0","49867","","null","","","null","78","","","","","","","","","","","","","","","",""
"","ISI","","html-keyboard-response","514","592182","0.0-1.0-705.0","0","0","49867","","null","","","null","78","NaN","","","","","","","","","","","","","","",""
"","S2","","html-keyboard-response","515","592340","0.0-1.0-706.0","0","0","49867","","null","","","null","78","","NaN","","","","","","","","","","","","","",""
"","response","","html-keyboard-response","516","593400","0.0-1.0-707.0-0.0","0","0","49867","","1058","","","75","78","","","2","78","training","adjacent","GF","7","6","R.jpg","L.jpg","1","0","0","",""
"","feedback","","html-keyboard-response","517","594409","0.0-1.0-708.0-0.0","0","0","49867","","null","","","null","78","","","","","","","","","","","","","","","",""
"","time_out","","html-keyboard-response","518","596412","0.0-1.0-710.0-0.0","0","0","49867","","null","","","null","78","","","","","","","","","","","","","","","",""
"","ITI","","html-keyboard-response","519","597422","0.0-1.0-711.0","0","0","49867","","null","","","null","78","","","","","","","","","","","","","","","NaN",""
"","S1","","html-keyboard-response","520","597577","0.0-1.0-713.0","0","0","49867","","null","","","null","79","","","","","","","","","","","","","","","",""
"","ISI","","html-keyboard-response","521","599581","0.0-1.0-714.0","0","0","49867","","null","","","null","79","NaN","","","","","","","","","","","","","","",""
"","S2","","html-keyboard-response","522","599736","0.0-1.0-715.0","0","0","49867","","null","","","null","79","","NaN","","","","","","","","","","","","","",""
"","response","","html-keyboard-response","523","599823","0.0-1.0-716.0-0.0","0","0","49867","","85","","","75","79","","","2","79","training","adjacent","CD","3","4","N.jpg","Q.jpg","1","1","1","",""
"","feedback","","html-keyboard-response","524","600830","0.0-1.0-717.0-0.0","0","0","49867","","null","","","null","79","","","","","","","","","","","","","","","",""
"","ITI","","html-keyboard-response","525","601841","0.0-1.0-720.0","0","0","49867","","null","","","null","79","","","","","","","","","","","","","","","NaN",""
"","S1","","html-keyboard-response","526","602009","0.0-1.0-722.0","0","0","49867","","null","","","null","80","","","","","","","","","","","","","","","",""
"","ISI","","html-keyboard-response","527","604017","0.0-1.0-723.0","0","0","49867","","null","","","null","80","NaN","","","","","","","","","","","","","","",""
"","S2","","html-keyboard-response","528","604171","0.0-1.0-724.0","0","0","49867","","null","","","null","80","","NaN","","","","","","","","","","","","","",""
"","response","","html-keyboard-response","529","604458","0.0-1.0-725.0-0.0","0","0","49867","","285","","","68","80","","","2","80","training","adjacent","BC","2","3","O.jpg","N.jpg","0","1","0","",""
"","feedback","","html-keyboard-response","530","605467","0.0-1.0-726.0-0.0","0","0","49867","","null","","","null","80","","","","","","","","","","","","","","","",""
"","time_out","","html-keyboard-response","531","607472","0.0-1.0-728.0-0.0","0","0","49867","","null","","","null","80","","","","","","","","","","","","","","","",""
"","ITI","","html-keyboard-response","532","608491","0.0-1.0-729.0","0","0","49867","","null","","","null","80","","","","","","","","","","","","","","","NaN",""
"","S1","","html-keyboard-response","533","608650","0.0-1.0-731.0","0","0","49867","","null","","","null","81","","","","","","","","","","","","","","","",""
"","ISI","","html-keyboard-response","534","610658","0.0-1.0-732.0","0","0","49867","","null","","","null","81","NaN","","","","","","","","","","","","","","",""
"","S2","","html-keyboard-response","535","610818","0.0-1.0-733.0","0","0","49867","","null","","","null","81","","NaN","","","","","","","","","","","","","",""
"","response","","html-keyboard-response","536","611066","0.0-1.0-734.0-0.0","0","0","49867","","245","","","75","81","","","2","81","training","adjacent","DE","4","5","Q.jpg","P.jpg","1","1","1","",""
"","feedback","","html-keyboard-response","537","612076","0.0-1.0-735.0-0.0","0","0","49867","","null","","","null","81","","","","","","","","","","","","","","","",""
"","ITI","","html-keyboard-response","538","613094","0.0-1.0-738.0","0","0","49867","","310","","","75","81","","","","","","","","","","","","","","","k",""
"","S1","","html-keyboard-response","539","613249","0.0-1.0-740.0","0","0","49867","","null","","","null","82","","","","","","","","","","","","","","","",""
"","ISI","","html-keyboard-response","540","615254","0.0-1.0-741.0","0","0","49867","","1763","","","75","82","k","","","","","","","","","","","","","","",""
"","S2","","html-keyboard-response","541","615411","0.0-1.0-742.0","0","0","49867","","null","","","null","82","","NaN","","","","","","","","","","","","","",""
"","response","","html-keyboard-response","542","616139","0.0-1.0-743.0-0.0","0","0","49867","","725","","","75","82","","","2","82","training","adjacent","ED","5","4","P.jpg","Q.jpg","1","0","0","",""
"","feedback","","html-keyboard-response","543","617149","0.0-1.0-744.0-0.0","0","0","49867","","null","","","null","82","","","","","","","","","","","","","","","",""
"","time_out","","html-keyboard-response","544","619159","0.0-1.0-746.0-0.0","0","0","49867","","null","","","null","82","","","","","","","","","","","","","","","",""
"","ITI","","html-keyboard-response","545","620171","0.0-1.0-747.0","0","0","49867","","null","","","null","82","","","","","","","","","","","","","","","NaN",""
"","S1","","html-keyboard-response","546","620326","0.0-1.0-749.0","0","0","49867","","null","","","null","83","","","","","","","","","","","","","","","",""
"","ISI","","html-keyboard-response","547","622330","0.0-1.0-750.0","0","0","49867","","189","","","68","83","d","","","","","","","","","","","","","","",""
"","S2","","html-keyboard-response","548","622486","0.0-1.0-751.0","0","0","49867","","null","","","null","83","","NaN","","","","","","","","","","","","","",""
"","response","","html-keyboard-response","549","622576","0.0-1.0-752.0-0.0","0","0","49867","","88","","","68","83","","","2","83","training","adjacent","AB","1","2","M.jpg","O.jpg","0","1","0","",""
"","feedback","","html-keyboard-response","550","623583","0.0-1.0-753.0-0.0","0","0","49867","","null","","","null","83","","","","","","","","","","","","","","","",""
"","time_out","","html-keyboard-response","551","625593","0.0-1.0-755.0-0.0","0","0","49867","","null","","","null","83","","","","","","","","","","","","","","","",""
"","ITI","","html-keyboard-response","552","626604","0.0-1.0-756.0","0","0","49867","","null","","","null","83","","","","","","","","","","","","","","","NaN",""
"","S1","","html-keyboard-response","553","626761","0.0-1.0-758.0","0","0","49867","","null","","","null","84","","","","","","","","","","","","","","","",""
"","ISI","","html-keyboard-response","554","628764","0.0-1.0-759.0","0","0","49867","","null","","","null","84","NaN","","","","","","","","","","","","","","",""
"","S2","","html-keyboard-response","555","628921","0.0-1.0-760.0","0","0","49867","","null","","","null","84","","NaN","","","","","","","","","","","","","",""
"","response","","html-keyboard-response","556","629035","0.0-1.0-761.0-0.0","0","0","49867","","111","","","75","84","","","2","84","training","adjacent","EF","5","6","P.jpg","L.jpg","1","1","1","",""
"","feedback","","html-keyboard-response","557","630045","0.0-1.0-762.0-0.0","0","0","49867","","null","","","null","84","","","","","","","","","","","","","","","",""
"","ITI","","html-keyboard-response","558","631056","0.0-1.0-765.0","0","0","49867","","null","","","null","84","","","","","","","","","","","","","","","NaN",""
"","S1","","html-keyboard-response","559","631214","0.0-1.0-767.0","0","0","49867","","null","","","null","85","","","","","","","","","","","","","","","",""
"","ISI","","html-keyboard-response","560","633224","0.0-1.0-768.0","0","0","49867","","null","","","null","85","NaN","","","","","","","","","","","","","","",""
"","S2","","html-keyboard-response","561","633382","0.0-1.0-769.0","0","0","49867","","null","","","null","85","","NaN","","","","","","","","","","","","","",""
"","response","","html-keyboard-response","562","633610","0.0-1.0-770.0-0.0","0","0","49867","","225","","","68","85","","","2","85","training","adjacent","GF","7","6","R.jpg","L.jpg","0","0","1","",""
"","feedback","","html-keyboard-response","563","634616","0.0-1.0-771.0-0.0","0","0","49867","","null","","","null","85","","","","","","","","","","","","","","","",""
"","ITI","","html-keyboard-response","564","635624","0.0-1.0-774.0","0","0","49867","","null","","","null","85","","","","","","","","","","","","","","","NaN",""
"","S1","","html-keyboard-response","565","635779","0.0-1.0-776.0","0","0","49867","","null","","","null","86","","","","","","","","","","","","","","","",""
"","ISI","","html-keyboard-response","566","637786","0.0-1.0-777.0","0","0","49867","","null","","","null","86","NaN","","","","","","","","","","","","","","",""
"","S2","","html-keyboard-response","567","637942","0.0-1.0-778.0","0","0","49867","","null","","","null","86","","NaN","","","","","","","","","","","","","",""
"","response","","html-keyboard-response","568","638091","0.0-1.0-779.0-0.0","0","0","49867","","146","","","68","86","","","2","86","training","adjacent","AB","1","2","M.jpg","O.jpg","0","1","0","",""
"","feedback","","html-keyboard-response","569","639100","0.0-1.0-780.0-0.0","0","0","49867","","null","","","null","86","","","","","","","","","","","","","","","",""
"","time_out","","html-keyboard-response","570","641109","0.0-1.0-782.0-0.0","0","0","49867","","null","","","null","86","","","","","","","","","","","","","","","",""
"","ITI","","html-keyboard-response","571","642114","0.0-1.0-783.0","0","0","49867","","null","","","null","86","","","","","","","","","","","","","","","NaN",""
"","S1","","html-keyboard-response","572","642272","0.0-1.0-785.0","0","0","49867","","null","","","null","87","","","","","","","","","","","","","","","",""
"","ISI","","html-keyboard-response","573","644278","0.0-1.0-786.0","0","0","49867","","null","","","null","87","NaN","","","","","","","","","","","","","","",""
"","S2","","html-keyboard-response","574","644437","0.0-1.0-787.0","0","0","49867","","null","","","null","87","","NaN","","","","","","","","","","","","","",""
"","response","","html-keyboard-response","575","644526","0.0-1.0-788.0-0.0","0","0","49867","","88","","","75","87","","","2","87","training","adjacent","BA","2","1","O.jpg","M.jpg","1","0","0","",""
"","feedback","","html-keyboard-response","576","645532","0.0-1.0-789.0-0.0","0","0","49867","","null","","","null","87","","","","","","","","","","","","","","","",""
"","time_out","","html-keyboard-response","577","647541","0.0-1.0-791.0-0.0","0","0","49867","","null","","","null","87","","","","","","","","","","","","","","","",""
"","ITI","","html-keyboard-response","578","648544","0.0-1.0-792.0","0","0","49867","","705","","","68","87","","","","","","","","","","","","","","","d",""
"","S1","","html-keyboard-response","579","648702","0.0-1.0-794.0","0","0","49867","","null","","","null","88","","","","","","","","","","","","","","","",""
"","ISI","","html-keyboard-response","580","650707","0.0-1.0-795.0","0","0","49867","","473","","","68","88","d","","","","","","","","","","","","","","",""
"","S2","","html-keyboard-response","581","650875","0.0-1.0-796.0","0","0","49867","","null","","","null","88","","NaN","","","","","","","","","","","","","",""
"","response","","html-keyboard-response","582","651020","0.0-1.0-797.0-0.0","0","0","49867","","144","","","68","88","","","2","88","training","adjacent","DC","4","3","Q.jpg","N.jpg","0","0","1","",""
"","feedback","","html-keyboard-response","583","652029","0.0-1.0-798.0-0.0","0","0","49867","","null","","","null","88","","","","","","","","","","","","","","","",""
