"success","ttype","start_time","trial_type","trial_index","time_elapsed","internal_node_id","warning","missed_checkup","PID","view_history","rt","responses","repeat_instructions","key_press","index","keypress_isi","keypress_S2","block","trial_num","phase","group_type","pair_type","S1_stim","S2_stim","S1_img","S2_img","S1_chosen","S1_higher","accuracy","keypress_iti","total_bonus_tally"
"true","full_screen","d04062023hr1717","fullscreen","0","15108","0.0-0.0","0","0","59860","","","","","","","","","","","","","","","","","","","","","",""
"","instructions","","instructions","1","50679","0.0-1.0-0.0-0.0","0","0","59860","[{""page_index"":0,""viewing_time"":4419},{""page_index"":1,""viewing_time"":20096},{""page_index"":2,""viewing_time"":9183},{""page_index"":3,""viewing_time"":1871}]","35569","","","","","","","","","","","","","","","","","","","",""
"","comprehension_check","","survey-multi-choice","2","70067","0.0-1.0-0.0-1.0","0","0","59860","","19384","{""Q0"":""True"",""Q1"":""D"",""Q2"":""Only when the screen 'MAKE A CHOICE' is shown"",""Q3"":""Green mark"",""Q4"":""either D or K""}","1","","","","","","","","","","","","","","","","","",""
"","missed_instruction_checkup","","html-keyboard-response","3","72131","0.0-1.0-0.0-2.0-0.0","0","1","59860","","2061","","","32","","","","","","","","","","","","","","","","",""
"","instructions","","instructions","4","82052","0.0-1.0-0.1-0.1","0","0","59860","[{""page_index"":0,""viewing_time"":4352},{""page_index"":1,""viewing_time"":3567},{""page_index"":2,""viewing_time"":895},{""page_index"":3,""viewing_time"":1105}]","9919","","","","","","","","","","","","","","","","","","","",""
"","comprehension_check","","survey-multi-choice","5","117973","0.0-1.0-0.1-1.1","0","0","59860","","35917","{""Q0"":""False"",""Q1"":""D"",""Q2"":""Once the second image appears and while the screen 'MAKE A CHOICE' is shown"",""Q3"":""Green mark"",""Q4"":""either D or K""}","1","","","","","","","","","","","","","","","","","",""
"","missed_instruction_checkup","","html-keyboard-response","6","119057","0.0-1.0-0.1-2.1-0.1","0","1","59860","","1082","","","32","","","","","","","","","","","","","","","","",""
"","instructions","","instructions","7","122300","0.0-1.0-0.2-0.2","0","0","59860","[{""page_index"":0,""viewing_time"":1300},{""page_index"":1,""viewing_time"":802},{""page_index"":2,""viewing_time"":539},{""page_index"":3,""viewing_time"":600}]","3242","","","","","","","","","","","","","","","","","","","",""
"","comprehension_check","","survey-multi-choice","8","135178","0.0-1.0-0.2-1.2","0","0","59860","","12875","{""Q0"":""False"",""Q1"":""D"",""Q2"":""Only when the screen 'MAKE A CHOICE' is shown"",""Q3"":""Green mark"",""Q4"":""either D or K""}","1","","","","","","","","","","","","","","","","","",""
"","missed_instruction_checkup","","html-keyboard-response","9","136286","0.0-1.0-0.2-2.2-0.2","0","1","59860","","1105","","","32","","","","","","","","","","","","","","","","",""
"","instructions","","instructions","10","138834","0.0-1.0-0.3-0.3","0","0","59860","[{""page_index"":0,""viewing_time"":1047},{""page_index"":1,""viewing_time"":478},{""page_index"":2,""viewing_time"":498},{""page_index"":3,""viewing_time"":523}]","2546","","","","","","","","","","","","","","","","","","","",""
"","comprehension_check","","survey-multi-choice","11","152005","0.0-1.0-0.3-1.3","0","0","59860","","13168","{""Q0"":""True"",""Q1"":""D"",""Q2"":""Once the second image appears and while the screen 'MAKE A CHOICE' is shown"",""Q3"":""Green mark"",""Q4"":""either D or K""}","0","","","","","","","","","","","","","","","","","",""
"","start_exp","","html-keyboard-response","12","153781","0.0-1.0-1.0","0","0","59860","","1775","","","32","","","","","","","","","","","","","","","","",""
"","S1","","html-keyboard-response","13","153932","0.0-1.0-2.0","0","0","59860","","null","","","null","0","","","","","","","","","","","","","","","",""
"","ISI","","html-keyboard-response","14","155935","0.0-1.0-3.0","0","0","59860","","null","","","null","0","NaN","","","","","","","","","","","","","","",""
"","S2","","html-keyboard-response","15","156087","0.0-1.0-4.0","0","0","59860","","null","","","null","0","","NaN","","","","","","","","","","","","","",""
"","response","","html-keyboard-response","16","157196","0.0-1.0-5.0-0.0","0","0","59860","","1107","","","75","0","","","1","0","training","adjacent","DC","4","3","M.jpg","P.jpg","0","0","1","",""
"","feedback","","html-keyboard-response","17","158198","0.0-1.0-6.0-0.0","0","0","59860","","null","","","null","0","","","","","","","","","","","","","","","",""
"","ITI","","html-keyboard-response","18","159200","0.0-1.0-9.0","0","0","59860","","null","","","null","0","","","","","","","","","","","","","","","NaN",""
"","S1","","html-keyboard-response","19","159353","0.0-1.0-11.0","0","0","59860","","null","","","null","1","","","","","","","","","","","","","","","",""
"","ISI","","html-keyboard-response","20","161355","0.0-1.0-12.0","0","0","59860","","null","","","null","1","NaN","","","","","","","","","","","","","","",""
"","S2","","html-keyboard-response","21","161507","0.0-1.0-13.0","0","0","59860","","null","","","null","1","","NaN","","","","","","","","","","","","","",""
"","response","","html-keyboard-response","22","162206","0.0-1.0-14.0-0.0","0","0","59860","","698","","","75","1","","","1","1","training","adjacent","EF","5","6","O.jpg","L.jpg","0","1","0","",""
"","feedback","","html-keyboard-response","23","163209","0.0-1.0-15.0-0.0","0","0","59860","","null","","","null","1","","","","","","","","","","","","","","","",""
"","time_out","","html-keyboard-response","24","165211","0.0-1.0-17.0-0.0","0","0","59860","","null","","","null","1","","","","","","","","","","","","","","","",""
"","ITI","","html-keyboard-response","25","166213","0.0-1.0-18.0","0","0","59860","","null","","","null","1","","","","","","","","","","","","","","","NaN",""
"","S1","","html-keyboard-response","26","166365","0.0-1.0-20.0","0","0","59860","","null","","","null","2","","","","","","","","","","","","","","","",""
"","ISI","","html-keyboard-response","27","168367","0.0-1.0-21.0","0","0","59860","","null","","","null","2","NaN","","","","","","","","","","","","","","",""
"","S2","","html-keyboard-response","28","168519","0.0-1.0-22.0","0","0","59860","","null","","","null","2","","NaN","","","","","","","","","","","","","",""
"","response","","html-keyboard-response","29","169306","0.0-1.0-23.0-0.0","0","0","59860","","786","","","68","2","","","1","2","training","adjacent","ED","5","4","O.jpg","M.jpg","1","0","0","",""
"","feedback","","html-keyboard-response","30","170308","0.0-1.0-24.0-0.0","0","0","59860","","null","","","null","2","","","","","","","","","","","","","","","",""
"","time_out","","html-keyboard-response","31","172310","0.0-1.0-26.0-0.0","0","0","59860","","null","","","null","2","","","","","","","","","","","","","","","",""
"","ITI","","html-keyboard-response","32","173312","0.0-1.0-27.0","0","0","59860","","null","","","null","2","","","","","","","","","","","","","","","NaN",""
"","S1","","html-keyboard-response","33","173464","0.0-1.0-29.0","0","0","59860","","null","","","null","3","","","","","","","","","","","","","","","",""
"","ISI","","html-keyboard-response","34","175466","0.0-1.0-30.0","0","0","59860","","null","","","null","3","NaN","","","","","","","","","","","","","","",""
"","S2","","html-keyboard-response","35","175619","0.0-1.0-31.0","0","0","59860","","null","","","null","3","","NaN","","","","","","","","","","","","","",""
"","response","","html-keyboard-response","36","176439","0.0-1.0-32.0-0.0","0","0","59860","","819","","","75","3","","","1","3","training","adjacent","AB","1","2","R.jpg","Q.jpg","0","1","0","",""
"","feedback","","html-keyboard-response","37","177442","0.0-1.0-33.0-0.0","0","0","59860","","null","","","null","3","","","","","","","","","","","","","","","",""
"","time_out","","html-keyboard-response","38","179445","0.0-1.0-35.0-0.0","0","0","59860","","null","","","null","3","","","","","","","","","","","","","","","",""
"","ITI","","html-keyboard-response","39","180447","0.0-1.0-36.0","0","0","59860","","null","","","null","3","","","","","","","","","","","","","","","NaN",""
"","S1","","html-keyboard-response","40","180599","0.0-1.0-38.0","0","0","59860","","null","","","null","4","","","","","","","","","","","","","","","",""
"","ISI","","html-keyboard-response","41","182602","0.0-1.0-39.0","0","0","59860","","null","","","null","4","NaN","","","","","","","","","","","","","","",""
"","S2","","html-keyboard-response","42","182753","0.0-1.0-40.0","0","0","59860","","null","","","null","4","","NaN","","","","","","","","","","","","","",""
"","response","","html-keyboard-response","43","183446","0.0-1.0-41.0-0.0","0","0","59860","","691","","","75","4","","","1","4","training","adjacent","BC","2","3","Q.jpg","P.jpg","0","1","0","",""
"","feedback","","html-keyboard-response","44","184449","0.0-1.0-42.0-0.0","0","0","59860","","null","","","null","4","","","","","","","","","","","","","","","",""
"","time_out","","html-keyboard-response","45","186452","0.0-1.0-44.0-0.0","0","0","59860","","null","","","null","4","","","","","","","","","","","","","","","",""
"","ITI","","html-keyboard-response","46","187454","0.0-1.0-45.0","0","0","59860","","null","","","null","4","","","","","","","","","","","","","","","NaN",""
"","S1","","html-keyboard-response","47","187606","0.0-1.0-47.0","0","0","59860","","null","","","null","5","","","","","","","","","","","","","","","",""
"","ISI","","html-keyboard-response","48","189608","0.0-1.0-48.0","0","0","59860","","null","","","null","5","NaN","","","","","","","","","","","","","","",""
"","S2","","html-keyboard-response","49","189761","0.0-1.0-49.0","0","0","59860","","null","","","null","5","","NaN","","","","","","","","","","","","","",""
"","response","","html-keyboard-response","50","190266","0.0-1.0-50.0-0.0","0","0","59860","","504","","","68","5","","","1","5","training","adjacent","FG","6","7","L.jpg","N.jpg","1","1","1","",""
"","feedback","","html-keyboard-response","51","191269","0.0-1.0-51.0-0.0","0","0","59860","","null","","","null","5","","","","","","","","","","","","","","","",""
"","ITI","","html-keyboard-response","52","192270","0.0-1.0-54.0","0","0","59860","","null","","","null","5","","","","","","","","","","","","","","","NaN",""
"","S1","","html-keyboard-response","53","192423","0.0-1.0-56.0","0","0","59860","","null","","","null","6","","","","","","","","","","","","","","","",""
"","ISI","","html-keyboard-response","54","194426","0.0-1.0-57.0","0","0","59860","","null","","","null","6","NaN","","","","","","","","","","","","","","",""
"","S2","","html-keyboard-response","55","194583","0.0-1.0-58.0","0","0","59860","","null","","","null","6","","NaN","","","","","","","","","","","","","",""
"","response","","html-keyboard-response","56","195447","0.0-1.0-59.0-0.0","0","0","59860","","862","","","68","6","","","1","6","training","adjacent","BA","2","1","Q.jpg","R.jpg","1","0","0","",""
"","feedback","","html-keyboard-response","57","196449","0.0-1.0-60.0-0.0","0","0","59860","","null","","","null","6","","","","","","","","","","","","","","","",""
"","time_out","","html-keyboard-response","58","198451","0.0-1.0-62.0-0.0","0","0","59860","","null","","","null","6","","","","","","","","","","","","","","","",""
"","ITI","","html-keyboard-response","59","199453","0.0-1.0-63.0","0","0","59860","","null","","","null","6","","","","","","","","","","","","","","","NaN",""
"","S1","","html-keyboard-response","60","199605","0.0-1.0-65.0","0","0","59860","","null","","","null","7","","","","","","","","","","","","","","","",""
"","ISI","","html-keyboard-response","61","201607","0.0-1.0-66.0","0","0","59860","","null","","","null","7","NaN","","","","","","","","","","","","","","",""
"","S2","","html-keyboard-response","62","201760","0.0-1.0-67.0","0","0","59860","","null","","","null","7","","NaN","","","","","","","","","","","","","",""
"","response","","html-keyboard-response","63","202743","0.0-1.0-68.0-0.0","0","0","59860","","982","","","68","7","","","1","7","training","adjacent","BA","2","1","Q.jpg","R.jpg","1","0","0","",""
"","feedback","","html-keyboard-response","64","203744","0.0-1.0-69.0-0.0","0","0","59860","","null","","","null","7","","","","","","","","","","","","","","","",""
"","time_out","","html-keyboard-response","65","205746","0.0-1.0-71.0-0.0","0","0","59860","","null","","","null","7","","","","","","","","","","","","","","","",""
"","ITI","","html-keyboard-response","66","206749","0.0-1.0-72.0","0","0","59860","","null","","","null","7","","","","","","","","","","","","","","","NaN",""
"","S1","","html-keyboard-response","67","206901","0.0-1.0-74.0","0","0","59860","","null","","","null","8","","","","","","","","","","","","","","","",""
"","ISI","","html-keyboard-response","68","208903","0.0-1.0-75.0","0","0","59860","","null","","","null","8","NaN","","","","","","","","","","","","","","",""
"","S2","","html-keyboard-response","69","209055","0.0-1.0-76.0","0","0","59860","","null","","","null","8","","NaN","","","","","","","","","","","","","",""
"","response","","html-keyboard-response","70","209800","0.0-1.0-77.0-0.0","0","0","59860","","744","","","75","8","","","1","8","training","adjacent","EF","5","6","O.jpg","L.jpg","0","1","0","",""
"","feedback","","html-keyboard-response","71","210803","0.0-1.0-78.0-0.0","0","0","59860","","null","","","null","8","","","","","","","","","","","","","","","",""
"","time_out","","html-keyboard-response","72","212805","0.0-1.0-80.0-0.0","0","0","59860","","null","","","null","8","","","","","","","","","","","","","","","",""
"","ITI","","html-keyboard-response","73","213807","0.0-1.0-81.0","0","0","59860","","null","","","null","8","","","","","","","","","","","","","","","NaN",""
"","S1","","html-keyboard-response","74","213959","0.0-1.0-83.0","0","0","59860","","null","","","null","9","","","","","","","","","","","","","","","",""
"","ISI","","html-keyboard-response","75","215960","0.0-1.0-84.0","0","0","59860","","null","","","null","9","NaN","","","","","","","","","","","","","","",""
"","S2","","html-keyboard-response","76","216112","0.0-1.0-85.0","0","0","59860","","null","","","null","9","","NaN","","","","","","","","","","","","","",""
"","response","","html-keyboard-response","77","217328","0.0-1.0-86.0-0.0","0","0","59860","","1214","","","68","9","","","1","9","training","adjacent","DE","4","5","M.jpg","O.jpg","1","1","1","",""
"","feedback","","html-keyboard-response","78","218330","0.0-1.0-87.0-0.0","0","0","59860","","null","","","null","9","","","","","","","","","","","","","","","",""
"","ITI","","html-keyboard-response","79","219333","0.0-1.0-90.0","0","0","59860","","null","","","null","9","","","","","","","","","","","","","","","NaN",""
"","S1","","html-keyboard-response","80","219485","0.0-1.0-92.0","0","0","59860","","null","","","null","10","","","","","","","","","","","","","","","",""
"","ISI","","html-keyboard-response","81","221487","0.0-1.0-93.0","0","0","59860","","null","","","null","10","NaN","","","","","","","","","","","","","","",""
"","S2","","html-keyboard-response","82","221639","0.0-1.0-94.0","0","0","59860","","null","","","null","10","","NaN","","","","","","","","","","","","","",""
"","response","","html-keyboard-response","83","223009","0.0-1.0-95.0-0.0","0","0","59860","","1368","","","68","10","","","1","10","training","adjacent","DE","4","5","M.jpg","O.jpg","1","1","1","",""
"","feedback","","html-keyboard-response","84","224011","0.0-1.0-96.0-0.0","0","0","59860","","null","","","null","10","","","","","","","","","","","","","","","",""
"","ITI","","html-keyboard-response","85","225023","0.0-1.0-99.0","0","0","59860","","null","","","null","10","","","","","","","","","","","","","","","NaN",""
"","S1","","html-keyboard-response","86","225176","0.0-1.0-101.0","0","0","59860","","null","","","null","11","","","","","","","","","","","","","","","",""
"","ISI","","html-keyboard-response","87","227178","0.0-1.0-102.0","0","0","59860","","null","","","null","11","NaN","","","","","","","","","","","","","","",""
"","S2","","html-keyboard-response","88","227330","0.0-1.0-103.0","0","0","59860","","null","","","null","11","","NaN","","","","","","","","","","","","","",""
"","response","","html-keyboard-response","89","228247","0.0-1.0-104.0-0.0","0","0","59860","","916","","","68","11","","","1","11","training","adjacent","AB","1","2","R.jpg","Q.jpg","1","1","1","",""
"","feedback","","html-keyboard-response","90","229249","0.0-1.0-105.0-0.0","0","0","59860","","null","","","null","11","","","","","","","","","","","","","","","",""
"","ITI","","html-keyboard-response","91","230252","0.0-1.0-108.0","0","0","59860","","null","","","null","11","","","","","","","","","","","","","","","NaN",""
"","S1","","html-keyboard-response","92","230404","0.0-1.0-110.0","0","0","59860","","null","","","null","12","","","","","","","","","","","","","","","",""
"","ISI","","html-keyboard-response","93","232406","0.0-1.0-111.0","0","0","59860","","null","","","null","12","NaN","","","","","","","","","","","","","","",""
"","S2","","html-keyboard-response","94","232558","0.0-1.0-112.0","0","0","59860","","null","","","null","12","","NaN","","","","","","","","","","","","","",""
"","response","","html-keyboard-response","95","233268","0.0-1.0-113.0-0.0","0","0","59860","","708","","","75","12","","","1","12","training","adjacent","GF","7","6","N.jpg","L.jpg","0","0","1","",""
"","feedback","","html-keyboard-response","96","234270","0.0-1.0-114.0-0.0","0","0","59860","","null","","","null","12","","","","","","","","","","","","","","","",""
"","ITI","","html-keyboard-response","97","235272","0.0-1.0-117.0","0","0","59860","","null","","","null","12","","","","","","","","","","","","","","","NaN",""
"","S1","","html-keyboard-response","98","235424","0.0-1.0-119.0","0","0","59860","","null","","","null","13","","","","","","","","","","","","","","","",""
"","ISI","","html-keyboard-response","99","237426","0.0-1.0-120.0","0","0","59860","","null","","","null","13","NaN","","","","","","","","","","","","","","",""
"","S2","","html-keyboard-response","100","237578","0.0-1.0-121.0","0","0","59860","","null","","","null","13","","NaN","","","","","","","","","","","","","",""
"","response","","html-keyboard-response","101","238472","0.0-1.0-122.0-0.0","0","0","59860","","893","","","68","13","","","1","13","training","adjacent","FG","6","7","L.jpg","N.jpg","1","1","1","",""
"","feedback","","html-keyboard-response","102","239474","0.0-1.0-123.0-0.0","0","0","59860","","null","","","null","13","","","","","","","","","","","","","","","",""
"","ITI","","html-keyboard-response","103","240476","0.0-1.0-126.0","0","0","59860","","null","","","null","13","","","","","","","","","","","","","","","NaN",""
"","S1","","html-keyboard-response","104","240628","0.0-1.0-128.0","0","0","59860","","null","","","null","14","","","","","","","","","","","","","","","",""
"","ISI","","html-keyboard-response","105","242629","0.0-1.0-129.0","0","0","59860","","null","","","null","14","NaN","","","","","","","","","","","","","","",""
"","S2","","html-keyboard-response","106","242782","0.0-1.0-130.0","0","0","59860","","null","","","null","14","","NaN","","","","","","","","","","","","","",""
"","response","","html-keyboard-response","107","243342","0.0-1.0-131.0-0.0","0","0","59860","","559","","","68","14","","","1","14","training","adjacent","FE","6","5","L.jpg","O.jpg","1","0","0","",""
"","feedback","","html-keyboard-response","108","244353","0.0-1.0-132.0-0.0","0","0","59860","","null","","","null","14","","","","","","","","","","","","","","","",""
"","time_out","","html-keyboard-response","109","246356","0.0-1.0-134.0-0.0","0","0","59860","","null","","","null","14","","","","","","","","","","","","","","","",""
"","ITI","","html-keyboard-response","110","247358","0.0-1.0-135.0","0","0","59860","","null","","","null","14","","","","","","","","","","","","","","","NaN",""
"","S1","","html-keyboard-response","111","247510","0.0-1.0-137.0","0","0","59860","","null","","","null","15","","","","","","","","","","","","","","","",""
"","ISI","","html-keyboard-response","112","249512","0.0-1.0-138.0","0","0","59860","","null","","","null","15","NaN","","","","","","","","","","","","","","",""
"","S2","","html-keyboard-response","113","249664","0.0-1.0-139.0","0","0","59860","","null","","","null","15","","NaN","","","","","","","","","","","","","",""
"","response","","html-keyboard-response","114","250368","0.0-1.0-140.0-0.0","0","0","59860","","703","","","75","15","","","1","15","training","adjacent","BC","2","3","Q.jpg","P.jpg","0","1","0","",""
"","feedback","","html-keyboard-response","115","251371","0.0-1.0-141.0-0.0","0","0","59860","","null","","","null","15","","","","","","","","","","","","","","","",""
"","time_out","","html-keyboard-response","116","253373","0.0-1.0-143.0-0.0","0","0","59860","","null","","","null","15","","","","","","","","","","","","","","","",""
"","ITI","","html-keyboard-response","117","254375","0.0-1.0-144.0","0","0","59860","","null","","","null","15","","","","","","","","","","","","","","","NaN",""
"","S1","","html-keyboard-response","118","254527","0.0-1.0-146.0","0","0","59860","","null","","","null","16","","","","","","","","","","","","","","","",""
"","ISI","","html-keyboard-response","119","256529","0.0-1.0-147.0","0","0","59860","","null","","","null","16","NaN","","","","","","","","","","","","","","",""
"","S2","","html-keyboard-response","120","256682","0.0-1.0-148.0","0","0","59860","","null","","","null","16","","NaN","","","","","","","","","","","","","",""
"","response","","html-keyboard-response","121","257549","0.0-1.0-149.0-0.0","0","0","59860","","867","","","68","16","","","1","16","training","adjacent","ED","5","4","O.jpg","M.jpg","1","0","0","",""
"","feedback","","html-keyboard-response","122","258551","0.0-1.0-150.0-0.0","0","0","59860","","null","","","null","16","","","","","","","","","","","","","","","",""
"","time_out","","html-keyboard-response","123","260553","0.0-1.0-152.0-0.0","0","0","59860","","null","","","null","16","","","","","","","","","","","","","","","",""
"","ITI","","html-keyboard-response","124","261556","0.0-1.0-153.0","0","0","59860","","null","","","null","16","","","","","","","","","","","","","","","NaN",""
"","S1","","html-keyboard-response","125","261708","0.0-1.0-155.0","0","0","59860","","null","","","null","17","","","","","","","","","","","","","","","",""
"","ISI","","html-keyboard-response","126","263710","0.0-1.0-156.0","0","0","59860","","null","","","null","17","NaN","","","","","","","","","","","","","","",""
"","S2","","html-keyboard-response","127","263862","0.0-1.0-157.0","0","0","59860","","null","","","null","17","","NaN","","","","","","","","","","","","","",""
"","response","","html-keyboard-response","128","264534","0.0-1.0-158.0-0.0","0","0","59860","","671","","","75","17","","","1","17","training","adjacent","BA","2","1","Q.jpg","R.jpg","0","0","1","",""
"","feedback","","html-keyboard-response","129","265536","0.0-1.0-159.0-0.0","0","0","59860","","null","","","null","17","","","","","","","","","","","","","","","",""
"","ITI","","html-keyboard-response","130","266539","0.0-1.0-162.0","0","0","59860","","null","","","null","17","","","","","","","","","","","","","","","NaN",""
"","S1","","html-keyboard-response","131","266691","0.0-1.0-164.0","0","0","59860","","null","","","null","18","","","","","","","","","","","","","","","",""
"","ISI","","html-keyboard-response","132","268693","0.0-1.0-165.0","0","0","59860","","null","","","null","18","NaN","","","","","","","","","","","","","","",""
"","S2","","html-keyboard-response","133","268846","0.0-1.0-166.0","0","0","59860","","null","","","null","18","","NaN","","","","","","","","","","","","","",""
"","response","","html-keyboard-response","134","269650","0.0-1.0-167.0-0.0","0","0","59860","","803","","","68","18","","","1","18","training","adjacent","CB","3","2","P.jpg","Q.jpg","1","0","0","",""
"","feedback","","html-keyboard-response","135","270653","0.0-1.0-168.0-0.0","0","0","59860","","null","","","null","18","","","","","","","","","","","","","","","",""
"","time_out","","html-keyboard-response","136","272655","0.0-1.0-170.0-0.0","0","0","59860","","null","","","null","18","","","","","","","","","","","","","","","",""
"","ITI","","html-keyboard-response","137","273657","0.0-1.0-171.0","0","0","59860","","null","","","null","18","","","","","","","","","","","","","","","NaN",""
"","S1","","html-keyboard-response","138","273809","0.0-1.0-173.0","0","0","59860","","null","","","null","19","","","","","","","","","","","","","","","",""
"","ISI","","html-keyboard-response","139","275811","0.0-1.0-174.0","0","0","59860","","null","","","null","19","NaN","","","","","","","","","","","","","","",""
"","S2","","html-keyboard-response","140","275965","0.0-1.0-175.0","0","0","59860","","null","","","null","19","","NaN","","","","","","","","","","","","","",""
"","response","","html-keyboard-response","141","276765","0.0-1.0-176.0-0.0","0","0","59860","","799","","","68","19","","","1","19","training","adjacent","DE","4","5","M.jpg","O.jpg","1","1","1","",""
"","feedback","","html-keyboard-response","142","277768","0.0-1.0-177.0-0.0","0","0","59860","","null","","","null","19","","","","","","","","","","","","","","","",""
"","ITI","","html-keyboard-response","143","278771","0.0-1.0-180.0","0","0","59860","","null","","","null","19","","","","","","","","","","","","","","","NaN",""
"","S1","","html-keyboard-response","144","278923","0.0-1.0-182.0","0","0","59860","","null","","","null","20","","","","","","","","","","","","","","","",""
"","ISI","","html-keyboard-response","145","280925","0.0-1.0-183.0","0","0","59860","","null","","","null","20","NaN","","","","","","","","","","","","","","",""
"","S2","","html-keyboard-response","146","281077","0.0-1.0-184.0","0","0","59860","","null","","","null","20","","NaN","","","","","","","","","","","","","",""
"","response","","html-keyboard-response","147","281944","0.0-1.0-185.0-0.0","0","0","59860","","866","","","68","20","","","1","20","training","adjacent","BC","2","3","Q.jpg","P.jpg","1","1","1","",""
"","feedback","","html-keyboard-response","148","282946","0.0-1.0-186.0-0.0","0","0","59860","","null","","","null","20","","","","","","","","","","","","","","","",""
"","ITI","","html-keyboard-response","149","283948","0.0-1.0-189.0","0","0","59860","","null","","","null","20","","","","","","","","","","","","","","","NaN",""
"","S1","","html-keyboard-response","150","284101","0.0-1.0-191.0","0","0","59860","","null","","","null","21","","","","","","","","","","","","","","","",""
"","ISI","","html-keyboard-response","151","286103","0.0-1.0-192.0","0","0","59860","","null","","","null","21","NaN","","","","","","","","","","","","","","",""
"","S2","","html-keyboard-response","152","286255","0.0-1.0-193.0","0","0","59860","","null","","","null","21","","NaN","","","","","","","","","","","","","",""
"","response","","html-keyboard-response","153","286852","0.0-1.0-194.0-0.0","0","0","59860","","596","","","75","21","","","1","21","training","adjacent","EF","5","6","O.jpg","L.jpg","0","1","0","",""
"","feedback","","html-keyboard-response","154","287854","0.0-1.0-195.0-0.0","0","0","59860","","null","","","null","21","","","","","","","","","","","","","","","",""
"","time_out","","html-keyboard-response","155","289856","0.0-1.0-197.0-0.0","0","0","59860","","null","","","null","21","","","","","","","","","","","","","","","",""
"","ITI","","html-keyboard-response","156","290859","0.0-1.0-198.0","0","0","59860","","null","","","null","21","","","","","","","","","","","","","","","NaN",""
"","S1","","html-keyboard-response","157","291011","0.0-1.0-200.0","0","0","59860","","null","","","null","22","","","","","","","","","","","","","","","",""
"","ISI","","html-keyboard-response","158","293013","0.0-1.0-201.0","0","0","59860","","null","","","null","22","NaN","","","","","","","","","","","","","","",""
"","S2","","html-keyboard-response","159","293165","0.0-1.0-202.0","0","0","59860","","null","","","null","22","","NaN","","","","","","","","","","","","","",""
"","response","","html-keyboard-response","160","294003","0.0-1.0-203.0-0.0","0","0","59860","","836","","","68","22","","","1","22","training","adjacent","DC","4","3","M.jpg","P.jpg","1","0","0","",""
"","feedback","","html-keyboard-response","161","295009","0.0-1.0-204.0-0.0","0","0","59860","","null","","","null","22","","","","","","","","","","","","","","","",""
"","time_out","","html-keyboard-response","162","297013","0.0-1.0-206.0-0.0","0","0","59860","","null","","","null","22","","","","","","","","","","","","","","","",""
"","ITI","","html-keyboard-response","163","298014","0.0-1.0-207.0","0","0","59860","","null","","","null","22","","","","","","","","","","","","","","","NaN",""
"","S1","","html-keyboard-response","164","298166","0.0-1.0-209.0","0","0","59860","","null","","","null","23","","","","","","","","","","","","","","","",""
"","ISI","","html-keyboard-response","165","300169","0.0-1.0-210.0","0","0","59860","","null","","","null","23","NaN","","","","","","","","","","","","","","",""
"","S2","","html-keyboard-response","166","300321","0.0-1.0-211.0","0","0","59860","","null","","","null","23","","NaN","","","","","","","","","","","","","",""
"","response","","html-keyboard-response","167","300941","0.0-1.0-212.0-0.0","0","0","59860","","619","","","68","23","","","1","23","training","adjacent","FE","6","5","L.jpg","O.jpg","1","0","0","",""
"","feedback","","html-keyboard-response","168","301943","0.0-1.0-213.0-0.0","0","0","59860","","null","","","null","23","","","","","","","","","","","","","","","",""
"","time_out","","html-keyboard-response","169","303945","0.0-1.0-215.0-0.0","0","0","59860","","null","","","null","23","","","","","","","","","","","","","","","",""
"","ITI","","html-keyboard-response","170","304947","0.0-1.0-216.0","0","0","59860","","null","","","null","23","","","","","","","","","","","","","","","NaN",""
"","S1","","html-keyboard-response","171","305099","0.0-1.0-218.0","0","0","59860","","null","","","null","24","","","","","","","","","","","","","","","",""
"","ISI","","html-keyboard-response","172","307101","0.0-1.0-219.0","0","0","59860","","null","","","null","24","NaN","","","","","","","","","","","","","","",""
"","S2","","html-keyboard-response","173","307253","0.0-1.0-220.0","0","0","59860","","null","","","null","24","","NaN","","","","","","","","","","","","","",""
"","response","","html-keyboard-response","174","308189","0.0-1.0-221.0-0.0","0","0","59860","","935","","","68","24","","","1","24","training","adjacent","DE","4","5","M.jpg","O.jpg","1","1","1","",""
"","feedback","","html-keyboard-response","175","309191","0.0-1.0-222.0-0.0","0","0","59860","","null","","","null","24","","","","","","","","","","","","","","","",""
"","ITI","","html-keyboard-response","176","310193","0.0-1.0-225.0","0","0","59860","","null","","","null","24","","","","","","","","","","","","","","","NaN",""
"","S1","","html-keyboard-response","177","310345","0.0-1.0-227.0","0","0","59860","","null","","","null","25","","","","","","","","","","","","","","","",""
"","ISI","","html-keyboard-response","178","312347","0.0-1.0-228.0","0","0","59860","","null","","","null","25","NaN","","","","","","","","","","","","","","",""
"","S2","","html-keyboard-response","179","312499","0.0-1.0-229.0","0","0","59860","","null","","","null","25","","NaN","","","","","","","","","","","","","",""
"","response","","html-keyboard-response","180","313150","0.0-1.0-230.0-0.0","0","0","59860","","650","","","75","25","","","1","25","training","adjacent","GF","7","6","N.jpg","L.jpg","0","0","1","",""
"","feedback","","html-keyboard-response","181","314153","0.0-1.0-231.0-0.0","0","0","59860","","null","","","null","25","","","","","","","","","","","","","","","",""
"","ITI","","html-keyboard-response","182","315156","0.0-1.0-234.0","0","0","59860","","null","","","null","25","","","","","","","","","","","","","","","NaN",""
"","S1","","html-keyboard-response","183","315308","0.0-1.0-236.0","0","0","59860","","null","","","null","26","","","","","","","","","","","","","","","",""
"","ISI","","html-keyboard-response","184","317310","0.0-1.0-237.0","0","0","59860","","null","","","null","26","NaN","","","","","","","","","","","","","","",""
"","S2","","html-keyboard-response","185","317462","0.0-1.0-238.0","0","0","59860","","null","","","null","26","","NaN","","","","","","","","","","","","","",""
"","response","","html-keyboard-response","186","318289","0.0-1.0-239.0-0.0","0","0","59860","","825","","","75","26","","","1","26","training","adjacent","CD","3","4","P.jpg","M.jpg","0","1","0","",""
"","feedback","","html-keyboard-response","187","319292","0.0-1.0-240.0-0.0","0","0","59860","","null","","","null","26","","","","","","","","","","","","","","","",""
"","time_out","","html-keyboard-response","188","321295","0.0-1.0-242.0-0.0","0","0","59860","","null","","","null","26","","","","","","","","","","","","","","","",""
"","ITI","","html-keyboard-response","189","322297","0.0-1.0-243.0","0","0","59860","","null","","","null","26","","","","","","","","","","","","","","","NaN",""
"","S1","","html-keyboard-response","190","322449","0.0-1.0-245.0","0","0","59860","","null","","","null","27","","","","","","","","","","","","","","","",""
"","ISI","","html-keyboard-response","191","324451","0.0-1.0-246.0","0","0","59860","","null","","","null","27","NaN","","","","","","","","","","","","","","",""
"","S2","","html-keyboard-response","192","324614","0.0-1.0-247.0","0","0","59860","","null","","","null","27","","NaN","","","","","","","","","","","","","",""
"","response","","html-keyboard-response","193","325244","0.0-1.0-248.0-0.0","0","0","59860","","628","","","68","27","","","1","27","training","adjacent","FG","6","7","L.jpg","N.jpg","1","1","1","",""
"","feedback","","html-keyboard-response","194","326247","0.0-1.0-249.0-0.0","0","0","59860","","null","","","null","27","","","","","","","","","","","","","","","",""
"","ITI","","html-keyboard-response","195","327250","0.0-1.0-252.0","0","0","59860","","null","","","null","27","","","","","","","","","","","","","","","NaN",""
"","S1","","html-keyboard-response","196","327402","0.0-1.0-254.0","0","0","59860","","null","","","null","28","","","","","","","","","","","","","","","",""
"","ISI","","html-keyboard-response","197","329405","0.0-1.0-255.0","0","0","59860","","null","","","null","28","NaN","","","","","","","","","","","","","","",""
"","S2","","html-keyboard-response","198","329557","0.0-1.0-256.0","0","0","59860","","null","","","null","28","","NaN","","","","","","","","","","","","","",""
"","response","","html-keyboard-response","199","330600","0.0-1.0-257.0-0.0","0","0","59860","","1042","","","75","28","","","1","28","training","adjacent","CD","3","4","P.jpg","M.jpg","0","1","0","",""
"","feedback","","html-keyboard-response","200","331603","0.0-1.0-258.0-0.0","0","0","59860","","null","","","null","28","","","","","","","","","","","","","","","",""
"","time_out","","html-keyboard-response","201","333605","0.0-1.0-260.0-0.0","0","0","59860","","null","","","null","28","","","","","","","","","","","","","","","",""
"","ITI","","html-keyboard-response","202","334607","0.0-1.0-261.0","0","0","59860","","null","","","null","28","","","","","","","","","","","","","","","NaN",""
"","S1","","html-keyboard-response","203","334760","0.0-1.0-263.0","0","0","59860","","null","","","null","29","","","","","","","","","","","","","","","",""
"","ISI","","html-keyboard-response","204","336761","0.0-1.0-264.0","0","0","59860","","null","","","null","29","NaN","","","","","","","","","","","","","","",""
"","S2","","html-keyboard-response","205","336918","0.0-1.0-265.0","0","0","59860","","null","","","null","29","","NaN","","","","","","","","","","","","","",""
"","response","","html-keyboard-response","206","338188","0.0-1.0-266.0-0.0","0","0","59860","","1269","","","68","29","","","1","29","training","adjacent","CB","3","2","P.jpg","Q.jpg","1","0","0","",""
"","feedback","","html-keyboard-response","207","339191","0.0-1.0-267.0-0.0","0","0","59860","","null","","","null","29","","","","","","","","","","","","","","","",""
"","time_out","","html-keyboard-response","208","341193","0.0-1.0-269.0-0.0","0","0","59860","","null","","","null","29","","","","","","","","","","","","","","","",""
"","ITI","","html-keyboard-response","209","342194","0.0-1.0-270.0","0","0","59860","","null","","","null","29","","","","","","","","","","","","","","","NaN",""
"","S1","","html-keyboard-response","210","342347","0.0-1.0-272.0","0","0","59860","","null","","","null","30","","","","","","","","","","","","","","","",""
"","ISI","","html-keyboard-response","211","344349","0.0-1.0-273.0","0","0","59860","","null","","","null","30","NaN","","","","","","","","","","","","","","",""
"","S2","","html-keyboard-response","212","344501","0.0-1.0-274.0","0","0","59860","","null","","","null","30","","NaN","","","","","","","","","","","","","",""
"","response","","html-keyboard-response","213","345226","0.0-1.0-275.0-0.0","0","0","59860","","724","","","68","30","","","1","30","training","adjacent","FE","6","5","L.jpg","O.jpg","1","0","0","",""
"","feedback","","html-keyboard-response","214","346229","0.0-1.0-276.0-0.0","0","0","59860","","null","","","null","30","","","","","","","","","","","","","","","",""
"","time_out","","html-keyboard-response","215","348231","0.0-1.0-278.0-0.0","0","0","59860","","null","","","null","30","","","","","","","","","","","","","","","",""
"","ITI","","html-keyboard-response","216","349233","0.0-1.0-279.0","0","0","59860","","null","","","null","30","","","","","","","","","","","","","","","NaN",""
"","S1","","html-keyboard-response","217","349385","0.0-1.0-281.0","0","0","59860","","null","","","null","31","","","","","","","","","","","","","","","",""
"","ISI","","html-keyboard-response","218","351387","0.0-1.0-282.0","0","0","59860","","null","","","null","31","NaN","","","","","","","","","","","","","","",""
"","S2","","html-keyboard-response","219","351539","0.0-1.0-283.0","0","0","59860","","null","","","null","31","","NaN","","","","","","","","","","","","","",""
"","response","","html-keyboard-response","220","352058","0.0-1.0-284.0-0.0","0","0","59860","","518","","","68","31","","","1","31","training","adjacent","CD","3","4","P.jpg","M.jpg","1","1","1","",""
"","feedback","","html-keyboard-response","221","353062","0.0-1.0-285.0-0.0","0","0","59860","","null","","","null","31","","","","","","","","","","","","","","","",""
"","ITI","","html-keyboard-response","222","354065","0.0-1.0-288.0","0","0","59860","","null","","","null","31","","","","","","","","","","","","","","","NaN",""
"","S1","","html-keyboard-response","223","354216","0.0-1.0-290.0","0","0","59860","","null","","","null","32","","","","","","","","","","","","","","","",""
"","ISI","","html-keyboard-response","224","356227","0.0-1.0-291.0","0","0","59860","","null","","","null","32","NaN","","","","","","","","","","","","","","",""
"","S2","","html-keyboard-response","225","356379","0.0-1.0-292.0","0","0","59860","","null","","","null","32","","NaN","","","","","","","","","","","","","",""
"","response","","html-keyboard-response","226","356927","0.0-1.0-293.0-0.0","0","0","59860","","546","","","75","32","","","1","32","training","adjacent","GF","7","6","N.jpg","L.jpg","0","0","1","",""
"","feedback","","html-keyboard-response","227","357929","0.0-1.0-294.0-0.0","0","0","59860","","null","","","null","32","","","","","","","","","","","","","","","",""
"","ITI","","html-keyboard-response","228","358932","0.0-1.0-297.0","0","0","59860","","null","","","null","32","","","","","","","","","","","","","","","NaN",""
"","S1","","html-keyboard-response","229","359084","0.0-1.0-299.0","0","0","59860","","null","","","null","33","","","","","","","","","","","","","","","",""
"","ISI","","html-keyboard-response","230","361087","0.0-1.0-300.0","0","0","59860","","null","","","null","33","NaN","","","","","","","","","","","","","","",""
"","S2","","html-keyboard-response","231","361239","0.0-1.0-301.0","0","0","59860","","null","","","null","33","","NaN","","","","","","","","","","","","","",""
"","response","","html-keyboard-response","232","361955","0.0-1.0-302.0-0.0","0","0","59860","","715","","","75","33","","","1","33","training","adjacent","ED","5","4","O.jpg","M.jpg","0","0","1","",""
"","feedback","","html-keyboard-response","233","362957","0.0-1.0-303.0-0.0","0","0","59860","","null","","","null","33","","","","","","","","","","","","","","","",""
"","ITI","","html-keyboard-response","234","363959","0.0-1.0-306.0","0","0","59860","","null","","","null","33","","","","","","","","","","","","","","","NaN",""
"","S1","","html-keyboard-response","235","364111","0.0-1.0-308.0","0","0","59860","","null","","","null","34","","","","","","","","","","","","","","","",""
"","ISI","","html-keyboard-response","236","366113","0.0-1.0-309.0","0","0","59860","","null","","","null","34","NaN","","","","","","","","","","","","","","",""
"","S2","","html-keyboard-response","237","366265","0.0-1.0-310.0","0","0","59860","","null","","","null","34","","NaN","","","","","","","","","","","","","",""
"","response","","html-keyboard-response","238","367094","0.0-1.0-311.0-0.0","0","0","59860","","827","","","68","34","","","1","34","training","adjacent","AB","1","2","R.jpg","Q.jpg","1","1","1","",""
"","feedback","","html-keyboard-response","239","368097","0.0-1.0-312.0-0.0","0","0","59860","","null","","","null","34","","","","","","","","","","","","","","","",""
"","ITI","","html-keyboard-response","240","369099","0.0-1.0-315.0","0","0","59860","","null","","","null","34","","","","","","","","","","","","","","","NaN",""
"","S1","","html-keyboard-response","241","369252","0.0-1.0-317.0","0","0","59860","","null","","","null","35","","","","","","","","","","","","","","","",""
"","ISI","","html-keyboard-response","242","371254","0.0-1.0-318.0","0","0","59860","","null","","","null","35","NaN","","","","","","","","","","","","","","",""
"","S2","","html-keyboard-response","243","371407","0.0-1.0-319.0","0","0","59860","","null","","","null","35","","NaN","","","","","","","","","","","","","",""
"","response","","html-keyboard-response","244","372428","0.0-1.0-320.0-0.0","0","0","59860","","1020","","","68","35","","","1","35","training","adjacent","CB","3","2","P.jpg","Q.jpg","1","0","0","",""
"","feedback","","html-keyboard-response","245","373430","0.0-1.0-321.0-0.0","0","0","59860","","null","","","null","35","","","","","","","","","","","","","","","",""
"","time_out","","html-keyboard-response","246","375431","0.0-1.0-323.0-0.0","0","0","59860","","null","","","null","35","","","","","","","","","","","","","","","",""
"","ITI","","html-keyboard-response","247","376433","0.0-1.0-324.0","0","0","59860","","null","","","null","35","","","","","","","","","","","","","","","NaN",""
"","S1","","html-keyboard-response","248","376585","0.0-1.0-326.0","0","0","59860","","null","","","null","36","","","","","","","","","","","","","","","",""
"","ISI","","html-keyboard-response","249","378587","0.0-1.0-327.0","0","0","59860","","null","","","null","36","NaN","","","","","","","","","","","","","","",""
"","S2","","html-keyboard-response","250","378739","0.0-1.0-328.0","0","0","59860","","null","","","null","36","","NaN","","","","","","","","","","","","","",""
"","response","","html-keyboard-response","251","379489","0.0-1.0-329.0-0.0","0","0","59860","","748","","","75","36","","","1","36","training","adjacent","GF","7","6","N.jpg","L.jpg","0","0","1","",""
"","feedback","","html-keyboard-response","252","380491","0.0-1.0-330.0-0.0","0","0","59860","","null","","","null","36","","","","","","","","","","","","","","","",""
"","ITI","","html-keyboard-response","253","381494","0.0-1.0-333.0","0","0","59860","","null","","","null","36","","","","","","","","","","","","","","","NaN",""
"","S1","","html-keyboard-response","254","381646","0.0-1.0-335.0","0","0","59860","","null","","","null","37","","","","","","","","","","","","","","","",""
"","ISI","","html-keyboard-response","255","383648","0.0-1.0-336.0","0","0","59860","","null","","","null","37","NaN","","","","","","","","","","","","","","",""
"","S2","","html-keyboard-response","256","383800","0.0-1.0-337.0","0","0","59860","","null","","","null","37","","NaN","","","","","","","","","","","","","",""
"","response","","html-keyboard-response","257","384811","0.0-1.0-338.0-0.0","0","0","59860","","1010","","","68","37","","","1","37","training","adjacent","CB","3","2","P.jpg","Q.jpg","1","0","0","",""
"","feedback","","html-keyboard-response","258","385830","0.0-1.0-339.0-0.0","0","0","59860","","null","","","null","37","","","","","","","","","","","","","","","",""
"","time_out","","html-keyboard-response","259","387832","0.0-1.0-341.0-0.0","0","0","59860","","null","","","null","37","","","","","","","","","","","","","","","",""
"","ITI","","html-keyboard-response","260","388834","0.0-1.0-342.0","0","0","59860","","null","","","null","37","","","","","","","","","","","","","","","NaN",""
"","S1","","html-keyboard-response","261","388987","0.0-1.0-344.0","0","0","59860","","null","","","null","38","","","","","","","","","","","","","","","",""
"","ISI","","html-keyboard-response","262","390989","0.0-1.0-345.0","0","0","59860","","null","","","null","38","NaN","","","","","","","","","","","","","","",""
"","S2","","html-keyboard-response","263","391141","0.0-1.0-346.0","0","0","59860","","null","","","null","38","","NaN","","","","","","","","","","","","","",""
"","response","","html-keyboard-response","264","392055","0.0-1.0-347.0-0.0","0","0","59860","","913","","","75","38","","","1","38","training","adjacent","FE","6","5","L.jpg","O.jpg","0","0","1","",""
"","feedback","","html-keyboard-response","265","393058","0.0-1.0-348.0-0.0","0","0","59860","","null","","","null","38","","","","","","","","","","","","","","","",""
"","ITI","","html-keyboard-response","266","394067","0.0-1.0-351.0","0","0","59860","","null","","","null","38","","","","","","","","","","","","","","","NaN",""
"","S1","","html-keyboard-response","267","394219","0.0-1.0-353.0","0","0","59860","","null","","","null","39","","","","","","","","","","","","","","","",""
"","ISI","","html-keyboard-response","268","396221","0.0-1.0-354.0","0","0","59860","","null","","","null","39","NaN","","","","","","","","","","","","","","",""
"","S2","","html-keyboard-response","269","396374","0.0-1.0-355.0","0","0","59860","","null","","","null","39","","NaN","","","","","","","","","","","","","",""
"","response","","html-keyboard-response","270","397301","0.0-1.0-356.0-0.0","0","0","59860","","926","","","68","39","","","1","39","training","adjacent","AB","1","2","R.jpg","Q.jpg","1","1","1","",""
"","feedback","","html-keyboard-response","271","398304","0.0-1.0-357.0-0.0","0","0","59860","","null","","","null","39","","","","","","","","","","","","","","","",""
"","ITI","","html-keyboard-response","272","399305","0.0-1.0-360.0","0","0","59860","","null","","","null","39","","","","","","","","","","","","","","","NaN",""
"","S1","","html-keyboard-response","273","399458","0.0-1.0-362.0","0","0","59860","","null","","","null","40","","","","","","","","","","","","","","","",""
"","ISI","","html-keyboard-response","274","401460","0.0-1.0-363.0","0","0","59860","","null","","","null","40","NaN","","","","","","","","","","","","","","",""
"","S2","","html-keyboard-response","275","401612","0.0-1.0-364.0","0","0","59860","","null","","","null","40","","NaN","","","","","","","","","","","","","",""
"","response","","html-keyboard-response","276","402880","0.0-1.0-365.0-0.0","0","0","59860","","1267","","","68","40","","","1","40","training","adjacent","FG","6","7","L.jpg","N.jpg","1","1","1","",""
"","feedback","","html-keyboard-response","277","403883","0.0-1.0-366.0-0.0","0","0","59860","","null","","","null","40","","","","","","","","","","","","","","","",""
"","ITI","","html-keyboard-response","278","404886","0.0-1.0-369.0","0","0","59860","","null","","","null","40","","","","","","","","","","","","","","","NaN",""
"","S1","","html-keyboard-response","279","405037","0.0-1.0-371.0","0","0","59860","","null","","","null","41","","","","","","","","","","","","","","","",""
"","ISI","","html-keyboard-response","280","407039","0.0-1.0-372.0","0","0","59860","","null","","","null","41","NaN","","","","","","","","","","","","","","",""
"","S2","","html-keyboard-response","281","407192","0.0-1.0-373.0","0","0","59860","","null","","","null","41","","NaN","","","","","","","","","","","","","",""
"","response","","html-keyboard-response","282","408292","0.0-1.0-374.0-0.0","0","0","59860","","1099","","","75","41","","","1","41","training","adjacent","BA","2","1","Q.jpg","R.jpg","0","0","1","",""
"","feedback","","html-keyboard-response","283","409294","0.0-1.0-375.0-0.0","0","0","59860","","null","","","null","41","","","","","","","","","","","","","","","",""
"","ITI","","html-keyboard-response","284","410306","0.0-1.0-378.0","0","0","59860","","null","","","null","41","","","","","","","","","","","","","","","NaN",""
"","S1","","html-keyboard-response","285","410458","0.0-1.0-380.0","0","0","59860","","null","","","null","42","","","","","","","","","","","","","","","",""
"","ISI","","html-keyboard-response","286","412461","0.0-1.0-381.0","0","0","59860","","null","","","null","42","NaN","","","","","","","","","","","","","","",""
"","S2","","html-keyboard-response","287","412613","0.0-1.0-382.0","0","0","59860","","null","","","null","42","","NaN","","","","","","","","","","","","","",""
"","response","","html-keyboard-response","288","413467","0.0-1.0-383.0-0.0","0","0","59860","","854","","","68","42","","","1","42","training","adjacent","BC","2","3","Q.jpg","P.jpg","1","1","1","",""
"","feedback","","html-keyboard-response","289","414469","0.0-1.0-384.0-0.0","0","0","59860","","null","","","null","42","","","","","","","","","","","","","","","",""
"","ITI","","html-keyboard-response","290","415471","0.0-1.0-387.0","0","0","59860","","null","","","null","42","","","","","","","","","","","","","","","NaN",""
"","S1","","html-keyboard-response","291","415623","0.0-1.0-389.0","0","0","59860","","null","","","null","43","","","","","","","","","","","","","","","",""
"","ISI","","html-keyboard-response","292","417625","0.0-1.0-390.0","0","0","59860","","null","","","null","43","NaN","","","","","","","","","","","","","","",""
"","S2","","html-keyboard-response","293","417777","0.0-1.0-391.0","0","0","59860","","null","","","null","43","","NaN","","","","","","","","","","","","","",""
"","response","","html-keyboard-response","294","418817","0.0-1.0-392.0-0.0","0","0","59860","","1038","","","68","43","","","1","43","training","adjacent","CD","3","4","P.jpg","M.jpg","1","1","1","",""
"","feedback","","html-keyboard-response","295","419821","0.0-1.0-393.0-0.0","0","0","59860","","null","","","null","43","","","","","","","","","","","","","","","",""
"","ITI","","html-keyboard-response","296","420823","0.0-1.0-396.0","0","0","59860","","null","","","null","43","","","","","","","","","","","","","","","NaN",""
"","S1","","html-keyboard-response","297","420976","0.0-1.0-398.0","0","0","59860","","null","","","null","44","","","","","","","","","","","","","","","",""
"","ISI","","html-keyboard-response","298","422977","0.0-1.0-399.0","0","0","59860","","null","","","null","44","NaN","","","","","","","","","","","","","","",""
"","S2","","html-keyboard-response","299","423129","0.0-1.0-400.0","0","0","59860","","null","","","null","44","","NaN","","","","","","","","","","","","","",""
"","response","","html-keyboard-response","300","423859","0.0-1.0-401.0-0.0","0","0","59860","","728","","","75","44","","","1","44","training","adjacent","ED","5","4","O.jpg","M.jpg","0","0","1","",""
"","feedback","","html-keyboard-response","301","424861","0.0-1.0-402.0-0.0","0","0","59860","","null","","","null","44","","","","","","","","","","","","","","","",""
"","ITI","","html-keyboard-response","302","425864","0.0-1.0-405.0","0","0","59860","","null","","","null","44","","","","","","","","","","","","","","","NaN",""
"","S1","","html-keyboard-response","303","426016","0.0-1.0-407.0","0","0","59860","","null","","","null","45","","","","","","","","","","","","","","","",""
"","ISI","","html-keyboard-response","304","428018","0.0-1.0-408.0","0","0","59860","","null","","","null","45","NaN","","","","","","","","","","","","","","",""
"","S2","","html-keyboard-response","305","428170","0.0-1.0-409.0","0","0","59860","","null","","","null","45","","NaN","","","","","","","","","","","","","",""
"","response","","html-keyboard-response","306","429045","0.0-1.0-410.0-0.0","0","0","59860","","874","","","75","45","","","1","45","training","adjacent","DC","4","3","M.jpg","P.jpg","0","0","1","",""
"","feedback","","html-keyboard-response","307","430047","0.0-1.0-411.0-0.0","0","0","59860","","null","","","null","45","","","","","","","","","","","","","","","",""
"","ITI","","html-keyboard-response","308","431056","0.0-1.0-414.0","0","0","59860","","null","","","null","45","","","","","","","","","","","","","","","NaN",""
"","S1","","html-keyboard-response","309","431208","0.0-1.0-416.0","0","0","59860","","null","","","null","46","","","","","","","","","","","","","","","",""
"","ISI","","html-keyboard-response","310","433210","0.0-1.0-417.0","0","0","59860","","null","","","null","46","NaN","","","","","","","","","","","","","","",""
"","S2","","html-keyboard-response","311","433362","0.0-1.0-418.0","0","0","59860","","null","","","null","46","","NaN","","","","","","","","","","","","","",""
"","response","","html-keyboard-response","312","434631","0.0-1.0-419.0-0.0","0","0","59860","","1267","","","68","46","","","1","46","training","adjacent","DC","4","3","M.jpg","P.jpg","1","0","0","",""
"","feedback","","html-keyboard-response","313","435634","0.0-1.0-420.0-0.0","0","0","59860","","null","","","null","46","","","","","","","","","","","","","","","",""
"","time_out","","html-keyboard-response","314","437636","0.0-1.0-422.0-0.0","0","0","59860","","null","","","null","46","","","","","","","","","","","","","","","",""
"","ITI","","html-keyboard-response","315","438639","0.0-1.0-423.0","0","0","59860","","null","","","null","46","","","","","","","","","","","","","","","NaN",""
"","S1","","html-keyboard-response","316","438791","0.0-1.0-425.0","0","0","59860","","null","","","null","47","","","","","","","","","","","","","","","",""
"","ISI","","html-keyboard-response","317","440793","0.0-1.0-426.0","0","0","59860","","null","","","null","47","NaN","","","","","","","","","","","","","","",""
"","S2","","html-keyboard-response","318","440945","0.0-1.0-427.0","0","0","59860","","null","","","null","47","","NaN","","","","","","","","","","","","","",""
"","response","","html-keyboard-response","319","441662","0.0-1.0-428.0-0.0","0","0","59860","","716","","","68","47","","","1","47","training","adjacent","EF","5","6","O.jpg","L.jpg","1","1","1","",""
"","feedback","","html-keyboard-response","320","442664","0.0-1.0-429.0-0.0","0","0","59860","","null","","","null","47","","","","","","","","","","","","","","","",""
"","ITI","","html-keyboard-response","321","443667","0.0-1.0-432.0","0","0","59860","","null","","","null","47","","","","","","","","","","","","","","","NaN",""
"","block_over","","html-keyboard-response","322","446928","0.0-1.0-433.0-0.0","0","0","59860","","3259","","","32","47","","","","","","","","","","","","","","","",""
"","S1","","html-keyboard-response","323","447080","0.0-1.0-434.0","0","0","59860","","null","","","null","48","","","","","","","","","","","","","","","",""
"","ISI","","html-keyboard-response","324","449083","0.0-1.0-435.0","0","0","59860","","null","","","null","48","NaN","","","","","","","","","","","","","","",""
"","S2","","html-keyboard-response","325","449235","0.0-1.0-436.0","0","0","59860","","null","","","null","48","","NaN","","","","","","","","","","","","","",""
"","response","","html-keyboard-response","326","450392","0.0-1.0-437.0-0.0","0","0","59860","","1156","","","75","48","","","2","48","training","adjacent","CB","3","2","P.jpg","Q.jpg","0","0","1","",""
"","feedback","","html-keyboard-response","327","451394","0.0-1.0-438.0-0.0","0","0","59860","","null","","","null","48","","","","","","","","","","","","","","","",""
"","ITI","","html-keyboard-response","328","452397","0.0-1.0-441.0","0","0","59860","","null","","","null","48","","","","","","","","","","","","","","","NaN",""
"","S1","","html-keyboard-response","329","452549","0.0-1.0-443.0","0","0","59860","","null","","","null","49","","","","","","","","","","","","","","","",""
"","ISI","","html-keyboard-response","330","454551","0.0-1.0-444.0","0","0","59860","","null","","","null","49","NaN","","","","","","","","","","","","","","",""
"","S2","","html-keyboard-response","331","454703","0.0-1.0-445.0","0","0","59860","","null","","","null","49","","NaN","","","","","","","","","","","","","",""
"","response","","html-keyboard-response","332","455636","0.0-1.0-446.0-0.0","0","0","59860","","932","","","68","49","","","2","49","training","adjacent","AB","1","2","R.jpg","Q.jpg","1","1","1","",""
"","feedback","","html-keyboard-response","333","456639","0.0-1.0-447.0-0.0","0","0","59860","","null","","","null","49","","","","","","","","","","","","","","","",""
"","ITI","","html-keyboard-response","334","457641","0.0-1.0-450.0","0","0","59860","","null","","","null","49","","","","","","","","","","","","","","","NaN",""
"","S1","","html-keyboard-response","335","457800","0.0-1.0-452.0","0","0","59860","","null","","","null","50","","","","","","","","","","","","","","","",""
"","ISI","","html-keyboard-response","336","459803","0.0-1.0-453.0","0","0","59860","","null","","","null","50","NaN","","","","","","","","","","","","","","",""
"","S2","","html-keyboard-response","337","459955","0.0-1.0-454.0","0","0","59860","","null","","","null","50","","NaN","","","","","","","","","","","","","",""
"","response","","html-keyboard-response","338","460500","0.0-1.0-455.0-0.0","0","0","59860","","544","","","75","50","","","2","50","training","adjacent","GF","7","6","N.jpg","L.jpg","0","0","1","",""
"","feedback","","html-keyboard-response","339","461503","0.0-1.0-456.0-0.0","0","0","59860","","null","","","null","50","","","","","","","","","","","","","","","",""
"","ITI","","html-keyboard-response","340","462506","0.0-1.0-459.0","0","0","59860","","null","","","null","50","","","","","","","","","","","","","","","NaN",""
"","S1","","html-keyboard-response","341","462658","0.0-1.0-461.0","0","0","59860","","null","","","null","51","","","","","","","","","","","","","","","",""
"","ISI","","html-keyboard-response","342","464661","0.0-1.0-462.0","0","0","59860","","null","","","null","51","NaN","","","","","","","","","","","","","","",""
"","S2","","html-keyboard-response","343","464813","0.0-1.0-463.0","0","0","59860","","null","","","null","51","","NaN","","","","","","","","","","","","","",""
"","response","","html-keyboard-response","344","465577","0.0-1.0-464.0-0.0","0","0","59860","","762","","","75","51","","","2","51","training","adjacent","DC","4","3","M.jpg","P.jpg","0","0","1","",""
"","feedback","","html-keyboard-response","345","466579","0.0-1.0-465.0-0.0","0","0","59860","","null","","","null","51","","","","","","","","","","","","","","","",""
"","ITI","","html-keyboard-response","346","467582","0.0-1.0-468.0","0","0","59860","","null","","","null","51","","","","","","","","","","","","","","","NaN",""
"","S1","","html-keyboard-response","347","467734","0.0-1.0-470.0","0","0","59860","","null","","","null","52","","","","","","","","","","","","","","","",""
"","ISI","","html-keyboard-response","348","469736","0.0-1.0-471.0","0","0","59860","","null","","","null","52","NaN","","","","","","","","","","","","","","",""
"","S2","","html-keyboard-response","349","469888","0.0-1.0-472.0","0","0","59860","","null","","","null","52","","NaN","","","","","","","","","","","","","",""
"","response","","html-keyboard-response","350","470543","0.0-1.0-473.0-0.0","0","0","59860","","654","","","75","52","","","2","52","training","adjacent","ED","5","4","O.jpg","M.jpg","0","0","1","",""
"","feedback","","html-keyboard-response","351","471550","0.0-1.0-474.0-0.0","0","0","59860","","null","","","null","52","","","","","","","","","","","","","","","",""
"","ITI","","html-keyboard-response","352","472552","0.0-1.0-477.0","0","0","59860","","null","","","null","52","","","","","","","","","","","","","","","NaN",""
"","S1","","html-keyboard-response","353","472704","0.0-1.0-479.0","0","0","59860","","null","","","null","53","","","","","","","","","","","","","","","",""
"","ISI","","html-keyboard-response","354","474706","0.0-1.0-480.0","0","0","59860","","null","","","null","53","NaN","","","","","","","","","","","","","","",""
"","S2","","html-keyboard-response","355","474859","0.0-1.0-481.0","0","0","59860","","null","","","null","53","","NaN","","","","","","","","","","","","","",""
"","response","","html-keyboard-response","356","475513","0.0-1.0-482.0-0.0","0","0","59860","","653","","","68","53","","","2","53","training","adjacent","FG","6","7","L.jpg","N.jpg","1","1","1","",""
"","feedback","","html-keyboard-response","357","476516","0.0-1.0-483.0-0.0","0","0","59860","","null","","","null","53","","","","","","","","","","","","","","","",""
"","ITI","","html-keyboard-response","358","477519","0.0-1.0-486.0","0","0","59860","","null","","","null","53","","","","","","","","","","","","","","","NaN",""
"","S1","","html-keyboard-response","359","477671","0.0-1.0-488.0","0","0","59860","","null","","","null","54","","","","","","","","","","","","","","","",""
"","ISI","","html-keyboard-response","360","479673","0.0-1.0-489.0","0","0","59860","","null","","","null","54","NaN","","","","","","","","","","","","","","",""
"","S2","","html-keyboard-response","361","479825","0.0-1.0-490.0","0","0","59860","","null","","","null","54","","NaN","","","","","","","","","","","","","",""
"","response","","html-keyboard-response","362","480426","0.0-1.0-491.0-0.0","0","0","59860","","600","","","75","54","","","2","54","training","adjacent","ED","5","4","O.jpg","M.jpg","0","0","1","",""
"","feedback","","html-keyboard-response","363","481429","0.0-1.0-492.0-0.0","0","0","59860","","null","","","null","54","","","","","","","","","","","","","","","",""
"","ITI","","html-keyboard-response","364","482432","0.0-1.0-495.0","0","0","59860","","null","","","null","54","","","","","","","","","","","","","","","NaN",""
"","S1","","html-keyboard-response","365","482584","0.0-1.0-497.0","0","0","59860","","null","","","null","55","","","","","","","","","","","","","","","",""
"","ISI","","html-keyboard-response","366","484586","0.0-1.0-498.0","0","0","59860","","null","","","null","55","NaN","","","","","","","","","","","","","","",""
"","S2","","html-keyboard-response","367","484738","0.0-1.0-499.0","0","0","59860","","null","","","null","55","","NaN","","","","","","","","","","","","","",""
"","response","","html-keyboard-response","368","485630","0.0-1.0-500.0-0.0","0","0","59860","","890","","","75","55","","","2","55","training","adjacent","BC","2","3","Q.jpg","P.jpg","0","1","0","",""
"","feedback","","html-keyboard-response","369","486632","0.0-1.0-501.0-0.0","0","0","59860","","null","","","null","55","","","","","","","","","","","","","","","",""
"","time_out","","html-keyboard-response","370","488634","0.0-1.0-503.0-0.0","0","0","59860","","null","","","null","55","","","","","","","","","","","","","","","",""
"","ITI","","html-keyboard-response","371","489636","0.0-1.0-504.0","0","0","59860","","null","","","null","55","","","","","","","","","","","","","","","NaN",""
"","S1","","html-keyboard-response","372","489789","0.0-1.0-506.0","0","0","59860","","null","","","null","56","","","","","","","","","","","","","","","",""
"","ISI","","html-keyboard-response","373","491791","0.0-1.0-507.0","0","0","59860","","null","","","null","56","NaN","","","","","","","","","","","","","","",""
"","S2","","html-keyboard-response","374","491943","0.0-1.0-508.0","0","0","59860","","null","","","null","56","","NaN","","","","","","","","","","","","","",""
"","response","","html-keyboard-response","375","492985","0.0-1.0-509.0-0.0","0","0","59860","","1041","","","68","56","","","2","56","training","adjacent","FE","6","5","L.jpg","O.jpg","1","0","0","",""
"","feedback","","html-keyboard-response","376","493987","0.0-1.0-510.0-0.0","0","0","59860","","null","","","null","56","","","","","","","","","","","","","","","",""
"","time_out","","html-keyboard-response","377","495998","0.0-1.0-512.0-0.0","0","0","59860","","null","","","null","56","","","","","","","","","","","","","","","",""
"","ITI","","html-keyboard-response","378","497001","0.0-1.0-513.0","0","0","59860","","null","","","null","56","","","","","","","","","","","","","","","NaN",""
"","S1","","html-keyboard-response","379","497162","0.0-1.0-515.0","0","0","59860","","null","","","null","57","","","","","","","","","","","","","","","",""
"","ISI","","html-keyboard-response","380","499164","0.0-1.0-516.0","0","0","59860","","null","","","null","57","NaN","","","","","","","","","","","","","","",""
"","S2","","html-keyboard-response","381","499316","0.0-1.0-517.0","0","0","59860","","null","","","null","57","","NaN","","","","","","","","","","","","","",""
"","response","","html-keyboard-response","382","500235","0.0-1.0-518.0-0.0","0","0","59860","","918","","","68","57","","","2","57","training","adjacent","DE","4","5","M.jpg","O.jpg","1","1","1","",""
"","feedback","","html-keyboard-response","383","501237","0.0-1.0-519.0-0.0","0","0","59860","","null","","","null","57","","","","","","","","","","","","","","","",""
"","ITI","","html-keyboard-response","384","502239","0.0-1.0-522.0","0","0","59860","","null","","","null","57","","","","","","","","","","","","","","","NaN",""
"","S1","","html-keyboard-response","385","502391","0.0-1.0-524.0","0","0","59860","","null","","","null","58","","","","","","","","","","","","","","","",""
"","ISI","","html-keyboard-response","386","504392","0.0-1.0-525.0","0","0","59860","","null","","","null","58","NaN","","","","","","","","","","","","","","",""
"","S2","","html-keyboard-response","387","504545","0.0-1.0-526.0","0","0","59860","","null","","","null","58","","NaN","","","","","","","","","","","","","",""
"","response","","html-keyboard-response","388","505575","0.0-1.0-527.0-0.0","0","0","59860","","1029","","","75","58","","","2","58","training","adjacent","BA","2","1","Q.jpg","R.jpg","0","0","1","",""
"","feedback","","html-keyboard-response","389","506577","0.0-1.0-528.0-0.0","0","0","59860","","null","","","null","58","","","","","","","","","","","","","","","",""
"","ITI","","html-keyboard-response","390","507579","0.0-1.0-531.0","0","0","59860","","null","","","null","58","","","","","","","","","","","","","","","NaN",""
"","S1","","html-keyboard-response","391","507731","0.0-1.0-533.0","0","0","59860","","null","","","null","59","","","","","","","","","","","","","","","",""
"","ISI","","html-keyboard-response","392","509733","0.0-1.0-534.0","0","0","59860","","null","","","null","59","NaN","","","","","","","","","","","","","","",""
"","S2","","html-keyboard-response","393","509885","0.0-1.0-535.0","0","0","59860","","null","","","null","59","","NaN","","","","","","","","","","","","","",""
"","response","","html-keyboard-response","394","511463","0.0-1.0-536.0-0.0","0","0","59860","","1576","","","68","59","","","2","59","training","adjacent","CB","3","2","P.jpg","Q.jpg","1","0","0","",""
"","feedback","","html-keyboard-response","395","512466","0.0-1.0-537.0-0.0","0","0","59860","","null","","","null","59","","","","","","","","","","","","","","","",""
"","time_out","","html-keyboard-response","396","514468","0.0-1.0-539.0-0.0","0","0","59860","","null","","","null","59","","","","","","","","","","","","","","","",""
"","ITI","","html-keyboard-response","397","515471","0.0-1.0-540.0","0","0","59860","","null","","","null","59","","","","","","","","","","","","","","","NaN",""
"","S1","","html-keyboard-response","398","515623","0.0-1.0-542.0","0","0","59860","","null","","","null","60","","","","","","","","","","","","","","","",""
"","ISI","","html-keyboard-response","399","517625","0.0-1.0-543.0","0","0","59860","","null","","","null","60","NaN","","","","","","","","","","","","","","",""
"","S2","","html-keyboard-response","400","517778","0.0-1.0-544.0","0","0","59860","","null","","","null","60","","NaN","","","","","","","","","","","","","",""
"","response","","html-keyboard-response","401","518911","0.0-1.0-545.0-0.0","0","0","59860","","1131","","","68","60","","","2","60","training","adjacent","FG","6","7","L.jpg","N.jpg","1","1","1","",""
"","feedback","","html-keyboard-response","402","519912","0.0-1.0-546.0-0.0","0","0","59860","","null","","","null","60","","","","","","","","","","","","","","","",""
"","ITI","","html-keyboard-response","403","520915","0.0-1.0-549.0","0","0","59860","","null","","","null","60","","","","","","","","","","","","","","","NaN",""
"","S1","","html-keyboard-response","404","521067","0.0-1.0-551.0","0","0","59860","","null","","","null","61","","","","","","","","","","","","","","","",""
"","ISI","","html-keyboard-response","405","523069","0.0-1.0-552.0","0","0","59860","","null","","","null","61","NaN","","","","","","","","","","","","","","",""
"","S2","","html-keyboard-response","406","523221","0.0-1.0-553.0","0","0","59860","","null","","","null","61","","NaN","","","","","","","","","","","","","",""
"","response","","html-keyboard-response","407","524323","0.0-1.0-554.0-0.0","0","0","59860","","1101","","","75","61","","","2","61","training","adjacent","FE","6","5","L.jpg","O.jpg","0","0","1","",""
"","feedback","","html-keyboard-response","408","525326","0.0-1.0-555.0-0.0","0","0","59860","","null","","","null","61","","","","","","","","","","","","","","","",""
"","ITI","","html-keyboard-response","409","526328","0.0-1.0-558.0","0","0","59860","","null","","","null","61","","","","","","","","","","","","","","","NaN",""
"","S1","","html-keyboard-response","410","526480","0.0-1.0-560.0","0","0","59860","","null","","","null","62","","","","","","","","","","","","","","","",""
"","ISI","","html-keyboard-response","411","528483","0.0-1.0-561.0","0","0","59860","","null","","","null","62","NaN","","","","","","","","","","","","","","",""
"","S2","","html-keyboard-response","412","528635","0.0-1.0-562.0","0","0","59860","","null","","","null","62","","NaN","","","","","","","","","","","","","",""
"","response","","html-keyboard-response","413","529612","0.0-1.0-563.0-0.0","0","0","59860","","976","","","75","62","","","2","62","training","adjacent","CB","3","2","P.jpg","Q.jpg","0","0","1","",""
"","feedback","","html-keyboard-response","414","530614","0.0-1.0-564.0-0.0","0","0","59860","","null","","","null","62","","","","","","","","","","","","","","","",""
"","ITI","","html-keyboard-response","415","531616","0.0-1.0-567.0","0","0","59860","","null","","","null","62","","","","","","","","","","","","","","","NaN",""
"","S1","","html-keyboard-response","416","531769","0.0-1.0-569.0","0","0","59860","","null","","","null","63","","","","","","","","","","","","","","","",""
"","ISI","","html-keyboard-response","417","533770","0.0-1.0-570.0","0","0","59860","","null","","","null","63","NaN","","","","","","","","","","","","","","",""
"","S2","","html-keyboard-response","418","533922","0.0-1.0-571.0","0","0","59860","","null","","","null","63","","NaN","","","","","","","","","","","","","",""
"","response","","html-keyboard-response","419","535190","0.0-1.0-572.0-0.0","0","0","59860","","1266","","","75","63","","","2","63","training","adjacent","DC","4","3","M.jpg","P.jpg","0","0","1","",""
"","feedback","","html-keyboard-response","420","536193","0.0-1.0-573.0-0.0","0","0","59860","","null","","","null","63","","","","","","","","","","","","","","","",""
"","ITI","","html-keyboard-response","421","537195","0.0-1.0-576.0","0","0","59860","","null","","","null","63","","","","","","","","","","","","","","","NaN",""
"","S1","","html-keyboard-response","422","537348","0.0-1.0-578.0","0","0","59860","","null","","","null","64","","","","","","","","","","","","","","","",""
"","ISI","","html-keyboard-response","423","539350","0.0-1.0-579.0","0","0","59860","","null","","","null","64","NaN","","","","","","","","","","","","","","",""
"","S2","","html-keyboard-response","424","539502","0.0-1.0-580.0","0","0","59860","","null","","","null","64","","NaN","","","","","","","","","","","","","",""
"","response","","html-keyboard-response","425","540979","0.0-1.0-581.0-0.0","0","0","59860","","1476","","","75","64","","","2","64","training","adjacent","DC","4","3","M.jpg","P.jpg","0","0","1","",""
"","feedback","","html-keyboard-response","426","541981","0.0-1.0-582.0-0.0","0","0","59860","","null","","","null","64","","","","","","","","","","","","","","","",""
"","ITI","","html-keyboard-response","427","542984","0.0-1.0-585.0","0","0","59860","","null","","","null","64","","","","","","","","","","","","","","","NaN",""
"","S1","","html-keyboard-response","428","543136","0.0-1.0-587.0","0","0","59860","","null","","","null","65","","","","","","","","","","","","","","","",""
"","ISI","","html-keyboard-response","429","545139","0.0-1.0-588.0","0","0","59860","","null","","","null","65","NaN","","","","","","","","","","","","","","",""
"","S2","","html-keyboard-response","430","545291","0.0-1.0-589.0","0","0","59860","","null","","","null","65","","NaN","","","","","","","","","","","","","",""
"","response","","html-keyboard-response","431","546485","0.0-1.0-590.0-0.0","0","0","59860","","1193","","","68","65","","","2","65","training","adjacent","BA","2","1","Q.jpg","R.jpg","1","0","0","",""
"","feedback","","html-keyboard-response","432","547488","0.0-1.0-591.0-0.0","0","0","59860","","null","","","null","65","","","","","","","","","","","","","","","",""
"","time_out","","html-keyboard-response","433","549490","0.0-1.0-593.0-0.0","0","0","59860","","null","","","null","65","","","","","","","","","","","","","","","",""
"","ITI","","html-keyboard-response","434","550491","0.0-1.0-594.0","0","0","59860","","null","","","null","65","","","","","","","","","","","","","","","NaN",""
"","S1","","html-keyboard-response","435","550644","0.0-1.0-596.0","0","0","59860","","null","","","null","66","","","","","","","","","","","","","","","",""
"","ISI","","html-keyboard-response","436","552645","0.0-1.0-597.0","0","0","59860","","null","","","null","66","NaN","","","","","","","","","","","","","","",""
"","S2","","html-keyboard-response","437","552798","0.0-1.0-598.0","0","0","59860","","null","","","null","66","","NaN","","","","","","","","","","","","","",""
"","response","","html-keyboard-response","438","554175","0.0-1.0-599.0-0.0","0","0","59860","","1376","","","68","66","","","2","66","training","adjacent","AB","1","2","R.jpg","Q.jpg","1","1","1","",""
"","feedback","","html-keyboard-response","439","555178","0.0-1.0-600.0-0.0","0","0","59860","","null","","","null","66","","","","","","","","","","","","","","","",""
"","ITI","","html-keyboard-response","440","556181","0.0-1.0-603.0","0","0","59860","","null","","","null","66","","","","","","","","","","","","","","","NaN",""
"","S1","","html-keyboard-response","441","556347","0.0-1.0-605.0","0","0","59860","","null","","","null","67","","","","","","","","","","","","","","","",""
"","ISI","","html-keyboard-response","442","558349","0.0-1.0-606.0","0","0","59860","","null","","","null","67","NaN","","","","","","","","","","","","","","",""
"","S2","","html-keyboard-response","443","558501","0.0-1.0-607.0","0","0","59860","","null","","","null","67","","NaN","","","","","","","","","","","","","",""
"","response","","html-keyboard-response","444","559785","0.0-1.0-608.0-0.0","0","0","59860","","1282","","","68","67","","","2","67","training","adjacent","BC","2","3","Q.jpg","P.jpg","1","1","1","",""
"","feedback","","html-keyboard-response","445","560787","0.0-1.0-609.0-0.0","0","0","59860","","null","","","null","67","","","","","","","","","","","","","","","",""
"","ITI","","html-keyboard-response","446","561790","0.0-1.0-612.0","0","0","59860","","null","","","null","67","","","","","","","","","","","","","","","NaN",""
"","S1","","html-keyboard-response","447","561948","0.0-1.0-614.0","0","0","59860","","null","","","null","68","","","","","","","","","","","","","","","",""
"","ISI","","html-keyboard-response","448","563951","0.0-1.0-615.0","0","0","59860","","null","","","null","68","NaN","","","","","","","","","","","","","","",""
"","S2","","html-keyboard-response","449","564109","0.0-1.0-616.0","0","0","59860","","null","","","null","68","","NaN","","","","","","","","","","","","","",""
"","response","","html-keyboard-response","450","564789","0.0-1.0-617.0-0.0","0","0","59860","","678","","","68","68","","","2","68","training","adjacent","CD","3","4","P.jpg","M.jpg","1","1","1","",""
"","feedback","","html-keyboard-response","451","565791","0.0-1.0-618.0-0.0","0","0","59860","","null","","","null","68","","","","","","","","","","","","","","","",""
"","ITI","","html-keyboard-response","452","566793","0.0-1.0-621.0","0","0","59860","","null","","","null","68","","","","","","","","","","","","","","","NaN",""
"","S1","","html-keyboard-response","453","566946","0.0-1.0-623.0","0","0","59860","","null","","","null","69","","","","","","","","","","","","","","","",""
"","ISI","","html-keyboard-response","454","568948","0.0-1.0-624.0","0","0","59860","","null","","","null","69","NaN","","","","","","","","","","","","","","",""
"","S2","","html-keyboard-response","455","569100","0.0-1.0-625.0","0","0","59860","","null","","","null","69","","NaN","","","","","","","","","","","","","",""
"","response","","html-keyboard-response","456","570053","0.0-1.0-626.0-0.0","0","0","59860","","951","","","75","69","","","2","69","training","adjacent","GF","7","6","N.jpg","L.jpg","0","0","1","",""
"","feedback","","html-keyboard-response","457","571056","0.0-1.0-627.0-0.0","0","0","59860","","null","","","null","69","","","","","","","","","","","","","","","",""
"","ITI","","html-keyboard-response","458","572058","0.0-1.0-630.0","0","0","59860","","null","","","null","69","","","","","","","","","","","","","","","NaN",""
"","S1","","html-keyboard-response","459","572210","0.0-1.0-632.0","0","0","59860","","null","","","null","70","","","","","","","","","","","","","","","",""
"","ISI","","html-keyboard-response","460","574211","0.0-1.0-633.0","0","0","59860","","null","","","null","70","NaN","","","","","","","","","","","","","","",""
"","S2","","html-keyboard-response","461","574377","0.0-1.0-634.0","0","0","59860","","null","","","null","70","","NaN","","","","","","","","","","","","","",""
"","response","","html-keyboard-response","462","575452","0.0-1.0-635.0-0.0","0","0","59860","","1074","","","68","70","","","2","70","training","adjacent","EF","5","6","O.jpg","L.jpg","1","1","1","",""
"","feedback","","html-keyboard-response","463","576454","0.0-1.0-636.0-0.0","0","0","59860","","null","","","null","70","","","","","","","","","","","","","","","",""
"","ITI","","html-keyboard-response","464","577456","0.0-1.0-639.0","0","0","59860","","null","","","null","70","","","","","","","","","","","","","","","NaN",""
"","S1","","html-keyboard-response","465","577608","0.0-1.0-641.0","0","0","59860","","null","","","null","71","","","","","","","","","","","","","","","",""
"","ISI","","html-keyboard-response","466","579610","0.0-1.0-642.0","0","0","59860","","null","","","null","71","NaN","","","","","","","","","","","","","","",""
"","S2","","html-keyboard-response","467","579766","0.0-1.0-643.0","0","0","59860","","null","","","null","71","","NaN","","","","","","","","","","","","","",""
"","response","","html-keyboard-response","468","580664","0.0-1.0-644.0-0.0","0","0","59860","","896","","","75","71","","","2","71","training","adjacent","BC","2","3","Q.jpg","P.jpg","0","1","0","",""
"","feedback","","html-keyboard-response","469","581666","0.0-1.0-645.0-0.0","0","0","59860","","null","","","null","71","","","","","","","","","","","","","","","",""
"","time_out","","html-keyboard-response","470","583668","0.0-1.0-647.0-0.0","0","0","59860","","null","","","null","71","","","","","","","","","","","","","","","",""
"","ITI","","html-keyboard-response","471","584671","0.0-1.0-648.0","0","0","59860","","null","","","null","71","","","","","","","","","","","","","","","NaN",""
"","S1","","html-keyboard-response","472","584829","0.0-1.0-650.0","0","0","59860","","null","","","null","72","","","","","","","","","","","","","","","",""
"","ISI","","html-keyboard-response","473","586831","0.0-1.0-651.0","0","0","59860","","null","","","null","72","NaN","","","","","","","","","","","","","","",""
"","S2","","html-keyboard-response","474","586983","0.0-1.0-652.0","0","0","59860","","null","","","null","72","","NaN","","","","","","","","","","","","","",""
"","response","","html-keyboard-response","475","588111","0.0-1.0-653.0-0.0","0","0","59860","","1127","","","75","72","","","2","72","training","adjacent","AB","1","2","R.jpg","Q.jpg","0","1","0","",""
"","feedback","","html-keyboard-response","476","589113","0.0-1.0-654.0-0.0","0","0","59860","","null","","","null","72","","","","","","","","","","","","","","","",""
"","time_out","","html-keyboard-response","477","591115","0.0-1.0-656.0-0.0","0","0","59860","","null","","","null","72","","","","","","","","","","","","","","","",""
"","ITI","","html-keyboard-response","478","592117","0.0-1.0-657.0","0","0","59860","","null","","","null","72","","","","","","","","","","","","","","","NaN",""
"","S1","","html-keyboard-response","479","592269","0.0-1.0-659.0","0","0","59860","","null","","","null","73","","","","","","","","","","","","","","","",""
"","ISI","","html-keyboard-response","480","594271","0.0-1.0-660.0","0","0","59860","","null","","","null","73","NaN","","","","","","","","","","","","","","",""
"","S2","","html-keyboard-response","481","594423","0.0-1.0-661.0","0","0","59860","","null","","","null","73","","NaN","","","","","","","","","","","","","",""
"","response","","html-keyboard-response","482","595420","0.0-1.0-662.0-0.0","0","0","59860","","996","","","68","73","","","2","73","training","adjacent","EF","5","6","O.jpg","L.jpg","1","1","1","",""
"","feedback","","html-keyboard-response","483","596422","0.0-1.0-663.0-0.0","0","0","59860","","null","","","null","73","","","","","","","","","","","","","","","",""
"","ITI","","html-keyboard-response","484","597424","0.0-1.0-666.0","0","0","59860","","null","","","null","73","","","","","","","","","","","","","","","NaN",""
"","S1","","html-keyboard-response","485","597576","0.0-1.0-668.0","0","0","59860","","null","","","null","74","","","","","","","","","","","","","","","",""
"","ISI","","html-keyboard-response","486","599578","0.0-1.0-669.0","0","0","59860","","null","","","null","74","NaN","","","","","","","","","","","","","","",""
"","S2","","html-keyboard-response","487","599731","0.0-1.0-670.0","0","0","59860","","null","","","null","74","","NaN","","","","","","","","","","","","","",""
"","response","","html-keyboard-response","488","600735","0.0-1.0-671.0-0.0","0","0","59860","","1003","","","75","74","","","2","74","training","adjacent","GF","7","6","N.jpg","L.jpg","0","0","1","",""
"","feedback","","html-keyboard-response","489","601737","0.0-1.0-672.0-0.0","0","0","59860","","null","","","null","74","","","","","","","","","","","","","","","",""
"","ITI","","html-keyboard-response","490","602739","0.0-1.0-675.0","0","0","59860","","null","","","null","74","","","","","","","","","","","","","","","NaN",""
"","S1","","html-keyboard-response","491","602891","0.0-1.0-677.0","0","0","59860","","null","","","null","75","","","","","","","","","","","","","","","",""
"","ISI","","html-keyboard-response","492","604893","0.0-1.0-678.0","0","0","59860","","null","","","null","75","NaN","","","","","","","","","","","","","","",""
"","S2","","html-keyboard-response","493","605045","0.0-1.0-679.0","0","0","59860","","null","","","null","75","","NaN","","","","","","","","","","","","","",""
"","response","","html-keyboard-response","494","605811","0.0-1.0-680.0-0.0","0","0","59860","","764","","","75","75","","","2","75","training","adjacent","DC","4","3","M.jpg","P.jpg","0","0","1","",""
"","feedback","","html-keyboard-response","495","606814","0.0-1.0-681.0-0.0","0","0","59860","","null","","","null","75","","","","","","","","","","","","","","","",""
"","ITI","","html-keyboard-response","496","607817","0.0-1.0-684.0","0","0","59860","","null","","","null","75","","","","","","","","","","","","","","","NaN",""
"","S1","","html-keyboard-response","497","607970","0.0-1.0-686.0","0","0","59860","","null","","","null","76","","","","","","","","","","","","","","","",""
"","ISI","","html-keyboard-response","498","609972","0.0-1.0-687.0","0","0","59860","","null","","","null","76","NaN","","","","","","","","","","","","","","",""
"","S2","","html-keyboard-response","499","610124","0.0-1.0-688.0","0","0","59860","","null","","","null","76","","NaN","","","","","","","","","","","","","",""
"","response","","html-keyboard-response","500","611100","0.0-1.0-689.0-0.0","0","0","59860","","974","","","68","76","","","2","76","training","adjacent","FG","6","7","L.jpg","N.jpg","1","1","1","",""
"","feedback","","html-keyboard-response","501","612102","0.0-1.0-690.0-0.0","0","0","59860","","null","","","null","76","","","","","","","","","","","","","","","",""
"","ITI","","html-keyboard-response","502","613104","0.0-1.0-693.0","0","0","59860","","null","","","null","76","","","","","","","","","","","","","","","NaN",""
"","S1","","html-keyboard-response","503","613256","0.0-1.0-695.0","0","0","59860","","null","","","null","77","","","","","","","","","","","","","","","",""
"","ISI","","html-keyboard-response","504","615258","0.0-1.0-696.0","0","0","59860","","null","","","null","77","NaN","","","","","","","","","","","","","","",""
"","S2","","html-keyboard-response","505","615410","0.0-1.0-697.0","0","0","59860","","null","","","null","77","","NaN","","","","","","","","","","","","","",""
"","response","","html-keyboard-response","506","616136","0.0-1.0-698.0-0.0","0","0","59860","","723","","","75","77","","","2","77","training","adjacent","GF","7","6","N.jpg","L.jpg","0","0","1","",""
"","feedback","","html-keyboard-response","507","617138","0.0-1.0-699.0-0.0","0","0","59860","","null","","","null","77","","","","","","","","","","","","","","","",""
"","ITI","","html-keyboard-response","508","618140","0.0-1.0-702.0","0","0","59860","","null","","","null","77","","","","","","","","","","","","","","","NaN",""
"","S1","","html-keyboard-response","509","618292","0.0-1.0-704.0","0","0","59860","","null","","","null","78","","","","","","","","","","","","","","","",""
"","ISI","","html-keyboard-response","510","620294","0.0-1.0-705.0","0","0","59860","","null","","","null","78","NaN","","","","","","","","","","","","","","",""
"","S2","","html-keyboard-response","511","620446","0.0-1.0-706.0","0","0","59860","","null","","","null","78","","NaN","","","","","","","","","","","","","",""
"","response","","html-keyboard-response","512","621294","0.0-1.0-707.0-0.0","0","0","59860","","846","","","68","78","","","2","78","training","adjacent","DE","4","5","M.jpg","O.jpg","1","1","1","",""
"","feedback","","html-keyboard-response","513","622297","0.0-1.0-708.0-0.0","0","0","59860","","null","","","null","78","","","","","","","","","","","","","","","",""
"","ITI","","html-keyboard-response","514","623299","0.0-1.0-711.0","0","0","59860","","null","","","null","78","","","","","","","","","","","","","","","NaN",""
"","S1","","html-keyboard-response","515","623452","0.0-1.0-713.0","0","0","59860","","null","","","null","79","","","","","","","","","","","","","","","",""
"","ISI","","html-keyboard-response","516","625455","0.0-1.0-714.0","0","0","59860","","null","","","null","79","NaN","","","","","","","","","","","","","","",""
"","S2","","html-keyboard-response","517","625607","0.0-1.0-715.0","0","0","59860","","null","","","null","79","","NaN","","","","","","","","","","","","","",""
"","response","","html-keyboard-response","518","626567","0.0-1.0-716.0-0.0","0","0","59860","","959","","","68","79","","","2","79","training","adjacent","FG","6","7","L.jpg","N.jpg","1","1","1","",""
"","feedback","","html-keyboard-response","519","627569","0.0-1.0-717.0-0.0","0","0","59860","","null","","","null","79","","","","","","","","","","","","","","","",""
"","ITI","","html-keyboard-response","520","628571","0.0-1.0-720.0","0","0","59860","","null","","","null","79","","","","","","","","","","","","","","","NaN",""
"","S1","","html-keyboard-response","521","628728","0.0-1.0-722.0","0","0","59860","","null","","","null","80","","","","","","","","","","","","","","","",""
"","ISI","","html-keyboard-response","522","630730","0.0-1.0-723.0","0","0","59860","","null","","","null","80","NaN","","","","","","","","","","","","","","",""
"","S2","","html-keyboard-response","523","630882","0.0-1.0-724.0","0","0","59860","","null","","","null","80","","NaN","","","","","","","","","","","","","",""
"","response","","html-keyboard-response","524","631588","0.0-1.0-725.0-0.0","0","0","59860","","705","","","68","80","","","2","80","training","adjacent","CD","3","4","P.jpg","M.jpg","1","1","1","",""
"","feedback","","html-keyboard-response","525","632590","0.0-1.0-726.0-0.0","0","0","59860","","null","","","null","80","","","","","","","","","","","","","","","",""
"","ITI","","html-keyboard-response","526","633594","0.0-1.0-729.0","0","0","59860","","null","","","null","80","","","","","","","","","","","","","","","NaN",""
"","S1","","html-keyboard-response","527","633746","0.0-1.0-731.0","0","0","59860","","null","","","null","81","","","","","","","","","","","","","","","",""
"","ISI","","html-keyboard-response","528","635747","0.0-1.0-732.0","0","0","59860","","null","","","null","81","NaN","","","","","","","","","","","","","","",""
"","S2","","html-keyboard-response","529","635900","0.0-1.0-733.0","0","0","59860","","null","","","null","81","","NaN","","","","","","","","","","","","","",""
"","response","","html-keyboard-response","530","636593","0.0-1.0-734.0-0.0","0","0","59860","","692","","","68","81","","","2","81","training","adjacent","CD","3","4","P.jpg","M.jpg","1","1","1","",""
"","feedback","","html-keyboard-response","531","637595","0.0-1.0-735.0-0.0","0","0","59860","","null","","","null","81","","","","","","","","","","","","","","","",""
"","ITI","","html-keyboard-response","532","638598","0.0-1.0-738.0","0","0","59860","","null","","","null","81","","","","","","","","","","","","","","","NaN",""
"","S1","","html-keyboard-response","533","638750","0.0-1.0-740.0","0","0","59860","","null","","","null","82","","","","","","","","","","","","","","","",""
"","ISI","","html-keyboard-response","534","640751","0.0-1.0-741.0","0","0","59860","","null","","","null","82","NaN","","","","","","","","","","","","","","",""
"","S2","","html-keyboard-response","535","640903","0.0-1.0-742.0","0","0","59860","","null","","","null","82","","NaN","","","","","","","","","","","","","",""
"","response","","html-keyboard-response","536","642077","0.0-1.0-743.0-0.0","0","0","59860","","1172","","","75","82","","","2","82","training","adjacent","AB","1","2","R.jpg","Q.jpg","0","1","0","",""
"","feedback","","html-keyboard-response","537","643079","0.0-1.0-744.0-0.0","0","0","59860","","null","","","null","82","","","","","","","","","","","","","","","",""
"","time_out","","html-keyboard-response","538","645081","0.0-1.0-746.0-0.0","0","0","59860","","null","","","null","82","","","","","","","","","","","","","","","",""
"","ITI","","html-keyboard-response","539","646083","0.0-1.0-747.0","0","0","59860","","null","","","null","82","","","","","","","","","","","","","","","NaN",""
"","S1","","html-keyboard-response","540","646235","0.0-1.0-749.0","0","0","59860","","null","","","null","83","","","","","","","","","","","","","","","",""
"","ISI","","html-keyboard-response","541","648238","0.0-1.0-750.0","0","0","59860","","null","","","null","83","NaN","","","","","","","","","","","","","","",""
"","S2","","html-keyboard-response","542","648391","0.0-1.0-751.0","0","0","59860","","null","","","null","83","","NaN","","","","","","","","","","","","","",""
"","response","","html-keyboard-response","543","649035","0.0-1.0-752.0-0.0","0","0","59860","","643","","","75","83","","","2","83","training","adjacent","FE","6","5","L.jpg","O.jpg","0","0","1","",""
"","feedback","","html-keyboard-response","544","650037","0.0-1.0-753.0-0.0","0","0","59860","","null","","","null","83","","","","","","","","","","","","","","","",""
"","ITI","","html-keyboard-response","545","651040","0.0-1.0-756.0","0","0","59860","","null","","","null","83","","","","","","","","","","","","","","","NaN",""
"","S1","","html-keyboard-response","546","651201","0.0-1.0-758.0","0","0","59860","","null","","","null","84","","","","","","","","","","","","","","","",""
"","ISI","","html-keyboard-response","547","653203","0.0-1.0-759.0","0","0","59860","","null","","","null","84","NaN","","","","","","","","","","","","","","",""
"","S2","","html-keyboard-response","548","653356","0.0-1.0-760.0","0","0","59860","","null","","","null","84","","NaN","","","","","","","","","","","","","",""
"","response","","html-keyboard-response","549","654651","0.0-1.0-761.0-0.0","0","0","59860","","1295","","","68","84","","","2","84","training","adjacent","DE","4","5","M.jpg","O.jpg","1","1","1","",""
"","feedback","","html-keyboard-response","550","655654","0.0-1.0-762.0-0.0","0","0","59860","","null","","","null","84","","","","","","","","","","","","","","","",""
"","ITI","","html-keyboard-response","551","656657","0.0-1.0-765.0","0","0","59860","","null","","","null","84","","","","","","","","","","","","","","","NaN",""
"","S1","","html-keyboard-response","552","656810","0.0-1.0-767.0","0","0","59860","","null","","","null","85","","","","","","","","","","","","","","","",""
"","ISI","","html-keyboard-response","553","658812","0.0-1.0-768.0","0","0","59860","","null","","","null","85","NaN","","","","","","","","","","","","","","",""
"","S2","","html-keyboard-response","554","658965","0.0-1.0-769.0","0","0","59860","","null","","","null","85","","NaN","","","","","","","","","","","","","",""
"","response","","html-keyboard-response","555","659460","0.0-1.0-770.0-0.0","0","0","59860","","494","","","68","85","","","2","85","training","adjacent","EF","5","6","O.jpg","L.jpg","1","1","1","",""
"","feedback","","html-keyboard-response","556","660470","0.0-1.0-771.0-0.0","0","0","59860","","null","","","null","85","","","","","","","","","","","","","","","",""
"","ITI","","html-keyboard-response","557","661473","0.0-1.0-774.0","0","0","59860","","null","","","null","85","","","","","","","","","","","","","","","NaN",""
"","S1","","html-keyboard-response","558","661625","0.0-1.0-776.0","0","0","59860","","null","","","null","86","","","","","","","","","","","","","","","",""
"","ISI","","html-keyboard-response","559","663628","0.0-1.0-777.0","0","0","59860","","null","","","null","86","NaN","","","","","","","","","","","","","","",""
"","S2","","html-keyboard-response","560","663780","0.0-1.0-778.0","0","0","59860","","null","","","null","86","","NaN","","","","","","","","","","","","","",""
"","response","","html-keyboard-response","561","664388","0.0-1.0-779.0-0.0","0","0","59860","","606","","","75","86","","","2","86","training","adjacent","ED","5","4","O.jpg","M.jpg","0","0","1","",""
"","feedback","","html-keyboard-response","562","665390","0.0-1.0-780.0-0.0","0","0","59860","","null","","","null","86","","","","","","","","","","","","","","","",""
"","ITI","","html-keyboard-response","563","666392","0.0-1.0-783.0","0","0","59860","","null","","","null","86","","","","","","","","","","","","","","","NaN",""
"","S1","","html-keyboard-response","564","666544","0.0-1.0-785.0","0","0","59860","","null","","","null","87","","","","","","","","","","","","","","","",""
"","ISI","","html-keyboard-response","565","668547","0.0-1.0-786.0","0","0","59860","","null","","","null","87","NaN","","","","","","","","","","","","","","",""
"","S2","","html-keyboard-response","566","668699","0.0-1.0-787.0","0","0","59860","","null","","","null","87","","NaN","","","","","","","","","","","","","",""
"","response","","html-keyboard-response","567","669369","0.0-1.0-788.0-0.0","0","0","59860","","669","","","75","87","","","2","87","training","adjacent","BA","2","1","Q.jpg","R.jpg","0","0","1","",""
"","feedback","","html-keyboard-response","568","670372","0.0-1.0-789.0-0.0","0","0","59860","","null","","","null","87","","","","","","","","","","","","","","","",""
"","ITI","","html-keyboard-response","569","671376","0.0-1.0-792.0","0","0","59860","","null","","","null","87","","","","","","","","","","","","","","","NaN",""
"","S1","","html-keyboard-response","570","671528","0.0-1.0-794.0","0","0","59860","","null","","","null","88","","","","","","","","","","","","","","","",""
"","ISI","","html-keyboard-response","571","673531","0.0-1.0-795.0","0","0","59860","","null","","","null","88","NaN","","","","","","","","","","","","","","",""
"","S2","","html-keyboard-response","572","673683","0.0-1.0-796.0","0","0","59860","","null","","","null","88","","NaN","","","","","","","","","","","","","",""
"","response","","html-keyboard-response","573","674730","0.0-1.0-797.0-0.0","0","0","59860","","1045","","","75","88","","","2","88","training","adjacent","BA","2","1","Q.jpg","R.jpg","0","0","1","",""
"","feedback","","html-keyboard-response","574","675733","0.0-1.0-798.0-0.0","0","0","59860","","null","","","null","88","","","","","","","","","","","","","","","",""
"","ITI","","html-keyboard-response","575","676735","0.0-1.0-801.0","0","0","59860","","null","","","null","88","","","","","","","","","","","","","","","NaN",""
"","S1","","html-keyboard-response","576","676887","0.0-1.0-803.0","0","0","59860","","null","","","null","89","","","","","","","","","","","","","","","",""
"","ISI","","html-keyboard-response","577","678889","0.0-1.0-804.0","0","0","59860","","null","","","null","89","NaN","","","","","","","","","","","","","","",""
