"success","ttype","start_time","trial_type","trial_index","time_elapsed","internal_node_id","warning","missed_checkup","PID","view_history","rt","responses","repeat_instructions","key_press","index","keypress_isi","keypress_S2","block","trial_num","phase","group_type","pair_type","S1_stim","S2_stim","S1_img","S2_img","S1_chosen","S1_higher","accuracy","keypress_iti","total_bonus_tally"
"true","full_screen","d04162023hr0629","fullscreen","0","32727","0.0-0.0","0","0","74888","","","","","","","","","","","","","","","","","","","","","",""
"","instructions","","instructions","1","94320","0.0-1.0-0.0-0.0","0","0","74888","[{""page_index"":0,""viewing_time"":13319},{""page_index"":1,""viewing_time"":35435},{""page_index"":2,""viewing_time"":9934},{""page_index"":3,""viewing_time"":2898}]","61587","","","","","","","","","","","","","","","","","","","",""
"","comprehension_check","","survey-multi-choice","2","127690","0.0-1.0-0.0-1.0","0","0","74888","","33364","{""Q0"":""True"",""Q1"":""D"",""Q2"":""Only when the screen 'MAKE A CHOICE' is shown"",""Q3"":""Green mark"",""Q4"":""either D or K""}","1","","","","","","","","","","","","","","","","","",""
"","missed_instruction_checkup","","html-keyboard-response","3","130742","0.0-1.0-0.0-2.0-0.0","0","1","74888","","3047","","","32","","","","","","","","","","","","","","","","",""
"","instructions","","instructions","4","162028","0.0-1.0-0.1-0.1","0","0","74888","[{""page_index"":0,""viewing_time"":6262},{""page_index"":1,""viewing_time"":18091},{""page_index"":2,""viewing_time"":4924},{""page_index"":3,""viewing_time"":2005}]","31282","","","","","","","","","","","","","","","","","","","",""
"","comprehension_check","","survey-multi-choice","5","189323","0.0-1.0-0.1-1.1","0","0","74888","","27290","{""Q0"":""True"",""Q1"":""D"",""Q2"":""Once the second image appears and while the screen 'MAKE A CHOICE' is shown"",""Q3"":""Green mark"",""Q4"":""either D or K""}","0","","","","","","","","","","","","","","","","","",""
"","start_exp","","html-keyboard-response","6","192677","0.0-1.0-1.0","0","0","74888","","3349","","","32","","","","","","","","","","","","","","","","",""
"","S1","","html-keyboard-response","7","192934","0.0-1.0-2.0","0","0","74888","","null","","","null","0","","","","","","","","","","","","","","","",""
"","ISI","","html-keyboard-response","8","193937","0.0-1.0-3.0","0","0","74888","","null","","","null","0","NaN","","","","","","","","","","","","","","",""
"","S2","","html-keyboard-response","9","194191","0.0-1.0-4.0","0","0","74888","","null","","","null","0","","NaN","","","","","","","","","","","","","",""
"","response","","html-keyboard-response","10","195946","0.0-1.0-5.0-0.0","0","0","74888","","null","","","null","0","","","1","0","training","adjacent","AB","1","2","R.jpg","N.jpg","NaN","1","0","",""
"","too_slow_prompt","","html-keyboard-response","11","196950","0.0-1.0-7.0-0.0","1","0","74888","","null","","","null","","","","","","","","","","","","","","","","",""
"","time_out","","html-keyboard-response","12","198956","0.0-1.0-8.0-0.0","0","0","74888","","null","","","null","0","","","","","","","","","","","","","","","",""
"","ITI","","html-keyboard-response","13","199960","0.0-1.0-9.0","0","0","74888","","338","","","75","0","","","","","","","","","","","","","","","k",""
"","S1","","html-keyboard-response","14","200216","0.0-1.0-11.0","0","0","74888","","null","","","null","1","","","","","","","","","","","","","","","",""
"","ISI","","html-keyboard-response","15","201221","0.0-1.0-12.0","0","0","74888","","null","","","null","1","NaN","","","","","","","","","","","","","","",""
"","S2","","html-keyboard-response","16","201475","0.0-1.0-13.0","0","0","74888","","null","","","null","1","","NaN","","","","","","","","","","","","","",""
"","response","","html-keyboard-response","17","201941","0.0-1.0-14.0-0.0","0","0","74888","","462","","","68","1","","","1","1","training","adjacent","ED","5","4","O.jpg","L.jpg","1","0","0","",""
"","feedback","","html-keyboard-response","18","202946","0.0-1.0-15.0-0.0","0","0","74888","","null","","","null","1","","","","","","","","","","","","","","","",""
"","time_out","","html-keyboard-response","19","204950","0.0-1.0-17.0-0.0","0","0","74888","","null","","","null","1","","","","","","","","","","","","","","","",""
"","ITI","","html-keyboard-response","20","205953","0.0-1.0-18.0","0","0","74888","","null","","","null","1","","","","","","","","","","","","","","","NaN",""
"","S1","","html-keyboard-response","21","206207","0.0-1.0-20.0","0","0","74888","","null","","","null","2","","","","","","","","","","","","","","","",""
"","ISI","","html-keyboard-response","22","207211","0.0-1.0-21.0","0","0","74888","","null","","","null","2","NaN","","","","","","","","","","","","","","",""
"","S2","","html-keyboard-response","23","207453","0.0-1.0-22.0","0","0","74888","","239","","","68","2","","d","1","2","training","adjacent","DE","4","5","L.jpg","O.jpg","1","1","1","",""
"","feedback","","html-keyboard-response","24","208458","0.0-1.0-24.0-0.0","0","0","74888","","null","","","null","2","","","","","","","","","","","","","","","",""
"","ITI","","html-keyboard-response","25","209467","0.0-1.0-27.0","0","0","74888","","null","","","null","2","","","","","","","","","","","","","","","NaN",""
"","S1","","html-keyboard-response","26","209721","0.0-1.0-29.0","0","0","74888","","null","","","null","3","","","","","","","","","","","","","","","",""
"","ISI","","html-keyboard-response","27","210725","0.0-1.0-30.0","0","0","74888","","null","","","null","3","NaN","","","","","","","","","","","","","","",""
"","S2","","html-keyboard-response","28","210979","0.0-1.0-31.0","0","0","74888","","null","","","null","3","","NaN","","","","","","","","","","","","","",""
"","response","","html-keyboard-response","29","211069","0.0-1.0-32.0-0.0","0","0","74888","","86","","","75","3","","","1","3","training","adjacent","CB","3","2","P.jpg","N.jpg","0","0","1","",""
"","feedback","","html-keyboard-response","30","212073","0.0-1.0-33.0-0.0","0","0","74888","","null","","","null","3","","","","","","","","","","","","","","","",""
"","ITI","","html-keyboard-response","31","213077","0.0-1.0-36.0","0","0","74888","","null","","","null","3","","","","","","","","","","","","","","","NaN",""
"","S1","","html-keyboard-response","32","213344","0.0-1.0-38.0","0","0","74888","","null","","","null","4","","","","","","","","","","","","","","","",""
"","ISI","","html-keyboard-response","33","214347","0.0-1.0-39.0","0","0","74888","","null","","","null","4","NaN","","","","","","","","","","","","","","",""
"","S2","","html-keyboard-response","34","214602","0.0-1.0-40.0","0","0","74888","","null","","","null","4","","NaN","","","","","","","","","","","","","",""
"","response","","html-keyboard-response","35","215001","0.0-1.0-41.0-0.0","0","0","74888","","396","","","75","4","","","1","4","training","adjacent","CD","3","4","P.jpg","L.jpg","0","1","0","",""
"","feedback","","html-keyboard-response","36","216006","0.0-1.0-42.0-0.0","0","0","74888","","null","","","null","4","","","","","","","","","","","","","","","",""
"","time_out","","html-keyboard-response","37","218010","0.0-1.0-44.0-0.0","0","0","74888","","null","","","null","4","","","","","","","","","","","","","","","",""
"","ITI","","html-keyboard-response","38","219014","0.0-1.0-45.0","0","0","74888","","null","","","null","4","","","","","","","","","","","","","","","NaN",""
"","S1","","html-keyboard-response","39","219267","0.0-1.0-47.0","0","0","74888","","null","","","null","5","","","","","","","","","","","","","","","",""
"","ISI","","html-keyboard-response","40","220271","0.0-1.0-48.0","0","0","74888","","null","","","null","5","NaN","","","","","","","","","","","","","","",""
"","S2","","html-keyboard-response","41","220525","0.0-1.0-49.0","0","0","74888","","null","","","null","5","","NaN","","","","","","","","","","","","","",""
"","response","","html-keyboard-response","42","220944","0.0-1.0-50.0-0.0","0","0","74888","","415","","","68","5","","","1","5","training","adjacent","AB","1","2","R.jpg","N.jpg","1","1","1","",""
"","feedback","","html-keyboard-response","43","221949","0.0-1.0-51.0-0.0","0","0","74888","","null","","","null","5","","","","","","","","","","","","","","","",""
"","ITI","","html-keyboard-response","44","222954","0.0-1.0-54.0","0","0","74888","","null","","","null","5","","","","","","","","","","","","","","","NaN",""
"","S1","","html-keyboard-response","45","223208","0.0-1.0-56.0","0","0","74888","","null","","","null","6","","","","","","","","","","","","","","","",""
"","ISI","","html-keyboard-response","46","224211","0.0-1.0-57.0","0","0","74888","","null","","","null","6","NaN","","","","","","","","","","","","","","",""
"","S2","","html-keyboard-response","47","224466","0.0-1.0-58.0","0","0","74888","","null","","","null","6","","NaN","","","","","","","","","","","","","",""
"","response","","html-keyboard-response","48","224782","0.0-1.0-59.0-0.0","0","0","74888","","313","","","75","6","","","1","6","training","adjacent","DC","4","3","L.jpg","P.jpg","0","0","1","",""
"","feedback","","html-keyboard-response","49","225786","0.0-1.0-60.0-0.0","0","0","74888","","null","","","null","6","","","","","","","","","","","","","","","",""
"","ITI","","html-keyboard-response","50","226790","0.0-1.0-63.0","0","0","74888","","null","","","null","6","","","","","","","","","","","","","","","NaN",""
"","S1","","html-keyboard-response","51","227051","0.0-1.0-65.0","0","0","74888","","null","","","null","7","","","","","","","","","","","","","","","",""
"","ISI","","html-keyboard-response","52","228055","0.0-1.0-66.0","0","0","74888","","null","","","null","7","NaN","","","","","","","","","","","","","","",""
"","S2","","html-keyboard-response","53","228309","0.0-1.0-67.0","0","0","74888","","null","","","null","7","","NaN","","","","","","","","","","","","","",""
"","response","","html-keyboard-response","54","228729","0.0-1.0-68.0-0.0","0","0","74888","","417","","","68","7","","","1","7","training","adjacent","CB","3","2","P.jpg","N.jpg","1","0","0","",""
"","feedback","","html-keyboard-response","55","229734","0.0-1.0-69.0-0.0","0","0","74888","","null","","","null","7","","","","","","","","","","","","","","","",""
"","time_out","","html-keyboard-response","56","231738","0.0-1.0-71.0-0.0","0","0","74888","","null","","","null","7","","","","","","","","","","","","","","","",""
"","ITI","","html-keyboard-response","57","232741","0.0-1.0-72.0","0","0","74888","","null","","","null","7","","","","","","","","","","","","","","","NaN",""
"","S1","","html-keyboard-response","58","232996","0.0-1.0-74.0","0","0","74888","","null","","","null","8","","","","","","","","","","","","","","","",""
"","ISI","","html-keyboard-response","59","234000","0.0-1.0-75.0","0","0","74888","","null","","","null","8","NaN","","","","","","","","","","","","","","",""
"","S2","","html-keyboard-response","60","234254","0.0-1.0-76.0","0","0","74888","","null","","","null","8","","NaN","","","","","","","","","","","","","",""
"","response","","html-keyboard-response","61","234673","0.0-1.0-77.0-0.0","0","0","74888","","415","","","75","8","","","1","8","training","adjacent","BC","2","3","N.jpg","P.jpg","0","1","0","",""
"","feedback","","html-keyboard-response","62","235676","0.0-1.0-78.0-0.0","0","0","74888","","null","","","null","8","","","","","","","","","","","","","","","",""
"","time_out","","html-keyboard-response","63","237680","0.0-1.0-80.0-0.0","0","0","74888","","null","","","null","8","","","","","","","","","","","","","","","",""
"","ITI","","html-keyboard-response","64","238684","0.0-1.0-81.0","0","0","74888","","null","","","null","8","","","","","","","","","","","","","","","NaN",""
"","S1","","html-keyboard-response","65","238938","0.0-1.0-83.0","0","0","74888","","null","","","null","9","","","","","","","","","","","","","","","",""
"","ISI","","html-keyboard-response","66","239941","0.0-1.0-84.0","0","0","74888","","null","","","null","9","NaN","","","","","","","","","","","","","","",""
"","S2","","html-keyboard-response","67","240196","0.0-1.0-85.0","0","0","74888","","null","","","null","9","","NaN","","","","","","","","","","","","","",""
"","response","","html-keyboard-response","68","240869","0.0-1.0-86.0-0.0","0","0","74888","","669","","","68","9","","","1","9","training","adjacent","FE","6","5","Q.jpg","O.jpg","1","0","0","",""
"","feedback","","html-keyboard-response","69","241874","0.0-1.0-87.0-0.0","0","0","74888","","null","","","null","9","","","","","","","","","","","","","","","",""
"","time_out","","html-keyboard-response","70","243877","0.0-1.0-89.0-0.0","0","0","74888","","null","","","null","9","","","","","","","","","","","","","","","",""
"","ITI","","html-keyboard-response","71","244881","0.0-1.0-90.0","0","0","74888","","null","","","null","9","","","","","","","","","","","","","","","NaN",""
"","S1","","html-keyboard-response","72","245135","0.0-1.0-92.0","0","0","74888","","null","","","null","10","","","","","","","","","","","","","","","",""
"","ISI","","html-keyboard-response","73","246138","0.0-1.0-93.0","0","0","74888","","null","","","null","10","NaN","","","","","","","","","","","","","","",""
"","S2","","html-keyboard-response","74","246393","0.0-1.0-94.0","0","0","74888","","null","","","null","10","","NaN","","","","","","","","","","","","","",""
"","response","","html-keyboard-response","75","247089","0.0-1.0-95.0-0.0","0","0","74888","","693","","","75","10","","","1","10","training","adjacent","FG","6","7","Q.jpg","M.jpg","0","1","0","",""
"","feedback","","html-keyboard-response","76","248094","0.0-1.0-96.0-0.0","0","0","74888","","null","","","null","10","","","","","","","","","","","","","","","",""
"","time_out","","html-keyboard-response","77","250098","0.0-1.0-98.0-0.0","0","0","74888","","null","","","null","10","","","","","","","","","","","","","","","",""
"","ITI","","html-keyboard-response","78","251102","0.0-1.0-99.0","0","0","74888","","null","","","null","10","","","","","","","","","","","","","","","NaN",""
"","S1","","html-keyboard-response","79","251356","0.0-1.0-101.0","0","0","74888","","null","","","null","11","","","","","","","","","","","","","","","",""
"","ISI","","html-keyboard-response","80","252359","0.0-1.0-102.0","0","0","74888","","null","","","null","11","NaN","","","","","","","","","","","","","","",""
"","S2","","html-keyboard-response","81","252613","0.0-1.0-103.0","0","0","74888","","null","","","null","11","","NaN","","","","","","","","","","","","","",""
"","response","","html-keyboard-response","82","253057","0.0-1.0-104.0-0.0","0","0","74888","","441","","","75","11","","","1","11","training","adjacent","DE","4","5","L.jpg","O.jpg","0","1","0","",""
"","feedback","","html-keyboard-response","83","254061","0.0-1.0-105.0-0.0","0","0","74888","","null","","","null","11","","","","","","","","","","","","","","","",""
"","time_out","","html-keyboard-response","84","256065","0.0-1.0-107.0-0.0","0","0","74888","","null","","","null","11","","","","","","","","","","","","","","","",""
"","ITI","","html-keyboard-response","85","257069","0.0-1.0-108.0","0","0","74888","","null","","","null","11","","","","","","","","","","","","","","","NaN",""
"","S1","","html-keyboard-response","86","257323","0.0-1.0-110.0","0","0","74888","","null","","","null","12","","","","","","","","","","","","","","","",""
"","ISI","","html-keyboard-response","87","258327","0.0-1.0-111.0","0","0","74888","","null","","","null","12","NaN","","","","","","","","","","","","","","",""
"","S2","","html-keyboard-response","88","258594","0.0-1.0-112.0","0","0","74888","","null","","","null","12","","NaN","","","","","","","","","","","","","",""
"","response","","html-keyboard-response","89","258976","0.0-1.0-113.0-0.0","0","0","74888","","378","","","68","12","","","1","12","training","adjacent","EF","5","6","O.jpg","Q.jpg","1","1","1","",""
"","feedback","","html-keyboard-response","90","259980","0.0-1.0-114.0-0.0","0","0","74888","","null","","","null","12","","","","","","","","","","","","","","","",""
"","ITI","","html-keyboard-response","91","260984","0.0-1.0-117.0","0","0","74888","","null","","","null","12","","","","","","","","","","","","","","","NaN",""
"","S1","","html-keyboard-response","92","261238","0.0-1.0-119.0","0","0","74888","","null","","","null","13","","","","","","","","","","","","","","","",""
"","ISI","","html-keyboard-response","93","262242","0.0-1.0-120.0","0","0","74888","","null","","","null","13","NaN","","","","","","","","","","","","","","",""
"","S2","","html-keyboard-response","94","262496","0.0-1.0-121.0","0","0","74888","","null","","","null","13","","NaN","","","","","","","","","","","","","",""
"","response","","html-keyboard-response","95","262895","0.0-1.0-122.0-0.0","0","0","74888","","395","","","68","13","","","1","13","training","adjacent","DC","4","3","L.jpg","P.jpg","1","0","0","",""
"","feedback","","html-keyboard-response","96","263899","0.0-1.0-123.0-0.0","0","0","74888","","null","","","null","13","","","","","","","","","","","","","","","",""
"","time_out","","html-keyboard-response","97","265904","0.0-1.0-125.0-0.0","0","0","74888","","null","","","null","13","","","","","","","","","","","","","","","",""
"","ITI","","html-keyboard-response","98","266907","0.0-1.0-126.0","0","0","74888","","null","","","null","13","","","","","","","","","","","","","","","NaN",""
"","S1","","html-keyboard-response","99","267161","0.0-1.0-128.0","0","0","74888","","null","","","null","14","","","","","","","","","","","","","","","",""
"","ISI","","html-keyboard-response","100","268165","0.0-1.0-129.0","0","0","74888","","null","","","null","14","NaN","","","","","","","","","","","","","","",""
"","S2","","html-keyboard-response","101","268420","0.0-1.0-130.0","0","0","74888","","null","","","null","14","","NaN","","","","","","","","","","","","","",""
"","response","","html-keyboard-response","102","269009","0.0-1.0-131.0-0.0","0","0","74888","","586","","","68","14","","","1","14","training","adjacent","CD","3","4","P.jpg","L.jpg","1","1","1","",""
"","feedback","","html-keyboard-response","103","270014","0.0-1.0-132.0-0.0","0","0","74888","","null","","","null","14","","","","","","","","","","","","","","","",""
"","ITI","","html-keyboard-response","104","271018","0.0-1.0-135.0","0","0","74888","","null","","","null","14","","","","","","","","","","","","","","","NaN",""
"","S1","","html-keyboard-response","105","271273","0.0-1.0-137.0","0","0","74888","","null","","","null","15","","","","","","","","","","","","","","","",""
"","ISI","","html-keyboard-response","106","272276","0.0-1.0-138.0","0","0","74888","","null","","","null","15","NaN","","","","","","","","","","","","","","",""
"","S2","","html-keyboard-response","107","272538","0.0-1.0-139.0","0","0","74888","","null","","","null","15","","NaN","","","","","","","","","","","","","",""
"","response","","html-keyboard-response","108","272965","0.0-1.0-140.0-0.0","0","0","74888","","423","","","75","15","","","1","15","training","adjacent","DE","4","5","L.jpg","O.jpg","0","1","0","",""
"","feedback","","html-keyboard-response","109","273969","0.0-1.0-141.0-0.0","0","0","74888","","null","","","null","15","","","","","","","","","","","","","","","",""
"","time_out","","html-keyboard-response","110","275973","0.0-1.0-143.0-0.0","0","0","74888","","null","","","null","15","","","","","","","","","","","","","","","",""
"","ITI","","html-keyboard-response","111","276977","0.0-1.0-144.0","0","0","74888","","null","","","null","15","","","","","","","","","","","","","","","NaN",""
"","S1","","html-keyboard-response","112","277236","0.0-1.0-146.0","0","0","74888","","null","","","null","16","","","","","","","","","","","","","","","",""
"","ISI","","html-keyboard-response","113","278239","0.0-1.0-147.0","0","0","74888","","null","","","null","16","NaN","","","","","","","","","","","","","","",""
"","S2","","html-keyboard-response","114","278493","0.0-1.0-148.0","0","0","74888","","null","","","null","16","","NaN","","","","","","","","","","","","","",""
"","response","","html-keyboard-response","115","278900","0.0-1.0-149.0-0.0","0","0","74888","","403","","","68","16","","","1","16","training","adjacent","BA","2","1","N.jpg","R.jpg","1","0","0","",""
"","feedback","","html-keyboard-response","116","279904","0.0-1.0-150.0-0.0","0","0","74888","","null","","","null","16","","","","","","","","","","","","","","","",""
"","time_out","","html-keyboard-response","117","281907","0.0-1.0-152.0-0.0","0","0","74888","","null","","","null","16","","","","","","","","","","","","","","","",""
"","ITI","","html-keyboard-response","118","282914","0.0-1.0-153.0","0","0","74888","","null","","","null","16","","","","","","","","","","","","","","","NaN",""
"","S1","","html-keyboard-response","119","283167","0.0-1.0-155.0","0","0","74888","","null","","","null","17","","","","","","","","","","","","","","","",""
"","ISI","","html-keyboard-response","120","284171","0.0-1.0-156.0","0","0","74888","","null","","","null","17","NaN","","","","","","","","","","","","","","",""
"","S2","","html-keyboard-response","121","284425","0.0-1.0-157.0","0","0","74888","","null","","","null","17","","NaN","","","","","","","","","","","","","",""
"","response","","html-keyboard-response","122","284832","0.0-1.0-158.0-0.0","0","0","74888","","404","","","75","17","","","1","17","training","adjacent","FG","6","7","Q.jpg","M.jpg","0","1","0","",""
"","feedback","","html-keyboard-response","123","285836","0.0-1.0-159.0-0.0","0","0","74888","","null","","","null","17","","","","","","","","","","","","","","","",""
"","time_out","","html-keyboard-response","124","287840","0.0-1.0-161.0-0.0","0","0","74888","","null","","","null","17","","","","","","","","","","","","","","","",""
"","ITI","","html-keyboard-response","125","288843","0.0-1.0-162.0","0","0","74888","","null","","","null","17","","","","","","","","","","","","","","","NaN",""
"","S1","","html-keyboard-response","126","289097","0.0-1.0-164.0","0","0","74888","","null","","","null","18","","","","","","","","","","","","","","","",""
"","ISI","","html-keyboard-response","127","290101","0.0-1.0-165.0","0","0","74888","","null","","","null","18","NaN","","","","","","","","","","","","","","",""
"","S2","","html-keyboard-response","128","290355","0.0-1.0-166.0","0","0","74888","","null","","","null","18","","NaN","","","","","","","","","","","","","",""
"","response","","html-keyboard-response","129","290797","0.0-1.0-167.0-0.0","0","0","74888","","438","","","68","18","","","1","18","training","adjacent","EF","5","6","O.jpg","Q.jpg","1","1","1","",""
"","feedback","","html-keyboard-response","130","291801","0.0-1.0-168.0-0.0","0","0","74888","","null","","","null","18","","","","","","","","","","","","","","","",""
"","ITI","","html-keyboard-response","131","292805","0.0-1.0-171.0","0","0","74888","","null","","","null","18","","","","","","","","","","","","","","","NaN",""
"","S1","","html-keyboard-response","132","293058","0.0-1.0-173.0","0","0","74888","","null","","","null","19","","","","","","","","","","","","","","","",""
"","ISI","","html-keyboard-response","133","294064","0.0-1.0-174.0","0","0","74888","","null","","","null","19","NaN","","","","","","","","","","","","","","",""
"","S2","","html-keyboard-response","134","294318","0.0-1.0-175.0","0","0","74888","","null","","","null","19","","NaN","","","","","","","","","","","","","",""
"","response","","html-keyboard-response","135","294821","0.0-1.0-176.0-0.0","0","0","74888","","499","","","68","19","","","1","19","training","adjacent","EF","5","6","O.jpg","Q.jpg","1","1","1","",""
"","feedback","","html-keyboard-response","136","295825","0.0-1.0-177.0-0.0","0","0","74888","","null","","","null","19","","","","","","","","","","","","","","","",""
"","ITI","","html-keyboard-response","137","296829","0.0-1.0-180.0","0","0","74888","","null","","","null","19","","","","","","","","","","","","","","","NaN",""
"","S1","","html-keyboard-response","138","297084","0.0-1.0-182.0","0","0","74888","","null","","","null","20","","","","","","","","","","","","","","","",""
"","ISI","","html-keyboard-response","139","298087","0.0-1.0-183.0","0","0","74888","","null","","","null","20","NaN","","","","","","","","","","","","","","",""
"","S2","","html-keyboard-response","140","298341","0.0-1.0-184.0","0","0","74888","","null","","","null","20","","NaN","","","","","","","","","","","","","",""
"","response","","html-keyboard-response","141","298653","0.0-1.0-185.0-0.0","0","0","74888","","308","","","75","20","","","1","20","training","adjacent","FE","6","5","Q.jpg","O.jpg","0","0","1","",""
"","feedback","","html-keyboard-response","142","299657","0.0-1.0-186.0-0.0","0","0","74888","","null","","","null","20","","","","","","","","","","","","","","","",""
"","ITI","","html-keyboard-response","143","300661","0.0-1.0-189.0","0","0","74888","","null","","","null","20","","","","","","","","","","","","","","","NaN",""
"","S1","","html-keyboard-response","144","300915","0.0-1.0-191.0","0","0","74888","","null","","","null","21","","","","","","","","","","","","","","","",""
"","ISI","","html-keyboard-response","145","301918","0.0-1.0-192.0","0","0","74888","","null","","","null","21","NaN","","","","","","","","","","","","","","",""
"","S2","","html-keyboard-response","146","302173","0.0-1.0-193.0","0","0","74888","","null","","","null","21","","NaN","","","","","","","","","","","","","",""
"","response","","html-keyboard-response","147","302539","0.0-1.0-194.0-0.0","0","0","74888","","362","","","75","21","","","1","21","training","adjacent","DC","4","3","L.jpg","P.jpg","0","0","1","",""
"","feedback","","html-keyboard-response","148","303543","0.0-1.0-195.0-0.0","0","0","74888","","null","","","null","21","","","","","","","","","","","","","","","",""
"","ITI","","html-keyboard-response","149","304547","0.0-1.0-198.0","0","0","74888","","null","","","null","21","","","","","","","","","","","","","","","NaN",""
"","S1","","html-keyboard-response","150","304809","0.0-1.0-200.0","0","0","74888","","null","","","null","22","","","","","","","","","","","","","","","",""
"","ISI","","html-keyboard-response","151","305813","0.0-1.0-201.0","0","0","74888","","null","","","null","22","NaN","","","","","","","","","","","","","","",""
"","S2","","html-keyboard-response","152","306068","0.0-1.0-202.0","0","0","74888","","null","","","null","22","","NaN","","","","","","","","","","","","","",""
"","response","","html-keyboard-response","153","306515","0.0-1.0-203.0-0.0","0","0","74888","","444","","","75","22","","","1","22","training","adjacent","CB","3","2","P.jpg","N.jpg","0","0","1","",""
"","feedback","","html-keyboard-response","154","307520","0.0-1.0-204.0-0.0","0","0","74888","","null","","","null","22","","","","","","","","","","","","","","","",""
"","ITI","","html-keyboard-response","155","308525","0.0-1.0-207.0","0","0","74888","","null","","","null","22","","","","","","","","","","","","","","","NaN",""
"","S1","","html-keyboard-response","156","308780","0.0-1.0-209.0","0","0","74888","","null","","","null","23","","","","","","","","","","","","","","","",""
"","ISI","","html-keyboard-response","157","309782","0.0-1.0-210.0","0","0","74888","","null","","","null","23","NaN","","","","","","","","","","","","","","",""
"","S2","","html-keyboard-response","158","310035","0.0-1.0-211.0","0","0","74888","","null","","","null","23","","NaN","","","","","","","","","","","","","",""
"","response","","html-keyboard-response","159","310473","0.0-1.0-212.0-0.0","0","0","74888","","436","","","68","23","","","1","23","training","adjacent","BA","2","1","N.jpg","R.jpg","1","0","0","",""
"","feedback","","html-keyboard-response","160","311475","0.0-1.0-213.0-0.0","0","0","74888","","null","","","null","23","","","","","","","","","","","","","","","",""
"","time_out","","html-keyboard-response","161","313479","0.0-1.0-215.0-0.0","0","0","74888","","null","","","null","23","","","","","","","","","","","","","","","",""
"","ITI","","html-keyboard-response","162","314483","0.0-1.0-216.0","0","0","74888","","null","","","null","23","","","","","","","","","","","","","","","NaN",""
"","S1","","html-keyboard-response","163","314737","0.0-1.0-218.0","0","0","74888","","null","","","null","24","","","","","","","","","","","","","","","",""
"","ISI","","html-keyboard-response","164","315741","0.0-1.0-219.0","0","0","74888","","null","","","null","24","NaN","","","","","","","","","","","","","","",""
"","S2","","html-keyboard-response","165","315995","0.0-1.0-220.0","0","0","74888","","null","","","null","24","","NaN","","","","","","","","","","","","","",""
"","response","","html-keyboard-response","166","316398","0.0-1.0-221.0-0.0","0","0","74888","","400","","","68","24","","","1","24","training","adjacent","ED","5","4","O.jpg","L.jpg","1","0","0","",""
"","feedback","","html-keyboard-response","167","317403","0.0-1.0-222.0-0.0","0","0","74888","","null","","","null","24","","","","","","","","","","","","","","","",""
"","time_out","","html-keyboard-response","168","319407","0.0-1.0-224.0-0.0","0","0","74888","","null","","","null","24","","","","","","","","","","","","","","","",""
"","ITI","","html-keyboard-response","169","320410","0.0-1.0-225.0","0","0","74888","","null","","","null","24","","","","","","","","","","","","","","","NaN",""
"","S1","","html-keyboard-response","170","320665","0.0-1.0-227.0","0","0","74888","","null","","","null","25","","","","","","","","","","","","","","","",""
"","ISI","","html-keyboard-response","171","321668","0.0-1.0-228.0","0","0","74888","","null","","","null","25","NaN","","","","","","","","","","","","","","",""
"","S2","","html-keyboard-response","172","321923","0.0-1.0-229.0","0","0","74888","","null","","","null","25","","NaN","","","","","","","","","","","","","",""
"","response","","html-keyboard-response","173","322314","0.0-1.0-230.0-0.0","0","0","74888","","388","","","75","25","","","1","25","training","adjacent","CD","3","4","P.jpg","L.jpg","0","1","0","",""
"","feedback","","html-keyboard-response","174","323319","0.0-1.0-231.0-0.0","0","0","74888","","null","","","null","25","","","","","","","","","","","","","","","",""
"","time_out","","html-keyboard-response","175","325323","0.0-1.0-233.0-0.0","0","0","74888","","null","","","null","25","","","","","","","","","","","","","","","",""
"","ITI","","html-keyboard-response","176","326328","0.0-1.0-234.0","0","0","74888","","null","","","null","25","","","","","","","","","","","","","","","NaN",""
"","S1","","html-keyboard-response","177","326582","0.0-1.0-236.0","0","0","74888","","null","","","null","26","","","","","","","","","","","","","","","",""
"","ISI","","html-keyboard-response","178","327586","0.0-1.0-237.0","0","0","74888","","null","","","null","26","NaN","","","","","","","","","","","","","","",""
"","S2","","html-keyboard-response","179","327840","0.0-1.0-238.0","0","0","74888","","null","","","null","26","","NaN","","","","","","","","","","","","","",""
"","response","","html-keyboard-response","180","328324","0.0-1.0-239.0-0.0","0","0","74888","","480","","","75","26","","","1","26","training","adjacent","BA","2","1","N.jpg","R.jpg","0","0","1","",""
"","feedback","","html-keyboard-response","181","329328","0.0-1.0-240.0-0.0","0","0","74888","","null","","","null","26","","","","","","","","","","","","","","","",""
"","ITI","","html-keyboard-response","182","330333","0.0-1.0-243.0","0","0","74888","","null","","","null","26","","","","","","","","","","","","","","","NaN",""
"","S1","","html-keyboard-response","183","330587","0.0-1.0-245.0","0","0","74888","","null","","","null","27","","","","","","","","","","","","","","","",""
"","ISI","","html-keyboard-response","184","331590","0.0-1.0-246.0","0","0","74888","","null","","","null","27","NaN","","","","","","","","","","","","","","",""
"","S2","","html-keyboard-response","185","331845","0.0-1.0-247.0","0","0","74888","","null","","","null","27","","NaN","","","","","","","","","","","","","",""
"","response","","html-keyboard-response","186","332091","0.0-1.0-248.0-0.0","0","0","74888","","243","","","68","27","","","1","27","training","adjacent","EF","5","6","O.jpg","Q.jpg","1","1","1","",""
"","feedback","","html-keyboard-response","187","333096","0.0-1.0-249.0-0.0","0","0","74888","","null","","","null","27","","","","","","","","","","","","","","","",""
"","ITI","","html-keyboard-response","188","334099","0.0-1.0-252.0","0","0","74888","","null","","","null","27","","","","","","","","","","","","","","","NaN",""
"","S1","","html-keyboard-response","189","334353","0.0-1.0-254.0","0","0","74888","","null","","","null","28","","","","","","","","","","","","","","","",""
"","ISI","","html-keyboard-response","190","335357","0.0-1.0-255.0","0","0","74888","","null","","","null","28","NaN","","","","","","","","","","","","","","",""
"","S2","","html-keyboard-response","191","335611","0.0-1.0-256.0","0","0","74888","","null","","","null","28","","NaN","","","","","","","","","","","","","",""
"","response","","html-keyboard-response","192","335905","0.0-1.0-257.0-0.0","0","0","74888","","290","","","75","28","","","1","28","training","adjacent","AB","1","2","R.jpg","N.jpg","0","1","0","",""
"","feedback","","html-keyboard-response","193","336920","0.0-1.0-258.0-0.0","0","0","74888","","null","","","null","28","","","","","","","","","","","","","","","",""
"","time_out","","html-keyboard-response","194","338924","0.0-1.0-260.0-0.0","0","0","74888","","null","","","null","28","","","","","","","","","","","","","","","",""
"","ITI","","html-keyboard-response","195","339928","0.0-1.0-261.0","0","0","74888","","null","","","null","28","","","","","","","","","","","","","","","NaN",""
"","S1","","html-keyboard-response","196","340184","0.0-1.0-263.0","0","0","74888","","null","","","null","29","","","","","","","","","","","","","","","",""
"","ISI","","html-keyboard-response","197","341187","0.0-1.0-264.0","0","0","74888","","null","","","null","29","NaN","","","","","","","","","","","","","","",""
"","S2","","html-keyboard-response","198","341442","0.0-1.0-265.0","0","0","74888","","null","","","null","29","","NaN","","","","","","","","","","","","","",""
"","response","","html-keyboard-response","199","341715","0.0-1.0-266.0-0.0","0","0","74888","","269","","","68","29","","","1","29","training","adjacent","AB","1","2","R.jpg","N.jpg","1","1","1","",""
"","feedback","","html-keyboard-response","200","342719","0.0-1.0-267.0-0.0","0","0","74888","","null","","","null","29","","","","","","","","","","","","","","","",""
"","ITI","","html-keyboard-response","201","343724","0.0-1.0-270.0","0","0","74888","","null","","","null","29","","","","","","","","","","","","","","","NaN",""
"","S1","","html-keyboard-response","202","343977","0.0-1.0-272.0","0","0","74888","","null","","","null","30","","","","","","","","","","","","","","","",""
"","ISI","","html-keyboard-response","203","344981","0.0-1.0-273.0","0","0","74888","","null","","","null","30","NaN","","","","","","","","","","","","","","",""
"","S2","","html-keyboard-response","204","345236","0.0-1.0-274.0","0","0","74888","","null","","","null","30","","NaN","","","","","","","","","","","","","",""
"","response","","html-keyboard-response","205","345597","0.0-1.0-275.0-0.0","0","0","74888","","358","","","75","30","","","1","30","training","adjacent","FG","6","7","Q.jpg","M.jpg","0","1","0","",""
"","feedback","","html-keyboard-response","206","346601","0.0-1.0-276.0-0.0","0","0","74888","","null","","","null","30","","","","","","","","","","","","","","","",""
"","time_out","","html-keyboard-response","207","348604","0.0-1.0-278.0-0.0","0","0","74888","","null","","","null","30","","","","","","","","","","","","","","","",""
"","ITI","","html-keyboard-response","208","349608","0.0-1.0-279.0","0","0","74888","","null","","","null","30","","","","","","","","","","","","","","","NaN",""
"","S1","","html-keyboard-response","209","349863","0.0-1.0-281.0","0","0","74888","","null","","","null","31","","","","","","","","","","","","","","","",""
"","ISI","","html-keyboard-response","210","350867","0.0-1.0-282.0","0","0","74888","","null","","","null","31","NaN","","","","","","","","","","","","","","",""
"","S2","","html-keyboard-response","211","351121","0.0-1.0-283.0","0","0","74888","","null","","","null","31","","NaN","","","","","","","","","","","","","",""
"","response","","html-keyboard-response","212","351568","0.0-1.0-284.0-0.0","0","0","74888","","444","","","75","31","","","1","31","training","adjacent","CB","3","2","P.jpg","N.jpg","0","0","1","",""
"","feedback","","html-keyboard-response","213","352573","0.0-1.0-285.0-0.0","0","0","74888","","null","","","null","31","","","","","","","","","","","","","","","",""
"","ITI","","html-keyboard-response","214","353578","0.0-1.0-288.0","0","0","74888","","null","","","null","31","","","","","","","","","","","","","","","NaN",""
"","S1","","html-keyboard-response","215","353831","0.0-1.0-290.0","0","0","74888","","null","","","null","32","","","","","","","","","","","","","","","",""
"","ISI","","html-keyboard-response","216","354836","0.0-1.0-291.0","0","0","74888","","null","","","null","32","NaN","","","","","","","","","","","","","","",""
"","S2","","html-keyboard-response","217","355101","0.0-1.0-292.0","0","0","74888","","null","","","null","32","","NaN","","","","","","","","","","","","","",""
"","response","","html-keyboard-response","218","355214","0.0-1.0-293.0-0.0","0","0","74888","","109","","","75","32","","","1","32","training","adjacent","DC","4","3","L.jpg","P.jpg","0","0","1","",""
"","feedback","","html-keyboard-response","219","356218","0.0-1.0-294.0-0.0","0","0","74888","","null","","","null","32","","","","","","","","","","","","","","","",""
"","ITI","","html-keyboard-response","220","357222","0.0-1.0-297.0","0","0","74888","","null","","","null","32","","","","","","","","","","","","","","","NaN",""
"","S1","","html-keyboard-response","221","357476","0.0-1.0-299.0","0","0","74888","","null","","","null","33","","","","","","","","","","","","","","","",""
"","ISI","","html-keyboard-response","222","358479","0.0-1.0-300.0","0","0","74888","","null","","","null","33","NaN","","","","","","","","","","","","","","",""
"","S2","","html-keyboard-response","223","358743","0.0-1.0-301.0","0","0","74888","","null","","","null","33","","NaN","","","","","","","","","","","","","",""
"","response","","html-keyboard-response","224","359074","0.0-1.0-302.0-0.0","0","0","74888","","328","","","75","33","","","1","33","training","adjacent","BC","2","3","N.jpg","P.jpg","0","1","0","",""
"","feedback","","html-keyboard-response","225","360078","0.0-1.0-303.0-0.0","0","0","74888","","null","","","null","33","","","","","","","","","","","","","","","",""
"","time_out","","html-keyboard-response","226","362082","0.0-1.0-305.0-0.0","0","0","74888","","null","","","null","33","","","","","","","","","","","","","","","",""
"","ITI","","html-keyboard-response","227","363085","0.0-1.0-306.0","0","0","74888","","null","","","null","33","","","","","","","","","","","","","","","NaN",""
"","S1","","html-keyboard-response","228","363339","0.0-1.0-308.0","0","0","74888","","null","","","null","34","","","","","","","","","","","","","","","",""
"","ISI","","html-keyboard-response","229","364344","0.0-1.0-309.0","0","0","74888","","null","","","null","34","NaN","","","","","","","","","","","","","","",""
"","S2","","html-keyboard-response","230","364598","0.0-1.0-310.0","0","0","74888","","null","","","null","34","","NaN","","","","","","","","","","","","","",""
"","response","","html-keyboard-response","231","364852","0.0-1.0-311.0-0.0","0","0","74888","","251","","","75","34","","","1","34","training","adjacent","DE","4","5","L.jpg","O.jpg","0","1","0","",""
"","feedback","","html-keyboard-response","232","365856","0.0-1.0-312.0-0.0","0","0","74888","","null","","","null","34","","","","","","","","","","","","","","","",""
"","time_out","","html-keyboard-response","233","367861","0.0-1.0-314.0-0.0","0","0","74888","","null","","","null","34","","","","","","","","","","","","","","","",""
"","ITI","","html-keyboard-response","234","368865","0.0-1.0-315.0","0","0","74888","","null","","","null","34","","","","","","","","","","","","","","","NaN",""
"","S1","","html-keyboard-response","235","369118","0.0-1.0-317.0","0","0","74888","","null","","","null","35","","","","","","","","","","","","","","","",""
"","ISI","","html-keyboard-response","236","370122","0.0-1.0-318.0","0","0","74888","","null","","","null","35","NaN","","","","","","","","","","","","","","",""
"","S2","","html-keyboard-response","237","370377","0.0-1.0-319.0","0","0","74888","","null","","","null","35","","NaN","","","","","","","","","","","","","",""
"","response","","html-keyboard-response","238","370826","0.0-1.0-320.0-0.0","0","0","74888","","446","","","68","35","","","1","35","training","adjacent","GF","7","6","M.jpg","Q.jpg","1","0","0","",""
"","feedback","","html-keyboard-response","239","371831","0.0-1.0-321.0-0.0","0","0","74888","","null","","","null","35","","","","","","","","","","","","","","","",""
"","time_out","","html-keyboard-response","240","373835","0.0-1.0-323.0-0.0","0","0","74888","","null","","","null","35","","","","","","","","","","","","","","","",""
"","ITI","","html-keyboard-response","241","374839","0.0-1.0-324.0","0","0","74888","","null","","","null","35","","","","","","","","","","","","","","","NaN",""
"","S1","","html-keyboard-response","242","375093","0.0-1.0-326.0","0","0","74888","","null","","","null","36","","","","","","","","","","","","","","","",""
"","ISI","","html-keyboard-response","243","376097","0.0-1.0-327.0","0","0","74888","","null","","","null","36","NaN","","","","","","","","","","","","","","",""
"","S2","","html-keyboard-response","244","376354","0.0-1.0-328.0","0","0","74888","","null","","","null","36","","NaN","","","","","","","","","","","","","",""
"","response","","html-keyboard-response","245","376542","0.0-1.0-329.0-0.0","0","0","74888","","185","","","75","36","","","1","36","training","adjacent","FE","6","5","Q.jpg","O.jpg","0","0","1","",""
"","feedback","","html-keyboard-response","246","377547","0.0-1.0-330.0-0.0","0","0","74888","","null","","","null","36","","","","","","","","","","","","","","","",""
"","ITI","","html-keyboard-response","247","378551","0.0-1.0-333.0","0","0","74888","","null","","","null","36","","","","","","","","","","","","","","","NaN",""
"","S1","","html-keyboard-response","248","378805","0.0-1.0-335.0","0","0","74888","","null","","","null","37","","","","","","","","","","","","","","","",""
"","ISI","","html-keyboard-response","249","379809","0.0-1.0-336.0","0","0","74888","","null","","","null","37","NaN","","","","","","","","","","","","","","",""
"","S2","","html-keyboard-response","250","380063","0.0-1.0-337.0","0","0","74888","","null","","","null","37","","NaN","","","","","","","","","","","","","",""
"","response","","html-keyboard-response","251","380376","0.0-1.0-338.0-0.0","0","0","74888","","308","","","68","37","","","1","37","training","adjacent","ED","5","4","O.jpg","L.jpg","1","0","0","",""
"","feedback","","html-keyboard-response","252","381381","0.0-1.0-339.0-0.0","0","0","74888","","null","","","null","37","","","","","","","","","","","","","","","",""
"","time_out","","html-keyboard-response","253","383385","0.0-1.0-341.0-0.0","0","0","74888","","null","","","null","37","","","","","","","","","","","","","","","",""
"","ITI","","html-keyboard-response","254","384389","0.0-1.0-342.0","0","0","74888","","null","","","null","37","","","","","","","","","","","","","","","NaN",""
"","S1","","html-keyboard-response","255","384643","0.0-1.0-344.0","0","0","74888","","null","","","null","38","","","","","","","","","","","","","","","",""
"","ISI","","html-keyboard-response","256","385647","0.0-1.0-345.0","0","0","74888","","null","","","null","38","NaN","","","","","","","","","","","","","","",""
"","S2","","html-keyboard-response","257","385901","0.0-1.0-346.0","0","0","74888","","null","","","null","38","","NaN","","","","","","","","","","","","","",""
"","response","","html-keyboard-response","258","386308","0.0-1.0-347.0-0.0","0","0","74888","","404","","","75","38","","","1","38","training","adjacent","GF","7","6","M.jpg","Q.jpg","0","0","1","",""
"","feedback","","html-keyboard-response","259","387313","0.0-1.0-348.0-0.0","0","0","74888","","null","","","null","38","","","","","","","","","","","","","","","",""
"","ITI","","html-keyboard-response","260","388317","0.0-1.0-351.0","0","0","74888","","null","","","null","38","","","","","","","","","","","","","","","NaN",""
"","S1","","html-keyboard-response","261","388571","0.0-1.0-353.0","0","0","74888","","null","","","null","39","","","","","","","","","","","","","","","",""
"","ISI","","html-keyboard-response","262","389574","0.0-1.0-354.0","0","0","74888","","null","","","null","39","NaN","","","","","","","","","","","","","","",""
"","S2","","html-keyboard-response","263","389829","0.0-1.0-355.0","0","0","74888","","null","","","null","39","","NaN","","","","","","","","","","","","","",""
"","response","","html-keyboard-response","264","390024","0.0-1.0-356.0-0.0","0","0","74888","","192","","","75","39","","","1","39","training","adjacent","FG","6","7","Q.jpg","M.jpg","0","1","0","",""
"","feedback","","html-keyboard-response","265","391028","0.0-1.0-357.0-0.0","0","0","74888","","null","","","null","39","","","","","","","","","","","","","","","",""
"","time_out","","html-keyboard-response","266","393032","0.0-1.0-359.0-0.0","0","0","74888","","null","","","null","39","","","","","","","","","","","","","","","",""
"","ITI","","html-keyboard-response","267","394036","0.0-1.0-360.0","0","0","74888","","null","","","null","39","","","","","","","","","","","","","","","NaN",""
"","S1","","html-keyboard-response","268","394291","0.0-1.0-362.0","0","0","74888","","null","","","null","40","","","","","","","","","","","","","","","",""
"","ISI","","html-keyboard-response","269","395295","0.0-1.0-363.0","0","0","74888","","null","","","null","40","NaN","","","","","","","","","","","","","","",""
"","S2","","html-keyboard-response","270","395549","0.0-1.0-364.0","0","0","74888","","null","","","null","40","","NaN","","","","","","","","","","","","","",""
"","response","","html-keyboard-response","271","395814","0.0-1.0-365.0-0.0","0","0","74888","","262","","","75","40","","","1","40","training","adjacent","GF","7","6","M.jpg","Q.jpg","0","0","1","",""
"","feedback","","html-keyboard-response","272","396818","0.0-1.0-366.0-0.0","0","0","74888","","null","","","null","40","","","","","","","","","","","","","","","",""
"","ITI","","html-keyboard-response","273","397823","0.0-1.0-369.0","0","0","74888","","null","","","null","40","","","","","","","","","","","","","","","NaN",""
"","S1","","html-keyboard-response","274","398077","0.0-1.0-371.0","0","0","74888","","null","","","null","41","","","","","","","","","","","","","","","",""
"","ISI","","html-keyboard-response","275","399081","0.0-1.0-372.0","0","0","74888","","null","","","null","41","NaN","","","","","","","","","","","","","","",""
"","S2","","html-keyboard-response","276","399335","0.0-1.0-373.0","0","0","74888","","null","","","null","41","","NaN","","","","","","","","","","","","","",""
"","response","","html-keyboard-response","277","399612","0.0-1.0-374.0-0.0","0","0","74888","","274","","","68","41","","","1","41","training","adjacent","BC","2","3","N.jpg","P.jpg","1","1","1","",""
"","feedback","","html-keyboard-response","278","400616","0.0-1.0-375.0-0.0","0","0","74888","","null","","","null","41","","","","","","","","","","","","","","","",""
"","ITI","","html-keyboard-response","279","401621","0.0-1.0-378.0","0","0","74888","","null","","","null","41","","","","","","","","","","","","","","","NaN",""
"","S1","","html-keyboard-response","280","401875","0.0-1.0-380.0","0","0","74888","","null","","","null","42","","","","","","","","","","","","","","","",""
"","ISI","","html-keyboard-response","281","402878","0.0-1.0-381.0","0","0","74888","","null","","","null","42","NaN","","","","","","","","","","","","","","",""
"","S2","","html-keyboard-response","282","403133","0.0-1.0-382.0","0","0","74888","","null","","","null","42","","NaN","","","","","","","","","","","","","",""
"","response","","html-keyboard-response","283","403406","0.0-1.0-383.0-0.0","0","0","74888","","269","","","75","42","","","1","42","training","adjacent","FE","6","5","Q.jpg","O.jpg","0","0","1","",""
"","feedback","","html-keyboard-response","284","404410","0.0-1.0-384.0-0.0","0","0","74888","","null","","","null","42","","","","","","","","","","","","","","","",""
"","ITI","","html-keyboard-response","285","405414","0.0-1.0-387.0","0","0","74888","","null","","","null","42","","","","","","","","","","","","","","","NaN",""
"","S1","","html-keyboard-response","286","405668","0.0-1.0-389.0","0","0","74888","","null","","","null","43","","","","","","","","","","","","","","","",""
"","ISI","","html-keyboard-response","287","406671","0.0-1.0-390.0","0","0","74888","","null","","","null","43","NaN","","","","","","","","","","","","","","",""
"","S2","","html-keyboard-response","288","406925","0.0-1.0-391.0","0","0","74888","","null","","","null","43","","NaN","","","","","","","","","","","","","",""
"","response","","html-keyboard-response","289","407185","0.0-1.0-392.0-0.0","0","0","74888","","256","","","75","43","","","1","43","training","adjacent","BC","2","3","N.jpg","P.jpg","0","1","0","",""
"","feedback","","html-keyboard-response","290","408189","0.0-1.0-393.0-0.0","0","0","74888","","null","","","null","43","","","","","","","","","","","","","","","",""
"","time_out","","html-keyboard-response","291","410193","0.0-1.0-395.0-0.0","0","0","74888","","null","","","null","43","","","","","","","","","","","","","","","",""
"","ITI","","html-keyboard-response","292","411198","0.0-1.0-396.0","0","0","74888","","null","","","null","43","","","","","","","","","","","","","","","NaN",""
"","S1","","html-keyboard-response","293","411451","0.0-1.0-398.0","0","0","74888","","null","","","null","44","","","","","","","","","","","","","","","",""
"","ISI","","html-keyboard-response","294","412455","0.0-1.0-399.0","0","0","74888","","null","","","null","44","NaN","","","","","","","","","","","","","","",""
"","S2","","html-keyboard-response","295","412709","0.0-1.0-400.0","0","0","74888","","null","","","null","44","","NaN","","","","","","","","","","","","","",""
"","response","","html-keyboard-response","296","413018","0.0-1.0-401.0-0.0","0","0","74888","","306","","","68","44","","","1","44","training","adjacent","ED","5","4","O.jpg","L.jpg","1","0","0","",""
"","feedback","","html-keyboard-response","297","414024","0.0-1.0-402.0-0.0","0","0","74888","","null","","","null","44","","","","","","","","","","","","","","","",""
"","time_out","","html-keyboard-response","298","416028","0.0-1.0-404.0-0.0","0","0","74888","","null","","","null","44","","","","","","","","","","","","","","","",""
"","ITI","","html-keyboard-response","299","417032","0.0-1.0-405.0","0","0","74888","","null","","","null","44","","","","","","","","","","","","","","","NaN",""
"","S1","","html-keyboard-response","300","417287","0.0-1.0-407.0","0","0","74888","","null","","","null","45","","","","","","","","","","","","","","","",""
"","ISI","","html-keyboard-response","301","418291","0.0-1.0-408.0","0","0","74888","","null","","","null","45","NaN","","","","","","","","","","","","","","",""
"","S2","","html-keyboard-response","302","418546","0.0-1.0-409.0","0","0","74888","","null","","","null","45","","NaN","","","","","","","","","","","","","",""
"","response","","html-keyboard-response","303","418884","0.0-1.0-410.0-0.0","0","0","74888","","335","","","68","45","","","1","45","training","adjacent","CD","3","4","P.jpg","L.jpg","1","1","1","",""
"","feedback","","html-keyboard-response","304","419889","0.0-1.0-411.0-0.0","0","0","74888","","null","","","null","45","","","","","","","","","","","","","","","",""
"","ITI","","html-keyboard-response","305","420893","0.0-1.0-414.0","0","0","74888","","null","","","null","45","","","","","","","","","","","","","","","NaN",""
"","S1","","html-keyboard-response","306","421148","0.0-1.0-416.0","0","0","74888","","null","","","null","46","","","","","","","","","","","","","","","",""
"","ISI","","html-keyboard-response","307","422151","0.0-1.0-417.0","0","0","74888","","null","","","null","46","NaN","","","","","","","","","","","","","","",""
"","S2","","html-keyboard-response","308","422405","0.0-1.0-418.0","0","0","74888","","null","","","null","46","","NaN","","","","","","","","","","","","","",""
"","response","","html-keyboard-response","309","422883","0.0-1.0-419.0-0.0","0","0","74888","","474","","","75","46","","","1","46","training","adjacent","BA","2","1","N.jpg","R.jpg","0","0","1","",""
"","feedback","","html-keyboard-response","310","423887","0.0-1.0-420.0-0.0","0","0","74888","","null","","","null","46","","","","","","","","","","","","","","","",""
"","ITI","","html-keyboard-response","311","424893","0.0-1.0-423.0","0","0","74888","","null","","","null","46","","","","","","","","","","","","","","","NaN",""
"","S1","","html-keyboard-response","312","425147","0.0-1.0-425.0","0","0","74888","","null","","","null","47","","","","","","","","","","","","","","","",""
"","ISI","","html-keyboard-response","313","426151","0.0-1.0-426.0","0","0","74888","","null","","","null","47","NaN","","","","","","","","","","","","","","",""
"","S2","","html-keyboard-response","314","426405","0.0-1.0-427.0","0","0","74888","","null","","","null","47","","NaN","","","","","","","","","","","","","",""
"","response","","html-keyboard-response","315","426480","0.0-1.0-428.0-0.0","0","0","74888","","72","","","75","47","","","1","47","training","adjacent","GF","7","6","M.jpg","Q.jpg","0","0","1","",""
"","feedback","","html-keyboard-response","316","427485","0.0-1.0-429.0-0.0","0","0","74888","","null","","","null","47","","","","","","","","","","","","","","","",""
"","ITI","","html-keyboard-response","317","428489","0.0-1.0-432.0","0","0","74888","","null","","","null","47","","","","","","","","","","","","","","","NaN",""
"","block_over","","html-keyboard-response","318","434057","0.0-1.0-433.0-0.0","0","0","74888","","5562","","","32","47","","","","","","","","","","","","","","","",""
"","S1","","html-keyboard-response","319","434311","0.0-1.0-434.0","0","0","74888","","null","","","null","48","","","","","","","","","","","","","","","",""
"","ISI","","html-keyboard-response","320","435315","0.0-1.0-435.0","0","0","74888","","null","","","null","48","NaN","","","","","","","","","","","","","","",""
"","S2","","html-keyboard-response","321","435569","0.0-1.0-436.0","0","0","74888","","null","","","null","48","","NaN","","","","","","","","","","","","","",""
"","response","","html-keyboard-response","322","436149","0.0-1.0-437.0-0.0","0","0","74888","","576","","","68","48","","","2","48","training","adjacent","BC","2","3","N.jpg","P.jpg","1","1","1","",""
"","feedback","","html-keyboard-response","323","437153","0.0-1.0-438.0-0.0","0","0","74888","","null","","","null","48","","","","","","","","","","","","","","","",""
"","ITI","","html-keyboard-response","324","438157","0.0-1.0-441.0","0","0","74888","","null","","","null","48","","","","","","","","","","","","","","","NaN",""
"","S1","","html-keyboard-response","325","438410","0.0-1.0-443.0","0","0","74888","","null","","","null","49","","","","","","","","","","","","","","","",""
"","ISI","","html-keyboard-response","326","439415","0.0-1.0-444.0","0","0","74888","","null","","","null","49","NaN","","","","","","","","","","","","","","",""
"","S2","","html-keyboard-response","327","439667","0.0-1.0-445.0","0","0","74888","","null","","","null","49","","NaN","","","","","","","","","","","","","",""
"","response","","html-keyboard-response","328","439889","0.0-1.0-446.0-0.0","0","0","74888","","221","","","68","49","","","2","49","training","adjacent","CD","3","4","P.jpg","L.jpg","1","1","1","",""
"","feedback","","html-keyboard-response","329","440892","0.0-1.0-447.0-0.0","0","0","74888","","null","","","null","49","","","","","","","","","","","","","","","",""
"","ITI","","html-keyboard-response","330","441896","0.0-1.0-450.0","0","0","74888","","null","","","null","49","","","","","","","","","","","","","","","NaN",""
"","S1","","html-keyboard-response","331","442150","0.0-1.0-452.0","0","0","74888","","null","","","null","50","","","","","","","","","","","","","","","",""
"","ISI","","html-keyboard-response","332","443154","0.0-1.0-453.0","0","0","74888","","null","","","null","50","NaN","","","","","","","","","","","","","","",""
"","S2","","html-keyboard-response","333","443408","0.0-1.0-454.0","0","0","74888","","null","","","null","50","","NaN","","","","","","","","","","","","","",""
"","response","","html-keyboard-response","334","443661","0.0-1.0-455.0-0.0","0","0","74888","","248","","","75","50","","","2","50","training","adjacent","FE","6","5","Q.jpg","O.jpg","0","0","1","",""
"","feedback","","html-keyboard-response","335","444666","0.0-1.0-456.0-0.0","0","0","74888","","null","","","null","50","","","","","","","","","","","","","","","",""
"","ITI","","html-keyboard-response","336","445670","0.0-1.0-459.0","0","0","74888","","null","","","null","50","","","","","","","","","","","","","","","NaN",""
"","S1","","html-keyboard-response","337","445925","0.0-1.0-461.0","0","0","74888","","null","","","null","51","","","","","","","","","","","","","","","",""
"","ISI","","html-keyboard-response","338","446928","0.0-1.0-462.0","0","0","74888","","null","","","null","51","NaN","","","","","","","","","","","","","","",""
"","S2","","html-keyboard-response","339","447184","0.0-1.0-463.0","0","0","74888","","null","","","null","51","","NaN","","","","","","","","","","","","","",""
"","response","","html-keyboard-response","340","447211","0.0-1.0-464.0-0.0","0","0","74888","","23","","","68","51","","","2","51","training","adjacent","BA","2","1","N.jpg","R.jpg","1","0","0","",""
"","feedback","","html-keyboard-response","341","448216","0.0-1.0-465.0-0.0","0","0","74888","","null","","","null","51","","","","","","","","","","","","","","","",""
"","time_out","","html-keyboard-response","342","450220","0.0-1.0-467.0-0.0","0","0","74888","","null","","","null","51","","","","","","","","","","","","","","","",""
"","ITI","","html-keyboard-response","343","451225","0.0-1.0-468.0","0","0","74888","","null","","","null","51","","","","","","","","","","","","","","","NaN",""
"","S1","","html-keyboard-response","344","451479","0.0-1.0-470.0","0","0","74888","","null","","","null","52","","","","","","","","","","","","","","","",""
"","ISI","","html-keyboard-response","345","452482","0.0-1.0-471.0","0","0","74888","","null","","","null","52","NaN","","","","","","","","","","","","","","",""
"","S2","","html-keyboard-response","346","452737","0.0-1.0-472.0","0","0","74888","","null","","","null","52","","NaN","","","","","","","","","","","","","",""
"","response","","html-keyboard-response","347","452855","0.0-1.0-473.0-0.0","0","0","74888","","115","","","75","52","","","2","52","training","adjacent","DE","4","5","L.jpg","O.jpg","0","1","0","",""
"","feedback","","html-keyboard-response","348","453860","0.0-1.0-474.0-0.0","0","0","74888","","null","","","null","52","","","","","","","","","","","","","","","",""
"","time_out","","html-keyboard-response","349","455865","0.0-1.0-476.0-0.0","0","0","74888","","null","","","null","52","","","","","","","","","","","","","","","",""
"","ITI","","html-keyboard-response","350","456869","0.0-1.0-477.0","0","0","74888","","null","","","null","52","","","","","","","","","","","","","","","NaN",""
"","S1","","html-keyboard-response","351","457123","0.0-1.0-479.0","0","0","74888","","null","","","null","53","","","","","","","","","","","","","","","",""
"","ISI","","html-keyboard-response","352","458127","0.0-1.0-480.0","0","0","74888","","null","","","null","53","NaN","","","","","","","","","","","","","","",""
"","S2","","html-keyboard-response","353","458394","0.0-1.0-481.0","0","0","74888","","null","","","null","53","","NaN","","","","","","","","","","","","","",""
"","response","","html-keyboard-response","354","458590","0.0-1.0-482.0-0.0","0","0","74888","","192","","","68","53","","","2","53","training","adjacent","BC","2","3","N.jpg","P.jpg","1","1","1","",""
"","feedback","","html-keyboard-response","355","459595","0.0-1.0-483.0-0.0","0","0","74888","","null","","","null","53","","","","","","","","","","","","","","","",""
"","ITI","","html-keyboard-response","356","460599","0.0-1.0-486.0","0","0","74888","","null","","","null","53","","","","","","","","","","","","","","","NaN",""
"","S1","","html-keyboard-response","357","460853","0.0-1.0-488.0","0","0","74888","","null","","","null","54","","","","","","","","","","","","","","","",""
"","ISI","","html-keyboard-response","358","461857","0.0-1.0-489.0","0","0","74888","","null","","","null","54","NaN","","","","","","","","","","","","","","",""
"","S2","","html-keyboard-response","359","462111","0.0-1.0-490.0","0","0","74888","","null","","","null","54","","NaN","","","","","","","","","","","","","",""
"","response","","html-keyboard-response","360","462347","0.0-1.0-491.0-0.0","0","0","74888","","233","","","68","54","","","2","54","training","adjacent","EF","5","6","O.jpg","Q.jpg","1","1","1","",""
"","feedback","","html-keyboard-response","361","463352","0.0-1.0-492.0-0.0","0","0","74888","","null","","","null","54","","","","","","","","","","","","","","","",""
"","ITI","","html-keyboard-response","362","464356","0.0-1.0-495.0","0","0","74888","","null","","","null","54","","","","","","","","","","","","","","","NaN",""
"","S1","","html-keyboard-response","363","464624","0.0-1.0-497.0","0","0","74888","","null","","","null","55","","","","","","","","","","","","","","","",""
"","ISI","","html-keyboard-response","364","465628","0.0-1.0-498.0","0","0","74888","","null","","","null","55","NaN","","","","","","","","","","","","","","",""
"","S2","","html-keyboard-response","365","465883","0.0-1.0-499.0","0","0","74888","","null","","","null","55","","NaN","","","","","","","","","","","","","",""
"","response","","html-keyboard-response","366","466214","0.0-1.0-500.0-0.0","0","0","74888","","328","","","75","55","","","2","55","training","adjacent","BC","2","3","N.jpg","P.jpg","0","1","0","",""
"","feedback","","html-keyboard-response","367","467220","0.0-1.0-501.0-0.0","0","0","74888","","null","","","null","55","","","","","","","","","","","","","","","",""
"","time_out","","html-keyboard-response","368","469223","0.0-1.0-503.0-0.0","0","0","74888","","null","","","null","55","","","","","","","","","","","","","","","",""
"","ITI","","html-keyboard-response","369","470228","0.0-1.0-504.0","0","0","74888","","null","","","null","55","","","","","","","","","","","","","","","NaN",""
"","S1","","html-keyboard-response","370","470483","0.0-1.0-506.0","0","0","74888","","null","","","null","56","","","","","","","","","","","","","","","",""
"","ISI","","html-keyboard-response","371","471486","0.0-1.0-507.0","0","0","74888","","null","","","null","56","NaN","","","","","","","","","","","","","","",""
"","S2","","html-keyboard-response","372","471741","0.0-1.0-508.0","0","0","74888","","null","","","null","56","","NaN","","","","","","","","","","","","","",""
"","response","","html-keyboard-response","373","471788","0.0-1.0-509.0-0.0","0","0","74888","","45","","","68","56","","","2","56","training","adjacent","AB","1","2","R.jpg","N.jpg","1","1","1","",""
"","feedback","","html-keyboard-response","374","472793","0.0-1.0-510.0-0.0","0","0","74888","","null","","","null","56","","","","","","","","","","","","","","","",""
"","ITI","","html-keyboard-response","375","473798","0.0-1.0-513.0","0","0","74888","","null","","","null","56","","","","","","","","","","","","","","","NaN",""
"","S1","","html-keyboard-response","376","474052","0.0-1.0-515.0","0","0","74888","","null","","","null","57","","","","","","","","","","","","","","","",""
"","ISI","","html-keyboard-response","377","475056","0.0-1.0-516.0","0","0","74888","","null","","","null","57","NaN","","","","","","","","","","","","","","",""
"","S2","","html-keyboard-response","378","475311","0.0-1.0-517.0","0","0","74888","","null","","","null","57","","NaN","","","","","","","","","","","","","",""
"","response","","html-keyboard-response","379","475543","0.0-1.0-518.0-0.0","0","0","74888","","228","","","75","57","","","2","57","training","adjacent","BA","2","1","N.jpg","R.jpg","0","0","1","",""
"","feedback","","html-keyboard-response","380","476551","0.0-1.0-519.0-0.0","0","0","74888","","null","","","null","57","","","","","","","","","","","","","","","",""
"","ITI","","html-keyboard-response","381","477555","0.0-1.0-522.0","0","0","74888","","null","","","null","57","","","","","","","","","","","","","","","NaN",""
"","S1","","html-keyboard-response","382","477809","0.0-1.0-524.0","0","0","74888","","null","","","null","58","","","","","","","","","","","","","","","",""
"","ISI","","html-keyboard-response","383","478813","0.0-1.0-525.0","0","0","74888","","null","","","null","58","NaN","","","","","","","","","","","","","","",""
"","S2","","html-keyboard-response","384","479067","0.0-1.0-526.0","0","0","74888","","null","","","null","58","","NaN","","","","","","","","","","","","","",""
"","response","","html-keyboard-response","385","479194","0.0-1.0-527.0-0.0","0","0","74888","","124","","","75","58","","","2","58","training","adjacent","BA","2","1","N.jpg","R.jpg","0","0","1","",""
"","feedback","","html-keyboard-response","386","480199","0.0-1.0-528.0-0.0","0","0","74888","","null","","","null","58","","","","","","","","","","","","","","","",""
"","ITI","","html-keyboard-response","387","481203","0.0-1.0-531.0","0","0","74888","","null","","","null","58","","","","","","","","","","","","","","","NaN",""
"","S1","","html-keyboard-response","388","481455","0.0-1.0-533.0","0","0","74888","","null","","","null","59","","","","","","","","","","","","","","","",""
"","ISI","","html-keyboard-response","389","482458","0.0-1.0-534.0","0","0","74888","","null","","","null","59","NaN","","","","","","","","","","","","","","",""
"","S2","","html-keyboard-response","390","482713","0.0-1.0-535.0","0","0","74888","","null","","","null","59","","NaN","","","","","","","","","","","","","",""
"","response","","html-keyboard-response","391","482888","0.0-1.0-536.0-0.0","0","0","74888","","172","","","68","59","","","2","59","training","adjacent","ED","5","4","O.jpg","L.jpg","1","0","0","",""
"","feedback","","html-keyboard-response","392","483893","0.0-1.0-537.0-0.0","0","0","74888","","null","","","null","59","","","","","","","","","","","","","","","",""
"","time_out","","html-keyboard-response","393","485897","0.0-1.0-539.0-0.0","0","0","74888","","null","","","null","59","","","","","","","","","","","","","","","",""
"","ITI","","html-keyboard-response","394","486900","0.0-1.0-540.0","0","0","74888","","null","","","null","59","","","","","","","","","","","","","","","NaN",""
"","S1","","html-keyboard-response","395","487154","0.0-1.0-542.0","0","0","74888","","null","","","null","60","","","","","","","","","","","","","","","",""
"","ISI","","html-keyboard-response","396","488158","0.0-1.0-543.0","0","0","74888","","null","","","null","60","NaN","","","","","","","","","","","","","","",""
"","S2","","html-keyboard-response","397","488413","0.0-1.0-544.0","0","0","74888","","null","","","null","60","","NaN","","","","","","","","","","","","","",""
"","response","","html-keyboard-response","398","488439","0.0-1.0-545.0-0.0","0","0","74888","","22","","","68","60","","","2","60","training","adjacent","AB","1","2","R.jpg","N.jpg","1","1","1","",""
"","feedback","","html-keyboard-response","399","489444","0.0-1.0-546.0-0.0","0","0","74888","","null","","","null","60","","","","","","","","","","","","","","","",""
"","ITI","","html-keyboard-response","400","490449","0.0-1.0-549.0","0","0","74888","","null","","","null","60","","","","","","","","","","","","","","","NaN",""
"","S1","","html-keyboard-response","401","490703","0.0-1.0-551.0","0","0","74888","","null","","","null","61","","","","","","","","","","","","","","","",""
"","ISI","","html-keyboard-response","402","491707","0.0-1.0-552.0","0","0","74888","","null","","","null","61","NaN","","","","","","","","","","","","","","",""
"","S2","","html-keyboard-response","403","491963","0.0-1.0-553.0","0","0","74888","","null","","","null","61","","NaN","","","","","","","","","","","","","",""
"","response","","html-keyboard-response","404","492329","0.0-1.0-554.0-0.0","0","0","74888","","362","","","75","61","","","2","61","training","adjacent","DC","4","3","L.jpg","P.jpg","0","0","1","",""
"","feedback","","html-keyboard-response","405","493334","0.0-1.0-555.0-0.0","0","0","74888","","null","","","null","61","","","","","","","","","","","","","","","",""
"","ITI","","html-keyboard-response","406","494339","0.0-1.0-558.0","0","0","74888","","null","","","null","61","","","","","","","","","","","","","","","NaN",""
"","S1","","html-keyboard-response","407","494593","0.0-1.0-560.0","0","0","74888","","null","","","null","62","","","","","","","","","","","","","","","",""
"","ISI","","html-keyboard-response","408","495597","0.0-1.0-561.0","0","0","74888","","null","","","null","62","NaN","","","","","","","","","","","","","","",""
"","S2","","html-keyboard-response","409","495851","0.0-1.0-562.0","0","0","74888","","null","","","null","62","","NaN","","","","","","","","","","","","","",""
"","response","","html-keyboard-response","410","496177","0.0-1.0-563.0-0.0","0","0","74888","","322","","","75","62","","","2","62","training","adjacent","FG","6","7","Q.jpg","M.jpg","0","1","0","",""
"","feedback","","html-keyboard-response","411","497183","0.0-1.0-564.0-0.0","0","0","74888","","null","","","null","62","","","","","","","","","","","","","","","",""
"","time_out","","html-keyboard-response","412","499187","0.0-1.0-566.0-0.0","0","0","74888","","null","","","null","62","","","","","","","","","","","","","","","",""
"","ITI","","html-keyboard-response","413","500191","0.0-1.0-567.0","0","0","74888","","null","","","null","62","","","","","","","","","","","","","","","NaN",""
"","S1","","html-keyboard-response","414","500445","0.0-1.0-569.0","0","0","74888","","null","","","null","63","","","","","","","","","","","","","","","",""
"","ISI","","html-keyboard-response","415","501449","0.0-1.0-570.0","0","0","74888","","null","","","null","63","NaN","","","","","","","","","","","","","","",""
"","S2","","html-keyboard-response","416","501703","0.0-1.0-571.0","0","0","74888","","null","","","null","63","","NaN","","","","","","","","","","","","","",""
"","response","","html-keyboard-response","417","501870","0.0-1.0-572.0-0.0","0","0","74888","","163","","","75","63","","","2","63","training","adjacent","ED","5","4","O.jpg","L.jpg","0","0","1","",""
"","feedback","","html-keyboard-response","418","502874","0.0-1.0-573.0-0.0","0","0","74888","","null","","","null","63","","","","","","","","","","","","","","","",""
"","ITI","","html-keyboard-response","419","503878","0.0-1.0-576.0","0","0","74888","","null","","","null","63","","","","","","","","","","","","","","","NaN",""
"","S1","","html-keyboard-response","420","504133","0.0-1.0-578.0","0","0","74888","","null","","","null","64","","","","","","","","","","","","","","","",""
"","ISI","","html-keyboard-response","421","505136","0.0-1.0-579.0","0","0","74888","","null","","","null","64","NaN","","","","","","","","","","","","","","",""
"","S2","","html-keyboard-response","422","505391","0.0-1.0-580.0","0","0","74888","","null","","","null","64","","NaN","","","","","","","","","","","","","",""
"","response","","html-keyboard-response","423","505934","0.0-1.0-581.0-0.0","0","0","74888","","539","","","68","64","","","2","64","training","adjacent","FG","6","7","Q.jpg","M.jpg","1","1","1","",""
"","feedback","","html-keyboard-response","424","506939","0.0-1.0-582.0-0.0","0","0","74888","","null","","","null","64","","","","","","","","","","","","","","","",""
"","ITI","","html-keyboard-response","425","507944","0.0-1.0-585.0","0","0","74888","","null","","","null","64","","","","","","","","","","","","","","","NaN",""
"","S1","","html-keyboard-response","426","508198","0.0-1.0-587.0","0","0","74888","","null","","","null","65","","","","","","","","","","","","","","","",""
"","ISI","","html-keyboard-response","427","509203","0.0-1.0-588.0","0","0","74888","","null","","","null","65","NaN","","","","","","","","","","","","","","",""
"","S2","","html-keyboard-response","428","509458","0.0-1.0-589.0","0","0","74888","","null","","","null","65","","NaN","","","","","","","","","","","","","",""
"","response","","html-keyboard-response","429","509570","0.0-1.0-590.0-0.0","0","0","74888","","109","","","68","65","","","2","65","training","adjacent","CB","3","2","P.jpg","N.jpg","1","0","0","",""
"","feedback","","html-keyboard-response","430","510575","0.0-1.0-591.0-0.0","0","0","74888","","null","","","null","65","","","","","","","","","","","","","","","",""
"","time_out","","html-keyboard-response","431","512579","0.0-1.0-593.0-0.0","0","0","74888","","null","","","null","65","","","","","","","","","","","","","","","",""
"","ITI","","html-keyboard-response","432","513583","0.0-1.0-594.0","0","0","74888","","null","","","null","65","","","","","","","","","","","","","","","NaN",""
"","S1","","html-keyboard-response","433","513837","0.0-1.0-596.0","0","0","74888","","null","","","null","66","","","","","","","","","","","","","","","",""
"","ISI","","html-keyboard-response","434","514841","0.0-1.0-597.0","0","0","74888","","null","","","null","66","NaN","","","","","","","","","","","","","","",""
"","S2","","html-keyboard-response","435","515096","0.0-1.0-598.0","0","0","74888","","null","","","null","66","","NaN","","","","","","","","","","","","","",""
"","response","","html-keyboard-response","436","515398","0.0-1.0-599.0-0.0","0","0","74888","","299","","","68","66","","","2","66","training","adjacent","AB","1","2","R.jpg","N.jpg","1","1","1","",""
"","feedback","","html-keyboard-response","437","516404","0.0-1.0-600.0-0.0","0","0","74888","","null","","","null","66","","","","","","","","","","","","","","","",""
"","ITI","","html-keyboard-response","438","517408","0.0-1.0-603.0","0","0","74888","","null","","","null","66","","","","","","","","","","","","","","","NaN",""
"","S1","","html-keyboard-response","439","517663","0.0-1.0-605.0","0","0","74888","","null","","","null","67","","","","","","","","","","","","","","","",""
"","ISI","","html-keyboard-response","440","518667","0.0-1.0-606.0","0","0","74888","","null","","","null","67","NaN","","","","","","","","","","","","","","",""
"","S2","","html-keyboard-response","441","518934","0.0-1.0-607.0","0","0","74888","","null","","","null","67","","NaN","","","","","","","","","","","","","",""
"","response","","html-keyboard-response","442","519103","0.0-1.0-608.0-0.0","0","0","74888","","165","","","75","67","","","2","67","training","adjacent","EF","5","6","O.jpg","Q.jpg","0","1","0","",""
"","feedback","","html-keyboard-response","443","520109","0.0-1.0-609.0-0.0","0","0","74888","","null","","","null","67","","","","","","","","","","","","","","","",""
"","time_out","","html-keyboard-response","444","522122","0.0-1.0-611.0-0.0","0","0","74888","","null","","","null","67","","","","","","","","","","","","","","","",""
"","ITI","","html-keyboard-response","445","523126","0.0-1.0-612.0","0","0","74888","","null","","","null","67","","","","","","","","","","","","","","","NaN",""
"","S1","","html-keyboard-response","446","523380","0.0-1.0-614.0","0","0","74888","","null","","","null","68","","","","","","","","","","","","","","","",""
"","ISI","","html-keyboard-response","447","524384","0.0-1.0-615.0","0","0","74888","","null","","","null","68","NaN","","","","","","","","","","","","","","",""
"","S2","","html-keyboard-response","448","524639","0.0-1.0-616.0","0","0","74888","","null","","","null","68","","NaN","","","","","","","","","","","","","",""
"","response","","html-keyboard-response","449","525030","0.0-1.0-617.0-0.0","0","0","74888","","387","","","75","68","","","2","68","training","adjacent","DC","4","3","L.jpg","P.jpg","0","0","1","",""
"","feedback","","html-keyboard-response","450","526035","0.0-1.0-618.0-0.0","0","0","74888","","null","","","null","68","","","","","","","","","","","","","","","",""
"","ITI","","html-keyboard-response","451","527040","0.0-1.0-621.0","0","0","74888","","null","","","null","68","","","","","","","","","","","","","","","NaN",""
"","S1","","html-keyboard-response","452","527300","0.0-1.0-623.0","0","0","74888","","null","","","null","69","","","","","","","","","","","","","","","",""
"","ISI","","html-keyboard-response","453","528303","0.0-1.0-624.0","0","0","74888","","null","","","null","69","NaN","","","","","","","","","","","","","","",""
"","S2","","html-keyboard-response","454","528557","0.0-1.0-625.0","0","0","74888","","null","","","null","69","","NaN","","","","","","","","","","","","","",""
"","response","","html-keyboard-response","455","528789","0.0-1.0-626.0-0.0","0","0","74888","","228","","","75","69","","","2","69","training","adjacent","FE","6","5","Q.jpg","O.jpg","0","0","1","",""
"","feedback","","html-keyboard-response","456","529794","0.0-1.0-627.0-0.0","0","0","74888","","null","","","null","69","","","","","","","","","","","","","","","",""
"","ITI","","html-keyboard-response","457","530798","0.0-1.0-630.0","0","0","74888","","null","","","null","69","","","","","","","","","","","","","","","NaN",""
"","S1","","html-keyboard-response","458","531053","0.0-1.0-632.0","0","0","74888","","null","","","null","70","","","","","","","","","","","","","","","",""
"","ISI","","html-keyboard-response","459","532057","0.0-1.0-633.0","0","0","74888","","null","","","null","70","NaN","","","","","","","","","","","","","","",""
"","S2","","html-keyboard-response","460","532311","0.0-1.0-634.0","0","0","74888","","null","","","null","70","","NaN","","","","","","","","","","","","","",""
"","response","","html-keyboard-response","461","532659","0.0-1.0-635.0-0.0","0","0","74888","","345","","","75","70","","","2","70","training","adjacent","GF","7","6","M.jpg","Q.jpg","0","0","1","",""
"","feedback","","html-keyboard-response","462","533664","0.0-1.0-636.0-0.0","0","0","74888","","null","","","null","70","","","","","","","","","","","","","","","",""
"","ITI","","html-keyboard-response","463","534668","0.0-1.0-639.0","0","0","74888","","null","","","null","70","","","","","","","","","","","","","","","NaN",""
"","S1","","html-keyboard-response","464","534923","0.0-1.0-641.0","0","0","74888","","null","","","null","71","","","","","","","","","","","","","","","",""
"","ISI","","html-keyboard-response","465","535927","0.0-1.0-642.0","0","0","74888","","null","","","null","71","NaN","","","","","","","","","","","","","","",""
"","S2","","html-keyboard-response","466","536182","0.0-1.0-643.0","0","0","74888","","null","","","null","71","","NaN","","","","","","","","","","","","","",""
"","response","","html-keyboard-response","467","536658","0.0-1.0-644.0-0.0","0","0","74888","","473","","","75","71","","","2","71","training","adjacent","CB","3","2","P.jpg","N.jpg","0","0","1","",""
"","feedback","","html-keyboard-response","468","537664","0.0-1.0-645.0-0.0","0","0","74888","","null","","","null","71","","","","","","","","","","","","","","","",""
"","ITI","","html-keyboard-response","469","538668","0.0-1.0-648.0","0","0","74888","","null","","","null","71","","","","","","","","","","","","","","","NaN",""
"","S1","","html-keyboard-response","470","538923","0.0-1.0-650.0","0","0","74888","","null","","","null","72","","","","","","","","","","","","","","","",""
"","ISI","","html-keyboard-response","471","539927","0.0-1.0-651.0","0","0","74888","","null","","","null","72","NaN","","","","","","","","","","","","","","",""
"","S2","","html-keyboard-response","472","540183","0.0-1.0-652.0","0","0","74888","","null","","","null","72","","NaN","","","","","","","","","","","","","",""
"","response","","html-keyboard-response","473","540483","0.0-1.0-653.0-0.0","0","0","74888","","297","","","68","72","","","2","72","training","adjacent","AB","1","2","R.jpg","N.jpg","1","1","1","",""
"","feedback","","html-keyboard-response","474","541488","0.0-1.0-654.0-0.0","0","0","74888","","null","","","null","72","","","","","","","","","","","","","","","",""
"","ITI","","html-keyboard-response","475","542493","0.0-1.0-657.0","0","0","74888","","null","","","null","72","","","","","","","","","","","","","","","NaN",""
"","S1","","html-keyboard-response","476","542748","0.0-1.0-659.0","0","0","74888","","null","","","null","73","","","","","","","","","","","","","","","",""
"","ISI","","html-keyboard-response","477","543753","0.0-1.0-660.0","0","0","74888","","null","","","null","73","NaN","","","","","","","","","","","","","","",""
"","S2","","html-keyboard-response","478","544007","0.0-1.0-661.0","0","0","74888","","null","","","null","73","","NaN","","","","","","","","","","","","","",""
"","response","","html-keyboard-response","479","544500","0.0-1.0-662.0-0.0","0","0","74888","","489","","","75","73","","","2","73","training","adjacent","ED","5","4","O.jpg","L.jpg","0","0","1","",""
"","feedback","","html-keyboard-response","480","545504","0.0-1.0-663.0-0.0","0","0","74888","","null","","","null","73","","","","","","","","","","","","","","","",""
"","ITI","","html-keyboard-response","481","546508","0.0-1.0-666.0","0","0","74888","","null","","","null","73","","","","","","","","","","","","","","","NaN",""
"","S1","","html-keyboard-response","482","546763","0.0-1.0-668.0","0","0","74888","","null","","","null","74","","","","","","","","","","","","","","","",""
"","ISI","","html-keyboard-response","483","547767","0.0-1.0-669.0","0","0","74888","","null","","","null","74","NaN","","","","","","","","","","","","","","",""
"","S2","","html-keyboard-response","484","548021","0.0-1.0-670.0","0","0","74888","","null","","","null","74","","NaN","","","","","","","","","","","","","",""
"","response","","html-keyboard-response","485","548466","0.0-1.0-671.0-0.0","0","0","74888","","441","","","75","74","","","2","74","training","adjacent","EF","5","6","O.jpg","Q.jpg","0","1","0","",""
"","feedback","","html-keyboard-response","486","549471","0.0-1.0-672.0-0.0","0","0","74888","","null","","","null","74","","","","","","","","","","","","","","","",""
"","time_out","","html-keyboard-response","487","551475","0.0-1.0-674.0-0.0","0","0","74888","","null","","","null","74","","","","","","","","","","","","","","","",""
"","ITI","","html-keyboard-response","488","552480","0.0-1.0-675.0","0","0","74888","","null","","","null","74","","","","","","","","","","","","","","","NaN",""
"","S1","","html-keyboard-response","489","552735","0.0-1.0-677.0","0","0","74888","","null","","","null","75","","","","","","","","","","","","","","","",""
"","ISI","","html-keyboard-response","490","553738","0.0-1.0-678.0","0","0","74888","","null","","","null","75","NaN","","","","","","","","","","","","","","",""
"","S2","","html-keyboard-response","491","553993","0.0-1.0-679.0","0","0","74888","","null","","","null","75","","NaN","","","","","","","","","","","","","",""
"","response","","html-keyboard-response","492","554328","0.0-1.0-680.0-0.0","0","0","74888","","332","","","75","75","","","2","75","training","adjacent","GF","7","6","M.jpg","Q.jpg","0","0","1","",""
"","feedback","","html-keyboard-response","493","555334","0.0-1.0-681.0-0.0","0","0","74888","","null","","","null","75","","","","","","","","","","","","","","","",""
"","ITI","","html-keyboard-response","494","556338","0.0-1.0-684.0","0","0","74888","","null","","","null","75","","","","","","","","","","","","","","","NaN",""
"","S1","","html-keyboard-response","495","556593","0.0-1.0-686.0","0","0","74888","","null","","","null","76","","","","","","","","","","","","","","","",""
"","ISI","","html-keyboard-response","496","557596","0.0-1.0-687.0","0","0","74888","","null","","","null","76","NaN","","","","","","","","","","","","","","",""
"","S2","","html-keyboard-response","497","557851","0.0-1.0-688.0","0","0","74888","","null","","","null","76","","NaN","","","","","","","","","","","","","",""
"","response","","html-keyboard-response","498","558145","0.0-1.0-689.0-0.0","0","0","74888","","290","","","75","76","","","2","76","training","adjacent","CB","3","2","P.jpg","N.jpg","0","0","1","",""
"","feedback","","html-keyboard-response","499","559151","0.0-1.0-690.0-0.0","0","0","74888","","null","","","null","76","","","","","","","","","","","","","","","",""
"","ITI","","html-keyboard-response","500","560155","0.0-1.0-693.0","0","0","74888","","null","","","null","76","","","","","","","","","","","","","","","NaN",""
"","S1","","html-keyboard-response","501","560409","0.0-1.0-695.0","0","0","74888","","null","","","null","77","","","","","","","","","","","","","","","",""
"","ISI","","html-keyboard-response","502","561413","0.0-1.0-696.0","0","0","74888","","null","","","null","77","NaN","","","","","","","","","","","","","","",""
"","S2","","html-keyboard-response","503","561668","0.0-1.0-697.0","0","0","74888","","null","","","null","77","","NaN","","","","","","","","","","","","","",""
"","response","","html-keyboard-response","504","562023","0.0-1.0-698.0-0.0","0","0","74888","","352","","","68","77","","","2","77","training","adjacent","CD","3","4","P.jpg","L.jpg","1","1","1","",""
"","feedback","","html-keyboard-response","505","563028","0.0-1.0-699.0-0.0","0","0","74888","","null","","","null","77","","","","","","","","","","","","","","","",""
"","ITI","","html-keyboard-response","506","564032","0.0-1.0-702.0","0","0","74888","","null","","","null","77","","","","","","","","","","","","","","","NaN",""
"","S1","","html-keyboard-response","507","564287","0.0-1.0-704.0","0","0","74888","","null","","","null","78","","","","","","","","","","","","","","","",""
"","ISI","","html-keyboard-response","508","565291","0.0-1.0-705.0","0","0","74888","","null","","","null","78","NaN","","","","","","","","","","","","","","",""
"","S2","","html-keyboard-response","509","565546","0.0-1.0-706.0","0","0","74888","","null","","","null","78","","NaN","","","","","","","","","","","","","",""
"","response","","html-keyboard-response","510","565910","0.0-1.0-707.0-0.0","0","0","74888","","361","","","75","78","","","2","78","training","adjacent","DC","4","3","L.jpg","P.jpg","0","0","1","",""
"","feedback","","html-keyboard-response","511","566915","0.0-1.0-708.0-0.0","0","0","74888","","null","","","null","78","","","","","","","","","","","","","","","",""
"","ITI","","html-keyboard-response","512","567922","0.0-1.0-711.0","0","0","74888","","null","","","null","78","","","","","","","","","","","","","","","NaN",""
"","S1","","html-keyboard-response","513","568176","0.0-1.0-713.0","0","0","74888","","null","","","null","79","","","","","","","","","","","","","","","",""
"","ISI","","html-keyboard-response","514","569179","0.0-1.0-714.0","0","0","74888","","null","","","null","79","NaN","","","","","","","","","","","","","","",""
"","S2","","html-keyboard-response","515","569433","0.0-1.0-715.0","0","0","74888","","null","","","null","79","","NaN","","","","","","","","","","","","","",""
"","response","","html-keyboard-response","516","569684","0.0-1.0-716.0-0.0","0","0","74888","","246","","","68","79","","","2","79","training","adjacent","DE","4","5","L.jpg","O.jpg","1","1","1","",""
"","feedback","","html-keyboard-response","517","570688","0.0-1.0-717.0-0.0","0","0","74888","","null","","","null","79","","","","","","","","","","","","","","","",""
"","ITI","","html-keyboard-response","518","571692","0.0-1.0-720.0","0","0","74888","","null","","","null","79","","","","","","","","","","","","","","","NaN",""
"","S1","","html-keyboard-response","519","571947","0.0-1.0-722.0","0","0","74888","","null","","","null","80","","","","","","","","","","","","","","","",""
"","ISI","","html-keyboard-response","520","572950","0.0-1.0-723.0","0","0","74888","","null","","","null","80","NaN","","","","","","","","","","","","","","",""
"","S2","","html-keyboard-response","521","573205","0.0-1.0-724.0","0","0","74888","","null","","","null","80","","NaN","","","","","","","","","","","","","",""
"","response","","html-keyboard-response","522","573513","0.0-1.0-725.0-0.0","0","0","74888","","304","","","75","80","","","2","80","training","adjacent","DC","4","3","L.jpg","P.jpg","0","0","1","",""
"","feedback","","html-keyboard-response","523","574518","0.0-1.0-726.0-0.0","0","0","74888","","null","","","null","80","","","","","","","","","","","","","","","",""
"","ITI","","html-keyboard-response","524","575523","0.0-1.0-729.0","0","0","74888","","null","","","null","80","","","","","","","","","","","","","","","NaN",""
"","S1","","html-keyboard-response","525","575777","0.0-1.0-731.0","0","0","74888","","null","","","null","81","","","","","","","","","","","","","","","",""
"","ISI","","html-keyboard-response","526","576780","0.0-1.0-732.0","0","0","74888","","null","","","null","81","NaN","","","","","","","","","","","","","","",""
"","S2","","html-keyboard-response","527","577034","0.0-1.0-733.0","0","0","74888","","null","","","null","81","","NaN","","","","","","","","","","","","","",""
"","response","","html-keyboard-response","528","577454","0.0-1.0-734.0-0.0","0","0","74888","","416","","","68","81","","","2","81","training","adjacent","CD","3","4","P.jpg","L.jpg","1","1","1","",""
"","feedback","","html-keyboard-response","529","578459","0.0-1.0-735.0-0.0","0","0","74888","","null","","","null","81","","","","","","","","","","","","","","","",""
"","ITI","","html-keyboard-response","530","579464","0.0-1.0-738.0","0","0","74888","","null","","","null","81","","","","","","","","","","","","","","","NaN",""
"","S1","","html-keyboard-response","531","579718","0.0-1.0-740.0","0","0","74888","","null","","","null","82","","","","","","","","","","","","","","","",""
"","ISI","","html-keyboard-response","532","580722","0.0-1.0-741.0","0","0","74888","","null","","","null","82","NaN","","","","","","","","","","","","","","",""
"","S2","","html-keyboard-response","533","580977","0.0-1.0-742.0","0","0","74888","","null","","","null","82","","NaN","","","","","","","","","","","","","",""
"","response","","html-keyboard-response","534","581350","0.0-1.0-743.0-0.0","0","0","74888","","370","","","68","82","","","2","82","training","adjacent","FG","6","7","Q.jpg","M.jpg","1","1","1","",""
"","feedback","","html-keyboard-response","535","582356","0.0-1.0-744.0-0.0","0","0","74888","","null","","","null","82","","","","","","","","","","","","","","","",""
"","ITI","","html-keyboard-response","536","583361","0.0-1.0-747.0","0","0","74888","","null","","","null","82","","","","","","","","","","","","","","","NaN",""
"","S1","","html-keyboard-response","537","583615","0.0-1.0-749.0","0","0","74888","","null","","","null","83","","","","","","","","","","","","","","","",""
"","ISI","","html-keyboard-response","538","584618","0.0-1.0-750.0","0","0","74888","","null","","","null","83","NaN","","","","","","","","","","","","","","",""
"","S2","","html-keyboard-response","539","584873","0.0-1.0-751.0","0","0","74888","","null","","","null","83","","NaN","","","","","","","","","","","","","",""
"","response","","html-keyboard-response","540","585258","0.0-1.0-752.0-0.0","0","0","74888","","382","","","68","83","","","2","83","training","adjacent","FG","6","7","Q.jpg","M.jpg","1","1","1","",""
"","feedback","","html-keyboard-response","541","586263","0.0-1.0-753.0-0.0","0","0","74888","","null","","","null","83","","","","","","","","","","","","","","","",""
"","ITI","","html-keyboard-response","542","587267","0.0-1.0-756.0","0","0","74888","","null","","","null","83","","","","","","","","","","","","","","","NaN",""
"","S1","","html-keyboard-response","543","587523","0.0-1.0-758.0","0","0","74888","","null","","","null","84","","","","","","","","","","","","","","","",""
"","ISI","","html-keyboard-response","544","588526","0.0-1.0-759.0","0","0","74888","","null","","","null","84","NaN","","","","","","","","","","","","","","",""
"","S2","","html-keyboard-response","545","588783","0.0-1.0-760.0","0","0","74888","","null","","","null","84","","NaN","","","","","","","","","","","","","",""
"","response","","html-keyboard-response","546","589185","0.0-1.0-761.0-0.0","0","0","74888","","398","","","68","84","","","2","84","training","adjacent","BC","2","3","N.jpg","P.jpg","1","1","1","",""
"","feedback","","html-keyboard-response","547","590190","0.0-1.0-762.0-0.0","0","0","74888","","null","","","null","84","","","","","","","","","","","","","","","",""
"","ITI","","html-keyboard-response","548","591195","0.0-1.0-765.0","0","0","74888","","null","","","null","84","","","","","","","","","","","","","","","NaN",""
"","S1","","html-keyboard-response","549","591450","0.0-1.0-767.0","0","0","74888","","null","","","null","85","","","","","","","","","","","","","","","",""
"","ISI","","html-keyboard-response","550","592454","0.0-1.0-768.0","0","0","74888","","null","","","null","85","NaN","","","","","","","","","","","","","","",""
"","S2","","html-keyboard-response","551","592708","0.0-1.0-769.0","0","0","74888","","null","","","null","85","","NaN","","","","","","","","","","","","","",""
"","response","","html-keyboard-response","552","593081","0.0-1.0-770.0-0.0","0","0","74888","","369","","","68","85","","","2","85","training","adjacent","FE","6","5","Q.jpg","O.jpg","1","0","0","",""
"","feedback","","html-keyboard-response","553","594095","0.0-1.0-771.0-0.0","0","0","74888","","null","","","null","85","","","","","","","","","","","","","","","",""
"","time_out","","html-keyboard-response","554","596100","0.0-1.0-773.0-0.0","0","0","74888","","null","","","null","85","","","","","","","","","","","","","","","",""
"","ITI","","html-keyboard-response","555","597104","0.0-1.0-774.0","0","0","74888","","null","","","null","85","","","","","","","","","","","","","","","NaN",""
"","S1","","html-keyboard-response","556","597358","0.0-1.0-776.0","0","0","74888","","null","","","null","86","","","","","","","","","","","","","","","",""
"","ISI","","html-keyboard-response","557","598362","0.0-1.0-777.0","0","0","74888","","null","","","null","86","NaN","","","","","","","","","","","","","","",""
"","S2","","html-keyboard-response","558","598617","0.0-1.0-778.0","0","0","74888","","null","","","null","86","","NaN","","","","","","","","","","","","","",""
"","response","","html-keyboard-response","559","598667","0.0-1.0-779.0-0.0","0","0","74888","","47","","","75","86","","","2","86","training","adjacent","GF","7","6","M.jpg","Q.jpg","0","0","1","",""
"","feedback","","html-keyboard-response","560","599671","0.0-1.0-780.0-0.0","0","0","74888","","null","","","null","86","","","","","","","","","","","","","","","",""
"","ITI","","html-keyboard-response","561","600676","0.0-1.0-783.0","0","0","74888","","null","","","null","86","","","","","","","","","","","","","","","NaN",""
"","S1","","html-keyboard-response","562","600930","0.0-1.0-785.0","0","0","74888","","null","","","null","87","","","","","","","","","","","","","","","",""
"","ISI","","html-keyboard-response","563","601934","0.0-1.0-786.0","0","0","74888","","null","","","null","87","NaN","","","","","","","","","","","","","","",""
"","S2","","html-keyboard-response","564","602190","0.0-1.0-787.0","0","0","74888","","null","","","null","87","","NaN","","","","","","","","","","","","","",""
"","response","","html-keyboard-response","565","602623","0.0-1.0-788.0-0.0","0","0","74888","","428","","","75","87","","","2","87","training","adjacent","FE","6","5","Q.jpg","O.jpg","0","0","1","",""
"","feedback","","html-keyboard-response","566","603628","0.0-1.0-789.0-0.0","0","0","74888","","null","","","null","87","","","","","","","","","","","","","","","",""
"","ITI","","html-keyboard-response","567","604633","0.0-1.0-792.0","0","0","74888","","null","","","null","87","","","","","","","","","","","","","","","NaN",""
"","S1","","html-keyboard-response","568","604887","0.0-1.0-794.0","0","0","74888","","null","","","null","88","","","","","","","","","","","","","","","",""
"","ISI","","html-keyboard-response","569","605891","0.0-1.0-795.0","0","0","74888","","null","","","null","88","NaN","","","","","","","","","","","","","","",""
"","S2","","html-keyboard-response","570","606147","0.0-1.0-796.0","0","0","74888","","null","","","null","88","","NaN","","","","","","","","","","","","","",""
"","response","","html-keyboard-response","571","606649","0.0-1.0-797.0-0.0","0","0","74888","","498","","","75","88","","","2","88","training","adjacent","CB","3","2","P.jpg","N.jpg","0","0","1","",""
"","feedback","","html-keyboard-response","572","607654","0.0-1.0-798.0-0.0","0","0","74888","","null","","","null","88","","","","","","","","","","","","","","","",""
"","ITI","","html-keyboard-response","573","608658","0.0-1.0-801.0","0","0","74888","","null","","","null","88","","","","","","","","","","","","","","","NaN",""
"","S1","","html-keyboard-response","574","608912","0.0-1.0-803.0","0","0","74888","","null","","","null","89","","","","","","","","","","","","","","","",""
"","ISI","","html-keyboard-response","575","609916","0.0-1.0-804.0","0","0","74888","","null","","","null","89","NaN","","","","","","","","","","","","","","",""
"","S2","","html-keyboard-response","576","610171","0.0-1.0-805.0","0","0","74888","","null","","","null","89","","NaN","","","","","","","","","","","","","",""
"","response","","html-keyboard-response","577","610639","0.0-1.0-806.0-0.0","0","0","74888","","464","","","68","89","","","2","89","training","adjacent","DE","4","5","L.jpg","O.jpg","1","1","1","",""
"","feedback","","html-keyboard-response","578","611643","0.0-1.0-807.0-0.0","0","0","74888","","null","","","null","89","","","","","","","","","","","","","","","",""
"","ITI","","html-keyboard-response","579","612647","0.0-1.0-810.0","0","0","74888","","null","","","null","89","","","","","","","","","","","","","","","NaN",""
"","S1","","html-keyboard-response","580","612913","0.0-1.0-812.0","0","0","74888","","null","","","null","90","","","","","","","","","","","","","","","",""
