"success","ttype","start_time","trial_type","trial_index","time_elapsed","internal_node_id","warning","missed_checkup","PID","view_history","rt","responses","repeat_instructions","key_press","index","keypress_isi","keypress_S2","block","trial_num","phase","group_type","pair_type","S1_stim","S2_stim","S1_img","S2_img","S1_chosen","S1_higher","accuracy","keypress_iti","total_bonus_tally"
"true","full_screen","d04062023hr2323","fullscreen","0","5045","0.0-0.0","0","0","88835","","","","","","","","","","","","","","","","","","","","","",""
"","instructions","","instructions","1","21714","0.0-1.0-0.0-0.0","0","0","88835","[{""page_index"":0,""viewing_time"":3699},{""page_index"":1,""viewing_time"":7165},{""page_index"":2,""viewing_time"":4604},{""page_index"":3,""viewing_time"":1199}]","16667","","","","","","","","","","","","","","","","","","","",""
"","comprehension_check","","survey-multi-choice","2","44870","0.0-1.0-0.0-1.0","0","0","88835","","23150","{""Q0"":""True"",""Q1"":""D"",""Q2"":""Only when the screen 'MAKE A CHOICE' is shown"",""Q3"":""Green mark"",""Q4"":""either D or K""}","1","","","","","","","","","","","","","","","","","",""
"","missed_instruction_checkup","","html-keyboard-response","3","46912","0.0-1.0-0.0-2.0-0.0","0","1","88835","","2039","","","32","","","","","","","","","","","","","","","","",""
"","instructions","","instructions","4","65614","0.0-1.0-0.1-0.1","0","0","88835","[{""page_index"":0,""viewing_time"":2336},{""page_index"":1,""viewing_time"":12511},{""page_index"":2,""viewing_time"":2338},{""page_index"":3,""viewing_time"":1514}]","18700","","","","","","","","","","","","","","","","","","","",""
"","comprehension_check","","survey-multi-choice","5","74313","0.0-1.0-0.1-1.1","0","0","88835","","8696","{""Q0"":""True"",""Q1"":""D"",""Q2"":""Once the second image appears and while the screen 'MAKE A CHOICE' is shown"",""Q3"":""Green mark"",""Q4"":""either D or K""}","1","","","","","","","","","","","","","","","","","",""
"","missed_instruction_checkup","","html-keyboard-response","6","75468","0.0-1.0-0.1-2.1-0.1","0","1","88835","","1153","","","32","","","","","","","","","","","","","","","","",""
"","instructions","","instructions","7","101590","0.0-1.0-0.2-0.2","0","0","88835","[{""page_index"":0,""viewing_time"":2526},{""page_index"":1,""viewing_time"":16609},{""page_index"":2,""viewing_time"":6060},{""page_index"":3,""viewing_time"":926}]","26121","","","","","","","","","","","","","","","","","","","",""
"","comprehension_check","","survey-multi-choice","8","116277","0.0-1.0-0.2-1.2","0","0","88835","","14684","{""Q0"":""True"",""Q1"":""K"",""Q2"":""Only when the screen 'MAKE A CHOICE' is shown"",""Q3"":""Green mark"",""Q4"":""either D or K""}","1","","","","","","","","","","","","","","","","","",""
"","missed_instruction_checkup","","html-keyboard-response","9","117510","0.0-1.0-0.2-2.2-0.2","0","1","88835","","1232","","","32","","","","","","","","","","","","","","","","",""
"","instructions","","instructions","10","129043","0.0-1.0-0.3-0.3","0","0","88835","[{""page_index"":0,""viewing_time"":3124},{""page_index"":1,""viewing_time"":742},{""page_index"":2,""viewing_time"":1734},{""page_index"":1,""viewing_time"":2948},{""page_index"":2,""viewing_time"":1737},{""page_index"":3,""viewing_time"":1248}]","11533","","","","","","","","","","","","","","","","","","","",""
"","comprehension_check","","survey-multi-choice","11","139404","0.0-1.0-0.3-1.3","0","0","88835","","10358","{""Q0"":""True"",""Q1"":""K"",""Q2"":""Once the second image appears and while the screen 'MAKE A CHOICE' is shown"",""Q3"":""Green mark"",""Q4"":""either D or K""}","0","","","","","","","","","","","","","","","","","",""
"","start_exp","","html-keyboard-response","12","140379","0.0-1.0-1.0","0","0","88835","","973","","","32","","","","","","","","","","","","","","","","",""
"","S1","","html-keyboard-response","13","140533","0.0-1.0-2.0","0","0","88835","","null","","","null","0","","","","","","","","","","","","","","","",""
"","ISI","","html-keyboard-response","14","142536","0.0-1.0-3.0","0","0","88835","","null","","","null","0","NaN","","","","","","","","","","","","","","",""
"","S2","","html-keyboard-response","15","142690","0.0-1.0-4.0","0","0","88835","","null","","","null","0","","NaN","","","","","","","","","","","","","",""
"","response","","html-keyboard-response","16","143676","0.0-1.0-5.0-0.0","0","0","88835","","984","","","68","0","","","1","0","training","adjacent","BC","2","3","N.jpg","P.jpg","0","1","0","",""
"","feedback","","html-keyboard-response","17","144680","0.0-1.0-6.0-0.0","0","0","88835","","null","","","null","0","","","","","","","","","","","","","","","",""
"","time_out","","html-keyboard-response","18","146682","0.0-1.0-8.0-0.0","0","0","88835","","null","","","null","0","","","","","","","","","","","","","","","",""
"","ITI","","html-keyboard-response","19","147686","0.0-1.0-9.0","0","0","88835","","null","","","null","0","","","","","","","","","","","","","","","NaN",""
"","S1","","html-keyboard-response","20","147839","0.0-1.0-11.0","0","0","88835","","null","","","null","1","","","","","","","","","","","","","","","",""
"","ISI","","html-keyboard-response","21","149842","0.0-1.0-12.0","0","0","88835","","null","","","null","1","NaN","","","","","","","","","","","","","","",""
"","S2","","html-keyboard-response","22","149996","0.0-1.0-13.0","0","0","88835","","null","","","null","1","","NaN","","","","","","","","","","","","","",""
"","response","","html-keyboard-response","23","150600","0.0-1.0-14.0-0.0","0","0","88835","","601","","","75","1","","","1","1","training","adjacent","BA","2","1","N.jpg","Q.jpg","1","0","0","",""
"","feedback","","html-keyboard-response","24","151602","0.0-1.0-15.0-0.0","0","0","88835","","null","","","null","1","","","","","","","","","","","","","","","",""
"","time_out","","html-keyboard-response","25","153606","0.0-1.0-17.0-0.0","0","0","88835","","null","","","null","1","","","","","","","","","","","","","","","",""
"","ITI","","html-keyboard-response","26","154610","0.0-1.0-18.0","0","0","88835","","null","","","null","1","","","","","","","","","","","","","","","NaN",""
"","S1","","html-keyboard-response","27","154763","0.0-1.0-20.0","0","0","88835","","null","","","null","2","","","","","","","","","","","","","","","",""
"","ISI","","html-keyboard-response","28","156767","0.0-1.0-21.0","0","0","88835","","null","","","null","2","NaN","","","","","","","","","","","","","","",""
"","S2","","html-keyboard-response","29","156921","0.0-1.0-22.0","0","0","88835","","null","","","null","2","","NaN","","","","","","","","","","","","","",""
"","response","","html-keyboard-response","30","157524","0.0-1.0-23.0-0.0","0","0","88835","","601","","","68","2","","","1","2","training","adjacent","GF","7","6","R.jpg","M.jpg","0","0","1","",""
"","feedback","","html-keyboard-response","31","158527","0.0-1.0-24.0-0.0","0","0","88835","","null","","","null","2","","","","","","","","","","","","","","","",""
"","ITI","","html-keyboard-response","32","159530","0.0-1.0-27.0","0","0","88835","","null","","","null","2","","","","","","","","","","","","","","","NaN",""
"","S1","","html-keyboard-response","33","159683","0.0-1.0-29.0","0","0","88835","","null","","","null","3","","","","","","","","","","","","","","","",""
"","ISI","","html-keyboard-response","34","161686","0.0-1.0-30.0","0","0","88835","","null","","","null","3","NaN","","","","","","","","","","","","","","",""
"","S2","","html-keyboard-response","35","161838","0.0-1.0-31.0","0","0","88835","","null","","","null","3","","NaN","","","","","","","","","","","","","",""
"","response","","html-keyboard-response","36","162354","0.0-1.0-32.0-0.0","0","0","88835","","514","","","75","3","","","1","3","training","adjacent","DC","4","3","O.jpg","P.jpg","1","0","0","",""
"","feedback","","html-keyboard-response","37","163358","0.0-1.0-33.0-0.0","0","0","88835","","null","","","null","3","","","","","","","","","","","","","","","",""
"","time_out","","html-keyboard-response","38","165361","0.0-1.0-35.0-0.0","0","0","88835","","null","","","null","3","","","","","","","","","","","","","","","",""
"","ITI","","html-keyboard-response","39","166364","0.0-1.0-36.0","0","0","88835","","null","","","null","3","","","","","","","","","","","","","","","NaN",""
"","S1","","html-keyboard-response","40","166517","0.0-1.0-38.0","0","0","88835","","null","","","null","4","","","","","","","","","","","","","","","",""
"","ISI","","html-keyboard-response","41","168520","0.0-1.0-39.0","0","0","88835","","null","","","null","4","NaN","","","","","","","","","","","","","","",""
"","S2","","html-keyboard-response","42","168676","0.0-1.0-40.0","0","0","88835","","null","","","null","4","","NaN","","","","","","","","","","","","","",""
"","response","","html-keyboard-response","43","169329","0.0-1.0-41.0-0.0","0","0","88835","","651","","","68","4","","","1","4","training","adjacent","DE","4","5","O.jpg","L.jpg","0","1","0","",""
"","feedback","","html-keyboard-response","44","170333","0.0-1.0-42.0-0.0","0","0","88835","","null","","","null","4","","","","","","","","","","","","","","","",""
"","time_out","","html-keyboard-response","45","172336","0.0-1.0-44.0-0.0","0","0","88835","","null","","","null","4","","","","","","","","","","","","","","","",""
"","ITI","","html-keyboard-response","46","173339","0.0-1.0-45.0","0","0","88835","","null","","","null","4","","","","","","","","","","","","","","","NaN",""
"","S1","","html-keyboard-response","47","173492","0.0-1.0-47.0","0","0","88835","","null","","","null","5","","","","","","","","","","","","","","","",""
"","ISI","","html-keyboard-response","48","175493","0.0-1.0-48.0","0","0","88835","","null","","","null","5","NaN","","","","","","","","","","","","","","",""
"","S2","","html-keyboard-response","49","175646","0.0-1.0-49.0","0","0","88835","","null","","","null","5","","NaN","","","","","","","","","","","","","",""
"","response","","html-keyboard-response","50","176306","0.0-1.0-50.0-0.0","0","0","88835","","658","","","75","5","","","1","5","training","adjacent","DC","4","3","O.jpg","P.jpg","1","0","0","",""
"","feedback","","html-keyboard-response","51","177309","0.0-1.0-51.0-0.0","0","0","88835","","null","","","null","5","","","","","","","","","","","","","","","",""
"","time_out","","html-keyboard-response","52","179313","0.0-1.0-53.0-0.0","0","0","88835","","null","","","null","5","","","","","","","","","","","","","","","",""
"","ITI","","html-keyboard-response","53","180316","0.0-1.0-54.0","0","0","88835","","null","","","null","5","","","","","","","","","","","","","","","NaN",""
"","S1","","html-keyboard-response","54","180469","0.0-1.0-56.0","0","0","88835","","null","","","null","6","","","","","","","","","","","","","","","",""
"","ISI","","html-keyboard-response","55","182471","0.0-1.0-57.0","0","0","88835","","null","","","null","6","NaN","","","","","","","","","","","","","","",""
"","S2","","html-keyboard-response","56","182624","0.0-1.0-58.0","0","0","88835","","null","","","null","6","","NaN","","","","","","","","","","","","","",""
"","response","","html-keyboard-response","57","184478","0.0-1.0-59.0-0.0","0","0","88835","","null","","","null","6","","","1","6","training","adjacent","BA","2","1","N.jpg","Q.jpg","NaN","0","0","",""
"","too_slow_prompt","","html-keyboard-response","58","185481","0.0-1.0-61.0-0.0","1","0","88835","","null","","","null","","","","","","","","","","","","","","","","",""
"","time_out","","html-keyboard-response","59","187484","0.0-1.0-62.0-0.0","0","0","88835","","null","","","null","6","","","","","","","","","","","","","","","",""
"","ITI","","html-keyboard-response","60","188486","0.0-1.0-63.0","0","0","88835","","null","","","null","6","","","","","","","","","","","","","","","NaN",""
"","S1","","html-keyboard-response","61","188641","0.0-1.0-65.0","0","0","88835","","null","","","null","7","","","","","","","","","","","","","","","",""
"","ISI","","html-keyboard-response","62","190644","0.0-1.0-66.0","0","0","88835","","null","","","null","7","NaN","","","","","","","","","","","","","","",""
"","S2","","html-keyboard-response","63","190797","0.0-1.0-67.0","0","0","88835","","null","","","null","7","","NaN","","","","","","","","","","","","","",""
"","response","","html-keyboard-response","64","191438","0.0-1.0-68.0-0.0","0","0","88835","","640","","","75","7","","","1","7","training","adjacent","BA","2","1","N.jpg","Q.jpg","1","0","0","",""
"","feedback","","html-keyboard-response","65","192442","0.0-1.0-69.0-0.0","0","0","88835","","null","","","null","7","","","","","","","","","","","","","","","",""
"","time_out","","html-keyboard-response","66","194445","0.0-1.0-71.0-0.0","0","0","88835","","null","","","null","7","","","","","","","","","","","","","","","",""
"","ITI","","html-keyboard-response","67","195447","0.0-1.0-72.0","0","0","88835","","null","","","null","7","","","","","","","","","","","","","","","NaN",""
"","S1","","html-keyboard-response","68","195601","0.0-1.0-74.0","0","0","88835","","null","","","null","8","","","","","","","","","","","","","","","",""
"","ISI","","html-keyboard-response","69","197603","0.0-1.0-75.0","0","0","88835","","null","","","null","8","NaN","","","","","","","","","","","","","","",""
"","S2","","html-keyboard-response","70","197756","0.0-1.0-76.0","0","0","88835","","null","","","null","8","","NaN","","","","","","","","","","","","","",""
"","response","","html-keyboard-response","71","197838","0.0-1.0-77.0-0.0","0","0","88835","","81","","","68","8","","","1","8","training","adjacent","CD","3","4","P.jpg","O.jpg","0","1","0","",""
"","feedback","","html-keyboard-response","72","198842","0.0-1.0-78.0-0.0","0","0","88835","","null","","","null","8","","","","","","","","","","","","","","","",""
"","time_out","","html-keyboard-response","73","200845","0.0-1.0-80.0-0.0","0","0","88835","","null","","","null","8","","","","","","","","","","","","","","","",""
"","ITI","","html-keyboard-response","74","201848","0.0-1.0-81.0","0","0","88835","","null","","","null","8","","","","","","","","","","","","","","","NaN",""
"","S1","","html-keyboard-response","75","202001","0.0-1.0-83.0","0","0","88835","","null","","","null","9","","","","","","","","","","","","","","","",""
"","ISI","","html-keyboard-response","76","204006","0.0-1.0-84.0","0","0","88835","","null","","","null","9","NaN","","","","","","","","","","","","","","",""
"","S2","","html-keyboard-response","77","204160","0.0-1.0-85.0","0","0","88835","","null","","","null","9","","NaN","","","","","","","","","","","","","",""
"","response","","html-keyboard-response","78","204274","0.0-1.0-86.0-0.0","0","0","88835","","112","","","75","9","","","1","9","training","adjacent","ED","5","4","L.jpg","O.jpg","1","0","0","",""
"","feedback","","html-keyboard-response","79","205277","0.0-1.0-87.0-0.0","0","0","88835","","null","","","null","9","","","","","","","","","","","","","","","",""
"","time_out","","html-keyboard-response","80","207281","0.0-1.0-89.0-0.0","0","0","88835","","null","","","null","9","","","","","","","","","","","","","","","",""
"","ITI","","html-keyboard-response","81","208284","0.0-1.0-90.0","0","0","88835","","null","","","null","9","","","","","","","","","","","","","","","NaN",""
"","S1","","html-keyboard-response","82","208438","0.0-1.0-92.0","0","0","88835","","null","","","null","10","","","","","","","","","","","","","","","",""
"","ISI","","html-keyboard-response","83","210441","0.0-1.0-93.0","0","0","88835","","null","","","null","10","NaN","","","","","","","","","","","","","","",""
"","S2","","html-keyboard-response","84","210595","0.0-1.0-94.0","0","0","88835","","null","","","null","10","","NaN","","","","","","","","","","","","","",""
"","response","","html-keyboard-response","85","210683","0.0-1.0-95.0-0.0","0","0","88835","","85","","","75","10","","","1","10","training","adjacent","FE","6","5","M.jpg","L.jpg","1","0","0","",""
"","feedback","","html-keyboard-response","86","211686","0.0-1.0-96.0-0.0","0","0","88835","","null","","","null","10","","","","","","","","","","","","","","","",""
"","time_out","","html-keyboard-response","87","213689","0.0-1.0-98.0-0.0","0","0","88835","","null","","","null","10","","","","","","","","","","","","","","","",""
"","ITI","","html-keyboard-response","88","214692","0.0-1.0-99.0","0","0","88835","","null","","","null","10","","","","","","","","","","","","","","","NaN",""
"","S1","","html-keyboard-response","89","214845","0.0-1.0-101.0","0","0","88835","","null","","","null","11","","","","","","","","","","","","","","","",""
"","ISI","","html-keyboard-response","90","216848","0.0-1.0-102.0","0","0","88835","","null","","","null","11","NaN","","","","","","","","","","","","","","",""
"","S2","","html-keyboard-response","91","217002","0.0-1.0-103.0","0","0","88835","","null","","","null","11","","NaN","","","","","","","","","","","","","",""
"","response","","html-keyboard-response","92","217145","0.0-1.0-104.0-0.0","0","0","88835","","142","","","68","11","","","1","11","training","adjacent","GF","7","6","R.jpg","M.jpg","0","0","1","",""
"","feedback","","html-keyboard-response","93","218148","0.0-1.0-105.0-0.0","0","0","88835","","null","","","null","11","","","","","","","","","","","","","","","",""
"","ITI","","html-keyboard-response","94","219152","0.0-1.0-108.0","0","0","88835","","null","","","null","11","","","","","","","","","","","","","","","NaN",""
"","S1","","html-keyboard-response","95","219305","0.0-1.0-110.0","0","0","88835","","null","","","null","12","","","","","","","","","","","","","","","",""
"","ISI","","html-keyboard-response","96","221307","0.0-1.0-111.0","0","0","88835","","null","","","null","12","NaN","","","","","","","","","","","","","","",""
"","S2","","html-keyboard-response","97","221460","0.0-1.0-112.0","0","0","88835","","null","","","null","12","","NaN","","","","","","","","","","","","","",""
"","response","","html-keyboard-response","98","222236","0.0-1.0-113.0-0.0","0","0","88835","","774","","","68","12","","","1","12","training","adjacent","DE","4","5","O.jpg","L.jpg","0","1","0","",""
"","feedback","","html-keyboard-response","99","223239","0.0-1.0-114.0-0.0","0","0","88835","","null","","","null","12","","","","","","","","","","","","","","","",""
"","time_out","","html-keyboard-response","100","225242","0.0-1.0-116.0-0.0","0","0","88835","","null","","","null","12","","","","","","","","","","","","","","","",""
"","ITI","","html-keyboard-response","101","226244","0.0-1.0-117.0","0","0","88835","","null","","","null","12","","","","","","","","","","","","","","","NaN",""
"","S1","","html-keyboard-response","102","226397","0.0-1.0-119.0","0","0","88835","","null","","","null","13","","","","","","","","","","","","","","","",""
"","ISI","","html-keyboard-response","103","228400","0.0-1.0-120.0","0","0","88835","","null","","","null","13","NaN","","","","","","","","","","","","","","",""
"","S2","","html-keyboard-response","104","228554","0.0-1.0-121.0","0","0","88835","","null","","","null","13","","NaN","","","","","","","","","","","","","",""
"","response","","html-keyboard-response","105","228580","0.0-1.0-122.0-0.0","0","0","88835","","25","","","75","13","","","1","13","training","adjacent","BC","2","3","N.jpg","P.jpg","1","1","1","",""
"","feedback","","html-keyboard-response","106","229584","0.0-1.0-123.0-0.0","0","0","88835","","null","","","null","13","","","","","","","","","","","","","","","",""
"","ITI","","html-keyboard-response","107","230587","0.0-1.0-126.0","0","0","88835","","null","","","null","13","","","","","","","","","","","","","","","NaN",""
"","S1","","html-keyboard-response","108","230741","0.0-1.0-128.0","0","0","88835","","null","","","null","14","","","","","","","","","","","","","","","",""
"","ISI","","html-keyboard-response","109","232745","0.0-1.0-129.0","0","0","88835","","null","","","null","14","NaN","","","","","","","","","","","","","","",""
"","S2","","html-keyboard-response","110","232898","0.0-1.0-130.0","0","0","88835","","null","","","null","14","","NaN","","","","","","","","","","","","","",""
"","response","","html-keyboard-response","111","233173","0.0-1.0-131.0-0.0","0","0","88835","","272","","","68","14","","","1","14","training","adjacent","FG","6","7","M.jpg","R.jpg","0","1","0","",""
"","feedback","","html-keyboard-response","112","234176","0.0-1.0-132.0-0.0","0","0","88835","","null","","","null","14","","","","","","","","","","","","","","","",""
"","time_out","","html-keyboard-response","113","236180","0.0-1.0-134.0-0.0","0","0","88835","","null","","","null","14","","","","","","","","","","","","","","","",""
"","ITI","","html-keyboard-response","114","237182","0.0-1.0-135.0","0","0","88835","","null","","","null","14","","","","","","","","","","","","","","","NaN",""
"","S1","","html-keyboard-response","115","237333","0.0-1.0-137.0","0","0","88835","","null","","","null","15","","","","","","","","","","","","","","","",""
"","ISI","","html-keyboard-response","116","239337","0.0-1.0-138.0","0","0","88835","","null","","","null","15","NaN","","","","","","","","","","","","","","",""
"","S2","","html-keyboard-response","117","239490","0.0-1.0-139.0","0","0","88835","","null","","","null","15","","NaN","","","","","","","","","","","","","",""
"","response","","html-keyboard-response","118","239622","0.0-1.0-140.0-0.0","0","0","88835","","129","","","75","15","","","1","15","training","adjacent","CB","3","2","P.jpg","N.jpg","1","0","0","",""
"","feedback","","html-keyboard-response","119","240626","0.0-1.0-141.0-0.0","0","0","88835","","null","","","null","15","","","","","","","","","","","","","","","",""
"","time_out","","html-keyboard-response","120","242629","0.0-1.0-143.0-0.0","0","0","88835","","null","","","null","15","","","","","","","","","","","","","","","",""
"","ITI","","html-keyboard-response","121","243633","0.0-1.0-144.0","0","0","88835","","null","","","null","15","","","","","","","","","","","","","","","NaN",""
"","S1","","html-keyboard-response","122","243786","0.0-1.0-146.0","0","0","88835","","null","","","null","16","","","","","","","","","","","","","","","",""
"","ISI","","html-keyboard-response","123","245789","0.0-1.0-147.0","0","0","88835","","null","","","null","16","NaN","","","","","","","","","","","","","","",""
"","S2","","html-keyboard-response","124","245942","0.0-1.0-148.0","0","0","88835","","null","","","null","16","","NaN","","","","","","","","","","","","","",""
"","response","","html-keyboard-response","125","246336","0.0-1.0-149.0-0.0","0","0","88835","","392","","","75","16","","","1","16","training","adjacent","FG","6","7","M.jpg","R.jpg","1","1","1","",""
"","feedback","","html-keyboard-response","126","247339","0.0-1.0-150.0-0.0","0","0","88835","","null","","","null","16","","","","","","","","","","","","","","","",""
"","ITI","","html-keyboard-response","127","248342","0.0-1.0-153.0","0","0","88835","","null","","","null","16","","","","","","","","","","","","","","","NaN",""
"","S1","","html-keyboard-response","128","248496","0.0-1.0-155.0","0","0","88835","","null","","","null","17","","","","","","","","","","","","","","","",""
"","ISI","","html-keyboard-response","129","250499","0.0-1.0-156.0","0","0","88835","","null","","","null","17","NaN","","","","","","","","","","","","","","",""
"","S2","","html-keyboard-response","130","250652","0.0-1.0-157.0","0","0","88835","","null","","","null","17","","NaN","","","","","","","","","","","","","",""
"","response","","html-keyboard-response","131","251127","0.0-1.0-158.0-0.0","0","0","88835","","473","","","68","17","","","1","17","training","adjacent","AB","1","2","Q.jpg","N.jpg","0","1","0","",""
"","feedback","","html-keyboard-response","132","252130","0.0-1.0-159.0-0.0","0","0","88835","","null","","","null","17","","","","","","","","","","","","","","","",""
"","time_out","","html-keyboard-response","133","254134","0.0-1.0-161.0-0.0","0","0","88835","","null","","","null","17","","","","","","","","","","","","","","","",""
"","ITI","","html-keyboard-response","134","255138","0.0-1.0-162.0","0","0","88835","","null","","","null","17","","","","","","","","","","","","","","","NaN",""
"","S1","","html-keyboard-response","135","255291","0.0-1.0-164.0","0","0","88835","","null","","","null","18","","","","","","","","","","","","","","","",""
"","ISI","","html-keyboard-response","136","257295","0.0-1.0-165.0","0","0","88835","","null","","","null","18","NaN","","","","","","","","","","","","","","",""
"","S2","","html-keyboard-response","137","257448","0.0-1.0-166.0","0","0","88835","","null","","","null","18","","NaN","","","","","","","","","","","","","",""
"","response","","html-keyboard-response","138","257832","0.0-1.0-167.0-0.0","0","0","88835","","382","","","68","18","","","1","18","training","adjacent","BC","2","3","N.jpg","P.jpg","0","1","0","",""
"","feedback","","html-keyboard-response","139","258836","0.0-1.0-168.0-0.0","0","0","88835","","null","","","null","18","","","","","","","","","","","","","","","",""
"","time_out","","html-keyboard-response","140","260839","0.0-1.0-170.0-0.0","0","0","88835","","null","","","null","18","","","","","","","","","","","","","","","",""
"","ITI","","html-keyboard-response","141","261841","0.0-1.0-171.0","0","0","88835","","null","","","null","18","","","","","","","","","","","","","","","NaN",""
"","S1","","html-keyboard-response","142","261995","0.0-1.0-173.0","0","0","88835","","null","","","null","19","","","","","","","","","","","","","","","",""
"","ISI","","html-keyboard-response","143","263999","0.0-1.0-174.0","0","0","88835","","null","","","null","19","NaN","","","","","","","","","","","","","","",""
"","S2","","html-keyboard-response","144","264152","0.0-1.0-175.0","0","0","88835","","null","","","null","19","","NaN","","","","","","","","","","","","","",""
"","response","","html-keyboard-response","145","264634","0.0-1.0-176.0-0.0","0","0","88835","","481","","","75","19","","","1","19","training","adjacent","EF","5","6","L.jpg","M.jpg","1","1","1","",""
"","feedback","","html-keyboard-response","146","265638","0.0-1.0-177.0-0.0","0","0","88835","","null","","","null","19","","","","","","","","","","","","","","","",""
"","ITI","","html-keyboard-response","147","266641","0.0-1.0-180.0","0","0","88835","","null","","","null","19","","","","","","","","","","","","","","","NaN",""
"","S1","","html-keyboard-response","148","266794","0.0-1.0-182.0","0","0","88835","","null","","","null","20","","","","","","","","","","","","","","","",""
"","ISI","","html-keyboard-response","149","268798","0.0-1.0-183.0","0","0","88835","","null","","","null","20","NaN","","","","","","","","","","","","","","",""
"","S2","","html-keyboard-response","150","268951","0.0-1.0-184.0","0","0","88835","","null","","","null","20","","NaN","","","","","","","","","","","","","",""
"","response","","html-keyboard-response","151","269374","0.0-1.0-185.0-0.0","0","0","88835","","422","","","75","20","","","1","20","training","adjacent","CD","3","4","P.jpg","O.jpg","1","1","1","",""
"","feedback","","html-keyboard-response","152","270377","0.0-1.0-186.0-0.0","0","0","88835","","null","","","null","20","","","","","","","","","","","","","","","",""
"","ITI","","html-keyboard-response","153","271382","0.0-1.0-189.0","0","0","88835","","null","","","null","20","","","","","","","","","","","","","","","NaN",""
"","S1","","html-keyboard-response","154","271535","0.0-1.0-191.0","0","0","88835","","null","","","null","21","","","","","","","","","","","","","","","",""
"","ISI","","html-keyboard-response","155","273537","0.0-1.0-192.0","0","0","88835","","1694","","","75","21","k","","","","","","","","","","","","","","",""
"","S2","","html-keyboard-response","156","273690","0.0-1.0-193.0","0","0","88835","","null","","","null","21","","NaN","","","","","","","","","","","","","",""
"","response","","html-keyboard-response","157","273792","0.0-1.0-194.0-0.0","0","0","88835","","99","","","75","21","","","1","21","training","adjacent","CD","3","4","P.jpg","O.jpg","1","1","1","",""
"","feedback","","html-keyboard-response","158","274795","0.0-1.0-195.0-0.0","0","0","88835","","null","","","null","21","","","","","","","","","","","","","","","",""
"","ITI","","html-keyboard-response","159","275798","0.0-1.0-198.0","0","0","88835","","null","","","null","21","","","","","","","","","","","","","","","NaN",""
"","S1","","html-keyboard-response","160","275950","0.0-1.0-200.0","0","0","88835","","null","","","null","22","","","","","","","","","","","","","","","",""
"","ISI","","html-keyboard-response","161","277953","0.0-1.0-201.0","0","0","88835","","1728","","","75","22","k","","","","","","","","","","","","","","",""
"","S2","","html-keyboard-response","162","278001","0.0-1.0-202.0","0","0","88835","","46","","","75","22","","k","1","22","training","adjacent","FG","6","7","M.jpg","R.jpg","1","1","1","",""
"","feedback","","html-keyboard-response","163","279004","0.0-1.0-204.0-0.0","0","0","88835","","null","","","null","22","","","","","","","","","","","","","","","",""
"","ITI","","html-keyboard-response","164","280008","0.0-1.0-207.0","0","0","88835","","127","","","75","22","","","","","","","","","","","","","","","k",""
"","S1","","html-keyboard-response","165","280163","0.0-1.0-209.0","0","0","88835","","null","","","null","23","","","","","","","","","","","","","","","",""
"","ISI","","html-keyboard-response","166","282166","0.0-1.0-210.0","0","0","88835","","145","","","75","23","k","","","","","","","","","","","","","","",""
"","S2","","html-keyboard-response","167","282189","0.0-1.0-211.0","0","0","88835","","20","","","75","23","","k","1","23","training","adjacent","EF","5","6","L.jpg","M.jpg","1","1","1","",""
"","feedback","","html-keyboard-response","168","283192","0.0-1.0-213.0-0.0","0","0","88835","","null","","","null","23","","","","","","","","","","","","","","","",""
"","ITI","","html-keyboard-response","169","284196","0.0-1.0-216.0","0","0","88835","","158","","","75","23","","","","","","","","","","","","","","","k",""
"","S1","","html-keyboard-response","170","284351","0.0-1.0-218.0","0","0","88835","","null","","","null","24","","","","","","","","","","","","","","","",""
"","ISI","","html-keyboard-response","171","286354","0.0-1.0-219.0","0","0","88835","","306","","","75","24","k","","","","","","","","","","","","","","",""
"","S2","","html-keyboard-response","172","286507","0.0-1.0-220.0","0","0","88835","","null","","","null","24","","NaN","","","","","","","","","","","","","",""
"","response","","html-keyboard-response","173","286723","0.0-1.0-221.0-0.0","0","0","88835","","214","","","75","24","","","1","24","training","adjacent","DC","4","3","O.jpg","P.jpg","1","0","0","",""
"","feedback","","html-keyboard-response","174","287725","0.0-1.0-222.0-0.0","0","0","88835","","null","","","null","24","","","","","","","","","","","","","","","",""
"","time_out","","html-keyboard-response","175","289729","0.0-1.0-224.0-0.0","0","0","88835","","null","","","null","24","","","","","","","","","","","","","","","",""
"","ITI","","html-keyboard-response","176","290731","0.0-1.0-225.0","0","0","88835","","17","","","75","24","","","","","","","","","","","","","","","k",""
"","S1","","html-keyboard-response","177","290885","0.0-1.0-227.0","0","0","88835","","null","","","null","25","","","","","","","","","","","","","","","",""
"","ISI","","html-keyboard-response","178","292888","0.0-1.0-228.0","0","0","88835","","178","","","75","25","k","","","","","","","","","","","","","","",""
"","S2","","html-keyboard-response","179","292956","0.0-1.0-229.0","0","0","88835","","66","","","75","25","","k","1","25","training","adjacent","ED","5","4","L.jpg","O.jpg","1","0","0","",""
"","feedback","","html-keyboard-response","180","293960","0.0-1.0-231.0-0.0","0","0","88835","","null","","","null","25","","","","","","","","","","","","","","","",""
"","time_out","","html-keyboard-response","181","295962","0.0-1.0-233.0-0.0","0","0","88835","","null","","","null","25","","","","","","","","","","","","","","","",""
"","ITI","","html-keyboard-response","182","296965","0.0-1.0-234.0","0","0","88835","","21","","","75","25","","","","","","","","","","","","","","","k",""
"","S1","","html-keyboard-response","183","297118","0.0-1.0-236.0","0","0","88835","","null","","","null","26","","","","","","","","","","","","","","","",""
"","ISI","","html-keyboard-response","184","299121","0.0-1.0-237.0","0","0","88835","","153","","","75","26","k","","","","","","","","","","","","","","",""
"","S2","","html-keyboard-response","185","299248","0.0-1.0-238.0","0","0","88835","","124","","","75","26","","k","1","26","training","adjacent","ED","5","4","L.jpg","O.jpg","1","0","0","",""
"","feedback","","html-keyboard-response","186","300252","0.0-1.0-240.0-0.0","0","0","88835","","null","","","null","26","","","","","","","","","","","","","","","",""
"","time_out","","html-keyboard-response","187","302256","0.0-1.0-242.0-0.0","0","0","88835","","null","","","null","26","","","","","","","","","","","","","","","",""
"","ITI","","html-keyboard-response","188","303260","0.0-1.0-243.0","0","0","88835","","20","","","75","26","","","","","","","","","","","","","","","k",""
"","S1","","html-keyboard-response","189","303412","0.0-1.0-245.0","0","0","88835","","null","","","null","27","","","","","","","","","","","","","","","",""
"","ISI","","html-keyboard-response","190","305414","0.0-1.0-246.0","0","0","88835","","174","","","75","27","k","","","","","","","","","","","","","","",""
"","S2","","html-keyboard-response","191","305514","0.0-1.0-247.0","0","0","88835","","98","","","75","27","","k","1","27","training","adjacent","AB","1","2","Q.jpg","N.jpg","1","1","1","",""
"","feedback","","html-keyboard-response","192","306516","0.0-1.0-249.0-0.0","0","0","88835","","null","","","null","27","","","","","","","","","","","","","","","",""
"","ITI","","html-keyboard-response","193","307520","0.0-1.0-252.0","0","0","88835","","87","","","75","27","","","","","","","","","","","","","","","k",""
"","S1","","html-keyboard-response","194","307674","0.0-1.0-254.0","0","0","88835","","null","","","null","28","","","","","","","","","","","","","","","",""
"","ISI","","html-keyboard-response","195","309677","0.0-1.0-255.0","0","0","88835","","138","","","75","28","k","","","","","","","","","","","","","","",""
"","S2","","html-keyboard-response","196","309746","0.0-1.0-256.0","0","0","88835","","67","","","75","28","","k","1","28","training","adjacent","EF","5","6","L.jpg","M.jpg","1","1","1","",""
"","feedback","","html-keyboard-response","197","310749","0.0-1.0-258.0-0.0","0","0","88835","","null","","","null","28","","","","","","","","","","","","","","","",""
"","ITI","","html-keyboard-response","198","311751","0.0-1.0-261.0","0","0","88835","","344","","","75","28","","","","","","","","","","","","","","","k",""
"","S1","","html-keyboard-response","199","311904","0.0-1.0-263.0","0","0","88835","","null","","","null","29","","","","","","","","","","","","","","","",""
"","ISI","","html-keyboard-response","200","313917","0.0-1.0-264.0","0","0","88835","","196","","","75","29","k","","","","","","","","","","","","","","",""
"","S2","","html-keyboard-response","201","314071","0.0-1.0-265.0","0","0","88835","","null","","","null","29","","NaN","","","","","","","","","","","","","",""
"","response","","html-keyboard-response","202","314142","0.0-1.0-266.0-0.0","0","0","88835","","68","","","75","29","","","1","29","training","adjacent","AB","1","2","Q.jpg","N.jpg","1","1","1","",""
"","feedback","","html-keyboard-response","203","315144","0.0-1.0-267.0-0.0","0","0","88835","","null","","","null","29","","","","","","","","","","","","","","","",""
"","ITI","","html-keyboard-response","204","316148","0.0-1.0-270.0","0","0","88835","","215","","","75","29","","","","","","","","","","","","","","","k",""
"","S1","","html-keyboard-response","205","316302","0.0-1.0-272.0","0","0","88835","","null","","","null","30","","","","","","","","","","","","","","","",""
"","ISI","","html-keyboard-response","206","318305","0.0-1.0-273.0","0","0","88835","","0","","","75","30","k","","","","","","","","","","","","","","",""
"","S2","","html-keyboard-response","207","318421","0.0-1.0-274.0","0","0","88835","","113","","","75","30","","k","1","30","training","adjacent","CB","3","2","P.jpg","N.jpg","1","0","0","",""
"","feedback","","html-keyboard-response","208","319425","0.0-1.0-276.0-0.0","0","0","88835","","null","","","null","30","","","","","","","","","","","","","","","",""
"","time_out","","html-keyboard-response","209","321427","0.0-1.0-278.0-0.0","0","0","88835","","null","","","null","30","","","","","","","","","","","","","","","",""
"","ITI","","html-keyboard-response","210","322429","0.0-1.0-279.0","0","0","88835","","192","","","75","30","","","","","","","","","","","","","","","k",""
"","S1","","html-keyboard-response","211","322583","0.0-1.0-281.0","0","0","88835","","null","","","null","31","","","","","","","","","","","","","","","",""
"","ISI","","html-keyboard-response","212","324586","0.0-1.0-282.0","0","0","88835","","88","","","75","31","k","","","","","","","","","","","","","","",""
"","S2","","html-keyboard-response","213","324740","0.0-1.0-283.0","0","0","88835","","null","","","null","31","","NaN","","","","","","","","","","","","","",""
"","response","","html-keyboard-response","214","324838","0.0-1.0-284.0-0.0","0","0","88835","","97","","","75","31","","","1","31","training","adjacent","DE","4","5","O.jpg","L.jpg","1","1","1","",""
"","feedback","","html-keyboard-response","215","325842","0.0-1.0-285.0-0.0","0","0","88835","","null","","","null","31","","","","","","","","","","","","","","","",""
"","ITI","","html-keyboard-response","216","326846","0.0-1.0-288.0","0","0","88835","","140","","","75","31","","","","","","","","","","","","","","","k",""
"","S1","","html-keyboard-response","217","326999","0.0-1.0-290.0","0","0","88835","","null","","","null","32","","","","","","","","","","","","","","","",""
"","ISI","","html-keyboard-response","218","329002","0.0-1.0-291.0","0","0","88835","","383","","","75","32","k","","","","","","","","","","","","","","",""
"","S2","","html-keyboard-response","219","329041","0.0-1.0-292.0","0","0","88835","","37","","","75","32","","k","1","32","training","adjacent","FE","6","5","M.jpg","L.jpg","1","0","0","",""
"","feedback","","html-keyboard-response","220","330044","0.0-1.0-294.0-0.0","0","0","88835","","null","","","null","32","","","","","","","","","","","","","","","",""
"","time_out","","html-keyboard-response","221","332048","0.0-1.0-296.0-0.0","0","0","88835","","null","","","null","32","","","","","","","","","","","","","","","",""
"","ITI","","html-keyboard-response","222","333051","0.0-1.0-297.0","0","0","88835","","25","","","75","32","","","","","","","","","","","","","","","k",""
"","S1","","html-keyboard-response","223","333204","0.0-1.0-299.0","0","0","88835","","null","","","null","33","","","","","","","","","","","","","","","",""
"","ISI","","html-keyboard-response","224","335207","0.0-1.0-300.0","0","0","88835","","5","","","75","33","k","","","","","","","","","","","","","","",""
"","S2","","html-keyboard-response","225","335242","0.0-1.0-301.0","0","0","88835","","33","","","75","33","","k","1","33","training","adjacent","CD","3","4","P.jpg","O.jpg","1","1","1","",""
"","feedback","","html-keyboard-response","226","336246","0.0-1.0-303.0-0.0","0","0","88835","","null","","","null","33","","","","","","","","","","","","","","","",""
"","ITI","","html-keyboard-response","227","337249","0.0-1.0-306.0","0","0","88835","","166","","","75","33","","","","","","","","","","","","","","","k",""
"","S1","","html-keyboard-response","228","337401","0.0-1.0-308.0","0","0","88835","","null","","","null","34","","","","","","","","","","","","","","","",""
"","ISI","","html-keyboard-response","229","339403","0.0-1.0-309.0","0","0","88835","","null","","","null","34","NaN","","","","","","","","","","","","","","",""
"","S2","","html-keyboard-response","230","339555","0.0-1.0-310.0","0","0","88835","","null","","","null","34","","NaN","","","","","","","","","","","","","",""
"","response","","html-keyboard-response","231","339869","0.0-1.0-311.0-0.0","0","0","88835","","313","","","68","34","","","1","34","training","adjacent","BC","2","3","N.jpg","P.jpg","0","1","0","",""
"","feedback","","html-keyboard-response","232","340872","0.0-1.0-312.0-0.0","0","0","88835","","null","","","null","34","","","","","","","","","","","","","","","",""
"","time_out","","html-keyboard-response","233","342875","0.0-1.0-314.0-0.0","0","0","88835","","null","","","null","34","","","","","","","","","","","","","","","",""
"","ITI","","html-keyboard-response","234","343878","0.0-1.0-315.0","0","0","88835","","78","","","68","34","","","","","","","","","","","","","","","d",""
"","S1","","html-keyboard-response","235","344032","0.0-1.0-317.0","0","0","88835","","null","","","null","35","","","","","","","","","","","","","","","",""
"","ISI","","html-keyboard-response","236","346037","0.0-1.0-318.0","0","0","88835","","73","","","68","35","d","","","","","","","","","","","","","","",""
"","S2","","html-keyboard-response","237","346191","0.0-1.0-319.0","0","0","88835","","null","","","null","35","","NaN","","","","","","","","","","","","","",""
"","response","","html-keyboard-response","238","346450","0.0-1.0-320.0-0.0","0","0","88835","","257","","","68","35","","","1","35","training","adjacent","AB","1","2","Q.jpg","N.jpg","0","1","0","",""
"","feedback","","html-keyboard-response","239","347453","0.0-1.0-321.0-0.0","0","0","88835","","null","","","null","35","","","","","","","","","","","","","","","",""
"","time_out","","html-keyboard-response","240","349456","0.0-1.0-323.0-0.0","0","0","88835","","null","","","null","35","","","","","","","","","","","","","","","",""
"","ITI","","html-keyboard-response","241","350458","0.0-1.0-324.0","0","0","88835","","229","","","68","35","","","","","","","","","","","","","","","d",""
"","S1","","html-keyboard-response","242","350611","0.0-1.0-326.0","0","0","88835","","null","","","null","36","","","","","","","","","","","","","","","",""
"","ISI","","html-keyboard-response","243","352614","0.0-1.0-327.0","0","0","88835","","702","","","68","36","d","","","","","","","","","","","","","","",""
"","S2","","html-keyboard-response","244","352767","0.0-1.0-328.0","0","0","88835","","null","","","null","36","","NaN","","","","","","","","","","","","","",""
"","response","","html-keyboard-response","245","354622","0.0-1.0-329.0-0.0","0","0","88835","","null","","","null","36","","","1","36","training","adjacent","FE","6","5","M.jpg","L.jpg","NaN","0","0","",""
"","too_slow_prompt","","html-keyboard-response","246","355626","0.0-1.0-331.0-0.0","1","0","88835","","null","","","null","","","","","","","","","","","","","","","","",""
"","time_out","","html-keyboard-response","247","357628","0.0-1.0-332.0-0.0","0","0","88835","","null","","","null","36","","","","","","","","","","","","","","","",""
"","ITI","","html-keyboard-response","248","358632","0.0-1.0-333.0","0","0","88835","","92","","","68","36","","","","","","","","","","","","","","","d",""
"","S1","","html-keyboard-response","249","358785","0.0-1.0-335.0","0","0","88835","","null","","","null","37","","","","","","","","","","","","","","","",""
"","ISI","","html-keyboard-response","250","360788","0.0-1.0-336.0","0","0","88835","","165","","","68","37","d","","","","","","","","","","","","","","",""
"","S2","","html-keyboard-response","251","360911","0.0-1.0-337.0","0","0","88835","","121","","","68","37","","d","1","37","training","adjacent","GF","7","6","R.jpg","M.jpg","0","0","1","",""
"","feedback","","html-keyboard-response","252","361914","0.0-1.0-339.0-0.0","0","0","88835","","null","","","null","37","","","","","","","","","","","","","","","",""
"","ITI","","html-keyboard-response","253","362917","0.0-1.0-342.0","0","0","88835","","306","","","68","37","","","","","","","","","","","","","","","d",""
"","S1","","html-keyboard-response","254","363071","0.0-1.0-344.0","0","0","88835","","null","","","null","38","","","","","","","","","","","","","","","",""
"","ISI","","html-keyboard-response","255","365074","0.0-1.0-345.0","0","0","88835","","126","","","68","38","d","","","","","","","","","","","","","","",""
"","S2","","html-keyboard-response","256","365227","0.0-1.0-346.0","0","0","88835","","null","","","null","38","","NaN","","","","","","","","","","","","","",""
"","response","","html-keyboard-response","257","365562","0.0-1.0-347.0-0.0","0","0","88835","","332","","","68","38","","","1","38","training","adjacent","GF","7","6","R.jpg","M.jpg","0","0","1","",""
"","feedback","","html-keyboard-response","258","366565","0.0-1.0-348.0-0.0","0","0","88835","","null","","","null","38","","","","","","","","","","","","","","","",""
"","ITI","","html-keyboard-response","259","367568","0.0-1.0-351.0","0","0","88835","","172","","","68","38","","","","","","","","","","","","","","","d",""
"","S1","","html-keyboard-response","260","367721","0.0-1.0-353.0","0","0","88835","","null","","","null","39","","","","","","","","","","","","","","","",""
"","ISI","","html-keyboard-response","261","369724","0.0-1.0-354.0","0","0","88835","","167","","","68","39","d","","","","","","","","","","","","","","",""
"","S2","","html-keyboard-response","262","369860","0.0-1.0-355.0","0","0","88835","","133","","","68","39","","d","1","39","training","adjacent","DE","4","5","O.jpg","L.jpg","0","1","0","",""
"","feedback","","html-keyboard-response","263","370863","0.0-1.0-357.0-0.0","0","0","88835","","null","","","null","39","","","","","","","","","","","","","","","",""
"","time_out","","html-keyboard-response","264","372866","0.0-1.0-359.0-0.0","0","0","88835","","null","","","null","39","","","","","","","","","","","","","","","",""
"","ITI","","html-keyboard-response","265","373870","0.0-1.0-360.0","0","0","88835","","27","","","68","39","","","","","","","","","","","","","","","d",""
"","S1","","html-keyboard-response","266","374023","0.0-1.0-362.0","0","0","88835","","null","","","null","40","","","","","","","","","","","","","","","",""
"","ISI","","html-keyboard-response","267","376026","0.0-1.0-363.0","0","0","88835","","371","","","68","40","d","","","","","","","","","","","","","","",""
"","S2","","html-keyboard-response","268","376179","0.0-1.0-364.0","0","0","88835","","null","","","null","40","","NaN","","","","","","","","","","","","","",""
"","response","","html-keyboard-response","269","376328","0.0-1.0-365.0-0.0","0","0","88835","","148","","","68","40","","","1","40","training","adjacent","ED","5","4","L.jpg","O.jpg","0","0","1","",""
"","feedback","","html-keyboard-response","270","377331","0.0-1.0-366.0-0.0","0","0","88835","","null","","","null","40","","","","","","","","","","","","","","","",""
"","ITI","","html-keyboard-response","271","378343","0.0-1.0-369.0","0","0","88835","","245","","","68","40","","","","","","","","","","","","","","","d",""
"","S1","","html-keyboard-response","272","378496","0.0-1.0-371.0","0","0","88835","","null","","","null","41","","","","","","","","","","","","","","","",""
"","ISI","","html-keyboard-response","273","380499","0.0-1.0-372.0","0","0","88835","","164","","","68","41","d","","","","","","","","","","","","","","",""
"","S2","","html-keyboard-response","274","380606","0.0-1.0-373.0","0","0","88835","","104","","","75","41","","k","1","41","training","adjacent","FE","6","5","M.jpg","L.jpg","1","0","0","",""
"","feedback","","html-keyboard-response","275","381608","0.0-1.0-375.0-0.0","0","0","88835","","null","","","null","41","","","","","","","","","","","","","","","",""
"","time_out","","html-keyboard-response","276","383610","0.0-1.0-377.0-0.0","0","0","88835","","null","","","null","41","","","","","","","","","","","","","","","",""
"","ITI","","html-keyboard-response","277","384613","0.0-1.0-378.0","0","0","88835","","643","","","75","41","","","","","","","","","","","","","","","k",""
"","S1","","html-keyboard-response","278","384766","0.0-1.0-380.0","0","0","88835","","null","","","null","42","","","","","","","","","","","","","","","",""
"","ISI","","html-keyboard-response","279","386768","0.0-1.0-381.0","0","0","88835","","461","","","75","42","k","","","","","","","","","","","","","","",""
"","S2","","html-keyboard-response","280","386837","0.0-1.0-382.0","0","0","88835","","66","","","75","42","","k","1","42","training","adjacent","DC","4","3","O.jpg","P.jpg","1","0","0","",""
"","feedback","","html-keyboard-response","281","387840","0.0-1.0-384.0-0.0","0","0","88835","","null","","","null","42","","","","","","","","","","","","","","","",""
"","time_out","","html-keyboard-response","282","389842","0.0-1.0-386.0-0.0","0","0","88835","","null","","","null","42","","","","","","","","","","","","","","","",""
"","ITI","","html-keyboard-response","283","390845","0.0-1.0-387.0","0","0","88835","","338","","","75","42","","","","","","","","","","","","","","","k",""
"","S1","","html-keyboard-response","284","390999","0.0-1.0-389.0","0","0","88835","","null","","","null","43","","","","","","","","","","","","","","","",""
"","ISI","","html-keyboard-response","285","393003","0.0-1.0-390.0","0","0","88835","","53","","","75","43","k","","","","","","","","","","","","","","",""
"","S2","","html-keyboard-response","286","393156","0.0-1.0-391.0","0","0","88835","","null","","","null","43","","NaN","","","","","","","","","","","","","",""
"","response","","html-keyboard-response","287","393229","0.0-1.0-392.0-0.0","0","0","88835","","71","","","75","43","","","1","43","training","adjacent","EF","5","6","L.jpg","M.jpg","1","1","1","",""
"","feedback","","html-keyboard-response","288","394233","0.0-1.0-393.0-0.0","0","0","88835","","null","","","null","43","","","","","","","","","","","","","","","",""
"","ITI","","html-keyboard-response","289","395235","0.0-1.0-396.0","0","0","88835","","419","","","75","43","","","","","","","","","","","","","","","k",""
"","S1","","html-keyboard-response","290","395389","0.0-1.0-398.0","0","0","88835","","null","","","null","44","","","","","","","","","","","","","","","",""
"","ISI","","html-keyboard-response","291","397391","0.0-1.0-399.0","0","0","88835","","80","","","75","44","k","","","","","","","","","","","","","","",""
"","S2","","html-keyboard-response","292","397432","0.0-1.0-400.0","0","0","88835","","39","","","75","44","","k","1","44","training","adjacent","CB","3","2","P.jpg","N.jpg","1","0","0","",""
"","feedback","","html-keyboard-response","293","398435","0.0-1.0-402.0-0.0","0","0","88835","","null","","","null","44","","","","","","","","","","","","","","","",""
"","time_out","","html-keyboard-response","294","400437","0.0-1.0-404.0-0.0","0","0","88835","","null","","","null","44","","","","","","","","","","","","","","","",""
"","ITI","","html-keyboard-response","295","401440","0.0-1.0-405.0","0","0","88835","","81","","","75","44","","","","","","","","","","","","","","","k",""
"","S1","","html-keyboard-response","296","401593","0.0-1.0-407.0","0","0","88835","","null","","","null","45","","","","","","","","","","","","","","","",""
"","ISI","","html-keyboard-response","297","403596","0.0-1.0-408.0","0","0","88835","","11","","","75","45","k","","","","","","","","","","","","","","",""
"","S2","","html-keyboard-response","298","403749","0.0-1.0-409.0","0","0","88835","","null","","","null","45","","NaN","","","","","","","","","","","","","",""
"","response","","html-keyboard-response","299","403881","0.0-1.0-410.0-0.0","0","0","88835","","131","","","75","45","","","1","45","training","adjacent","FG","6","7","M.jpg","R.jpg","1","1","1","",""
"","feedback","","html-keyboard-response","300","404885","0.0-1.0-411.0-0.0","0","0","88835","","null","","","null","45","","","","","","","","","","","","","","","",""
"","ITI","","html-keyboard-response","301","405888","0.0-1.0-414.0","0","0","88835","","180","","","75","45","","","","","","","","","","","","","","","k",""
"","S1","","html-keyboard-response","302","406041","0.0-1.0-416.0","0","0","88835","","null","","","null","46","","","","","","","","","","","","","","","",""
"","ISI","","html-keyboard-response","303","408044","0.0-1.0-417.0","0","0","88835","","257","","","75","46","k","","","","","","","","","","","","","","",""
"","S2","","html-keyboard-response","304","408198","0.0-1.0-418.0","0","0","88835","","null","","","null","46","","NaN","","","","","","","","","","","","","",""
"","response","","html-keyboard-response","305","408408","0.0-1.0-419.0-0.0","0","0","88835","","209","","","75","46","","","1","46","training","adjacent","BA","2","1","N.jpg","Q.jpg","1","0","0","",""
"","feedback","","html-keyboard-response","306","409412","0.0-1.0-420.0-0.0","0","0","88835","","null","","","null","46","","","","","","","","","","","","","","","",""
"","time_out","","html-keyboard-response","307","411415","0.0-1.0-422.0-0.0","0","0","88835","","null","","","null","46","","","","","","","","","","","","","","","",""
"","ITI","","html-keyboard-response","308","412418","0.0-1.0-423.0","0","0","88835","","56","","","75","46","","","","","","","","","","","","","","","k",""
"","S1","","html-keyboard-response","309","412571","0.0-1.0-425.0","0","0","88835","","null","","","null","47","","","","","","","","","","","","","","","",""
"","ISI","","html-keyboard-response","310","414575","0.0-1.0-426.0","0","0","88835","","188","","","75","47","k","","","","","","","","","","","","","","",""
"","S2","","html-keyboard-response","311","414617","0.0-1.0-427.0","0","0","88835","","41","","","75","47","","k","1","47","training","adjacent","CB","3","2","P.jpg","N.jpg","1","0","0","",""
"","feedback","","html-keyboard-response","312","415620","0.0-1.0-429.0-0.0","0","0","88835","","null","","","null","47","","","","","","","","","","","","","","","",""
"","time_out","","html-keyboard-response","313","417622","0.0-1.0-431.0-0.0","0","0","88835","","null","","","null","47","","","","","","","","","","","","","","","",""
"","ITI","","html-keyboard-response","314","418627","0.0-1.0-432.0","0","0","88835","","601","","","75","47","","","","","","","","","","","","","","","k",""
"","block_over","","html-keyboard-response","315","1488103","0.0-1.0-433.0-0.0","0","0","88835","","1069474","","","32","47","","","","","","","","","","","","","","","",""
"","S1","","html-keyboard-response","316","1488255","0.0-1.0-434.0","0","0","88835","","null","","","null","48","","","","","","","","","","","","","","","",""
"","ISI","","html-keyboard-response","317","1490257","0.0-1.0-435.0","0","0","88835","","238","","","75","48","k","","","","","","","","","","","","","","",""
"","S2","","html-keyboard-response","318","1490411","0.0-1.0-436.0","0","0","88835","","null","","","null","48","","NaN","","","","","","","","","","","","","",""
"","response","","html-keyboard-response","319","1490475","0.0-1.0-437.0-0.0","0","0","88835","","62","","","75","48","","","2","48","training","adjacent","GF","7","6","R.jpg","M.jpg","1","0","0","",""
"","feedback","","html-keyboard-response","320","1491478","0.0-1.0-438.0-0.0","0","0","88835","","null","","","null","48","","","","","","","","","","","","","","","",""
"","time_out","","html-keyboard-response","321","1493482","0.0-1.0-440.0-0.0","0","0","88835","","null","","","null","48","","","","","","","","","","","","","","","",""
"","ITI","","html-keyboard-response","322","1494484","0.0-1.0-441.0","0","0","88835","","null","","","null","48","","","","","","","","","","","","","","","NaN",""
"","S1","","html-keyboard-response","323","1494640","0.0-1.0-443.0","0","0","88835","","null","","","null","49","","","","","","","","","","","","","","","",""
"","ISI","","html-keyboard-response","324","1496642","0.0-1.0-444.0","0","0","88835","","851","","","75","49","k","","","","","","","","","","","","","","",""
"","S2","","html-keyboard-response","325","1496795","0.0-1.0-445.0","0","0","88835","","null","","","null","49","","NaN","","","","","","","","","","","","","",""
"","response","","html-keyboard-response","326","1497211","0.0-1.0-446.0-0.0","0","0","88835","","413","","","75","49","","","2","49","training","adjacent","DC","4","3","O.jpg","P.jpg","1","0","0","",""
"","feedback","","html-keyboard-response","327","1498214","0.0-1.0-447.0-0.0","0","0","88835","","null","","","null","49","","","","","","","","","","","","","","","",""
"","time_out","","html-keyboard-response","328","1500217","0.0-1.0-449.0-0.0","0","0","88835","","null","","","null","49","","","","","","","","","","","","","","","",""
"","ITI","","html-keyboard-response","329","1501220","0.0-1.0-450.0","0","0","88835","","110","","","75","49","","","","","","","","","","","","","","","k",""
"","S1","","html-keyboard-response","330","1501374","0.0-1.0-452.0","0","0","88835","","null","","","null","50","","","","","","","","","","","","","","","",""
"","ISI","","html-keyboard-response","331","1503377","0.0-1.0-453.0","0","0","88835","","409","","","75","50","k","","","","","","","","","","","","","","",""
"","S2","","html-keyboard-response","332","1503412","0.0-1.0-454.0","0","0","88835","","33","","","75","50","","k","2","50","training","adjacent","DE","4","5","O.jpg","L.jpg","1","1","1","",""
"","feedback","","html-keyboard-response","333","1504414","0.0-1.0-456.0-0.0","0","0","88835","","null","","","null","50","","","","","","","","","","","","","","","",""
"","ITI","","html-keyboard-response","334","1505417","0.0-1.0-459.0","0","0","88835","","169","","","75","50","","","","","","","","","","","","","","","k",""
"","S1","","html-keyboard-response","335","1505571","0.0-1.0-461.0","0","0","88835","","null","","","null","51","","","","","","","","","","","","","","","",""
"","ISI","","html-keyboard-response","336","1507576","0.0-1.0-462.0","0","0","88835","","118","","","75","51","k","","","","","","","","","","","","","","",""
"","S2","","html-keyboard-response","337","1507599","0.0-1.0-463.0","0","0","88835","","20","","","75","51","","k","2","51","training","adjacent","EF","5","6","L.jpg","M.jpg","1","1","1","",""
"","feedback","","html-keyboard-response","338","1508602","0.0-1.0-465.0-0.0","0","0","88835","","null","","","null","51","","","","","","","","","","","","","","","",""
"","ITI","","html-keyboard-response","339","1509614","0.0-1.0-468.0","0","0","88835","","121","","","75","51","","","","","","","","","","","","","","","k",""
"","S1","","html-keyboard-response","340","1509767","0.0-1.0-470.0","0","0","88835","","null","","","null","52","","","","","","","","","","","","","","","",""
"","ISI","","html-keyboard-response","341","1511770","0.0-1.0-471.0","0","0","88835","","129","","","75","52","k","","","","","","","","","","","","","","",""
"","S2","","html-keyboard-response","342","1511924","0.0-1.0-472.0","0","0","88835","","null","","","null","52","","NaN","","","","","","","","","","","","","",""
"","response","","html-keyboard-response","343","1512001","0.0-1.0-473.0-0.0","0","0","88835","","74","","","75","52","","","2","52","training","adjacent","CD","3","4","P.jpg","O.jpg","1","1","1","",""
"","feedback","","html-keyboard-response","344","1513003","0.0-1.0-474.0-0.0","0","0","88835","","null","","","null","52","","","","","","","","","","","","","","","",""
"","ITI","","html-keyboard-response","345","1514006","0.0-1.0-477.0","0","0","88835","","498","","","75","52","","","","","","","","","","","","","","","k",""
"","S1","","html-keyboard-response","346","1514160","0.0-1.0-479.0","0","0","88835","","null","","","null","53","","","","","","","","","","","","","","","",""
"","ISI","","html-keyboard-response","347","1516165","0.0-1.0-480.0","0","0","88835","","456","","","75","53","k","","","","","","","","","","","","","","",""
"","S2","","html-keyboard-response","348","1516167","0.0-1.0-481.0","0","0","88835","","0","","","75","53","","k","2","53","training","adjacent","FE","6","5","M.jpg","L.jpg","1","0","0","",""
"","feedback","","html-keyboard-response","349","1517171","0.0-1.0-483.0-0.0","0","0","88835","","null","","","null","53","","","","","","","","","","","","","","","",""
"","time_out","","html-keyboard-response","350","1519174","0.0-1.0-485.0-0.0","0","0","88835","","null","","","null","53","","","","","","","","","","","","","","","",""
"","ITI","","html-keyboard-response","351","1520176","0.0-1.0-486.0","0","0","88835","","641","","","75","53","","","","","","","","","","","","","","","k",""
"","S1","","html-keyboard-response","352","1520331","0.0-1.0-488.0","0","0","88835","","null","","","null","54","","","","","","","","","","","","","","","",""
"","ISI","","html-keyboard-response","353","1522335","0.0-1.0-489.0","0","0","88835","","693","","","75","54","k","","","","","","","","","","","","","","",""
"","S2","","html-keyboard-response","354","1522488","0.0-1.0-490.0","0","0","88835","","null","","","null","54","","NaN","","","","","","","","","","","","","",""
"","response","","html-keyboard-response","355","1522566","0.0-1.0-491.0-0.0","0","0","88835","","76","","","75","54","","","2","54","training","adjacent","BC","2","3","N.jpg","P.jpg","1","1","1","",""
"","feedback","","html-keyboard-response","356","1523571","0.0-1.0-492.0-0.0","0","0","88835","","null","","","null","54","","","","","","","","","","","","","","","",""
"","ITI","","html-keyboard-response","357","1524574","0.0-1.0-495.0","0","0","88835","","366","","","75","54","","","","","","","","","","","","","","","k",""
"","S1","","html-keyboard-response","358","1524727","0.0-1.0-497.0","0","0","88835","","null","","","null","55","","","","","","","","","","","","","","","",""
"","ISI","","html-keyboard-response","359","1526729","0.0-1.0-498.0","0","0","88835","","24","","","75","55","k","","","","","","","","","","","","","","",""
"","S2","","html-keyboard-response","360","1526778","0.0-1.0-499.0","0","0","88835","","47","","","75","55","","k","2","55","training","adjacent","BC","2","3","N.jpg","P.jpg","1","1","1","",""
"","feedback","","html-keyboard-response","361","1527784","0.0-1.0-501.0-0.0","0","0","88835","","null","","","null","55","","","","","","","","","","","","","","","",""
"","ITI","","html-keyboard-response","362","1528786","0.0-1.0-504.0","0","0","88835","","797","","","75","55","","","","","","","","","","","","","","","k",""
"","S1","","html-keyboard-response","363","1528939","0.0-1.0-506.0","0","0","88835","","null","","","null","56","","","","","","","","","","","","","","","",""
"","ISI","","html-keyboard-response","364","1530943","0.0-1.0-507.0","0","0","88835","","298","","","75","56","k","","","","","","","","","","","","","","",""
"","S2","","html-keyboard-response","365","1531024","0.0-1.0-508.0","0","0","88835","","79","","","75","56","","k","2","56","training","adjacent","AB","1","2","Q.jpg","N.jpg","1","1","1","",""
"","feedback","","html-keyboard-response","366","1532028","0.0-1.0-510.0-0.0","0","0","88835","","null","","","null","56","","","","","","","","","","","","","","","",""
"","ITI","","html-keyboard-response","367","1533031","0.0-1.0-513.0","0","0","88835","","231","","","75","56","","","","","","","","","","","","","","","k",""
"","S1","","html-keyboard-response","368","1533184","0.0-1.0-515.0","0","0","88835","","null","","","null","57","","","","","","","","","","","","","","","",""
"","ISI","","html-keyboard-response","369","1535187","0.0-1.0-516.0","0","0","88835","","169","","","75","57","k","","","","","","","","","","","","","","",""
"","S2","","html-keyboard-response","370","1535340","0.0-1.0-517.0","0","0","88835","","null","","","null","57","","NaN","","","","","","","","","","","","","",""
"","response","","html-keyboard-response","371","1535431","0.0-1.0-518.0-0.0","0","0","88835","","89","","","75","57","","","2","57","training","adjacent","CD","3","4","P.jpg","O.jpg","1","1","1","",""
"","feedback","","html-keyboard-response","372","1536435","0.0-1.0-519.0-0.0","0","0","88835","","null","","","null","57","","","","","","","","","","","","","","","",""
"","ITI","","html-keyboard-response","373","1537437","0.0-1.0-522.0","0","0","88835","","191","","","75","57","","","","","","","","","","","","","","","k",""
"","S1","","html-keyboard-response","374","1537591","0.0-1.0-524.0","0","0","88835","","null","","","null","58","","","","","","","","","","","","","","","",""
"","ISI","","html-keyboard-response","375","1539593","0.0-1.0-525.0","0","0","88835","","94","","","75","58","k","","","","","","","","","","","","","","",""
"","S2","","html-keyboard-response","376","1539745","0.0-1.0-526.0","0","0","88835","","null","","","null","58","","NaN","","","","","","","","","","","","","",""
"","response","","html-keyboard-response","377","1539800","0.0-1.0-527.0-0.0","0","0","88835","","53","","","75","58","","","2","58","training","adjacent","ED","5","4","L.jpg","O.jpg","1","0","0","",""
"","feedback","","html-keyboard-response","378","1540804","0.0-1.0-528.0-0.0","0","0","88835","","null","","","null","58","","","","","","","","","","","","","","","",""
"","time_out","","html-keyboard-response","379","1542807","0.0-1.0-530.0-0.0","0","0","88835","","null","","","null","58","","","","","","","","","","","","","","","",""
"","ITI","","html-keyboard-response","380","1543809","0.0-1.0-531.0","0","0","88835","","397","","","75","58","","","","","","","","","","","","","","","k",""
"","S1","","html-keyboard-response","381","1543962","0.0-1.0-533.0","0","0","88835","","null","","","null","59","","","","","","","","","","","","","","","",""
"","ISI","","html-keyboard-response","382","1545964","0.0-1.0-534.0","0","0","88835","","539","","","75","59","k","","","","","","","","","","","","","","",""
"","S2","","html-keyboard-response","383","1546116","0.0-1.0-535.0","0","0","88835","","null","","","null","59","","NaN","","","","","","","","","","","","","",""
"","response","","html-keyboard-response","384","1546472","0.0-1.0-536.0-0.0","0","0","88835","","355","","","75","59","","","2","59","training","adjacent","BC","2","3","N.jpg","P.jpg","1","1","1","",""
"","feedback","","html-keyboard-response","385","1547475","0.0-1.0-537.0-0.0","0","0","88835","","null","","","null","59","","","","","","","","","","","","","","","",""
"","ITI","","html-keyboard-response","386","1548478","0.0-1.0-540.0","0","0","88835","","374","","","75","59","","","","","","","","","","","","","","","k",""
"","S1","","html-keyboard-response","387","1548632","0.0-1.0-542.0","0","0","88835","","null","","","null","60","","","","","","","","","","","","","","","",""
"","ISI","","html-keyboard-response","388","1550635","0.0-1.0-543.0","0","0","88835","","358","","","75","60","k","","","","","","","","","","","","","","",""
"","S2","","html-keyboard-response","389","1550710","0.0-1.0-544.0","0","0","88835","","73","","","75","60","","k","2","60","training","adjacent","AB","1","2","Q.jpg","N.jpg","1","1","1","",""
"","feedback","","html-keyboard-response","390","1551712","0.0-1.0-546.0-0.0","0","0","88835","","null","","","null","60","","","","","","","","","","","","","","","",""
"","ITI","","html-keyboard-response","391","1552716","0.0-1.0-549.0","0","0","88835","","267","","","75","60","","","","","","","","","","","","","","","k",""
"","S1","","html-keyboard-response","392","1552869","0.0-1.0-551.0","0","0","88835","","null","","","null","61","","","","","","","","","","","","","","","",""
"","ISI","","html-keyboard-response","393","1554872","0.0-1.0-552.0","0","0","88835","","418","","","75","61","k","","","","","","","","","","","","","","",""
"","S2","","html-keyboard-response","394","1555026","0.0-1.0-553.0","0","0","88835","","null","","","null","61","","NaN","","","","","","","","","","","","","",""
"","response","","html-keyboard-response","395","1555891","0.0-1.0-554.0-0.0","0","0","88835","","863","","","75","61","","","2","61","training","adjacent","GF","7","6","R.jpg","M.jpg","1","0","0","",""
"","feedback","","html-keyboard-response","396","1556894","0.0-1.0-555.0-0.0","0","0","88835","","null","","","null","61","","","","","","","","","","","","","","","",""
"","time_out","","html-keyboard-response","397","1558897","0.0-1.0-557.0-0.0","0","0","88835","","null","","","null","61","","","","","","","","","","","","","","","",""
"","ITI","","html-keyboard-response","398","1559900","0.0-1.0-558.0","0","0","88835","","370","","","75","61","","","","","","","","","","","","","","","k",""
"","S1","","html-keyboard-response","399","1560053","0.0-1.0-560.0","0","0","88835","","null","","","null","62","","","","","","","","","","","","","","","",""
"","ISI","","html-keyboard-response","400","1562056","0.0-1.0-561.0","0","0","88835","","444","","","75","62","k","","","","","","","","","","","","","","",""
"","S2","","html-keyboard-response","401","1562209","0.0-1.0-562.0","0","0","88835","","null","","","null","62","","NaN","","","","","","","","","","","","","",""
"","response","","html-keyboard-response","402","1562535","0.0-1.0-563.0-0.0","0","0","88835","","325","","","75","62","","","2","62","training","adjacent","BC","2","3","N.jpg","P.jpg","1","1","1","",""
"","feedback","","html-keyboard-response","403","1563538","0.0-1.0-564.0-0.0","0","0","88835","","null","","","null","62","","","","","","","","","","","","","","","",""
"","ITI","","html-keyboard-response","404","1564540","0.0-1.0-567.0","0","0","88835","","551","","","75","62","","","","","","","","","","","","","","","k",""
"","S1","","html-keyboard-response","405","1564694","0.0-1.0-569.0","0","0","88835","","null","","","null","63","","","","","","","","","","","","","","","",""
"","ISI","","html-keyboard-response","406","1566697","0.0-1.0-570.0","0","0","88835","","310","","","75","63","k","","","","","","","","","","","","","","",""
"","S2","","html-keyboard-response","407","1566716","0.0-1.0-571.0","0","0","88835","","17","","","75","63","","k","2","63","training","adjacent","FE","6","5","M.jpg","L.jpg","1","0","0","",""
"","feedback","","html-keyboard-response","408","1567720","0.0-1.0-573.0-0.0","0","0","88835","","null","","","null","63","","","","","","","","","","","","","","","",""
"","time_out","","html-keyboard-response","409","1569723","0.0-1.0-575.0-0.0","0","0","88835","","null","","","null","63","","","","","","","","","","","","","","","",""
"","ITI","","html-keyboard-response","410","1570726","0.0-1.0-576.0","0","0","88835","","400","","","75","63","","","","","","","","","","","","","","","k",""
"","S1","","html-keyboard-response","411","1570880","0.0-1.0-578.0","0","0","88835","","null","","","null","64","","","","","","","","","","","","","","","",""
"","ISI","","html-keyboard-response","412","1572883","0.0-1.0-579.0","0","0","88835","","115","","","75","64","k","","","","","","","","","","","","","","",""
"","S2","","html-keyboard-response","413","1572956","0.0-1.0-580.0","0","0","88835","","70","","","75","64","","k","2","64","training","adjacent","DC","4","3","O.jpg","P.jpg","1","0","0","",""
"","feedback","","html-keyboard-response","414","1573960","0.0-1.0-582.0-0.0","0","0","88835","","null","","","null","64","","","","","","","","","","","","","","","",""
"","time_out","","html-keyboard-response","415","1575963","0.0-1.0-584.0-0.0","0","0","88835","","null","","","null","64","","","","","","","","","","","","","","","",""
"","ITI","","html-keyboard-response","416","1576966","0.0-1.0-585.0","0","0","88835","","546","","","75","64","","","","","","","","","","","","","","","k",""
"","S1","","html-keyboard-response","417","1577120","0.0-1.0-587.0","0","0","88835","","null","","","null","65","","","","","","","","","","","","","","","",""
"","ISI","","html-keyboard-response","418","1579123","0.0-1.0-588.0","0","0","88835","","853","","","75","65","k","","","","","","","","","","","","","","",""
"","S2","","html-keyboard-response","419","1579276","0.0-1.0-589.0","0","0","88835","","null","","","null","65","","NaN","","","","","","","","","","","","","",""
"","response","","html-keyboard-response","420","1581014","0.0-1.0-590.0-0.0","0","0","88835","","1737","","","75","65","","","2","65","training","adjacent","DE","4","5","O.jpg","L.jpg","1","1","1","",""
"","feedback","","html-keyboard-response","421","1582017","0.0-1.0-591.0-0.0","0","0","88835","","null","","","null","65","","","","","","","","","","","","","","","",""
"","ITI","","html-keyboard-response","422","1583020","0.0-1.0-594.0","0","0","88835","","948","","","75","65","","","","","","","","","","","","","","","k",""
"","S1","","html-keyboard-response","423","1583173","0.0-1.0-596.0","0","0","88835","","null","","","null","66","","","","","","","","","","","","","","","",""
"","ISI","","html-keyboard-response","424","1585176","0.0-1.0-597.0","0","0","88835","","844","","","75","66","k","","","","","","","","","","","","","","",""
"","S2","","html-keyboard-response","425","1585329","0.0-1.0-598.0","0","0","88835","","null","","","null","66","","NaN","","","","","","","","","","","","","",""
"","response","","html-keyboard-response","426","1585877","0.0-1.0-599.0-0.0","0","0","88835","","547","","","75","66","","","2","66","training","adjacent","BA","2","1","N.jpg","Q.jpg","1","0","0","",""
"","feedback","","html-keyboard-response","427","1586881","0.0-1.0-600.0-0.0","0","0","88835","","null","","","null","66","","","","","","","","","","","","","","","",""
"","time_out","","html-keyboard-response","428","1588884","0.0-1.0-602.0-0.0","0","0","88835","","null","","","null","66","","","","","","","","","","","","","","","",""
"","ITI","","html-keyboard-response","429","1589888","0.0-1.0-603.0","0","0","88835","","184","","","75","66","","","","","","","","","","","","","","","k",""
"","S1","","html-keyboard-response","430","1590041","0.0-1.0-605.0","0","0","88835","","null","","","null","67","","","","","","","","","","","","","","","",""
"","ISI","","html-keyboard-response","431","1592043","0.0-1.0-606.0","0","0","88835","","1179","","","75","67","k","","","","","","","","","","","","","","",""
"","S2","","html-keyboard-response","432","1592196","0.0-1.0-607.0","0","0","88835","","null","","","null","67","","NaN","","","","","","","","","","","","","",""
"","response","","html-keyboard-response","433","1592775","0.0-1.0-608.0-0.0","0","0","88835","","576","","","75","67","","","2","67","training","adjacent","BA","2","1","N.jpg","Q.jpg","1","0","0","",""
"","feedback","","html-keyboard-response","434","1593778","0.0-1.0-609.0-0.0","0","0","88835","","null","","","null","67","","","","","","","","","","","","","","","",""
"","time_out","","html-keyboard-response","435","1595781","0.0-1.0-611.0-0.0","0","0","88835","","null","","","null","67","","","","","","","","","","","","","","","",""
"","ITI","","html-keyboard-response","436","1596784","0.0-1.0-612.0","0","0","88835","","592","","","75","67","","","","","","","","","","","","","","","k",""
"","S1","","html-keyboard-response","437","1596937","0.0-1.0-614.0","0","0","88835","","null","","","null","68","","","","","","","","","","","","","","","",""
"","ISI","","html-keyboard-response","438","1598940","0.0-1.0-615.0","0","0","88835","","267","","","75","68","k","","","","","","","","","","","","","","",""
"","S2","","html-keyboard-response","439","1599093","0.0-1.0-616.0","0","0","88835","","null","","","null","68","","NaN","","","","","","","","","","","","","",""
"","response","","html-keyboard-response","440","1599202","0.0-1.0-617.0-0.0","0","0","88835","","107","","","75","68","","","2","68","training","adjacent","DE","4","5","O.jpg","L.jpg","1","1","1","",""
"","feedback","","html-keyboard-response","441","1600205","0.0-1.0-618.0-0.0","0","0","88835","","null","","","null","68","","","","","","","","","","","","","","","",""
"","ITI","","html-keyboard-response","442","1601208","0.0-1.0-621.0","0","0","88835","","812","","","75","68","","","","","","","","","","","","","","","k",""
"","S1","","html-keyboard-response","443","1601363","0.0-1.0-623.0","0","0","88835","","null","","","null","69","","","","","","","","","","","","","","","",""
"","ISI","","html-keyboard-response","444","1603365","0.0-1.0-624.0","0","0","88835","","380","","","75","69","k","","","","","","","","","","","","","","",""
"","S2","","html-keyboard-response","445","1603518","0.0-1.0-625.0","0","0","88835","","null","","","null","69","","NaN","","","","","","","","","","","","","",""
"","response","","html-keyboard-response","446","1604199","0.0-1.0-626.0-0.0","0","0","88835","","679","","","75","69","","","2","69","training","adjacent","CB","3","2","P.jpg","N.jpg","1","0","0","",""
"","feedback","","html-keyboard-response","447","1605203","0.0-1.0-627.0-0.0","0","0","88835","","null","","","null","69","","","","","","","","","","","","","","","",""
"","time_out","","html-keyboard-response","448","1607206","0.0-1.0-629.0-0.0","0","0","88835","","null","","","null","69","","","","","","","","","","","","","","","",""
"","ITI","","html-keyboard-response","449","1608209","0.0-1.0-630.0","0","0","88835","","360","","","75","69","","","","","","","","","","","","","","","k",""
"","S1","","html-keyboard-response","450","1608362","0.0-1.0-632.0","0","0","88835","","null","","","null","70","","","","","","","","","","","","","","","",""
"","ISI","","html-keyboard-response","451","1610365","0.0-1.0-633.0","0","0","88835","","108","","","75","70","k","","","","","","","","","","","","","","",""
"","S2","","html-keyboard-response","452","1610464","0.0-1.0-634.0","0","0","88835","","97","","","75","70","","k","2","70","training","adjacent","AB","1","2","Q.jpg","N.jpg","1","1","1","",""
"","feedback","","html-keyboard-response","453","1611467","0.0-1.0-636.0-0.0","0","0","88835","","null","","","null","70","","","","","","","","","","","","","","","",""
"","ITI","","html-keyboard-response","454","1612470","0.0-1.0-639.0","0","0","88835","","477","","","75","70","","","","","","","","","","","","","","","k",""
"","S1","","html-keyboard-response","455","1612623","0.0-1.0-641.0","0","0","88835","","null","","","null","71","","","","","","","","","","","","","","","",""
"","ISI","","html-keyboard-response","456","1614626","0.0-1.0-642.0","0","0","88835","","63","","","75","71","k","","","","","","","","","","","","","","",""
"","S2","","html-keyboard-response","457","1614657","0.0-1.0-643.0","0","0","88835","","28","","","75","71","","k","2","71","training","adjacent","DC","4","3","O.jpg","P.jpg","1","0","0","",""
"","feedback","","html-keyboard-response","458","1615660","0.0-1.0-645.0-0.0","0","0","88835","","null","","","null","71","","","","","","","","","","","","","","","",""
"","time_out","","html-keyboard-response","459","1617663","0.0-1.0-647.0-0.0","0","0","88835","","null","","","null","71","","","","","","","","","","","","","","","",""
"","ITI","","html-keyboard-response","460","1618666","0.0-1.0-648.0","0","0","88835","","82","","","75","71","","","","","","","","","","","","","","","k",""
"","S1","","html-keyboard-response","461","1618819","0.0-1.0-650.0","0","0","88835","","null","","","null","72","","","","","","","","","","","","","","","",""
"","ISI","","html-keyboard-response","462","1620822","0.0-1.0-651.0","0","0","88835","","274","","","75","72","k","","","","","","","","","","","","","","",""
"","S2","","html-keyboard-response","463","1620976","0.0-1.0-652.0","0","0","88835","","null","","","null","72","","NaN","","","","","","","","","","","","","",""
"","response","","html-keyboard-response","464","1621223","0.0-1.0-653.0-0.0","0","0","88835","","247","","","75","72","","","2","72","training","adjacent","GF","7","6","R.jpg","M.jpg","1","0","0","",""
"","feedback","","html-keyboard-response","465","1622238","0.0-1.0-654.0-0.0","0","0","88835","","null","","","null","72","","","","","","","","","","","","","","","",""
"","time_out","","html-keyboard-response","466","1624242","0.0-1.0-656.0-0.0","0","0","88835","","null","","","null","72","","","","","","","","","","","","","","","",""
"","ITI","","html-keyboard-response","467","1625246","0.0-1.0-657.0","0","0","88835","","null","","","null","72","","","","","","","","","","","","","","","NaN",""
"","S1","","html-keyboard-response","468","1625399","0.0-1.0-659.0","0","0","88835","","null","","","null","73","","","","","","","","","","","","","","","",""
"","ISI","","html-keyboard-response","469","1627403","0.0-1.0-660.0","0","0","88835","","251","","","75","73","k","","","","","","","","","","","","","","",""
"","S2","","html-keyboard-response","470","1627494","0.0-1.0-661.0","0","0","88835","","88","","","75","73","","k","2","73","training","adjacent","CB","3","2","P.jpg","N.jpg","1","0","0","",""
"","feedback","","html-keyboard-response","471","1628497","0.0-1.0-663.0-0.0","0","0","88835","","null","","","null","73","","","","","","","","","","","","","","","",""
"","time_out","","html-keyboard-response","472","1630501","0.0-1.0-665.0-0.0","0","0","88835","","null","","","null","73","","","","","","","","","","","","","","","",""
"","ITI","","html-keyboard-response","473","1631504","0.0-1.0-666.0","0","0","88835","","659","","","75","73","","","","","","","","","","","","","","","k",""
"","S1","","html-keyboard-response","474","1631657","0.0-1.0-668.0","0","0","88835","","null","","","null","74","","","","","","","","","","","","","","","",""
"","ISI","","html-keyboard-response","475","1633662","0.0-1.0-669.0","0","0","88835","","61","","","75","74","k","","","","","","","","","","","","","","",""
"","S2","","html-keyboard-response","476","1633749","0.0-1.0-670.0","0","0","88835","","84","","","75","74","","k","2","74","training","adjacent","CB","3","2","P.jpg","N.jpg","1","0","0","",""
"","feedback","","html-keyboard-response","477","1634752","0.0-1.0-672.0-0.0","0","0","88835","","null","","","null","74","","","","","","","","","","","","","","","",""
"","time_out","","html-keyboard-response","478","1636754","0.0-1.0-674.0-0.0","0","0","88835","","null","","","null","74","","","","","","","","","","","","","","","",""
"","ITI","","html-keyboard-response","479","1637758","0.0-1.0-675.0","0","0","88835","","137","","","75","74","","","","","","","","","","","","","","","k",""
"","S1","","html-keyboard-response","480","1637912","0.0-1.0-677.0","0","0","88835","","null","","","null","75","","","","","","","","","","","","","","","",""
"","ISI","","html-keyboard-response","481","1639915","0.0-1.0-678.0","0","0","88835","","1327","","","75","75","k","","","","","","","","","","","","","","",""
"","S2","","html-keyboard-response","482","1639965","0.0-1.0-679.0","0","0","88835","","48","","","75","75","","k","2","75","training","adjacent","CB","3","2","P.jpg","N.jpg","1","0","0","",""
"","feedback","","html-keyboard-response","483","1640968","0.0-1.0-681.0-0.0","0","0","88835","","null","","","null","75","","","","","","","","","","","","","","","",""
"","time_out","","html-keyboard-response","484","1642971","0.0-1.0-683.0-0.0","0","0","88835","","null","","","null","75","","","","","","","","","","","","","","","",""
"","ITI","","html-keyboard-response","485","1643975","0.0-1.0-684.0","0","0","88835","","389","","","75","75","","","","","","","","","","","","","","","k",""
"","S1","","html-keyboard-response","486","1644128","0.0-1.0-686.0","0","0","88835","","null","","","null","76","","","","","","","","","","","","","","","",""
"","ISI","","html-keyboard-response","487","1646131","0.0-1.0-687.0","0","0","88835","","235","","","75","76","k","","","","","","","","","","","","","","",""
"","S2","","html-keyboard-response","488","1646285","0.0-1.0-688.0","0","0","88835","","null","","","null","76","","NaN","","","","","","","","","","","","","",""
"","response","","html-keyboard-response","489","1646385","0.0-1.0-689.0-0.0","0","0","88835","","99","","","75","76","","","2","76","training","adjacent","ED","5","4","L.jpg","O.jpg","1","0","0","",""
"","feedback","","html-keyboard-response","490","1647388","0.0-1.0-690.0-0.0","0","0","88835","","null","","","null","76","","","","","","","","","","","","","","","",""
"","time_out","","html-keyboard-response","491","1649390","0.0-1.0-692.0-0.0","0","0","88835","","null","","","null","76","","","","","","","","","","","","","","","",""
"","ITI","","html-keyboard-response","492","1650393","0.0-1.0-693.0","0","0","88835","","946","","","75","76","","","","","","","","","","","","","","","k",""
"","S1","","html-keyboard-response","493","1650545","0.0-1.0-695.0","0","0","88835","","null","","","null","77","","","","","","","","","","","","","","","",""
"","ISI","","html-keyboard-response","494","1652548","0.0-1.0-696.0","0","0","88835","","1296","","","75","77","k","","","","","","","","","","","","","","",""
"","S2","","html-keyboard-response","495","1652701","0.0-1.0-697.0","0","0","88835","","null","","","null","77","","NaN","","","","","","","","","","","","","",""
"","response","","html-keyboard-response","496","1653214","0.0-1.0-698.0-0.0","0","0","88835","","510","","","75","77","","","2","77","training","adjacent","DE","4","5","O.jpg","L.jpg","1","1","1","",""
"","feedback","","html-keyboard-response","497","1654217","0.0-1.0-699.0-0.0","0","0","88835","","null","","","null","77","","","","","","","","","","","","","","","",""
"","ITI","","html-keyboard-response","498","1655221","0.0-1.0-702.0","0","0","88835","","928","","","75","77","","","","","","","","","","","","","","","k",""
"","S1","","html-keyboard-response","499","1655374","0.0-1.0-704.0","0","0","88835","","null","","","null","78","","","","","","","","","","","","","","","",""
"","ISI","","html-keyboard-response","500","1657376","0.0-1.0-705.0","0","0","88835","","1164","","","75","78","k","","","","","","","","","","","","","","",""
"","S2","","html-keyboard-response","501","1657528","0.0-1.0-706.0","0","0","88835","","null","","","null","78","","NaN","","","","","","","","","","","","","",""
"","response","","html-keyboard-response","502","1657663","0.0-1.0-707.0-0.0","0","0","88835","","132","","","75","78","","","2","78","training","adjacent","BA","2","1","N.jpg","Q.jpg","1","0","0","",""
"","feedback","","html-keyboard-response","503","1658666","0.0-1.0-708.0-0.0","0","0","88835","","null","","","null","78","","","","","","","","","","","","","","","",""
"","time_out","","html-keyboard-response","504","1660669","0.0-1.0-710.0-0.0","0","0","88835","","null","","","null","78","","","","","","","","","","","","","","","",""
"","ITI","","html-keyboard-response","505","1661671","0.0-1.0-711.0","0","0","88835","","617","","","75","78","","","","","","","","","","","","","","","k",""
"","S1","","html-keyboard-response","506","1661824","0.0-1.0-713.0","0","0","88835","","null","","","null","79","","","","","","","","","","","","","","","",""
"","ISI","","html-keyboard-response","507","1663826","0.0-1.0-714.0","0","0","88835","","436","","","75","79","k","","","","","","","","","","","","","","",""
"","S2","","html-keyboard-response","508","1663979","0.0-1.0-715.0","0","0","88835","","null","","","null","79","","NaN","","","","","","","","","","","","","",""
"","response","","html-keyboard-response","509","1664065","0.0-1.0-716.0-0.0","0","0","88835","","85","","","75","79","","","2","79","training","adjacent","EF","5","6","L.jpg","M.jpg","1","1","1","",""
"","feedback","","html-keyboard-response","510","1665069","0.0-1.0-717.0-0.0","0","0","88835","","null","","","null","79","","","","","","","","","","","","","","","",""
"","ITI","","html-keyboard-response","511","1666072","0.0-1.0-720.0","0","0","88835","","788","","","75","79","","","","","","","","","","","","","","","k",""
"","S1","","html-keyboard-response","512","1666227","0.0-1.0-722.0","0","0","88835","","null","","","null","80","","","","","","","","","","","","","","","",""
"","ISI","","html-keyboard-response","513","1668230","0.0-1.0-723.0","0","0","88835","","326","","","75","80","k","","","","","","","","","","","","","","",""
"","S2","","html-keyboard-response","514","1668384","0.0-1.0-724.0","0","0","88835","","null","","","null","80","","NaN","","","","","","","","","","","","","",""
"","response","","html-keyboard-response","515","1668897","0.0-1.0-725.0-0.0","0","0","88835","","511","","","75","80","","","2","80","training","adjacent","FG","6","7","M.jpg","R.jpg","1","1","1","",""
"","feedback","","html-keyboard-response","516","1669902","0.0-1.0-726.0-0.0","0","0","88835","","null","","","null","80","","","","","","","","","","","","","","","",""
"","ITI","","html-keyboard-response","517","1670905","0.0-1.0-729.0","0","0","88835","","622","","","75","80","","","","","","","","","","","","","","","k",""
"","S1","","html-keyboard-response","518","1671058","0.0-1.0-731.0","0","0","88835","","null","","","null","81","","","","","","","","","","","","","","","",""
"","ISI","","html-keyboard-response","519","1673062","0.0-1.0-732.0","0","0","88835","","1270","","","75","81","k","","","","","","","","","","","","","","",""
"","S2","","html-keyboard-response","520","1673216","0.0-1.0-733.0","0","0","88835","","null","","","null","81","","NaN","","","","","","","","","","","","","",""
"","response","","html-keyboard-response","521","1674441","0.0-1.0-734.0-0.0","0","0","88835","","1223","","","75","81","","","2","81","training","adjacent","EF","5","6","L.jpg","M.jpg","1","1","1","",""
"","feedback","","html-keyboard-response","522","1675445","0.0-1.0-735.0-0.0","0","0","88835","","null","","","null","81","","","","","","","","","","","","","","","",""
"","ITI","","html-keyboard-response","523","1676448","0.0-1.0-738.0","0","0","88835","","null","","","null","81","","","","","","","","","","","","","","","NaN",""
"","S1","","html-keyboard-response","524","1676601","0.0-1.0-740.0","0","0","88835","","null","","","null","82","","","","","","","","","","","","","","","",""
"","ISI","","html-keyboard-response","525","1678610","0.0-1.0-741.0","0","0","88835","","648","","","75","82","k","","","","","","","","","","","","","","",""
"","S2","","html-keyboard-response","526","1678763","0.0-1.0-742.0","0","0","88835","","null","","","null","82","","NaN","","","","","","","","","","","","","",""
"","response","","html-keyboard-response","527","1679309","0.0-1.0-743.0-0.0","0","0","88835","","544","","","75","82","","","2","82","training","adjacent","FG","6","7","M.jpg","R.jpg","1","1","1","",""
"","feedback","","html-keyboard-response","528","1680313","0.0-1.0-744.0-0.0","0","0","88835","","null","","","null","82","","","","","","","","","","","","","","","",""
"","ITI","","html-keyboard-response","529","1681316","0.0-1.0-747.0","0","0","88835","","565","","","75","82","","","","","","","","","","","","","","","k",""
"","S1","","html-keyboard-response","530","1681469","0.0-1.0-749.0","0","0","88835","","null","","","null","83","","","","","","","","","","","","","","","",""
"","ISI","","html-keyboard-response","531","1683471","0.0-1.0-750.0","0","0","88835","","815","","","75","83","k","","","","","","","","","","","","","","",""
"","S2","","html-keyboard-response","532","1683537","0.0-1.0-751.0","0","0","88835","","64","","","75","83","","k","2","83","training","adjacent","CD","3","4","P.jpg","O.jpg","1","1","1","",""
"","feedback","","html-keyboard-response","533","1684545","0.0-1.0-753.0-0.0","0","0","88835","","null","","","null","83","","","","","","","","","","","","","","","",""
"","ITI","","html-keyboard-response","534","1685549","0.0-1.0-756.0","0","0","88835","","null","","","null","83","","","","","","","","","","","","","","","NaN",""
"","S1","","html-keyboard-response","535","1685703","0.0-1.0-758.0","0","0","88835","","null","","","null","84","","","","","","","","","","","","","","","",""
"","ISI","","html-keyboard-response","536","1687704","0.0-1.0-759.0","0","0","88835","","463","","","75","84","k","","","","","","","","","","","","","","",""
"","S2","","html-keyboard-response","537","1687857","0.0-1.0-760.0","0","0","88835","","null","","","null","84","","NaN","","","","","","","","","","","","","",""
"","response","","html-keyboard-response","538","1688183","0.0-1.0-761.0-0.0","0","0","88835","","324","","","75","84","","","2","84","training","adjacent","EF","5","6","L.jpg","M.jpg","1","1","1","",""
"","feedback","","html-keyboard-response","539","1689186","0.0-1.0-762.0-0.0","0","0","88835","","null","","","null","84","","","","","","","","","","","","","","","",""
"","ITI","","html-keyboard-response","540","1690190","0.0-1.0-765.0","0","0","88835","","null","","","null","84","","","","","","","","","","","","","","","NaN",""
"","S1","","html-keyboard-response","541","1690343","0.0-1.0-767.0","0","0","88835","","null","","","null","85","","","","","","","","","","","","","","","",""
"","ISI","","html-keyboard-response","542","1692346","0.0-1.0-768.0","0","0","88835","","24","","","75","85","k","","","","","","","","","","","","","","",""
"","S2","","html-keyboard-response","543","1692500","0.0-1.0-769.0","0","0","88835","","null","","","null","85","","NaN","","","","","","","","","","","","","",""
"","response","","html-keyboard-response","544","1692667","0.0-1.0-770.0-0.0","0","0","88835","","165","","","75","85","","","2","85","training","adjacent","ED","5","4","L.jpg","O.jpg","1","0","0","",""
"","feedback","","html-keyboard-response","545","1693669","0.0-1.0-771.0-0.0","0","0","88835","","null","","","null","85","","","","","","","","","","","","","","","",""
"","time_out","","html-keyboard-response","546","1695672","0.0-1.0-773.0-0.0","0","0","88835","","null","","","null","85","","","","","","","","","","","","","","","",""
"","ITI","","html-keyboard-response","547","1696675","0.0-1.0-774.0","0","0","88835","","646","","","75","85","","","","","","","","","","","","","","","k",""
"","S1","","html-keyboard-response","548","1696828","0.0-1.0-776.0","0","0","88835","","null","","","null","86","","","","","","","","","","","","","","","",""
"","ISI","","html-keyboard-response","549","1698832","0.0-1.0-777.0","0","0","88835","","849","","","75","86","k","","","","","","","","","","","","","","",""
"","S2","","html-keyboard-response","550","1698984","0.0-1.0-778.0","0","0","88835","","null","","","null","86","","NaN","","","","","","","","","","","","","",""
"","response","","html-keyboard-response","551","1699257","0.0-1.0-779.0-0.0","0","0","88835","","270","","","75","86","","","2","86","training","adjacent","AB","1","2","Q.jpg","N.jpg","1","1","1","",""
"","feedback","","html-keyboard-response","552","1700260","0.0-1.0-780.0-0.0","0","0","88835","","null","","","null","86","","","","","","","","","","","","","","","",""
"","ITI","","html-keyboard-response","553","1701263","0.0-1.0-783.0","0","0","88835","","80","","","75","86","","","","","","","","","","","","","","","k",""
"","S1","","html-keyboard-response","554","1701417","0.0-1.0-785.0","0","0","88835","","null","","","null","87","","","","","","","","","","","","","","","",""
"","ISI","","html-keyboard-response","555","1703420","0.0-1.0-786.0","0","0","88835","","316","","","75","87","k","","","","","","","","","","","","","","",""
"","S2","","html-keyboard-response","556","1703433","0.0-1.0-787.0","0","0","88835","","11","","","75","87","","k","2","87","training","adjacent","ED","5","4","L.jpg","O.jpg","1","0","0","",""
"","feedback","","html-keyboard-response","557","1704437","0.0-1.0-789.0-0.0","0","0","88835","","null","","","null","87","","","","","","","","","","","","","","","",""
"","time_out","","html-keyboard-response","558","1706439","0.0-1.0-791.0-0.0","0","0","88835","","null","","","null","87","","","","","","","","","","","","","","","",""
"","ITI","","html-keyboard-response","559","1707442","0.0-1.0-792.0","0","0","88835","","470","","","75","87","","","","","","","","","","","","","","","k",""
"","S1","","html-keyboard-response","560","1707596","0.0-1.0-794.0","0","0","88835","","null","","","null","88","","","","","","","","","","","","","","","",""
"","ISI","","html-keyboard-response","561","1709598","0.0-1.0-795.0","0","0","88835","","379","","","75","88","k","","","","","","","","","","","","","","",""
"","S2","","html-keyboard-response","562","1709751","0.0-1.0-796.0","0","0","88835","","null","","","null","88","","NaN","","","","","","","","","","","","","",""
"","response","","html-keyboard-response","563","1710237","0.0-1.0-797.0-0.0","0","0","88835","","483","","","75","88","","","2","88","training","adjacent","FG","6","7","M.jpg","R.jpg","1","1","1","",""
"","feedback","","html-keyboard-response","564","1711240","0.0-1.0-798.0-0.0","0","0","88835","","null","","","null","88","","","","","","","","","","","","","","","",""
"","ITI","","html-keyboard-response","565","1712247","0.0-1.0-801.0","0","0","88835","","123","","","75","88","","","","","","","","","","","","","","","k",""
"","S1","","html-keyboard-response","566","1712401","0.0-1.0-803.0","0","0","88835","","null","","","null","89","","","","","","","","","","","","","","","",""
"","ISI","","html-keyboard-response","567","1714404","0.0-1.0-804.0","0","0","88835","","242","","","75","89","k","","","","","","","","","","","","","","",""
"","S2","","html-keyboard-response","568","1714557","0.0-1.0-805.0","0","0","88835","","null","","","null","89","","NaN","","","","","","","","","","","","","",""
"","response","","html-keyboard-response","569","1714617","0.0-1.0-806.0-0.0","0","0","88835","","58","","","75","89","","","2","89","training","adjacent","DC","4","3","O.jpg","P.jpg","1","0","0","",""
"","feedback","","html-keyboard-response","570","1715620","0.0-1.0-807.0-0.0","0","0","88835","","null","","","null","89","","","","","","","","","","","","","","","",""
"","time_out","","html-keyboard-response","571","1717623","0.0-1.0-809.0-0.0","0","0","88835","","null","","","null","89","","","","","","","","","","","","","","","",""
"","ITI","","html-keyboard-response","572","1718626","0.0-1.0-810.0","0","0","88835","","122","","","75","89","","","","","","","","","","","","","","","k",""
"","S1","","html-keyboard-response","573","1718780","0.0-1.0-812.0","0","0","88835","","null","","","null","90","","","","","","","","","","","","","","","",""
"","ISI","","html-keyboard-response","574","1720782","0.0-1.0-813.0","0","0","88835","","26","","","75","90","k","","","","","","","","","","","","","","",""
"","S2","","html-keyboard-response","575","1720858","0.0-1.0-814.0","0","0","88835","","74","","","75","90","","k","2","90","training","adjacent","GF","7","6","R.jpg","M.jpg","1","0","0","",""
"","feedback","","html-keyboard-response","576","1721862","0.0-1.0-816.0-0.0","0","0","88835","","null","","","null","90","","","","","","","","","","","","","","","",""
"","time_out","","html-keyboard-response","577","1723871","0.0-1.0-818.0-0.0","0","0","88835","","null","","","null","90","","","","","","","","","","","","","","","",""
"","ITI","","html-keyboard-response","578","1724874","0.0-1.0-819.0","0","0","88835","","null","","","null","90","","","","","","","","","","","","","","","NaN",""
"","S1","","html-keyboard-response","579","1725028","0.0-1.0-821.0","0","0","88835","","null","","","null","91","","","","","","","","","","","","","","","",""
