"success","ttype","start_time","trial_type","trial_index","time_elapsed","internal_node_id","warning","missed_checkup","PID","view_history","rt","responses","repeat_instructions","key_press","index","keypress_isi","keypress_S2","block","trial_num","phase","group_type","pair_type","S1_stim","S2_stim","S1_img","S2_img","S1_chosen","S1_higher","accuracy","keypress_iti","total_bonus_tally"
"true","full_screen","d08012022hr1634","fullscreen","0","16971","0.0-0.0","0","0","50431","","","","","","","","","","","","","","","","","","","","","",""
"","instructions","","instructions","1","63524","0.0-1.0-0.0-0.0","0","0","50431","[{""page_index"":0,""viewing_time"":7269},{""page_index"":1,""viewing_time"":25454},{""page_index"":2,""viewing_time"":12059},{""page_index"":3,""viewing_time"":1759}]","46542","","","","","","","","","","","","","","","","","","","",""
"","comprehension_check","","survey-multi-choice","2","98009","0.0-1.0-0.0-1.0","0","0","50431","","34467","{""Q0"":""True"",""Q1"":""K"",""Q2"":""When you see the prompt 'MAKE A CHOICE' after the second image was presented"",""Q3"":""Green mark"",""Q4"":""either D or K""}","0","","","","","","","","","","","","","","","","","",""
"","start_exp","","html-keyboard-response","3","101223","0.0-1.0-1.0","0","0","50431","","3207","","","32","","","","","","","","","","","","","","","","",""
"","S1","","html-keyboard-response","4","101480","0.0-1.0-2.0","0","0","50431","","null","","","null","0","","","","","","","","","","","","","","","",""
"","ISI","","html-keyboard-response","5","103486","0.0-1.0-3.0","0","0","50431","","null","","","null","0","NaN","","","","","","","","","","","","","","",""
"","S2","","html-keyboard-response","6","103742","0.0-1.0-4.0","0","0","50431","","null","","","null","0","","NaN","","","","","","","","","","","","","",""
"","response","","html-keyboard-response","7","104554","0.0-1.0-5.0","0","0","50431","","807","","","75","0","","","1","0","training","adjacent","FG","6","7","M.jpg","P.jpg","1","1","1","",""
"","feedback","","html-keyboard-response","8","105559","0.0-1.0-6.0-0.0","0","0","50431","","null","","","null","0","","","","","","","","","","","","","","","",""
"","ITI","","html-keyboard-response","9","106563","0.0-1.0-9.0","0","0","50431","","null","","","null","0","","","","","","","","","","","","","","","NaN",""
"","S1","","html-keyboard-response","10","106820","0.0-1.0-11.0","0","0","50431","","null","","","null","1","","","","","","","","","","","","","","","",""
"","ISI","","html-keyboard-response","11","108825","0.0-1.0-12.0","0","0","50431","","null","","","null","1","NaN","","","","","","","","","","","","","","",""
"","S2","","html-keyboard-response","12","109081","0.0-1.0-13.0","0","0","50431","","null","","","null","1","","NaN","","","","","","","","","","","","","",""
"","response","","html-keyboard-response","13","109681","0.0-1.0-14.0","0","0","50431","","595","","","75","1","","","1","1","training","adjacent","FE","6","5","M.jpg","Q.jpg","1","0","0","",""
"","feedback","","html-keyboard-response","14","110687","0.0-1.0-15.0-0.0","0","0","50431","","null","","","null","1","","","","","","","","","","","","","","","",""
"","time_out","","html-keyboard-response","15","112692","0.0-1.0-17.0-0.0","0","0","50431","","null","","","null","1","","","","","","","","","","","","","","","",""
"","ITI","","html-keyboard-response","16","113697","0.0-1.0-18.0","0","0","50431","","null","","","null","1","","","","","","","","","","","","","","","NaN",""
"","S1","","html-keyboard-response","17","113952","0.0-1.0-20.0","0","0","50431","","null","","","null","2","","","","","","","","","","","","","","","",""
"","ISI","","html-keyboard-response","18","115957","0.0-1.0-21.0","0","0","50431","","null","","","null","2","NaN","","","","","","","","","","","","","","",""
"","S2","","html-keyboard-response","19","116212","0.0-1.0-22.0","0","0","50431","","null","","","null","2","","NaN","","","","","","","","","","","","","",""
"","response","","html-keyboard-response","20","116688","0.0-1.0-23.0","0","0","50431","","469","","","75","2","","","1","2","training","adjacent","BC","2","3","N.jpg","L.jpg","1","1","1","",""
"","feedback","","html-keyboard-response","21","117694","0.0-1.0-24.0-0.0","0","0","50431","","null","","","null","2","","","","","","","","","","","","","","","",""
"","ITI","","html-keyboard-response","22","118698","0.0-1.0-27.0","0","0","50431","","null","","","null","2","","","","","","","","","","","","","","","NaN",""
"","S1","","html-keyboard-response","23","118953","0.0-1.0-29.0","0","0","50431","","null","","","null","3","","","","","","","","","","","","","","","",""
"","ISI","","html-keyboard-response","24","120959","0.0-1.0-30.0","0","0","50431","","null","","","null","3","NaN","","","","","","","","","","","","","","",""
"","S2","","html-keyboard-response","25","121215","0.0-1.0-31.0","0","0","50431","","null","","","null","3","","NaN","","","","","","","","","","","","","",""
"","response","","html-keyboard-response","26","122231","0.0-1.0-32.0","0","0","50431","","1010","","","68","3","","","1","3","training","adjacent","CB","3","2","L.jpg","N.jpg","0","0","1","",""
"","feedback","","html-keyboard-response","27","123236","0.0-1.0-33.0-0.0","0","0","50431","","null","","","null","3","","","","","","","","","","","","","","","",""
"","ITI","","html-keyboard-response","28","124241","0.0-1.0-36.0","0","0","50431","","null","","","null","3","","","","","","","","","","","","","","","NaN",""
"","S1","","html-keyboard-response","29","124496","0.0-1.0-38.0","0","0","50431","","null","","","null","4","","","","","","","","","","","","","","","",""
"","ISI","","html-keyboard-response","30","126501","0.0-1.0-39.0","0","0","50431","","null","","","null","4","NaN","","","","","","","","","","","","","","",""
"","S2","","html-keyboard-response","31","126757","0.0-1.0-40.0","0","0","50431","","null","","","null","4","","NaN","","","","","","","","","","","","","",""
"","response","","html-keyboard-response","32","127498","0.0-1.0-41.0","0","0","50431","","736","","","68","4","","","1","4","training","adjacent","CB","3","2","L.jpg","N.jpg","0","0","1","",""
"","feedback","","html-keyboard-response","33","128503","0.0-1.0-42.0-0.0","0","0","50431","","null","","","null","4","","","","","","","","","","","","","","","",""
"","ITI","","html-keyboard-response","34","129509","0.0-1.0-45.0","0","0","50431","","null","","","null","4","","","","","","","","","","","","","","","NaN",""
"","S1","","html-keyboard-response","35","129764","0.0-1.0-47.0","0","0","50431","","null","","","null","5","","","","","","","","","","","","","","","",""
"","ISI","","html-keyboard-response","36","131769","0.0-1.0-48.0","0","0","50431","","null","","","null","5","NaN","","","","","","","","","","","","","","",""
"","S2","","html-keyboard-response","37","132025","0.0-1.0-49.0","0","0","50431","","null","","","null","5","","NaN","","","","","","","","","","","","","",""
"","response","","html-keyboard-response","38","132436","0.0-1.0-50.0","0","0","50431","","406","","","75","5","","","1","5","training","adjacent","BA","2","1","N.jpg","O.jpg","1","0","0","",""
"","feedback","","html-keyboard-response","39","133441","0.0-1.0-51.0-0.0","0","0","50431","","null","","","null","5","","","","","","","","","","","","","","","",""
"","time_out","","html-keyboard-response","40","135447","0.0-1.0-53.0-0.0","0","0","50431","","null","","","null","5","","","","","","","","","","","","","","","",""
"","ITI","","html-keyboard-response","41","136450","0.0-1.0-54.0","0","0","50431","","null","","","null","5","","","","","","","","","","","","","","","NaN",""
"","S1","","html-keyboard-response","42","136706","0.0-1.0-56.0","0","0","50431","","null","","","null","6","","","","","","","","","","","","","","","",""
"","ISI","","html-keyboard-response","43","138711","0.0-1.0-57.0","0","0","50431","","null","","","null","6","NaN","","","","","","","","","","","","","","",""
"","S2","","html-keyboard-response","44","138967","0.0-1.0-58.0","0","0","50431","","null","","","null","6","","NaN","","","","","","","","","","","","","",""
"","response","","html-keyboard-response","45","139629","0.0-1.0-59.0","0","0","50431","","658","","","68","6","","","1","6","training","adjacent","BC","2","3","N.jpg","L.jpg","0","1","0","",""
"","feedback","","html-keyboard-response","46","140634","0.0-1.0-60.0-0.0","0","0","50431","","null","","","null","6","","","","","","","","","","","","","","","",""
"","time_out","","html-keyboard-response","47","142640","0.0-1.0-62.0-0.0","0","0","50431","","null","","","null","6","","","","","","","","","","","","","","","",""
"","ITI","","html-keyboard-response","48","143645","0.0-1.0-63.0","0","0","50431","","null","","","null","6","","","","","","","","","","","","","","","NaN",""
"","S1","","html-keyboard-response","49","143900","0.0-1.0-65.0","0","0","50431","","null","","","null","7","","","","","","","","","","","","","","","",""
"","ISI","","html-keyboard-response","50","145905","0.0-1.0-66.0","0","0","50431","","null","","","null","7","NaN","","","","","","","","","","","","","","",""
"","S2","","html-keyboard-response","51","146160","0.0-1.0-67.0","0","0","50431","","null","","","null","7","","NaN","","","","","","","","","","","","","",""
"","response","","html-keyboard-response","52","147235","0.0-1.0-68.0","0","0","50431","","1070","","","75","7","","","1","7","training","adjacent","FE","6","5","M.jpg","Q.jpg","1","0","0","",""
"","feedback","","html-keyboard-response","53","148240","0.0-1.0-69.0-0.0","0","0","50431","","null","","","null","7","","","","","","","","","","","","","","","",""
"","time_out","","html-keyboard-response","54","150245","0.0-1.0-71.0-0.0","0","0","50431","","null","","","null","7","","","","","","","","","","","","","","","",""
"","ITI","","html-keyboard-response","55","151249","0.0-1.0-72.0","0","0","50431","","null","","","null","7","","","","","","","","","","","","","","","NaN",""
"","S1","","html-keyboard-response","56","151504","0.0-1.0-74.0","0","0","50431","","null","","","null","8","","","","","","","","","","","","","","","",""
"","ISI","","html-keyboard-response","57","153509","0.0-1.0-75.0","0","0","50431","","null","","","null","8","NaN","","","","","","","","","","","","","","",""
"","S2","","html-keyboard-response","58","153764","0.0-1.0-76.0","0","0","50431","","null","","","null","8","","NaN","","","","","","","","","","","","","",""
"","response","","html-keyboard-response","59","154499","0.0-1.0-77.0","0","0","50431","","729","","","75","8","","","1","8","training","adjacent","CD","3","4","L.jpg","R.jpg","1","1","1","",""
"","feedback","","html-keyboard-response","60","155508","0.0-1.0-78.0-0.0","0","0","50431","","null","","","null","8","","","","","","","","","","","","","","","",""
"","ITI","","html-keyboard-response","61","156513","0.0-1.0-81.0","0","0","50431","","null","","","null","8","","","","","","","","","","","","","","","NaN",""
"","S1","","html-keyboard-response","62","156768","0.0-1.0-83.0","0","0","50431","","null","","","null","9","","","","","","","","","","","","","","","",""
"","ISI","","html-keyboard-response","63","158772","0.0-1.0-84.0","0","0","50431","","null","","","null","9","NaN","","","","","","","","","","","","","","",""
"","S2","","html-keyboard-response","64","159028","0.0-1.0-85.0","0","0","50431","","null","","","null","9","","NaN","","","","","","","","","","","","","",""
"","response","","html-keyboard-response","65","160417","0.0-1.0-86.0","0","0","50431","","1385","","","75","9","","","1","9","training","adjacent","FE","6","5","M.jpg","Q.jpg","1","0","0","",""
"","feedback","","html-keyboard-response","66","161422","0.0-1.0-87.0-0.0","0","0","50431","","null","","","null","9","","","","","","","","","","","","","","","",""
"","time_out","","html-keyboard-response","67","163427","0.0-1.0-89.0-0.0","0","0","50431","","null","","","null","9","","","","","","","","","","","","","","","",""
"","ITI","","html-keyboard-response","68","164432","0.0-1.0-90.0","0","0","50431","","null","","","null","9","","","","","","","","","","","","","","","NaN",""
"","S1","","html-keyboard-response","69","164687","0.0-1.0-92.0","0","0","50431","","null","","","null","10","","","","","","","","","","","","","","","",""
"","ISI","","html-keyboard-response","70","166692","0.0-1.0-93.0","0","0","50431","","null","","","null","10","NaN","","","","","","","","","","","","","","",""
"","S2","","html-keyboard-response","71","166947","0.0-1.0-94.0","0","0","50431","","null","","","null","10","","NaN","","","","","","","","","","","","","",""
"","response","","html-keyboard-response","72","168140","0.0-1.0-95.0","0","0","50431","","1188","","","68","10","","","1","10","training","adjacent","BA","2","1","N.jpg","O.jpg","0","0","1","",""
"","feedback","","html-keyboard-response","73","169145","0.0-1.0-96.0-0.0","0","0","50431","","null","","","null","10","","","","","","","","","","","","","","","",""
"","ITI","","html-keyboard-response","74","170150","0.0-1.0-99.0","0","0","50431","","null","","","null","10","","","","","","","","","","","","","","","NaN",""
"","S1","","html-keyboard-response","75","170407","0.0-1.0-101.0","0","0","50431","","null","","","null","11","","","","","","","","","","","","","","","",""
"","ISI","","html-keyboard-response","76","172411","0.0-1.0-102.0","0","0","50431","","null","","","null","11","NaN","","","","","","","","","","","","","","",""
"","S2","","html-keyboard-response","77","172667","0.0-1.0-103.0","0","0","50431","","null","","","null","11","","NaN","","","","","","","","","","","","","",""
"","response","","html-keyboard-response","78","174068","0.0-1.0-104.0","0","0","50431","","1397","","","68","11","","","1","11","training","adjacent","AB","1","2","O.jpg","N.jpg","0","1","0","",""
"","feedback","","html-keyboard-response","79","175073","0.0-1.0-105.0-0.0","0","0","50431","","null","","","null","11","","","","","","","","","","","","","","","",""
"","time_out","","html-keyboard-response","80","177078","0.0-1.0-107.0-0.0","0","0","50431","","null","","","null","11","","","","","","","","","","","","","","","",""
"","ITI","","html-keyboard-response","81","178082","0.0-1.0-108.0","0","0","50431","","null","","","null","11","","","","","","","","","","","","","","","NaN",""
"","S1","","html-keyboard-response","82","178338","0.0-1.0-110.0","0","0","50431","","null","","","null","12","","","","","","","","","","","","","","","",""
"","ISI","","html-keyboard-response","83","180342","0.0-1.0-111.0","0","0","50431","","null","","","null","12","NaN","","","","","","","","","","","","","","",""
"","S2","","html-keyboard-response","84","180598","0.0-1.0-112.0","0","0","50431","","null","","","null","12","","NaN","","","","","","","","","","","","","",""
"","response","","html-keyboard-response","85","181263","0.0-1.0-113.0","0","0","50431","","661","","","75","12","","","1","12","training","adjacent","CD","3","4","L.jpg","R.jpg","1","1","1","",""
"","feedback","","html-keyboard-response","86","182268","0.0-1.0-114.0-0.0","0","0","50431","","null","","","null","12","","","","","","","","","","","","","","","",""
"","ITI","","html-keyboard-response","87","183273","0.0-1.0-117.0","0","0","50431","","null","","","null","12","","","","","","","","","","","","","","","NaN",""
"","S1","","html-keyboard-response","88","183528","0.0-1.0-119.0","0","0","50431","","null","","","null","13","","","","","","","","","","","","","","","",""
"","ISI","","html-keyboard-response","89","185530","0.0-1.0-120.0","0","0","50431","","null","","","null","13","NaN","","","","","","","","","","","","","","",""
"","S2","","html-keyboard-response","90","185785","0.0-1.0-121.0","0","0","50431","","null","","","null","13","","NaN","","","","","","","","","","","","","",""
"","response","","html-keyboard-response","91","186662","0.0-1.0-122.0","0","0","50431","","872","","","75","13","","","1","13","training","adjacent","GF","7","6","P.jpg","M.jpg","1","0","0","",""
"","feedback","","html-keyboard-response","92","187667","0.0-1.0-123.0-0.0","0","0","50431","","null","","","null","13","","","","","","","","","","","","","","","",""
"","time_out","","html-keyboard-response","93","189672","0.0-1.0-125.0-0.0","0","0","50431","","null","","","null","13","","","","","","","","","","","","","","","",""
"","ITI","","html-keyboard-response","94","190677","0.0-1.0-126.0","0","0","50431","","null","","","null","13","","","","","","","","","","","","","","","NaN",""
"","S1","","html-keyboard-response","95","190933","0.0-1.0-128.0","0","0","50431","","null","","","null","14","","","","","","","","","","","","","","","",""
"","ISI","","html-keyboard-response","96","192937","0.0-1.0-129.0","0","0","50431","","null","","","null","14","NaN","","","","","","","","","","","","","","",""
"","S2","","html-keyboard-response","97","193193","0.0-1.0-130.0","0","0","50431","","null","","","null","14","","NaN","","","","","","","","","","","","","",""
"","response","","html-keyboard-response","98","193731","0.0-1.0-131.0","0","0","50431","","535","","","68","14","","","1","14","training","adjacent","DE","4","5","R.jpg","Q.jpg","0","1","0","",""
"","feedback","","html-keyboard-response","99","194737","0.0-1.0-132.0-0.0","0","0","50431","","null","","","null","14","","","","","","","","","","","","","","","",""
"","time_out","","html-keyboard-response","100","196742","0.0-1.0-134.0-0.0","0","0","50431","","null","","","null","14","","","","","","","","","","","","","","","",""
"","ITI","","html-keyboard-response","101","197747","0.0-1.0-135.0","0","0","50431","","null","","","null","14","","","","","","","","","","","","","","","NaN",""
"","S1","","html-keyboard-response","102","198004","0.0-1.0-137.0","0","0","50431","","null","","","null","15","","","","","","","","","","","","","","","",""
"","ISI","","html-keyboard-response","103","200008","0.0-1.0-138.0","0","0","50431","","null","","","null","15","NaN","","","","","","","","","","","","","","",""
"","S2","","html-keyboard-response","104","200264","0.0-1.0-139.0","0","0","50431","","null","","","null","15","","NaN","","","","","","","","","","","","","",""
"","response","","html-keyboard-response","105","201641","0.0-1.0-140.0","0","0","50431","","1371","","","75","15","","","1","15","training","adjacent","ED","5","4","Q.jpg","R.jpg","1","0","0","",""
"","feedback","","html-keyboard-response","106","202646","0.0-1.0-141.0-0.0","0","0","50431","","null","","","null","15","","","","","","","","","","","","","","","",""
"","time_out","","html-keyboard-response","107","204651","0.0-1.0-143.0-0.0","0","0","50431","","null","","","null","15","","","","","","","","","","","","","","","",""
"","ITI","","html-keyboard-response","108","205655","0.0-1.0-144.0","0","0","50431","","null","","","null","15","","","","","","","","","","","","","","","NaN",""
"","S1","","html-keyboard-response","109","205911","0.0-1.0-146.0","0","0","50431","","null","","","null","16","","","","","","","","","","","","","","","",""
"","ISI","","html-keyboard-response","110","207916","0.0-1.0-147.0","0","0","50431","","null","","","null","16","NaN","","","","","","","","","","","","","","",""
"","S2","","html-keyboard-response","111","208171","0.0-1.0-148.0","0","0","50431","","null","","","null","16","","NaN","","","","","","","","","","","","","",""
"","response","","html-keyboard-response","112","210175","0.0-1.0-149.0","0","0","50431","","null","","","null","16","","","1","16","training","adjacent","DE","4","5","R.jpg","Q.jpg","NaN","1","0","",""
"","too_slow_prompt","","html-keyboard-response","113","211180","0.0-1.0-151.0-0.0","1","0","50431","","null","","","null","","","","","","","","","","","","","","","","",""
"","time_out","","html-keyboard-response","114","213185","0.0-1.0-152.0-0.0","0","0","50431","","null","","","null","16","","","","","","","","","","","","","","","",""
"","ITI","","html-keyboard-response","115","214190","0.0-1.0-153.0","0","0","50431","","null","","","null","16","","","","","","","","","","","","","","","NaN",""
"","S1","","html-keyboard-response","116","214444","0.0-1.0-155.0","0","0","50431","","null","","","null","17","","","","","","","","","","","","","","","",""
"","ISI","","html-keyboard-response","117","216450","0.0-1.0-156.0","0","0","50431","","null","","","null","17","NaN","","","","","","","","","","","","","","",""
"","S2","","html-keyboard-response","118","216705","0.0-1.0-157.0","0","0","50431","","null","","","null","17","","NaN","","","","","","","","","","","","","",""
"","response","","html-keyboard-response","119","217624","0.0-1.0-158.0","0","0","50431","","913","","","68","17","","","1","17","training","adjacent","AB","1","2","O.jpg","N.jpg","0","1","0","",""
"","feedback","","html-keyboard-response","120","218629","0.0-1.0-159.0-0.0","0","0","50431","","null","","","null","17","","","","","","","","","","","","","","","",""
"","time_out","","html-keyboard-response","121","220635","0.0-1.0-161.0-0.0","0","0","50431","","null","","","null","17","","","","","","","","","","","","","","","",""
"","ITI","","html-keyboard-response","122","221639","0.0-1.0-162.0","0","0","50431","","null","","","null","17","","","","","","","","","","","","","","","NaN",""
"","S1","","html-keyboard-response","123","221896","0.0-1.0-164.0","0","0","50431","","null","","","null","18","","","","","","","","","","","","","","","",""
"","ISI","","html-keyboard-response","124","223900","0.0-1.0-165.0","0","0","50431","","null","","","null","18","NaN","","","","","","","","","","","","","","",""
"","S2","","html-keyboard-response","125","224155","0.0-1.0-166.0","0","0","50431","","null","","","null","18","","NaN","","","","","","","","","","","","","",""
"","response","","html-keyboard-response","126","224745","0.0-1.0-167.0","0","0","50431","","585","","","75","18","","","1","18","training","adjacent","DE","4","5","R.jpg","Q.jpg","1","1","1","",""
"","feedback","","html-keyboard-response","127","225750","0.0-1.0-168.0-0.0","0","0","50431","","null","","","null","18","","","","","","","","","","","","","","","",""
"","ITI","","html-keyboard-response","128","226754","0.0-1.0-171.0","0","0","50431","","null","","","null","18","","","","","","","","","","","","","","","NaN",""
"","S1","","html-keyboard-response","129","227010","0.0-1.0-173.0","0","0","50431","","null","","","null","19","","","","","","","","","","","","","","","",""
"","ISI","","html-keyboard-response","130","229014","0.0-1.0-174.0","0","0","50431","","null","","","null","19","NaN","","","","","","","","","","","","","","",""
"","S2","","html-keyboard-response","131","229268","0.0-1.0-175.0","0","0","50431","","null","","","null","19","","NaN","","","","","","","","","","","","","",""
"","response","","html-keyboard-response","132","230268","0.0-1.0-176.0","0","0","50431","","993","","","68","19","","","1","19","training","adjacent","FE","6","5","M.jpg","Q.jpg","0","0","1","",""
"","feedback","","html-keyboard-response","133","231272","0.0-1.0-177.0-0.0","0","0","50431","","null","","","null","19","","","","","","","","","","","","","","","",""
"","ITI","","html-keyboard-response","134","232277","0.0-1.0-180.0","0","0","50431","","null","","","null","19","","","","","","","","","","","","","","","NaN",""
"","S1","","html-keyboard-response","135","232532","0.0-1.0-182.0","0","0","50431","","null","","","null","20","","","","","","","","","","","","","","","",""
"","ISI","","html-keyboard-response","136","234538","0.0-1.0-183.0","0","0","50431","","null","","","null","20","NaN","","","","","","","","","","","","","","",""
"","S2","","html-keyboard-response","137","234793","0.0-1.0-184.0","0","0","50431","","null","","","null","20","","NaN","","","","","","","","","","","","","",""
"","response","","html-keyboard-response","138","235681","0.0-1.0-185.0","0","0","50431","","884","","","68","20","","","1","20","training","adjacent","DC","4","3","R.jpg","L.jpg","0","0","1","",""
"","feedback","","html-keyboard-response","139","236687","0.0-1.0-186.0-0.0","0","0","50431","","null","","","null","20","","","","","","","","","","","","","","","",""
"","ITI","","html-keyboard-response","140","237692","0.0-1.0-189.0","0","0","50431","","null","","","null","20","","","","","","","","","","","","","","","NaN",""
"","S1","","html-keyboard-response","141","237948","0.0-1.0-191.0","0","0","50431","","null","","","null","21","","","","","","","","","","","","","","","",""
"","ISI","","html-keyboard-response","142","239954","0.0-1.0-192.0","0","0","50431","","null","","","null","21","NaN","","","","","","","","","","","","","","",""
"","S2","","html-keyboard-response","143","240209","0.0-1.0-193.0","0","0","50431","","null","","","null","21","","NaN","","","","","","","","","","","","","",""
"","response","","html-keyboard-response","144","241407","0.0-1.0-194.0","0","0","50431","","1193","","","75","21","","","1","21","training","adjacent","GF","7","6","P.jpg","M.jpg","1","0","0","",""
"","feedback","","html-keyboard-response","145","242412","0.0-1.0-195.0-0.0","0","0","50431","","null","","","null","21","","","","","","","","","","","","","","","",""
"","time_out","","html-keyboard-response","146","244416","0.0-1.0-197.0-0.0","0","0","50431","","null","","","null","21","","","","","","","","","","","","","","","",""
"","ITI","","html-keyboard-response","147","245420","0.0-1.0-198.0","0","0","50431","","null","","","null","21","","","","","","","","","","","","","","","NaN",""
"","S1","","html-keyboard-response","148","245676","0.0-1.0-200.0","0","0","50431","","null","","","null","22","","","","","","","","","","","","","","","",""
"","ISI","","html-keyboard-response","149","247681","0.0-1.0-201.0","0","0","50431","","null","","","null","22","NaN","","","","","","","","","","","","","","",""
"","S2","","html-keyboard-response","150","247937","0.0-1.0-202.0","0","0","50431","","null","","","null","22","","NaN","","","","","","","","","","","","","",""
"","response","","html-keyboard-response","151","248427","0.0-1.0-203.0","0","0","50431","","485","","","75","22","","","1","22","training","adjacent","BA","2","1","N.jpg","O.jpg","1","0","0","",""
"","feedback","","html-keyboard-response","152","249432","0.0-1.0-204.0-0.0","0","0","50431","","null","","","null","22","","","","","","","","","","","","","","","",""
"","time_out","","html-keyboard-response","153","251438","0.0-1.0-206.0-0.0","0","0","50431","","null","","","null","22","","","","","","","","","","","","","","","",""
"","ITI","","html-keyboard-response","154","252442","0.0-1.0-207.0","0","0","50431","","null","","","null","22","","","","","","","","","","","","","","","NaN",""
"","S1","","html-keyboard-response","155","252699","0.0-1.0-209.0","0","0","50431","","null","","","null","23","","","","","","","","","","","","","","","",""
"","ISI","","html-keyboard-response","156","254704","0.0-1.0-210.0","0","0","50431","","null","","","null","23","NaN","","","","","","","","","","","","","","",""
"","S2","","html-keyboard-response","157","254959","0.0-1.0-211.0","0","0","50431","","null","","","null","23","","NaN","","","","","","","","","","","","","",""
"","response","","html-keyboard-response","158","256174","0.0-1.0-212.0","0","0","50431","","1210","","","75","23","","","1","23","training","adjacent","EF","5","6","Q.jpg","M.jpg","1","1","1","",""
"","feedback","","html-keyboard-response","159","257179","0.0-1.0-213.0-0.0","0","0","50431","","null","","","null","23","","","","","","","","","","","","","","","",""
"","ITI","","html-keyboard-response","160","258185","0.0-1.0-216.0","0","0","50431","","null","","","null","23","","","","","","","","","","","","","","","NaN",""
"","S1","","html-keyboard-response","161","258440","0.0-1.0-218.0","0","0","50431","","null","","","null","24","","","","","","","","","","","","","","","",""
"","ISI","","html-keyboard-response","162","260445","0.0-1.0-219.0","0","0","50431","","null","","","null","24","NaN","","","","","","","","","","","","","","",""
"","S2","","html-keyboard-response","163","260700","0.0-1.0-220.0","0","0","50431","","null","","","null","24","","NaN","","","","","","","","","","","","","",""
"","response","","html-keyboard-response","164","262039","0.0-1.0-221.0","0","0","50431","","1335","","","75","24","","","1","24","training","adjacent","CD","3","4","L.jpg","R.jpg","1","1","1","",""
"","feedback","","html-keyboard-response","165","263044","0.0-1.0-222.0-0.0","0","0","50431","","null","","","null","24","","","","","","","","","","","","","","","",""
"","ITI","","html-keyboard-response","166","264049","0.0-1.0-225.0","0","0","50431","","null","","","null","24","","","","","","","","","","","","","","","NaN",""
"","S1","","html-keyboard-response","167","264305","0.0-1.0-227.0","0","0","50431","","null","","","null","25","","","","","","","","","","","","","","","",""
"","ISI","","html-keyboard-response","168","266309","0.0-1.0-228.0","0","0","50431","","null","","","null","25","NaN","","","","","","","","","","","","","","",""
"","S2","","html-keyboard-response","169","266564","0.0-1.0-229.0","0","0","50431","","null","","","null","25","","NaN","","","","","","","","","","","","","",""
"","response","","html-keyboard-response","170","267951","0.0-1.0-230.0","0","0","50431","","1382","","","68","25","","","1","25","training","adjacent","CB","3","2","L.jpg","N.jpg","0","0","1","",""
"","feedback","","html-keyboard-response","171","268956","0.0-1.0-231.0-0.0","0","0","50431","","null","","","null","25","","","","","","","","","","","","","","","",""
"","ITI","","html-keyboard-response","172","269961","0.0-1.0-234.0","0","0","50431","","null","","","null","25","","","","","","","","","","","","","","","NaN",""
"","S1","","html-keyboard-response","173","270217","0.0-1.0-236.0","0","0","50431","","null","","","null","26","","","","","","","","","","","","","","","",""
"","ISI","","html-keyboard-response","174","272221","0.0-1.0-237.0","0","0","50431","","null","","","null","26","NaN","","","","","","","","","","","","","","",""
"","S2","","html-keyboard-response","175","272477","0.0-1.0-238.0","0","0","50431","","null","","","null","26","","NaN","","","","","","","","","","","","","",""
"","response","","html-keyboard-response","176","273347","0.0-1.0-239.0","0","0","50431","","866","","","68","26","","","1","26","training","adjacent","DE","4","5","R.jpg","Q.jpg","0","1","0","",""
"","feedback","","html-keyboard-response","177","274352","0.0-1.0-240.0-0.0","0","0","50431","","null","","","null","26","","","","","","","","","","","","","","","",""
"","time_out","","html-keyboard-response","178","276357","0.0-1.0-242.0-0.0","0","0","50431","","null","","","null","26","","","","","","","","","","","","","","","",""
"","ITI","","html-keyboard-response","179","277361","0.0-1.0-243.0","0","0","50431","","null","","","null","26","","","","","","","","","","","","","","","NaN",""
"","S1","","html-keyboard-response","180","277616","0.0-1.0-245.0","0","0","50431","","null","","","null","27","","","","","","","","","","","","","","","",""
"","ISI","","html-keyboard-response","181","279621","0.0-1.0-246.0","0","0","50431","","null","","","null","27","NaN","","","","","","","","","","","","","","",""
"","S2","","html-keyboard-response","182","279877","0.0-1.0-247.0","0","0","50431","","null","","","null","27","","NaN","","","","","","","","","","","","","",""
"","response","","html-keyboard-response","183","281204","0.0-1.0-248.0","0","0","50431","","1321","","","75","27","","","1","27","training","adjacent","GF","7","6","P.jpg","M.jpg","1","0","0","",""
"","feedback","","html-keyboard-response","184","282209","0.0-1.0-249.0-0.0","0","0","50431","","null","","","null","27","","","","","","","","","","","","","","","",""
"","time_out","","html-keyboard-response","185","284213","0.0-1.0-251.0-0.0","0","0","50431","","null","","","null","27","","","","","","","","","","","","","","","",""
"","ITI","","html-keyboard-response","186","285217","0.0-1.0-252.0","0","0","50431","","null","","","null","27","","","","","","","","","","","","","","","NaN",""
"","S1","","html-keyboard-response","187","285472","0.0-1.0-254.0","0","0","50431","","null","","","null","28","","","","","","","","","","","","","","","",""
"","ISI","","html-keyboard-response","188","287477","0.0-1.0-255.0","0","0","50431","","null","","","null","28","NaN","","","","","","","","","","","","","","",""
"","S2","","html-keyboard-response","189","287732","0.0-1.0-256.0","0","0","50431","","null","","","null","28","","NaN","","","","","","","","","","","","","",""
"","response","","html-keyboard-response","190","288475","0.0-1.0-257.0","0","0","50431","","737","","","75","28","","","1","28","training","adjacent","EF","5","6","Q.jpg","M.jpg","1","1","1","",""
"","feedback","","html-keyboard-response","191","289481","0.0-1.0-258.0-0.0","0","0","50431","","null","","","null","28","","","","","","","","","","","","","","","",""
"","ITI","","html-keyboard-response","192","290485","0.0-1.0-261.0","0","0","50431","","null","","","null","28","","","","","","","","","","","","","","","NaN",""
"","S1","","html-keyboard-response","193","290741","0.0-1.0-263.0","0","0","50431","","null","","","null","29","","","","","","","","","","","","","","","",""
"","ISI","","html-keyboard-response","194","292745","0.0-1.0-264.0","0","0","50431","","null","","","null","29","NaN","","","","","","","","","","","","","","",""
"","S2","","html-keyboard-response","195","293000","0.0-1.0-265.0","0","0","50431","","null","","","null","29","","NaN","","","","","","","","","","","","","",""
"","response","","html-keyboard-response","196","294039","0.0-1.0-266.0","0","0","50431","","1034","","","75","29","","","1","29","training","adjacent","BC","2","3","N.jpg","L.jpg","1","1","1","",""
"","feedback","","html-keyboard-response","197","295045","0.0-1.0-267.0-0.0","0","0","50431","","null","","","null","29","","","","","","","","","","","","","","","",""
"","ITI","","html-keyboard-response","198","296049","0.0-1.0-270.0","0","0","50431","","null","","","null","29","","","","","","","","","","","","","","","NaN",""
"","S1","","html-keyboard-response","199","296305","0.0-1.0-272.0","0","0","50431","","null","","","null","30","","","","","","","","","","","","","","","",""
"","ISI","","html-keyboard-response","200","298309","0.0-1.0-273.0","0","0","50431","","null","","","null","30","NaN","","","","","","","","","","","","","","",""
"","S2","","html-keyboard-response","201","298565","0.0-1.0-274.0","0","0","50431","","null","","","null","30","","NaN","","","","","","","","","","","","","",""
"","response","","html-keyboard-response","202","299413","0.0-1.0-275.0","0","0","50431","","843","","","68","30","","","1","30","training","adjacent","DC","4","3","R.jpg","L.jpg","0","0","1","",""
"","feedback","","html-keyboard-response","203","300418","0.0-1.0-276.0-0.0","0","0","50431","","null","","","null","30","","","","","","","","","","","","","","","",""
"","ITI","","html-keyboard-response","204","301423","0.0-1.0-279.0","0","0","50431","","null","","","null","30","","","","","","","","","","","","","","","NaN",""
"","S1","","html-keyboard-response","205","301679","0.0-1.0-281.0","0","0","50431","","null","","","null","31","","","","","","","","","","","","","","","",""
"","ISI","","html-keyboard-response","206","303683","0.0-1.0-282.0","0","0","50431","","null","","","null","31","NaN","","","","","","","","","","","","","","",""
"","S2","","html-keyboard-response","207","303938","0.0-1.0-283.0","0","0","50431","","null","","","null","31","","NaN","","","","","","","","","","","","","",""
"","response","","html-keyboard-response","208","304908","0.0-1.0-284.0","0","0","50431","","965","","","75","31","","","1","31","training","adjacent","CD","3","4","L.jpg","R.jpg","1","1","1","",""
"","feedback","","html-keyboard-response","209","305913","0.0-1.0-285.0-0.0","0","0","50431","","null","","","null","31","","","","","","","","","","","","","","","",""
"","ITI","","html-keyboard-response","210","306917","0.0-1.0-288.0","0","0","50431","","null","","","null","31","","","","","","","","","","","","","","","NaN",""
"","S1","","html-keyboard-response","211","307172","0.0-1.0-290.0","0","0","50431","","null","","","null","32","","","","","","","","","","","","","","","",""
"","ISI","","html-keyboard-response","212","309177","0.0-1.0-291.0","0","0","50431","","null","","","null","32","NaN","","","","","","","","","","","","","","",""
"","S2","","html-keyboard-response","213","309433","0.0-1.0-292.0","0","0","50431","","null","","","null","32","","NaN","","","","","","","","","","","","","",""
"","response","","html-keyboard-response","214","310139","0.0-1.0-293.0","0","0","50431","","701","","","68","32","","","1","32","training","adjacent","CB","3","2","L.jpg","N.jpg","0","0","1","",""
"","feedback","","html-keyboard-response","215","311144","0.0-1.0-294.0-0.0","0","0","50431","","null","","","null","32","","","","","","","","","","","","","","","",""
"","ITI","","html-keyboard-response","216","312150","0.0-1.0-297.0","0","0","50431","","null","","","null","32","","","","","","","","","","","","","","","NaN",""
"","S1","","html-keyboard-response","217","312405","0.0-1.0-299.0","0","0","50431","","null","","","null","33","","","","","","","","","","","","","","","",""
"","ISI","","html-keyboard-response","218","314409","0.0-1.0-300.0","0","0","50431","","null","","","null","33","NaN","","","","","","","","","","","","","","",""
"","S2","","html-keyboard-response","219","314666","0.0-1.0-301.0","0","0","50431","","null","","","null","33","","NaN","","","","","","","","","","","","","",""
"","response","","html-keyboard-response","220","315348","0.0-1.0-302.0","0","0","50431","","679","","","75","33","","","1","33","training","adjacent","BC","2","3","N.jpg","L.jpg","1","1","1","",""
"","feedback","","html-keyboard-response","221","316354","0.0-1.0-303.0-0.0","0","0","50431","","null","","","null","33","","","","","","","","","","","","","","","",""
"","ITI","","html-keyboard-response","222","317359","0.0-1.0-306.0","0","0","50431","","null","","","null","33","","","","","","","","","","","","","","","NaN",""
"","S1","","html-keyboard-response","223","317615","0.0-1.0-308.0","0","0","50431","","null","","","null","34","","","","","","","","","","","","","","","",""
"","ISI","","html-keyboard-response","224","319619","0.0-1.0-309.0","0","0","50431","","null","","","null","34","NaN","","","","","","","","","","","","","","",""
"","S2","","html-keyboard-response","225","319874","0.0-1.0-310.0","0","0","50431","","null","","","null","34","","NaN","","","","","","","","","","","","","",""
"","response","","html-keyboard-response","226","321115","0.0-1.0-311.0","0","0","50431","","1237","","","68","34","","","1","34","training","adjacent","ED","5","4","Q.jpg","R.jpg","0","0","1","",""
"","feedback","","html-keyboard-response","227","322121","0.0-1.0-312.0-0.0","0","0","50431","","null","","","null","34","","","","","","","","","","","","","","","",""
"","ITI","","html-keyboard-response","228","323126","0.0-1.0-315.0","0","0","50431","","null","","","null","34","","","","","","","","","","","","","","","NaN",""
"","S1","","html-keyboard-response","229","323381","0.0-1.0-317.0","0","0","50431","","null","","","null","35","","","","","","","","","","","","","","","",""
"","ISI","","html-keyboard-response","230","325386","0.0-1.0-318.0","0","0","50431","","null","","","null","35","NaN","","","","","","","","","","","","","","",""
"","S2","","html-keyboard-response","231","325640","0.0-1.0-319.0","0","0","50431","","null","","","null","35","","NaN","","","","","","","","","","","","","",""
"","response","","html-keyboard-response","232","326146","0.0-1.0-320.0","0","0","50431","","501","","","68","35","","","1","35","training","adjacent","BA","2","1","N.jpg","O.jpg","0","0","1","",""
"","feedback","","html-keyboard-response","233","327152","0.0-1.0-321.0-0.0","0","0","50431","","null","","","null","35","","","","","","","","","","","","","","","",""
"","ITI","","html-keyboard-response","234","328158","0.0-1.0-324.0","0","0","50431","","null","","","null","35","","","","","","","","","","","","","","","NaN",""
"","S1","","html-keyboard-response","235","328413","0.0-1.0-326.0","0","0","50431","","null","","","null","36","","","","","","","","","","","","","","","",""
"","ISI","","html-keyboard-response","236","330417","0.0-1.0-327.0","0","0","50431","","null","","","null","36","NaN","","","","","","","","","","","","","","",""
"","S2","","html-keyboard-response","237","330673","0.0-1.0-328.0","0","0","50431","","null","","","null","36","","NaN","","","","","","","","","","","","","",""
"","response","","html-keyboard-response","238","331208","0.0-1.0-329.0","0","0","50431","","531","","","68","36","","","1","36","training","adjacent","ED","5","4","Q.jpg","R.jpg","0","0","1","",""
"","feedback","","html-keyboard-response","239","332213","0.0-1.0-330.0-0.0","0","0","50431","","null","","","null","36","","","","","","","","","","","","","","","",""
"","ITI","","html-keyboard-response","240","333219","0.0-1.0-333.0","0","0","50431","","null","","","null","36","","","","","","","","","","","","","","","NaN",""
"","S1","","html-keyboard-response","241","333474","0.0-1.0-335.0","0","0","50431","","null","","","null","37","","","","","","","","","","","","","","","",""
"","ISI","","html-keyboard-response","242","335478","0.0-1.0-336.0","0","0","50431","","null","","","null","37","NaN","","","","","","","","","","","","","","",""
"","S2","","html-keyboard-response","243","335732","0.0-1.0-337.0","0","0","50431","","null","","","null","37","","NaN","","","","","","","","","","","","","",""
"","response","","html-keyboard-response","244","336772","0.0-1.0-338.0","0","0","50431","","1034","","","75","37","","","1","37","training","adjacent","EF","5","6","Q.jpg","M.jpg","1","1","1","",""
"","feedback","","html-keyboard-response","245","337776","0.0-1.0-339.0-0.0","0","0","50431","","null","","","null","37","","","","","","","","","","","","","","","",""
"","ITI","","html-keyboard-response","246","338781","0.0-1.0-342.0","0","0","50431","","null","","","null","37","","","","","","","","","","","","","","","NaN",""
"","S1","","html-keyboard-response","247","339036","0.0-1.0-344.0","0","0","50431","","null","","","null","38","","","","","","","","","","","","","","","",""
"","ISI","","html-keyboard-response","248","341041","0.0-1.0-345.0","0","0","50431","","null","","","null","38","NaN","","","","","","","","","","","","","","",""
"","S2","","html-keyboard-response","249","341297","0.0-1.0-346.0","0","0","50431","","null","","","null","38","","NaN","","","","","","","","","","","","","",""
"","response","","html-keyboard-response","250","341839","0.0-1.0-347.0","0","0","50431","","538","","","75","38","","","1","38","training","adjacent","EF","5","6","Q.jpg","M.jpg","1","1","1","",""
"","feedback","","html-keyboard-response","251","342845","0.0-1.0-348.0-0.0","0","0","50431","","null","","","null","38","","","","","","","","","","","","","","","",""
"","ITI","","html-keyboard-response","252","343851","0.0-1.0-351.0","0","0","50431","","null","","","null","38","","","","","","","","","","","","","","","NaN",""
"","S1","","html-keyboard-response","253","344107","0.0-1.0-353.0","0","0","50431","","null","","","null","39","","","","","","","","","","","","","","","",""
"","ISI","","html-keyboard-response","254","346112","0.0-1.0-354.0","0","0","50431","","null","","","null","39","NaN","","","","","","","","","","","","","","",""
"","S2","","html-keyboard-response","255","346368","0.0-1.0-355.0","0","0","50431","","null","","","null","39","","NaN","","","","","","","","","","","","","",""
"","response","","html-keyboard-response","256","347217","0.0-1.0-356.0","0","0","50431","","845","","","75","39","","","1","39","training","adjacent","FG","6","7","M.jpg","P.jpg","1","1","1","",""
"","feedback","","html-keyboard-response","257","348222","0.0-1.0-357.0-0.0","0","0","50431","","null","","","null","39","","","","","","","","","","","","","","","",""
"","ITI","","html-keyboard-response","258","349226","0.0-1.0-360.0","0","0","50431","","null","","","null","39","","","","","","","","","","","","","","","NaN",""
"","S1","","html-keyboard-response","259","349482","0.0-1.0-362.0","0","0","50431","","null","","","null","40","","","","","","","","","","","","","","","",""
"","ISI","","html-keyboard-response","260","351487","0.0-1.0-363.0","0","0","50431","","null","","","null","40","NaN","","","","","","","","","","","","","","",""
"","S2","","html-keyboard-response","261","351741","0.0-1.0-364.0","0","0","50431","","null","","","null","40","","NaN","","","","","","","","","","","","","",""
"","response","","html-keyboard-response","262","352296","0.0-1.0-365.0","0","0","50431","","548","","","75","40","","","1","40","training","adjacent","AB","1","2","O.jpg","N.jpg","1","1","1","",""
"","feedback","","html-keyboard-response","263","353301","0.0-1.0-366.0-0.0","0","0","50431","","null","","","null","40","","","","","","","","","","","","","","","",""
"","ITI","","html-keyboard-response","264","354306","0.0-1.0-369.0","0","0","50431","","null","","","null","40","","","","","","","","","","","","","","","NaN",""
"","S1","","html-keyboard-response","265","354561","0.0-1.0-371.0","0","0","50431","","null","","","null","41","","","","","","","","","","","","","","","",""
"","ISI","","html-keyboard-response","266","356566","0.0-1.0-372.0","0","0","50431","","null","","","null","41","NaN","","","","","","","","","","","","","","",""
"","S2","","html-keyboard-response","267","356821","0.0-1.0-373.0","0","0","50431","","null","","","null","41","","NaN","","","","","","","","","","","","","",""
"","response","","html-keyboard-response","268","357796","0.0-1.0-374.0","0","0","50431","","970","","","68","41","","","1","41","training","adjacent","GF","7","6","P.jpg","M.jpg","0","0","1","",""
"","feedback","","html-keyboard-response","269","358802","0.0-1.0-375.0-0.0","0","0","50431","","null","","","null","41","","","","","","","","","","","","","","","",""
"","ITI","","html-keyboard-response","270","359807","0.0-1.0-378.0","0","0","50431","","null","","","null","41","","","","","","","","","","","","","","","NaN",""
"","S1","","html-keyboard-response","271","360063","0.0-1.0-380.0","0","0","50431","","null","","","null","42","","","","","","","","","","","","","","","",""
"","ISI","","html-keyboard-response","272","362068","0.0-1.0-381.0","0","0","50431","","null","","","null","42","NaN","","","","","","","","","","","","","","",""
"","S2","","html-keyboard-response","273","362323","0.0-1.0-382.0","0","0","50431","","null","","","null","42","","NaN","","","","","","","","","","","","","",""
"","response","","html-keyboard-response","274","363046","0.0-1.0-383.0","0","0","50431","","719","","","68","42","","","1","42","training","adjacent","ED","5","4","Q.jpg","R.jpg","0","0","1","",""
"","feedback","","html-keyboard-response","275","364052","0.0-1.0-384.0-0.0","0","0","50431","","null","","","null","42","","","","","","","","","","","","","","","",""
"","ITI","","html-keyboard-response","276","365057","0.0-1.0-387.0","0","0","50431","","null","","","null","42","","","","","","","","","","","","","","","NaN",""
"","S1","","html-keyboard-response","277","365312","0.0-1.0-389.0","0","0","50431","","null","","","null","43","","","","","","","","","","","","","","","",""
"","ISI","","html-keyboard-response","278","367317","0.0-1.0-390.0","0","0","50431","","null","","","null","43","NaN","","","","","","","","","","","","","","",""
"","S2","","html-keyboard-response","279","367574","0.0-1.0-391.0","0","0","50431","","null","","","null","43","","NaN","","","","","","","","","","","","","",""
"","response","","html-keyboard-response","280","368114","0.0-1.0-392.0","0","0","50431","","535","","","75","43","","","1","43","training","adjacent","FG","6","7","M.jpg","P.jpg","1","1","1","",""
"","feedback","","html-keyboard-response","281","369119","0.0-1.0-393.0-0.0","0","0","50431","","null","","","null","43","","","","","","","","","","","","","","","",""
"","ITI","","html-keyboard-response","282","370123","0.0-1.0-396.0","0","0","50431","","null","","","null","43","","","","","","","","","","","","","","","NaN",""
"","S1","","html-keyboard-response","283","370379","0.0-1.0-398.0","0","0","50431","","null","","","null","44","","","","","","","","","","","","","","","",""
"","ISI","","html-keyboard-response","284","372384","0.0-1.0-399.0","0","0","50431","","null","","","null","44","NaN","","","","","","","","","","","","","","",""
"","S2","","html-keyboard-response","285","372640","0.0-1.0-400.0","0","0","50431","","null","","","null","44","","NaN","","","","","","","","","","","","","",""
"","response","","html-keyboard-response","286","373313","0.0-1.0-401.0","0","0","50431","","669","","","68","44","","","1","44","training","adjacent","FG","6","7","M.jpg","P.jpg","0","1","0","",""
"","feedback","","html-keyboard-response","287","374319","0.0-1.0-402.0-0.0","0","0","50431","","null","","","null","44","","","","","","","","","","","","","","","",""
"","time_out","","html-keyboard-response","288","376324","0.0-1.0-404.0-0.0","0","0","50431","","null","","","null","44","","","","","","","","","","","","","","","",""
"","ITI","","html-keyboard-response","289","377328","0.0-1.0-405.0","0","0","50431","","null","","","null","44","","","","","","","","","","","","","","","NaN",""
"","S1","","html-keyboard-response","290","377583","0.0-1.0-407.0","0","0","50431","","null","","","null","45","","","","","","","","","","","","","","","",""
"","ISI","","html-keyboard-response","291","379588","0.0-1.0-408.0","0","0","50431","","null","","","null","45","NaN","","","","","","","","","","","","","","",""
"","S2","","html-keyboard-response","292","379844","0.0-1.0-409.0","0","0","50431","","null","","","null","45","","NaN","","","","","","","","","","","","","",""
"","response","","html-keyboard-response","293","380791","0.0-1.0-410.0","0","0","50431","","942","","","75","45","","","1","45","training","adjacent","DC","4","3","R.jpg","L.jpg","1","0","0","",""
"","feedback","","html-keyboard-response","294","381797","0.0-1.0-411.0-0.0","0","0","50431","","null","","","null","45","","","","","","","","","","","","","","","",""
"","time_out","","html-keyboard-response","295","383801","0.0-1.0-413.0-0.0","0","0","50431","","null","","","null","45","","","","","","","","","","","","","","","",""
"","ITI","","html-keyboard-response","296","384806","0.0-1.0-414.0","0","0","50431","","null","","","null","45","","","","","","","","","","","","","","","NaN",""
"","S1","","html-keyboard-response","297","385062","0.0-1.0-416.0","0","0","50431","","null","","","null","46","","","","","","","","","","","","","","","",""
"","ISI","","html-keyboard-response","298","387067","0.0-1.0-417.0","0","0","50431","","null","","","null","46","NaN","","","","","","","","","","","","","","",""
"","S2","","html-keyboard-response","299","387322","0.0-1.0-418.0","0","0","50431","","null","","","null","46","","NaN","","","","","","","","","","","","","",""
"","response","","html-keyboard-response","300","387701","0.0-1.0-419.0","0","0","50431","","374","","","68","46","","","1","46","training","adjacent","DC","4","3","R.jpg","L.jpg","0","0","1","",""
"","feedback","","html-keyboard-response","301","388707","0.0-1.0-420.0-0.0","0","0","50431","","null","","","null","46","","","","","","","","","","","","","","","",""
"","ITI","","html-keyboard-response","302","389711","0.0-1.0-423.0","0","0","50431","","null","","","null","46","","","","","","","","","","","","","","","NaN",""
"","S1","","html-keyboard-response","303","389966","0.0-1.0-425.0","0","0","50431","","null","","","null","47","","","","","","","","","","","","","","","",""
"","ISI","","html-keyboard-response","304","391973","0.0-1.0-426.0","0","0","50431","","null","","","null","47","NaN","","","","","","","","","","","","","","",""
"","S2","","html-keyboard-response","305","392229","0.0-1.0-427.0","0","0","50431","","null","","","null","47","","NaN","","","","","","","","","","","","","",""
"","response","","html-keyboard-response","306","392647","0.0-1.0-428.0","0","0","50431","","413","","","75","47","","","1","47","training","adjacent","AB","1","2","O.jpg","N.jpg","1","1","1","",""
"","feedback","","html-keyboard-response","307","393652","0.0-1.0-429.0-0.0","0","0","50431","","null","","","null","47","","","","","","","","","","","","","","","",""
"","ITI","","html-keyboard-response","308","394657","0.0-1.0-432.0","0","0","50431","","null","","","null","47","","","","","","","","","","","","","","","NaN",""
"","block_over","","html-keyboard-response","309","398588","0.0-1.0-433.0-0.0","0","0","50431","","3923","","","32","47","","","","","","","","","","","","","","","",""
"","S1","","html-keyboard-response","310","398844","0.0-1.0-434.0","0","0","50431","","null","","","null","48","","","","","","","","","","","","","","","",""
"","ISI","","html-keyboard-response","311","400850","0.0-1.0-435.0","0","0","50431","","null","","","null","48","NaN","","","","","","","","","","","","","","",""
"","S2","","html-keyboard-response","312","401106","0.0-1.0-436.0","0","0","50431","","null","","","null","48","","NaN","","","","","","","","","","","","","",""
"","response","","html-keyboard-response","313","401486","0.0-1.0-437.0","0","0","50431","","375","","","75","48","","","2","48","training","adjacent","AB","1","2","O.jpg","N.jpg","1","1","1","",""
"","feedback","","html-keyboard-response","314","402492","0.0-1.0-438.0-0.0","0","0","50431","","null","","","null","48","","","","","","","","","","","","","","","",""
"","ITI","","html-keyboard-response","315","403497","0.0-1.0-441.0","0","0","50431","","null","","","null","48","","","","","","","","","","","","","","","NaN",""
"","S1","","html-keyboard-response","316","403753","0.0-1.0-443.0","0","0","50431","","null","","","null","49","","","","","","","","","","","","","","","",""
"","ISI","","html-keyboard-response","317","405758","0.0-1.0-444.0","0","0","50431","","null","","","null","49","NaN","","","","","","","","","","","","","","",""
"","S2","","html-keyboard-response","318","406013","0.0-1.0-445.0","0","0","50431","","null","","","null","49","","NaN","","","","","","","","","","","","","",""
"","response","","html-keyboard-response","319","406699","0.0-1.0-446.0","0","0","50431","","683","","","68","49","","","2","49","training","adjacent","CB","3","2","L.jpg","N.jpg","0","0","1","",""
"","feedback","","html-keyboard-response","320","407703","0.0-1.0-447.0-0.0","0","0","50431","","null","","","null","49","","","","","","","","","","","","","","","",""
"","ITI","","html-keyboard-response","321","408708","0.0-1.0-450.0","0","0","50431","","null","","","null","49","","","","","","","","","","","","","","","NaN",""
"","S1","","html-keyboard-response","322","408965","0.0-1.0-452.0","0","0","50431","","null","","","null","50","","","","","","","","","","","","","","","",""
"","ISI","","html-keyboard-response","323","410970","0.0-1.0-453.0","0","0","50431","","null","","","null","50","NaN","","","","","","","","","","","","","","",""
"","S2","","html-keyboard-response","324","411225","0.0-1.0-454.0","0","0","50431","","null","","","null","50","","NaN","","","","","","","","","","","","","",""
"","response","","html-keyboard-response","325","412072","0.0-1.0-455.0","0","0","50431","","842","","","68","50","","","2","50","training","adjacent","FE","6","5","M.jpg","Q.jpg","0","0","1","",""
"","feedback","","html-keyboard-response","326","413078","0.0-1.0-456.0-0.0","0","0","50431","","null","","","null","50","","","","","","","","","","","","","","","",""
"","ITI","","html-keyboard-response","327","414082","0.0-1.0-459.0","0","0","50431","","null","","","null","50","","","","","","","","","","","","","","","NaN",""
"","S1","","html-keyboard-response","328","414338","0.0-1.0-461.0","0","0","50431","","null","","","null","51","","","","","","","","","","","","","","","",""
"","ISI","","html-keyboard-response","329","416343","0.0-1.0-462.0","0","0","50431","","null","","","null","51","NaN","","","","","","","","","","","","","","",""
"","S2","","html-keyboard-response","330","416599","0.0-1.0-463.0","0","0","50431","","null","","","null","51","","NaN","","","","","","","","","","","","","",""
"","response","","html-keyboard-response","331","417607","0.0-1.0-464.0","0","0","50431","","1003","","","68","51","","","2","51","training","adjacent","EF","5","6","Q.jpg","M.jpg","0","1","0","",""
"","feedback","","html-keyboard-response","332","418612","0.0-1.0-465.0-0.0","0","0","50431","","null","","","null","51","","","","","","","","","","","","","","","",""
"","time_out","","html-keyboard-response","333","420616","0.0-1.0-467.0-0.0","0","0","50431","","null","","","null","51","","","","","","","","","","","","","","","",""
"","ITI","","html-keyboard-response","334","421620","0.0-1.0-468.0","0","0","50431","","null","","","null","51","","","","","","","","","","","","","","","NaN",""
"","S1","","html-keyboard-response","335","421877","0.0-1.0-470.0","0","0","50431","","null","","","null","52","","","","","","","","","","","","","","","",""
"","ISI","","html-keyboard-response","336","423881","0.0-1.0-471.0","0","0","50431","","null","","","null","52","NaN","","","","","","","","","","","","","","",""
"","S2","","html-keyboard-response","337","424137","0.0-1.0-472.0","0","0","50431","","null","","","null","52","","NaN","","","","","","","","","","","","","",""
"","response","","html-keyboard-response","338","425168","0.0-1.0-473.0","0","0","50431","","1026","","","75","52","","","2","52","training","adjacent","DC","4","3","R.jpg","L.jpg","1","0","0","",""
"","feedback","","html-keyboard-response","339","426173","0.0-1.0-474.0-0.0","0","0","50431","","null","","","null","52","","","","","","","","","","","","","","","",""
"","time_out","","html-keyboard-response","340","428179","0.0-1.0-476.0-0.0","0","0","50431","","null","","","null","52","","","","","","","","","","","","","","","",""
"","ITI","","html-keyboard-response","341","429183","0.0-1.0-477.0","0","0","50431","","null","","","null","52","","","","","","","","","","","","","","","NaN",""
"","S1","","html-keyboard-response","342","429439","0.0-1.0-479.0","0","0","50431","","null","","","null","53","","","","","","","","","","","","","","","",""
"","ISI","","html-keyboard-response","343","431444","0.0-1.0-480.0","0","0","50431","","null","","","null","53","NaN","","","","","","","","","","","","","","",""
"","S2","","html-keyboard-response","344","431700","0.0-1.0-481.0","0","0","50431","","null","","","null","53","","NaN","","","","","","","","","","","","","",""
"","response","","html-keyboard-response","345","432842","0.0-1.0-482.0","0","0","50431","","1137","","","68","53","","","2","53","training","adjacent","FG","6","7","M.jpg","P.jpg","0","1","0","",""
"","feedback","","html-keyboard-response","346","433848","0.0-1.0-483.0-0.0","0","0","50431","","null","","","null","53","","","","","","","","","","","","","","","",""
"","time_out","","html-keyboard-response","347","435854","0.0-1.0-485.0-0.0","0","0","50431","","null","","","null","53","","","","","","","","","","","","","","","",""
"","ITI","","html-keyboard-response","348","436860","0.0-1.0-486.0","0","0","50431","","null","","","null","53","","","","","","","","","","","","","","","NaN",""
"","S1","","html-keyboard-response","349","437115","0.0-1.0-488.0","0","0","50431","","null","","","null","54","","","","","","","","","","","","","","","",""
"","ISI","","html-keyboard-response","350","439120","0.0-1.0-489.0","0","0","50431","","null","","","null","54","NaN","","","","","","","","","","","","","","",""
"","S2","","html-keyboard-response","351","439375","0.0-1.0-490.0","0","0","50431","","null","","","null","54","","NaN","","","","","","","","","","","","","",""
"","response","","html-keyboard-response","352","439850","0.0-1.0-491.0","0","0","50431","","471","","","68","54","","","2","54","training","adjacent","BA","2","1","N.jpg","O.jpg","0","0","1","",""
"","feedback","","html-keyboard-response","353","440857","0.0-1.0-492.0-0.0","0","0","50431","","null","","","null","54","","","","","","","","","","","","","","","",""
"","ITI","","html-keyboard-response","354","441863","0.0-1.0-495.0","0","0","50431","","null","","","null","54","","","","","","","","","","","","","","","NaN",""
"","S1","","html-keyboard-response","355","442119","0.0-1.0-497.0","0","0","50431","","null","","","null","55","","","","","","","","","","","","","","","",""
"","ISI","","html-keyboard-response","356","444124","0.0-1.0-498.0","0","0","50431","","null","","","null","55","NaN","","","","","","","","","","","","","","",""
"","S2","","html-keyboard-response","357","444379","0.0-1.0-499.0","0","0","50431","","null","","","null","55","","NaN","","","","","","","","","","","","","",""
"","response","","html-keyboard-response","358","445563","0.0-1.0-500.0","0","0","50431","","1182","","","75","55","","","2","55","training","adjacent","DE","4","5","R.jpg","Q.jpg","1","1","1","",""
"","feedback","","html-keyboard-response","359","446569","0.0-1.0-501.0-0.0","0","0","50431","","null","","","null","55","","","","","","","","","","","","","","","",""
"","ITI","","html-keyboard-response","360","447573","0.0-1.0-504.0","0","0","50431","","null","","","null","55","","","","","","","","","","","","","","","NaN",""
"","S1","","html-keyboard-response","361","447828","0.0-1.0-506.0","0","0","50431","","null","","","null","56","","","","","","","","","","","","","","","",""
"","ISI","","html-keyboard-response","362","449833","0.0-1.0-507.0","0","0","50431","","null","","","null","56","NaN","","","","","","","","","","","","","","",""
"","S2","","html-keyboard-response","363","450088","0.0-1.0-508.0","0","0","50431","","null","","","null","56","","NaN","","","","","","","","","","","","","",""
"","response","","html-keyboard-response","364","451129","0.0-1.0-509.0","0","0","50431","","1036","","","75","56","","","2","56","training","adjacent","BC","2","3","N.jpg","L.jpg","1","1","1","",""
"","feedback","","html-keyboard-response","365","452135","0.0-1.0-510.0-0.0","0","0","50431","","null","","","null","56","","","","","","","","","","","","","","","",""
"","ITI","","html-keyboard-response","366","453140","0.0-1.0-513.0","0","0","50431","","null","","","null","56","","","","","","","","","","","","","","","NaN",""
"","S1","","html-keyboard-response","367","453396","0.0-1.0-515.0","0","0","50431","","null","","","null","57","","","","","","","","","","","","","","","",""
"","ISI","","html-keyboard-response","368","455401","0.0-1.0-516.0","0","0","50431","","null","","","null","57","NaN","","","","","","","","","","","","","","",""
"","S2","","html-keyboard-response","369","455655","0.0-1.0-517.0","0","0","50431","","null","","","null","57","","NaN","","","","","","","","","","","","","",""
"","response","","html-keyboard-response","370","456192","0.0-1.0-518.0","0","0","50431","","532","","","68","57","","","2","57","training","adjacent","BA","2","1","N.jpg","O.jpg","0","0","1","",""
"","feedback","","html-keyboard-response","371","457197","0.0-1.0-519.0-0.0","0","0","50431","","null","","","null","57","","","","","","","","","","","","","","","",""
"","ITI","","html-keyboard-response","372","458202","0.0-1.0-522.0","0","0","50431","","null","","","null","57","","","","","","","","","","","","","","","NaN",""
"","S1","","html-keyboard-response","373","458458","0.0-1.0-524.0","0","0","50431","","null","","","null","58","","","","","","","","","","","","","","","",""
"","ISI","","html-keyboard-response","374","460463","0.0-1.0-525.0","0","0","50431","","null","","","null","58","NaN","","","","","","","","","","","","","","",""
"","S2","","html-keyboard-response","375","460718","0.0-1.0-526.0","0","0","50431","","null","","","null","58","","NaN","","","","","","","","","","","","","",""
"","response","","html-keyboard-response","376","461455","0.0-1.0-527.0","0","0","50431","","731","","","68","58","","","2","58","training","adjacent","EF","5","6","Q.jpg","M.jpg","0","1","0","",""
"","feedback","","html-keyboard-response","377","462459","0.0-1.0-528.0-0.0","0","0","50431","","null","","","null","58","","","","","","","","","","","","","","","",""
"","time_out","","html-keyboard-response","378","464464","0.0-1.0-530.0-0.0","0","0","50431","","null","","","null","58","","","","","","","","","","","","","","","",""
"","ITI","","html-keyboard-response","379","465469","0.0-1.0-531.0","0","0","50431","","null","","","null","58","","","","","","","","","","","","","","","NaN",""
"","S1","","html-keyboard-response","380","465725","0.0-1.0-533.0","0","0","50431","","null","","","null","59","","","","","","","","","","","","","","","",""
"","ISI","","html-keyboard-response","381","467730","0.0-1.0-534.0","0","0","50431","","null","","","null","59","NaN","","","","","","","","","","","","","","",""
"","S2","","html-keyboard-response","382","467986","0.0-1.0-535.0","0","0","50431","","null","","","null","59","","NaN","","","","","","","","","","","","","",""
"","response","","html-keyboard-response","383","469005","0.0-1.0-536.0","0","0","50431","","1015","","","75","59","","","2","59","training","adjacent","FG","6","7","M.jpg","P.jpg","1","1","1","",""
"","feedback","","html-keyboard-response","384","470010","0.0-1.0-537.0-0.0","0","0","50431","","null","","","null","59","","","","","","","","","","","","","","","",""
"","ITI","","html-keyboard-response","385","471015","0.0-1.0-540.0","0","0","50431","","null","","","null","59","","","","","","","","","","","","","","","NaN",""
"","S1","","html-keyboard-response","386","471271","0.0-1.0-542.0","0","0","50431","","null","","","null","60","","","","","","","","","","","","","","","",""
"","ISI","","html-keyboard-response","387","473275","0.0-1.0-543.0","0","0","50431","","null","","","null","60","NaN","","","","","","","","","","","","","","",""
"","S2","","html-keyboard-response","388","473530","0.0-1.0-544.0","0","0","50431","","null","","","null","60","","NaN","","","","","","","","","","","","","",""
"","response","","html-keyboard-response","389","474438","0.0-1.0-545.0","0","0","50431","","904","","","68","60","","","2","60","training","adjacent","DC","4","3","R.jpg","L.jpg","0","0","1","",""
"","feedback","","html-keyboard-response","390","475443","0.0-1.0-546.0-0.0","0","0","50431","","null","","","null","60","","","","","","","","","","","","","","","",""
"","ITI","","html-keyboard-response","391","476449","0.0-1.0-549.0","0","0","50431","","null","","","null","60","","","","","","","","","","","","","","","NaN",""
"","S1","","html-keyboard-response","392","476704","0.0-1.0-551.0","0","0","50431","","null","","","null","61","","","","","","","","","","","","","","","",""
"","ISI","","html-keyboard-response","393","478710","0.0-1.0-552.0","0","0","50431","","null","","","null","61","NaN","","","","","","","","","","","","","","",""
"","S2","","html-keyboard-response","394","478964","0.0-1.0-553.0","0","0","50431","","null","","","null","61","","NaN","","","","","","","","","","","","","",""
"","response","","html-keyboard-response","395","479811","0.0-1.0-554.0","0","0","50431","","843","","","68","61","","","2","61","training","adjacent","BC","2","3","N.jpg","L.jpg","0","1","0","",""
"","feedback","","html-keyboard-response","396","480818","0.0-1.0-555.0-0.0","0","0","50431","","null","","","null","61","","","","","","","","","","","","","","","",""
"","time_out","","html-keyboard-response","397","482823","0.0-1.0-557.0-0.0","0","0","50431","","null","","","null","61","","","","","","","","","","","","","","","",""
"","ITI","","html-keyboard-response","398","483828","0.0-1.0-558.0","0","0","50431","","null","","","null","61","","","","","","","","","","","","","","","NaN",""
"","S1","","html-keyboard-response","399","484083","0.0-1.0-560.0","0","0","50431","","null","","","null","62","","","","","","","","","","","","","","","",""
"","ISI","","html-keyboard-response","400","486088","0.0-1.0-561.0","0","0","50431","","null","","","null","62","NaN","","","","","","","","","","","","","","",""
"","S2","","html-keyboard-response","401","486343","0.0-1.0-562.0","0","0","50431","","null","","","null","62","","NaN","","","","","","","","","","","","","",""
"","response","","html-keyboard-response","402","487144","0.0-1.0-563.0","0","0","50431","","796","","","68","62","","","2","62","training","adjacent","DC","4","3","R.jpg","L.jpg","0","0","1","",""
"","feedback","","html-keyboard-response","403","488149","0.0-1.0-564.0-0.0","0","0","50431","","null","","","null","62","","","","","","","","","","","","","","","",""
"","ITI","","html-keyboard-response","404","489154","0.0-1.0-567.0","0","0","50431","","null","","","null","62","","","","","","","","","","","","","","","NaN",""
"","S1","","html-keyboard-response","405","489409","0.0-1.0-569.0","0","0","50431","","null","","","null","63","","","","","","","","","","","","","","","",""
"","ISI","","html-keyboard-response","406","491415","0.0-1.0-570.0","0","0","50431","","null","","","null","63","NaN","","","","","","","","","","","","","","",""
"","S2","","html-keyboard-response","407","491671","0.0-1.0-571.0","0","0","50431","","null","","","null","63","","NaN","","","","","","","","","","","","","",""
"","response","","html-keyboard-response","408","492855","0.0-1.0-572.0","0","0","50431","","1181","","","68","63","","","2","63","training","adjacent","FE","6","5","M.jpg","Q.jpg","0","0","1","",""
"","feedback","","html-keyboard-response","409","493861","0.0-1.0-573.0-0.0","0","0","50431","","null","","","null","63","","","","","","","","","","","","","","","",""
"","ITI","","html-keyboard-response","410","494867","0.0-1.0-576.0","0","0","50431","","null","","","null","63","","","","","","","","","","","","","","","NaN",""
"","S1","","html-keyboard-response","411","495123","0.0-1.0-578.0","0","0","50431","","null","","","null","64","","","","","","","","","","","","","","","",""
"","ISI","","html-keyboard-response","412","497127","0.0-1.0-579.0","0","0","50431","","null","","","null","64","NaN","","","","","","","","","","","","","","",""
"","S2","","html-keyboard-response","413","497383","0.0-1.0-580.0","0","0","50431","","null","","","null","64","","NaN","","","","","","","","","","","","","",""
"","response","","html-keyboard-response","414","497687","0.0-1.0-581.0","0","0","50431","","299","","","75","64","","","2","64","training","adjacent","ED","5","4","Q.jpg","R.jpg","1","0","0","",""
"","feedback","","html-keyboard-response","415","498693","0.0-1.0-582.0-0.0","0","0","50431","","null","","","null","64","","","","","","","","","","","","","","","",""
"","time_out","","html-keyboard-response","416","500698","0.0-1.0-584.0-0.0","0","0","50431","","null","","","null","64","","","","","","","","","","","","","","","",""
"","ITI","","html-keyboard-response","417","501703","0.0-1.0-585.0","0","0","50431","","null","","","null","64","","","","","","","","","","","","","","","NaN",""
"","S1","","html-keyboard-response","418","501958","0.0-1.0-587.0","0","0","50431","","null","","","null","65","","","","","","","","","","","","","","","",""
"","ISI","","html-keyboard-response","419","503964","0.0-1.0-588.0","0","0","50431","","null","","","null","65","NaN","","","","","","","","","","","","","","",""
"","S2","","html-keyboard-response","420","504219","0.0-1.0-589.0","0","0","50431","","null","","","null","65","","NaN","","","","","","","","","","","","","",""
"","response","","html-keyboard-response","421","505167","0.0-1.0-590.0","0","0","50431","","944","","","75","65","","","2","65","training","adjacent","GF","7","6","P.jpg","M.jpg","1","0","0","",""
"","feedback","","html-keyboard-response","422","506175","0.0-1.0-591.0-0.0","0","0","50431","","null","","","null","65","","","","","","","","","","","","","","","",""
"","time_out","","html-keyboard-response","423","508180","0.0-1.0-593.0-0.0","0","0","50431","","null","","","null","65","","","","","","","","","","","","","","","",""
"","ITI","","html-keyboard-response","424","509185","0.0-1.0-594.0","0","0","50431","","null","","","null","65","","","","","","","","","","","","","","","NaN",""
"","S1","","html-keyboard-response","425","509441","0.0-1.0-596.0","0","0","50431","","null","","","null","66","","","","","","","","","","","","","","","",""
"","ISI","","html-keyboard-response","426","511445","0.0-1.0-597.0","0","0","50431","","null","","","null","66","NaN","","","","","","","","","","","","","","",""
"","S2","","html-keyboard-response","427","511700","0.0-1.0-598.0","0","0","50431","","null","","","null","66","","NaN","","","","","","","","","","","","","",""
"","response","","html-keyboard-response","428","512397","0.0-1.0-599.0","0","0","50431","","692","","","75","66","","","2","66","training","adjacent","CD","3","4","L.jpg","R.jpg","1","1","1","",""
"","feedback","","html-keyboard-response","429","513402","0.0-1.0-600.0-0.0","0","0","50431","","null","","","null","66","","","","","","","","","","","","","","","",""
"","ITI","","html-keyboard-response","430","514408","0.0-1.0-603.0","0","0","50431","","null","","","null","66","","","","","","","","","","","","","","","NaN",""
"","S1","","html-keyboard-response","431","514663","0.0-1.0-605.0","0","0","50431","","null","","","null","67","","","","","","","","","","","","","","","",""
"","ISI","","html-keyboard-response","432","516668","0.0-1.0-606.0","0","0","50431","","null","","","null","67","NaN","","","","","","","","","","","","","","",""
"","S2","","html-keyboard-response","433","516923","0.0-1.0-607.0","0","0","50431","","null","","","null","67","","NaN","","","","","","","","","","","","","",""
"","response","","html-keyboard-response","434","517853","0.0-1.0-608.0","0","0","50431","","924","","","75","67","","","2","67","training","adjacent","BC","2","3","N.jpg","L.jpg","1","1","1","",""
"","feedback","","html-keyboard-response","435","518859","0.0-1.0-609.0-0.0","0","0","50431","","null","","","null","67","","","","","","","","","","","","","","","",""
"","ITI","","html-keyboard-response","436","519864","0.0-1.0-612.0","0","0","50431","","null","","","null","67","","","","","","","","","","","","","","","NaN",""
"","S1","","html-keyboard-response","437","520119","0.0-1.0-614.0","0","0","50431","","null","","","null","68","","","","","","","","","","","","","","","",""
"","ISI","","html-keyboard-response","438","522124","0.0-1.0-615.0","0","0","50431","","null","","","null","68","NaN","","","","","","","","","","","","","","",""
"","S2","","html-keyboard-response","439","522379","0.0-1.0-616.0","0","0","50431","","null","","","null","68","","NaN","","","","","","","","","","","","","",""
"","response","","html-keyboard-response","440","523751","0.0-1.0-617.0","0","0","50431","","1366","","","68","68","","","2","68","training","adjacent","EF","5","6","Q.jpg","M.jpg","0","1","0","",""
"","feedback","","html-keyboard-response","441","524757","0.0-1.0-618.0-0.0","0","0","50431","","null","","","null","68","","","","","","","","","","","","","","","",""
"","time_out","","html-keyboard-response","442","526762","0.0-1.0-620.0-0.0","0","0","50431","","null","","","null","68","","","","","","","","","","","","","","","",""
"","ITI","","html-keyboard-response","443","527767","0.0-1.0-621.0","0","0","50431","","null","","","null","68","","","","","","","","","","","","","","","NaN",""
"","S1","","html-keyboard-response","444","528022","0.0-1.0-623.0","0","0","50431","","null","","","null","69","","","","","","","","","","","","","","","",""
"","ISI","","html-keyboard-response","445","530027","0.0-1.0-624.0","0","0","50431","","null","","","null","69","NaN","","","","","","","","","","","","","","",""
"","S2","","html-keyboard-response","446","530283","0.0-1.0-625.0","0","0","50431","","null","","","null","69","","NaN","","","","","","","","","","","","","",""
"","response","","html-keyboard-response","447","530716","0.0-1.0-626.0","0","0","50431","","428","","","68","69","","","2","69","training","adjacent","BA","2","1","N.jpg","O.jpg","0","0","1","",""
"","feedback","","html-keyboard-response","448","531722","0.0-1.0-627.0-0.0","0","0","50431","","null","","","null","69","","","","","","","","","","","","","","","",""
"","ITI","","html-keyboard-response","449","532727","0.0-1.0-630.0","0","0","50431","","null","","","null","69","","","","","","","","","","","","","","","NaN",""
"","S1","","html-keyboard-response","450","532983","0.0-1.0-632.0","0","0","50431","","null","","","null","70","","","","","","","","","","","","","","","",""
"","ISI","","html-keyboard-response","451","534989","0.0-1.0-633.0","0","0","50431","","null","","","null","70","NaN","","","","","","","","","","","","","","",""
"","S2","","html-keyboard-response","452","535244","0.0-1.0-634.0","0","0","50431","","null","","","null","70","","NaN","","","","","","","","","","","","","",""
"","response","","html-keyboard-response","453","536143","0.0-1.0-635.0","0","0","50431","","893","","","75","70","","","2","70","training","adjacent","CB","3","2","L.jpg","N.jpg","1","0","0","",""
"","feedback","","html-keyboard-response","454","537150","0.0-1.0-636.0-0.0","0","0","50431","","null","","","null","70","","","","","","","","","","","","","","","",""
"","time_out","","html-keyboard-response","455","539156","0.0-1.0-638.0-0.0","0","0","50431","","null","","","null","70","","","","","","","","","","","","","","","",""
"","ITI","","html-keyboard-response","456","540161","0.0-1.0-639.0","0","0","50431","","null","","","null","70","","","","","","","","","","","","","","","NaN",""
"","S1","","html-keyboard-response","457","540416","0.0-1.0-641.0","0","0","50431","","null","","","null","71","","","","","","","","","","","","","","","",""
"","ISI","","html-keyboard-response","458","542421","0.0-1.0-642.0","0","0","50431","","null","","","null","71","NaN","","","","","","","","","","","","","","",""
"","S2","","html-keyboard-response","459","542676","0.0-1.0-643.0","0","0","50431","","null","","","null","71","","NaN","","","","","","","","","","","","","",""
"","response","","html-keyboard-response","460","543559","0.0-1.0-644.0","0","0","50431","","877","","","68","71","","","2","71","training","adjacent","DC","4","3","R.jpg","L.jpg","0","0","1","",""
"","feedback","","html-keyboard-response","461","544564","0.0-1.0-645.0-0.0","0","0","50431","","null","","","null","71","","","","","","","","","","","","","","","",""
"","ITI","","html-keyboard-response","462","545569","0.0-1.0-648.0","0","0","50431","","null","","","null","71","","","","","","","","","","","","","","","NaN",""
"","S1","","html-keyboard-response","463","545825","0.0-1.0-650.0","0","0","50431","","null","","","null","72","","","","","","","","","","","","","","","",""
"","ISI","","html-keyboard-response","464","547831","0.0-1.0-651.0","0","0","50431","","null","","","null","72","NaN","","","","","","","","","","","","","","",""
"","S2","","html-keyboard-response","465","548087","0.0-1.0-652.0","0","0","50431","","null","","","null","72","","NaN","","","","","","","","","","","","","",""
"","response","","html-keyboard-response","466","549383","0.0-1.0-653.0","0","0","50431","","1292","","","68","72","","","2","72","training","adjacent","GF","7","6","P.jpg","M.jpg","0","0","1","",""
"","feedback","","html-keyboard-response","467","550392","0.0-1.0-654.0-0.0","0","0","50431","","null","","","null","72","","","","","","","","","","","","","","","",""
"","ITI","","html-keyboard-response","468","551397","0.0-1.0-657.0","0","0","50431","","null","","","null","72","","","","","","","","","","","","","","","NaN",""
"","S1","","html-keyboard-response","469","551652","0.0-1.0-659.0","0","0","50431","","null","","","null","73","","","","","","","","","","","","","","","",""
"","ISI","","html-keyboard-response","470","553656","0.0-1.0-660.0","0","0","50431","","null","","","null","73","NaN","","","","","","","","","","","","","","",""
"","S2","","html-keyboard-response","471","553912","0.0-1.0-661.0","0","0","50431","","null","","","null","73","","NaN","","","","","","","","","","","","","",""
"","response","","html-keyboard-response","472","554844","0.0-1.0-662.0","0","0","50431","","928","","","75","73","","","2","73","training","adjacent","CD","3","4","L.jpg","R.jpg","1","1","1","",""
"","feedback","","html-keyboard-response","473","555849","0.0-1.0-663.0-0.0","0","0","50431","","null","","","null","73","","","","","","","","","","","","","","","",""
"","ITI","","html-keyboard-response","474","556854","0.0-1.0-666.0","0","0","50431","","null","","","null","73","","","","","","","","","","","","","","","NaN",""
"","S1","","html-keyboard-response","475","557110","0.0-1.0-668.0","0","0","50431","","null","","","null","74","","","","","","","","","","","","","","","",""
"","ISI","","html-keyboard-response","476","559114","0.0-1.0-669.0","0","0","50431","","null","","","null","74","NaN","","","","","","","","","","","","","","",""
"","S2","","html-keyboard-response","477","559371","0.0-1.0-670.0","0","0","50431","","null","","","null","74","","NaN","","","","","","","","","","","","","",""
"","response","","html-keyboard-response","478","560749","0.0-1.0-671.0","0","0","50431","","1375","","","68","74","","","2","74","training","adjacent","FE","6","5","M.jpg","Q.jpg","0","0","1","",""
"","feedback","","html-keyboard-response","479","561755","0.0-1.0-672.0-0.0","0","0","50431","","null","","","null","74","","","","","","","","","","","","","","","",""
"","ITI","","html-keyboard-response","480","562760","0.0-1.0-675.0","0","0","50431","","null","","","null","74","","","","","","","","","","","","","","","NaN",""
"","S1","","html-keyboard-response","481","563016","0.0-1.0-677.0","0","0","50431","","null","","","null","75","","","","","","","","","","","","","","","",""
"","ISI","","html-keyboard-response","482","565022","0.0-1.0-678.0","0","0","50431","","null","","","null","75","NaN","","","","","","","","","","","","","","",""
"","S2","","html-keyboard-response","483","565277","0.0-1.0-679.0","0","0","50431","","null","","","null","75","","NaN","","","","","","","","","","","","","",""
"","response","","html-keyboard-response","484","566031","0.0-1.0-680.0","0","0","50431","","750","","","75","75","","","2","75","training","adjacent","FG","6","7","M.jpg","P.jpg","1","1","1","",""
"","feedback","","html-keyboard-response","485","567036","0.0-1.0-681.0-0.0","0","0","50431","","null","","","null","75","","","","","","","","","","","","","","","",""
"","ITI","","html-keyboard-response","486","568043","0.0-1.0-684.0","0","0","50431","","null","","","null","75","","","","","","","","","","","","","","","NaN",""
"","S1","","html-keyboard-response","487","568301","0.0-1.0-686.0","0","0","50431","","null","","","null","76","","","","","","","","","","","","","","","",""
"","ISI","","html-keyboard-response","488","570305","0.0-1.0-687.0","0","0","50431","","null","","","null","76","NaN","","","","","","","","","","","","","","",""
"","S2","","html-keyboard-response","489","570561","0.0-1.0-688.0","0","0","50431","","null","","","null","76","","NaN","","","","","","","","","","","","","",""
"","response","","html-keyboard-response","490","571358","0.0-1.0-689.0","0","0","50431","","794","","","75","76","","","2","76","training","adjacent","AB","1","2","O.jpg","N.jpg","1","1","1","",""
"","feedback","","html-keyboard-response","491","572364","0.0-1.0-690.0-0.0","0","0","50431","","null","","","null","76","","","","","","","","","","","","","","","",""
"","ITI","","html-keyboard-response","492","573370","0.0-1.0-693.0","0","0","50431","","null","","","null","76","","","","","","","","","","","","","","","NaN",""
"","S1","","html-keyboard-response","493","573626","0.0-1.0-695.0","0","0","50431","","null","","","null","77","","","","","","","","","","","","","","","",""
"","ISI","","html-keyboard-response","494","575631","0.0-1.0-696.0","0","0","50431","","null","","","null","77","NaN","","","","","","","","","","","","","","",""
"","S2","","html-keyboard-response","495","575888","0.0-1.0-697.0","0","0","50431","","null","","","null","77","","NaN","","","","","","","","","","","","","",""
"","response","","html-keyboard-response","496","576688","0.0-1.0-698.0","0","0","50431","","797","","","75","77","","","2","77","training","adjacent","BC","2","3","N.jpg","L.jpg","1","1","1","",""
"","feedback","","html-keyboard-response","497","577693","0.0-1.0-699.0-0.0","0","0","50431","","null","","","null","77","","","","","","","","","","","","","","","",""
"","ITI","","html-keyboard-response","498","578698","0.0-1.0-702.0","0","0","50431","","null","","","null","77","","","","","","","","","","","","","","","NaN",""
"","S1","","html-keyboard-response","499","578954","0.0-1.0-704.0","0","0","50431","","null","","","null","78","","","","","","","","","","","","","","","",""
"","ISI","","html-keyboard-response","500","580959","0.0-1.0-705.0","0","0","50431","","null","","","null","78","NaN","","","","","","","","","","","","","","",""
"","S2","","html-keyboard-response","501","581214","0.0-1.0-706.0","0","0","50431","","null","","","null","78","","NaN","","","","","","","","","","","","","",""
"","response","","html-keyboard-response","502","581659","0.0-1.0-707.0","0","0","50431","","439","","","68","78","","","2","78","training","adjacent","BA","2","1","N.jpg","O.jpg","0","0","1","",""
"","feedback","","html-keyboard-response","503","582665","0.0-1.0-708.0-0.0","0","0","50431","","null","","","null","78","","","","","","","","","","","","","","","",""
"","ITI","","html-keyboard-response","504","583671","0.0-1.0-711.0","0","0","50431","","null","","","null","78","","","","","","","","","","","","","","","NaN",""
"","S1","","html-keyboard-response","505","583926","0.0-1.0-713.0","0","0","50431","","null","","","null","79","","","","","","","","","","","","","","","",""
"","ISI","","html-keyboard-response","506","585931","0.0-1.0-714.0","0","0","50431","","null","","","null","79","NaN","","","","","","","","","","","","","","",""
"","S2","","html-keyboard-response","507","586186","0.0-1.0-715.0","0","0","50431","","null","","","null","79","","NaN","","","","","","","","","","","","","",""
"","response","","html-keyboard-response","508","587272","0.0-1.0-716.0","0","0","50431","","1081","","","75","79","","","2","79","training","adjacent","ED","5","4","Q.jpg","R.jpg","1","0","0","",""
"","feedback","","html-keyboard-response","509","588278","0.0-1.0-717.0-0.0","0","0","50431","","null","","","null","79","","","","","","","","","","","","","","","",""
"","time_out","","html-keyboard-response","510","590282","0.0-1.0-719.0-0.0","0","0","50431","","null","","","null","79","","","","","","","","","","","","","","","",""
"","ITI","","html-keyboard-response","511","591287","0.0-1.0-720.0","0","0","50431","","null","","","null","79","","","","","","","","","","","","","","","NaN",""
"","S1","","html-keyboard-response","512","591542","0.0-1.0-722.0","0","0","50431","","null","","","null","80","","","","","","","","","","","","","","","",""
"","ISI","","html-keyboard-response","513","593547","0.0-1.0-723.0","0","0","50431","","null","","","null","80","NaN","","","","","","","","","","","","","","",""
"","S2","","html-keyboard-response","514","593803","0.0-1.0-724.0","0","0","50431","","null","","","null","80","","NaN","","","","","","","","","","","","","",""
"","response","","html-keyboard-response","515","594904","0.0-1.0-725.0","0","0","50431","","1096","","","75","80","","","2","80","training","adjacent","CD","3","4","L.jpg","R.jpg","1","1","1","",""
"","feedback","","html-keyboard-response","516","595909","0.0-1.0-726.0-0.0","0","0","50431","","null","","","null","80","","","","","","","","","","","","","","","",""
"","ITI","","html-keyboard-response","517","596916","0.0-1.0-729.0","0","0","50431","","null","","","null","80","","","","","","","","","","","","","","","NaN",""
"","S1","","html-keyboard-response","518","597172","0.0-1.0-731.0","0","0","50431","","null","","","null","81","","","","","","","","","","","","","","","",""
"","ISI","","html-keyboard-response","519","599176","0.0-1.0-732.0","0","0","50431","","null","","","null","81","NaN","","","","","","","","","","","","","","",""
"","S2","","html-keyboard-response","520","599433","0.0-1.0-733.0","0","0","50431","","null","","","null","81","","NaN","","","","","","","","","","","","","",""
"","response","","html-keyboard-response","521","599827","0.0-1.0-734.0","0","0","50431","","390","","","75","81","","","2","81","training","adjacent","DE","4","5","R.jpg","Q.jpg","1","1","1","",""
"","feedback","","html-keyboard-response","522","600833","0.0-1.0-735.0-0.0","0","0","50431","","null","","","null","81","","","","","","","","","","","","","","","",""
"","ITI","","html-keyboard-response","523","601838","0.0-1.0-738.0","0","0","50431","","null","","","null","81","","","","","","","","","","","","","","","NaN",""
"","S1","","html-keyboard-response","524","602094","0.0-1.0-740.0","0","0","50431","","null","","","null","82","","","","","","","","","","","","","","","",""
"","ISI","","html-keyboard-response","525","604100","0.0-1.0-741.0","0","0","50431","","null","","","null","82","NaN","","","","","","","","","","","","","","",""
"","S2","","html-keyboard-response","526","604355","0.0-1.0-742.0","0","0","50431","","null","","","null","82","","NaN","","","","","","","","","","","","","",""
"","response","","html-keyboard-response","527","604524","0.0-1.0-743.0","0","0","50431","","166","","","75","82","","","2","82","training","adjacent","FG","6","7","M.jpg","P.jpg","1","1","1","",""
"","feedback","","html-keyboard-response","528","605529","0.0-1.0-744.0-0.0","0","0","50431","","null","","","null","82","","","","","","","","","","","","","","","",""
"","ITI","","html-keyboard-response","529","606533","0.0-1.0-747.0","0","0","50431","","null","","","null","82","","","","","","","","","","","","","","","NaN",""
"","S1","","html-keyboard-response","530","606788","0.0-1.0-749.0","0","0","50431","","null","","","null","83","","","","","","","","","","","","","","","",""
"","ISI","","html-keyboard-response","531","608793","0.0-1.0-750.0","0","0","50431","","null","","","null","83","NaN","","","","","","","","","","","","","","",""
"","S2","","html-keyboard-response","532","609048","0.0-1.0-751.0","0","0","50431","","null","","","null","83","","NaN","","","","","","","","","","","","","",""
"","response","","html-keyboard-response","533","609404","0.0-1.0-752.0","0","0","50431","","352","","","68","83","","","2","83","training","adjacent","GF","7","6","P.jpg","M.jpg","0","0","1","",""
"","feedback","","html-keyboard-response","534","610409","0.0-1.0-753.0-0.0","0","0","50431","","null","","","null","83","","","","","","","","","","","","","","","",""
"","ITI","","html-keyboard-response","535","611413","0.0-1.0-756.0","0","0","50431","","null","","","null","83","","","","","","","","","","","","","","","NaN",""
"","S1","","html-keyboard-response","536","611670","0.0-1.0-758.0","0","0","50431","","null","","","null","84","","","","","","","","","","","","","","","",""
"","ISI","","html-keyboard-response","537","613674","0.0-1.0-759.0","0","0","50431","","null","","","null","84","NaN","","","","","","","","","","","","","","",""
"","S2","","html-keyboard-response","538","613930","0.0-1.0-760.0","0","0","50431","","null","","","null","84","","NaN","","","","","","","","","","","","","",""
"","response","","html-keyboard-response","539","615074","0.0-1.0-761.0","0","0","50431","","1140","","","75","84","","","2","84","training","adjacent","ED","5","4","Q.jpg","R.jpg","1","0","0","",""
"","feedback","","html-keyboard-response","540","616080","0.0-1.0-762.0-0.0","0","0","50431","","null","","","null","84","","","","","","","","","","","","","","","",""
"","time_out","","html-keyboard-response","541","618086","0.0-1.0-764.0-0.0","0","0","50431","","null","","","null","84","","","","","","","","","","","","","","","",""
"","ITI","","html-keyboard-response","542","619091","0.0-1.0-765.0","0","0","50431","","null","","","null","84","","","","","","","","","","","","","","","NaN",""
"","S1","","html-keyboard-response","543","619347","0.0-1.0-767.0","0","0","50431","","null","","","null","85","","","","","","","","","","","","","","","",""
"","ISI","","html-keyboard-response","544","621352","0.0-1.0-768.0","0","0","50431","","null","","","null","85","NaN","","","","","","","","","","","","","","",""
"","S2","","html-keyboard-response","545","621608","0.0-1.0-769.0","0","0","50431","","null","","","null","85","","NaN","","","","","","","","","","","","","",""
"","response","","html-keyboard-response","546","621893","0.0-1.0-770.0","0","0","50431","","281","","","75","85","","","2","85","training","adjacent","AB","1","2","O.jpg","N.jpg","1","1","1","",""
"","feedback","","html-keyboard-response","547","622899","0.0-1.0-771.0-0.0","0","0","50431","","null","","","null","85","","","","","","","","","","","","","","","",""
"","ITI","","html-keyboard-response","548","623904","0.0-1.0-774.0","0","0","50431","","null","","","null","85","","","","","","","","","","","","","","","NaN",""
"","S1","","html-keyboard-response","549","624160","0.0-1.0-776.0","0","0","50431","","null","","","null","86","","","","","","","","","","","","","","","",""
"","ISI","","html-keyboard-response","550","626165","0.0-1.0-777.0","0","0","50431","","null","","","null","86","NaN","","","","","","","","","","","","","","",""
"","S2","","html-keyboard-response","551","626420","0.0-1.0-778.0","0","0","50431","","null","","","null","86","","NaN","","","","","","","","","","","","","",""
"","response","","html-keyboard-response","552","627083","0.0-1.0-779.0","0","0","50431","","658","","","75","86","","","2","86","training","adjacent","FE","6","5","M.jpg","Q.jpg","1","0","0","",""
"","feedback","","html-keyboard-response","553","628089","0.0-1.0-780.0-0.0","0","0","50431","","null","","","null","86","","","","","","","","","","","","","","","",""
"","time_out","","html-keyboard-response","554","630095","0.0-1.0-782.0-0.0","0","0","50431","","null","","","null","86","","","","","","","","","","","","","","","",""
"","ITI","","html-keyboard-response","555","631100","0.0-1.0-783.0","0","0","50431","","null","","","null","86","","","","","","","","","","","","","","","NaN",""
"","S1","","html-keyboard-response","556","631356","0.0-1.0-785.0","0","0","50431","","null","","","null","87","","","","","","","","","","","","","","","",""
"","ISI","","html-keyboard-response","557","633360","0.0-1.0-786.0","0","0","50431","","null","","","null","87","NaN","","","","","","","","","","","","","","",""
"","S2","","html-keyboard-response","558","633616","0.0-1.0-787.0","0","0","50431","","null","","","null","87","","NaN","","","","","","","","","","","","","",""
"","response","","html-keyboard-response","559","634657","0.0-1.0-788.0","0","0","50431","","1036","","","75","87","","","2","87","training","adjacent","CB","3","2","L.jpg","N.jpg","1","0","0","",""
"","feedback","","html-keyboard-response","560","635663","0.0-1.0-789.0-0.0","0","0","50431","","null","","","null","87","","","","","","","","","","","","","","","",""
"","time_out","","html-keyboard-response","561","637668","0.0-1.0-791.0-0.0","0","0","50431","","null","","","null","87","","","","","","","","","","","","","","","",""
"","ITI","","html-keyboard-response","562","638673","0.0-1.0-792.0","0","0","50431","","null","","","null","87","","","","","","","","","","","","","","","NaN",""
"","S1","","html-keyboard-response","563","638928","0.0-1.0-794.0","0","0","50431","","null","","","null","88","","","","","","","","","","","","","","","",""
"","ISI","","html-keyboard-response","564","640932","0.0-1.0-795.0","0","0","50431","","null","","","null","88","NaN","","","","","","","","","","","","","","",""
"","S2","","html-keyboard-response","565","641189","0.0-1.0-796.0","0","0","50431","","null","","","null","88","","NaN","","","","","","","","","","","","","",""
"","response","","html-keyboard-response","566","642258","0.0-1.0-797.0","0","0","50431","","1065","","","75","88","","","2","88","training","adjacent","ED","5","4","Q.jpg","R.jpg","1","0","0","",""
"","feedback","","html-keyboard-response","567","643263","0.0-1.0-798.0-0.0","0","0","50431","","null","","","null","88","","","","","","","","","","","","","","","",""
"","time_out","","html-keyboard-response","568","645268","0.0-1.0-800.0-0.0","0","0","50431","","null","","","null","88","","","","","","","","","","","","","","","",""
"","ITI","","html-keyboard-response","569","646273","0.0-1.0-801.0","0","0","50431","","null","","","null","88","","","","","","","","","","","","","","","NaN",""
"","S1","","html-keyboard-response","570","646528","0.0-1.0-803.0","0","0","50431","","null","","","null","89","","","","","","","","","","","","","","","",""
"","ISI","","html-keyboard-response","571","648534","0.0-1.0-804.0","0","0","50431","","null","","","null","89","NaN","","","","","","","","","","","","","","",""
"","S2","","html-keyboard-response","572","648789","0.0-1.0-805.0","0","0","50431","","null","","","null","89","","NaN","","","","","","","","","","","","","",""
"","response","","html-keyboard-response","573","649032","0.0-1.0-806.0","0","0","50431","","237","","","68","89","","","2","89","training","adjacent","GF","7","6","P.jpg","M.jpg","0","0","1","",""
"","feedback","","html-keyboard-response","574","650038","0.0-1.0-807.0-0.0","0","0","50431","","null","","","null","89","","","","","","","","","","","","","","","",""
"","ITI","","html-keyboard-response","575","651044","0.0-1.0-810.0","0","0","50431","","null","","","null","89","","","","","","","","","","","","","","","NaN",""
"","S1","","html-keyboard-response","576","651300","0.0-1.0-812.0","0","0","50431","","null","","","null","90","","","","","","","","","","","","","","","",""
"","ISI","","html-keyboard-response","577","653305","0.0-1.0-813.0","0","0","50431","","null","","","null","90","NaN","","","","","","","","","","","","","","",""
"","S2","","html-keyboard-response","578","653560","0.0-1.0-814.0","0","0","50431","","null","","","null","90","","NaN","","","","","","","","","","","","","",""
"","response","","html-keyboard-response","579","653889","0.0-1.0-815.0","0","0","50431","","324","","","75","90","","","2","90","training","adjacent","DE","4","5","R.jpg","Q.jpg","1","1","1","",""
"","feedback","","html-keyboard-response","580","654895","0.0-1.0-816.0-0.0","0","0","50431","","null","","","null","90","","","","","","","","","","","","","","","",""
"","ITI","","html-keyboard-response","581","655900","0.0-1.0-819.0","0","0","50431","","null","","","null","90","","","","","","","","","","","","","","","NaN",""
"","S1","","html-keyboard-response","582","656156","0.0-1.0-821.0","0","0","50431","","null","","","null","91","","","","","","","","","","","","","","","",""
"","ISI","","html-keyboard-response","583","658161","0.0-1.0-822.0","0","0","50431","","null","","","null","91","NaN","","","","","","","","","","","","","","",""
"","S2","","html-keyboard-response","584","658417","0.0-1.0-823.0","0","0","50431","","null","","","null","91","","NaN","","","","","","","","","","","","","",""
