"success","ttype","start_time","trial_type","trial_index","time_elapsed","internal_node_id","warning","missed_checkup","PID","view_history","rt","responses","repeat_instructions","key_press","index","keypress_isi","keypress_S2","block","trial_num","phase","group_type","pair_type","S1_stim","S2_stim","S1_img","S2_img","S1_chosen","S1_higher","accuracy","keypress_iti","total_bonus_tally"
"true","full_screen","d04132023hr1846","fullscreen","0","22212","0.0-0.0","0","0","91569","","","","","","","","","","","","","","","","","","","","","",""
"","instructions","","instructions","1","74537","0.0-1.0-0.0-0.0","0","0","91569","[{""page_index"":0,""viewing_time"":6991},{""page_index"":1,""viewing_time"":31813},{""page_index"":2,""viewing_time"":11153},{""page_index"":3,""viewing_time"":2362}]","52321","","","","","","","","","","","","","","","","","","","",""
"","comprehension_check","","survey-multi-choice","2","103687","0.0-1.0-0.0-1.0","0","0","91569","","29111","{""Q0"":""True"",""Q1"":""K"",""Q2"":""Once the second image appears and while the screen 'MAKE A CHOICE' is shown"",""Q3"":""Green mark"",""Q4"":""either D or K""}","0","","","","","","","","","","","","","","","","","",""
"","start_exp","","html-keyboard-response","3","105887","0.0-1.0-1.0","0","0","91569","","2194","","","32","","","","","","","","","","","","","","","","",""
"","S1","","html-keyboard-response","4","106154","0.0-1.0-2.0","0","0","91569","","null","","","null","0","","","","","","","","","","","","","","","",""
"","ISI","","html-keyboard-response","5","107170","0.0-1.0-3.0","0","0","91569","","null","","","null","0","NaN","","","","","","","","","","","","","","",""
"","S2","","html-keyboard-response","6","107482","0.0-1.0-4.0","0","0","91569","","null","","","null","0","","NaN","","","","","","","","","","","","","",""
"","response","","html-keyboard-response","7","109240","0.0-1.0-5.0-0.0","0","0","91569","","null","","","null","0","","","1","0","training","adjacent","EF","5","6","Q.jpg","R.jpg","NaN","1","0","",""
"","too_slow_prompt","","html-keyboard-response","8","110269","0.0-1.0-7.0-0.0","1","0","91569","","null","","","null","","","","","","","","","","","","","","","","",""
"","time_out","","html-keyboard-response","9","112296","0.0-1.0-8.0-0.0","0","0","91569","","null","","","null","0","","","","","","","","","","","","","","","",""
"","ITI","","html-keyboard-response","10","113320","0.0-1.0-9.0","0","0","91569","","null","","","null","0","","","","","","","","","","","","","","","NaN",""
"","S1","","html-keyboard-response","11","113587","0.0-1.0-11.0","0","0","91569","","null","","","null","1","","","","","","","","","","","","","","","",""
"","ISI","","html-keyboard-response","12","114608","0.0-1.0-12.0","0","0","91569","","null","","","null","1","NaN","","","","","","","","","","","","","","",""
"","S2","","html-keyboard-response","13","114888","0.0-1.0-13.0","0","0","91569","","null","","","null","1","","NaN","","","","","","","","","","","","","",""
"","response","","html-keyboard-response","14","115247","0.0-1.0-14.0-0.0","0","0","91569","","356","","","75","1","","","1","1","training","adjacent","AB","1","2","P.jpg","O.jpg","1","1","1","",""
"","feedback","","html-keyboard-response","15","116260","0.0-1.0-15.0-0.0","0","0","91569","","null","","","null","1","","","","","","","","","","","","","","","",""
"","ITI","","html-keyboard-response","16","117276","0.0-1.0-18.0","0","0","91569","","null","","","null","1","","","","","","","","","","","","","","","NaN",""
"","S1","","html-keyboard-response","17","117534","0.0-1.0-20.0","0","0","91569","","null","","","null","2","","","","","","","","","","","","","","","",""
"","ISI","","html-keyboard-response","18","118552","0.0-1.0-21.0","0","0","91569","","null","","","null","2","NaN","","","","","","","","","","","","","","",""
"","S2","","html-keyboard-response","19","118818","0.0-1.0-22.0","0","0","91569","","null","","","null","2","","NaN","","","","","","","","","","","","","",""
"","response","","html-keyboard-response","20","118846","0.0-1.0-23.0-0.0","0","0","91569","","27","","","75","2","","","1","2","training","adjacent","EF","5","6","Q.jpg","R.jpg","1","1","1","",""
"","feedback","","html-keyboard-response","21","119851","0.0-1.0-24.0-0.0","0","0","91569","","null","","","null","2","","","","","","","","","","","","","","","",""
"","ITI","","html-keyboard-response","22","120888","0.0-1.0-27.0","0","0","91569","","null","","","null","2","","","","","","","","","","","","","","","NaN",""
"","S1","","html-keyboard-response","23","121152","0.0-1.0-29.0","0","0","91569","","null","","","null","3","","","","","","","","","","","","","","","",""
"","ISI","","html-keyboard-response","24","122168","0.0-1.0-30.0","0","0","91569","","null","","","null","3","NaN","","","","","","","","","","","","","","",""
"","S2","","html-keyboard-response","25","122451","0.0-1.0-31.0","0","0","91569","","null","","","null","3","","NaN","","","","","","","","","","","","","",""
"","response","","html-keyboard-response","26","122464","0.0-1.0-32.0-0.0","0","0","91569","","11","","","75","3","","","1","3","training","adjacent","DC","4","3","N.jpg","L.jpg","1","0","0","",""
"","feedback","","html-keyboard-response","27","123479","0.0-1.0-33.0-0.0","0","0","91569","","null","","","null","3","","","","","","","","","","","","","","","",""
"","time_out","","html-keyboard-response","28","125483","0.0-1.0-35.0-0.0","0","0","91569","","null","","","null","3","","","","","","","","","","","","","","","",""
"","ITI","","html-keyboard-response","29","126488","0.0-1.0-36.0","0","0","91569","","null","","","null","3","","","","","","","","","","","","","","","NaN",""
"","S1","","html-keyboard-response","30","126754","0.0-1.0-38.0","0","0","91569","","null","","","null","4","","","","","","","","","","","","","","","",""
"","ISI","","html-keyboard-response","31","127781","0.0-1.0-39.0","0","0","91569","","null","","","null","4","NaN","","","","","","","","","","","","","","",""
"","S2","","html-keyboard-response","32","128061","0.0-1.0-40.0","0","0","91569","","null","","","null","4","","NaN","","","","","","","","","","","","","",""
"","response","","html-keyboard-response","33","128184","0.0-1.0-41.0-0.0","0","0","91569","","120","","","75","4","","","1","4","training","adjacent","DE","4","5","N.jpg","Q.jpg","1","1","1","",""
"","feedback","","html-keyboard-response","34","129201","0.0-1.0-42.0-0.0","0","0","91569","","null","","","null","4","","","","","","","","","","","","","","","",""
"","ITI","","html-keyboard-response","35","130219","0.0-1.0-45.0","0","0","91569","","null","","","null","4","","","","","","","","","","","","","","","NaN",""
"","S1","","html-keyboard-response","36","130484","0.0-1.0-47.0","0","0","91569","","null","","","null","5","","","","","","","","","","","","","","","",""
"","ISI","","html-keyboard-response","37","131495","0.0-1.0-48.0","0","0","91569","","null","","","null","5","NaN","","","","","","","","","","","","","","",""
"","S2","","html-keyboard-response","38","131748","0.0-1.0-49.0","0","0","91569","","null","","","null","5","","NaN","","","","","","","","","","","","","",""
"","response","","html-keyboard-response","39","131799","0.0-1.0-50.0-0.0","0","0","91569","","49","","","68","5","","","1","5","training","adjacent","FG","6","7","R.jpg","M.jpg","0","1","0","",""
"","feedback","","html-keyboard-response","40","132814","0.0-1.0-51.0-0.0","0","0","91569","","null","","","null","5","","","","","","","","","","","","","","","",""
"","time_out","","html-keyboard-response","41","134830","0.0-1.0-53.0-0.0","0","0","91569","","null","","","null","5","","","","","","","","","","","","","","","",""
"","ITI","","html-keyboard-response","42","135848","0.0-1.0-54.0","0","0","91569","","null","","","null","5","","","","","","","","","","","","","","","NaN",""
"","S1","","html-keyboard-response","43","136130","0.0-1.0-56.0","0","0","91569","","null","","","null","6","","","","","","","","","","","","","","","",""
"","ISI","","html-keyboard-response","44","137146","0.0-1.0-57.0","0","0","91569","","null","","","null","6","NaN","","","","","","","","","","","","","","",""
"","S2","","html-keyboard-response","45","137411","0.0-1.0-58.0","0","0","91569","","null","","","null","6","","NaN","","","","","","","","","","","","","",""
"","response","","html-keyboard-response","46","137760","0.0-1.0-59.0-0.0","0","0","91569","","347","","","75","6","","","1","6","training","adjacent","CD","3","4","L.jpg","N.jpg","1","1","1","",""
"","feedback","","html-keyboard-response","47","138766","0.0-1.0-60.0-0.0","0","0","91569","","null","","","null","6","","","","","","","","","","","","","","","",""
"","ITI","","html-keyboard-response","48","139770","0.0-1.0-63.0","0","0","91569","","null","","","null","6","","","","","","","","","","","","","","","NaN",""
"","S1","","html-keyboard-response","49","140023","0.0-1.0-65.0","0","0","91569","","null","","","null","7","","","","","","","","","","","","","","","",""
"","ISI","","html-keyboard-response","50","141031","0.0-1.0-66.0","0","0","91569","","null","","","null","7","NaN","","","","","","","","","","","","","","",""
"","S2","","html-keyboard-response","51","141230","0.0-1.0-67.0","0","0","91569","","197","","","68","7","","d","1","7","training","adjacent","BC","2","3","O.jpg","L.jpg","0","1","0","",""
"","feedback","","html-keyboard-response","52","142238","0.0-1.0-69.0-0.0","0","0","91569","","null","","","null","7","","","","","","","","","","","","","","","",""
"","time_out","","html-keyboard-response","53","144255","0.0-1.0-71.0-0.0","0","0","91569","","null","","","null","7","","","","","","","","","","","","","","","",""
"","ITI","","html-keyboard-response","54","145270","0.0-1.0-72.0","0","0","91569","","null","","","null","7","","","","","","","","","","","","","","","NaN",""
"","S1","","html-keyboard-response","55","145550","0.0-1.0-74.0","0","0","91569","","null","","","null","8","","","","","","","","","","","","","","","",""
"","ISI","","html-keyboard-response","56","146562","0.0-1.0-75.0","0","0","91569","","null","","","null","8","NaN","","","","","","","","","","","","","","",""
"","S2","","html-keyboard-response","57","146841","0.0-1.0-76.0","0","0","91569","","null","","","null","8","","NaN","","","","","","","","","","","","","",""
"","response","","html-keyboard-response","58","146924","0.0-1.0-77.0-0.0","0","0","91569","","82","","","75","8","","","1","8","training","adjacent","FG","6","7","R.jpg","M.jpg","1","1","1","",""
"","feedback","","html-keyboard-response","59","147936","0.0-1.0-78.0-0.0","0","0","91569","","null","","","null","8","","","","","","","","","","","","","","","",""
"","ITI","","html-keyboard-response","60","148941","0.0-1.0-81.0","0","0","91569","","null","","","null","8","","","","","","","","","","","","","","","NaN",""
"","S1","","html-keyboard-response","61","149205","0.0-1.0-83.0","0","0","91569","","null","","","null","9","","","","","","","","","","","","","","","",""
"","ISI","","html-keyboard-response","62","150219","0.0-1.0-84.0","0","0","91569","","null","","","null","9","NaN","","","","","","","","","","","","","","",""
"","S2","","html-keyboard-response","63","150398","0.0-1.0-85.0","0","0","91569","","176","","","68","9","","d","1","9","training","adjacent","BA","2","1","O.jpg","P.jpg","0","0","1","",""
"","feedback","","html-keyboard-response","64","151411","0.0-1.0-87.0-0.0","0","0","91569","","null","","","null","9","","","","","","","","","","","","","","","",""
"","ITI","","html-keyboard-response","65","152445","0.0-1.0-90.0","0","0","91569","","null","","","null","9","","","","","","","","","","","","","","","NaN",""
"","S1","","html-keyboard-response","66","152712","0.0-1.0-92.0","0","0","91569","","null","","","null","10","","","","","","","","","","","","","","","",""
"","ISI","","html-keyboard-response","67","153728","0.0-1.0-93.0","0","0","91569","","196","","","68","10","d","","","","","","","","","","","","","","",""
"","S2","","html-keyboard-response","68","153992","0.0-1.0-94.0","0","0","91569","","null","","","null","10","","NaN","","","","","","","","","","","","","",""
"","response","","html-keyboard-response","69","154014","0.0-1.0-95.0-0.0","0","0","91569","","20","","","68","10","","","1","10","training","adjacent","FE","6","5","R.jpg","Q.jpg","0","0","1","",""
"","feedback","","html-keyboard-response","70","155020","0.0-1.0-96.0-0.0","0","0","91569","","null","","","null","10","","","","","","","","","","","","","","","",""
"","ITI","","html-keyboard-response","71","156036","0.0-1.0-99.0","0","0","91569","","null","","","null","10","","","","","","","","","","","","","","","NaN",""
"","S1","","html-keyboard-response","72","156291","0.0-1.0-101.0","0","0","91569","","null","","","null","11","","","","","","","","","","","","","","","",""
"","ISI","","html-keyboard-response","73","157308","0.0-1.0-102.0","0","0","91569","","null","","","null","11","NaN","","","","","","","","","","","","","","",""
"","S2","","html-keyboard-response","74","157563","0.0-1.0-103.0","0","0","91569","","null","","","null","11","","NaN","","","","","","","","","","","","","",""
"","response","","html-keyboard-response","75","157638","0.0-1.0-104.0-0.0","0","0","91569","","74","","","68","11","","","1","11","training","adjacent","BA","2","1","O.jpg","P.jpg","0","0","1","",""
"","feedback","","html-keyboard-response","76","158659","0.0-1.0-105.0-0.0","0","0","91569","","null","","","null","11","","","","","","","","","","","","","","","",""
"","ITI","","html-keyboard-response","77","159677","0.0-1.0-108.0","0","0","91569","","null","","","null","11","","","","","","","","","","","","","","","NaN",""
"","S1","","html-keyboard-response","78","159940","0.0-1.0-110.0","0","0","91569","","null","","","null","12","","","","","","","","","","","","","","","",""
"","ISI","","html-keyboard-response","79","160963","0.0-1.0-111.0","0","0","91569","","null","","","null","12","NaN","","","","","","","","","","","","","","",""
"","S2","","html-keyboard-response","80","161201","0.0-1.0-112.0","0","0","91569","","235","","","75","12","","k","1","12","training","adjacent","DC","4","3","N.jpg","L.jpg","1","0","0","",""
"","feedback","","html-keyboard-response","81","162220","0.0-1.0-114.0-0.0","0","0","91569","","null","","","null","12","","","","","","","","","","","","","","","",""
"","time_out","","html-keyboard-response","82","164230","0.0-1.0-116.0-0.0","0","0","91569","","null","","","null","12","","","","","","","","","","","","","","","",""
"","ITI","","html-keyboard-response","83","165247","0.0-1.0-117.0","0","0","91569","","null","","","null","12","","","","","","","","","","","","","","","NaN",""
"","S1","","html-keyboard-response","84","165513","0.0-1.0-119.0","0","0","91569","","null","","","null","13","","","","","","","","","","","","","","","",""
"","ISI","","html-keyboard-response","85","166548","0.0-1.0-120.0","0","0","91569","","null","","","null","13","NaN","","","","","","","","","","","","","","",""
"","S2","","html-keyboard-response","86","166815","0.0-1.0-121.0","0","0","91569","","null","","","null","13","","NaN","","","","","","","","","","","","","",""
"","response","","html-keyboard-response","87","166953","0.0-1.0-122.0-0.0","0","0","91569","","135","","","68","13","","","1","13","training","adjacent","ED","5","4","Q.jpg","N.jpg","0","0","1","",""
"","feedback","","html-keyboard-response","88","167958","0.0-1.0-123.0-0.0","0","0","91569","","null","","","null","13","","","","","","","","","","","","","","","",""
"","ITI","","html-keyboard-response","89","168976","0.0-1.0-126.0","0","0","91569","","null","","","null","13","","","","","","","","","","","","","","","NaN",""
"","S1","","html-keyboard-response","90","169240","0.0-1.0-128.0","0","0","91569","","null","","","null","14","","","","","","","","","","","","","","","",""
"","ISI","","html-keyboard-response","91","170257","0.0-1.0-129.0","0","0","91569","","null","","","null","14","NaN","","","","","","","","","","","","","","",""
"","S2","","html-keyboard-response","92","170511","0.0-1.0-130.0","0","0","91569","","null","","","null","14","","NaN","","","","","","","","","","","","","",""
"","response","","html-keyboard-response","93","170555","0.0-1.0-131.0-0.0","0","0","91569","","42","","","75","14","","","1","14","training","adjacent","CD","3","4","L.jpg","N.jpg","1","1","1","",""
"","feedback","","html-keyboard-response","94","171572","0.0-1.0-132.0-0.0","0","0","91569","","null","","","null","14","","","","","","","","","","","","","","","",""
"","ITI","","html-keyboard-response","95","172609","0.0-1.0-135.0","0","0","91569","","null","","","null","14","","","","","","","","","","","","","","","NaN",""
"","S1","","html-keyboard-response","96","172878","0.0-1.0-137.0","0","0","91569","","null","","","null","15","","","","","","","","","","","","","","","",""
"","ISI","","html-keyboard-response","97","173892","0.0-1.0-138.0","0","0","91569","","null","","","null","15","NaN","","","","","","","","","","","","","","",""
"","S2","","html-keyboard-response","98","174118","0.0-1.0-139.0","0","0","91569","","223","","","68","15","","d","1","15","training","adjacent","FE","6","5","R.jpg","Q.jpg","0","0","1","",""
"","feedback","","html-keyboard-response","99","175133","0.0-1.0-141.0-0.0","0","0","91569","","null","","","null","15","","","","","","","","","","","","","","","",""
"","ITI","","html-keyboard-response","100","176143","0.0-1.0-144.0","0","0","91569","","null","","","null","15","","","","","","","","","","","","","","","NaN",""
"","S1","","html-keyboard-response","101","176410","0.0-1.0-146.0","0","0","91569","","null","","","null","16","","","","","","","","","","","","","","","",""
"","ISI","","html-keyboard-response","102","177423","0.0-1.0-147.0","0","0","91569","","null","","","null","16","NaN","","","","","","","","","","","","","","",""
"","S2","","html-keyboard-response","103","177639","0.0-1.0-148.0","0","0","91569","","214","","","75","16","","k","1","16","training","adjacent","ED","5","4","Q.jpg","N.jpg","1","0","0","",""
"","feedback","","html-keyboard-response","104","178657","0.0-1.0-150.0-0.0","0","0","91569","","null","","","null","16","","","","","","","","","","","","","","","",""
"","time_out","","html-keyboard-response","105","180678","0.0-1.0-152.0-0.0","0","0","91569","","null","","","null","16","","","","","","","","","","","","","","","",""
"","ITI","","html-keyboard-response","106","181697","0.0-1.0-153.0","0","0","91569","","null","","","null","16","","","","","","","","","","","","","","","NaN",""
"","S1","","html-keyboard-response","107","181964","0.0-1.0-155.0","0","0","91569","","null","","","null","17","","","","","","","","","","","","","","","",""
"","ISI","","html-keyboard-response","108","182980","0.0-1.0-156.0","0","0","91569","","null","","","null","17","NaN","","","","","","","","","","","","","","",""
"","S2","","html-keyboard-response","109","183205","0.0-1.0-157.0","0","0","91569","","222","","","68","17","","d","1","17","training","adjacent","DE","4","5","N.jpg","Q.jpg","0","1","0","",""
"","feedback","","html-keyboard-response","110","184219","0.0-1.0-159.0-0.0","0","0","91569","","null","","","null","17","","","","","","","","","","","","","","","",""
"","time_out","","html-keyboard-response","111","186226","0.0-1.0-161.0-0.0","0","0","91569","","null","","","null","17","","","","","","","","","","","","","","","",""
"","ITI","","html-keyboard-response","112","187231","0.0-1.0-162.0","0","0","91569","","null","","","null","17","","","","","","","","","","","","","","","NaN",""
"","S1","","html-keyboard-response","113","187496","0.0-1.0-164.0","0","0","91569","","null","","","null","18","","","","","","","","","","","","","","","",""
"","ISI","","html-keyboard-response","114","188531","0.0-1.0-165.0","0","0","91569","","null","","","null","18","NaN","","","","","","","","","","","","","","",""
"","S2","","html-keyboard-response","115","188732","0.0-1.0-166.0","0","0","91569","","198","","","75","18","","k","1","18","training","adjacent","AB","1","2","P.jpg","O.jpg","1","1","1","",""
"","feedback","","html-keyboard-response","116","189739","0.0-1.0-168.0-0.0","0","0","91569","","null","","","null","18","","","","","","","","","","","","","","","",""
"","ITI","","html-keyboard-response","117","190746","0.0-1.0-171.0","0","0","91569","","null","","","null","18","","","","","","","","","","","","","","","NaN",""
"","S1","","html-keyboard-response","118","190999","0.0-1.0-173.0","0","0","91569","","null","","","null","19","","","","","","","","","","","","","","","",""
"","ISI","","html-keyboard-response","119","192017","0.0-1.0-174.0","0","0","91569","","null","","","null","19","NaN","","","","","","","","","","","","","","",""
"","S2","","html-keyboard-response","120","192231","0.0-1.0-175.0","0","0","91569","","212","","","68","19","","d","1","19","training","adjacent","FG","6","7","R.jpg","M.jpg","0","1","0","",""
"","feedback","","html-keyboard-response","121","193248","0.0-1.0-177.0-0.0","0","0","91569","","null","","","null","19","","","","","","","","","","","","","","","",""
"","time_out","","html-keyboard-response","122","195279","0.0-1.0-179.0-0.0","0","0","91569","","null","","","null","19","","","","","","","","","","","","","","","",""
"","ITI","","html-keyboard-response","123","196298","0.0-1.0-180.0","0","0","91569","","null","","","null","19","","","","","","","","","","","","","","","NaN",""
"","S1","","html-keyboard-response","124","196566","0.0-1.0-182.0","0","0","91569","","null","","","null","20","","","","","","","","","","","","","","","",""
"","ISI","","html-keyboard-response","125","197600","0.0-1.0-183.0","0","0","91569","","null","","","null","20","NaN","","","","","","","","","","","","","","",""
"","S2","","html-keyboard-response","126","197866","0.0-1.0-184.0","0","0","91569","","null","","","null","20","","NaN","","","","","","","","","","","","","",""
"","response","","html-keyboard-response","127","197970","0.0-1.0-185.0-0.0","0","0","91569","","101","","","75","20","","","1","20","training","adjacent","CB","3","2","L.jpg","O.jpg","1","0","0","",""
"","feedback","","html-keyboard-response","128","198980","0.0-1.0-186.0-0.0","0","0","91569","","null","","","null","20","","","","","","","","","","","","","","","",""
"","time_out","","html-keyboard-response","129","200986","0.0-1.0-188.0-0.0","0","0","91569","","null","","","null","20","","","","","","","","","","","","","","","",""
"","ITI","","html-keyboard-response","130","202003","0.0-1.0-189.0","0","0","91569","","null","","","null","20","","","","","","","","","","","","","","","NaN",""
"","S1","","html-keyboard-response","131","202258","0.0-1.0-191.0","0","0","91569","","null","","","null","21","","","","","","","","","","","","","","","",""
"","ISI","","html-keyboard-response","132","203291","0.0-1.0-192.0","0","0","91569","","null","","","null","21","NaN","","","","","","","","","","","","","","",""
"","S2","","html-keyboard-response","133","203503","0.0-1.0-193.0","0","0","91569","","210","","","75","21","","k","1","21","training","adjacent","GF","7","6","M.jpg","R.jpg","1","0","0","",""
"","feedback","","html-keyboard-response","134","204509","0.0-1.0-195.0-0.0","0","0","91569","","null","","","null","21","","","","","","","","","","","","","","","",""
"","time_out","","html-keyboard-response","135","206513","0.0-1.0-197.0-0.0","0","0","91569","","null","","","null","21","","","","","","","","","","","","","","","",""
"","ITI","","html-keyboard-response","136","207529","0.0-1.0-198.0","0","0","91569","","null","","","null","21","","","","","","","","","","","","","","","NaN",""
"","S1","","html-keyboard-response","137","207798","0.0-1.0-200.0","0","0","91569","","null","","","null","22","","","","","","","","","","","","","","","",""
"","ISI","","html-keyboard-response","138","208814","0.0-1.0-201.0","0","0","91569","","null","","","null","22","NaN","","","","","","","","","","","","","","",""
"","S2","","html-keyboard-response","139","209023","0.0-1.0-202.0","0","0","91569","","206","","","68","22","","d","1","22","training","adjacent","BC","2","3","O.jpg","L.jpg","0","1","0","",""
"","feedback","","html-keyboard-response","140","210040","0.0-1.0-204.0-0.0","0","0","91569","","null","","","null","22","","","","","","","","","","","","","","","",""
"","time_out","","html-keyboard-response","141","212046","0.0-1.0-206.0-0.0","0","0","91569","","null","","","null","22","","","","","","","","","","","","","","","",""
"","ITI","","html-keyboard-response","142","213061","0.0-1.0-207.0","0","0","91569","","null","","","null","22","","","","","","","","","","","","","","","NaN",""
"","S1","","html-keyboard-response","143","213326","0.0-1.0-209.0","0","0","91569","","null","","","null","23","","","","","","","","","","","","","","","",""
"","ISI","","html-keyboard-response","144","214362","0.0-1.0-210.0","0","0","91569","","null","","","null","23","NaN","","","","","","","","","","","","","","",""
"","S2","","html-keyboard-response","145","214602","0.0-1.0-211.0","0","0","91569","","237","","","68","23","","d","1","23","training","adjacent","FE","6","5","R.jpg","Q.jpg","0","0","1","",""
"","feedback","","html-keyboard-response","146","215615","0.0-1.0-213.0-0.0","0","0","91569","","null","","","null","23","","","","","","","","","","","","","","","",""
"","ITI","","html-keyboard-response","147","216633","0.0-1.0-216.0","0","0","91569","","null","","","null","23","","","","","","","","","","","","","","","NaN",""
"","S1","","html-keyboard-response","148","216899","0.0-1.0-218.0","0","0","91569","","null","","","null","24","","","","","","","","","","","","","","","",""
"","ISI","","html-keyboard-response","149","217904","0.0-1.0-219.0","0","0","91569","","null","","","null","24","NaN","","","","","","","","","","","","","","",""
"","S2","","html-keyboard-response","150","218171","0.0-1.0-220.0","0","0","91569","","null","","","null","24","","NaN","","","","","","","","","","","","","",""
"","response","","html-keyboard-response","151","218536","0.0-1.0-221.0-0.0","0","0","91569","","362","","","75","24","","","1","24","training","adjacent","ED","5","4","Q.jpg","N.jpg","1","0","0","",""
"","feedback","","html-keyboard-response","152","219547","0.0-1.0-222.0-0.0","0","0","91569","","null","","","null","24","","","","","","","","","","","","","","","",""
"","time_out","","html-keyboard-response","153","221565","0.0-1.0-224.0-0.0","0","0","91569","","null","","","null","24","","","","","","","","","","","","","","","",""
"","ITI","","html-keyboard-response","154","222580","0.0-1.0-225.0","0","0","91569","","null","","","null","24","","","","","","","","","","","","","","","NaN",""
"","S1","","html-keyboard-response","155","222847","0.0-1.0-227.0","0","0","91569","","null","","","null","25","","","","","","","","","","","","","","","",""
"","ISI","","html-keyboard-response","156","223881","0.0-1.0-228.0","0","0","91569","","null","","","null","25","NaN","","","","","","","","","","","","","","",""
"","S2","","html-keyboard-response","157","224108","0.0-1.0-229.0","0","0","91569","","225","","","68","25","","d","1","25","training","adjacent","BC","2","3","O.jpg","L.jpg","0","1","0","",""
"","feedback","","html-keyboard-response","158","225115","0.0-1.0-231.0-0.0","0","0","91569","","null","","","null","25","","","","","","","","","","","","","","","",""
"","time_out","","html-keyboard-response","159","227119","0.0-1.0-233.0-0.0","0","0","91569","","null","","","null","25","","","","","","","","","","","","","","","",""
"","ITI","","html-keyboard-response","160","228128","0.0-1.0-234.0","0","0","91569","","null","","","null","25","","","","","","","","","","","","","","","NaN",""
"","S1","","html-keyboard-response","161","228396","0.0-1.0-236.0","0","0","91569","","null","","","null","26","","","","","","","","","","","","","","","",""
"","ISI","","html-keyboard-response","162","229428","0.0-1.0-237.0","0","0","91569","","null","","","null","26","NaN","","","","","","","","","","","","","","",""
"","S2","","html-keyboard-response","163","229541","0.0-1.0-238.0","0","0","91569","","111","","","75","26","","k","1","26","training","adjacent","DC","4","3","N.jpg","L.jpg","1","0","0","",""
"","feedback","","html-keyboard-response","164","230554","0.0-1.0-240.0-0.0","0","0","91569","","null","","","null","26","","","","","","","","","","","","","","","",""
"","time_out","","html-keyboard-response","165","232565","0.0-1.0-242.0-0.0","0","0","91569","","null","","","null","26","","","","","","","","","","","","","","","",""
"","ITI","","html-keyboard-response","166","233569","0.0-1.0-243.0","0","0","91569","","null","","","null","26","","","","","","","","","","","","","","","NaN",""
"","S1","","html-keyboard-response","167","233824","0.0-1.0-245.0","0","0","91569","","null","","","null","27","","","","","","","","","","","","","","","",""
"","ISI","","html-keyboard-response","168","234856","0.0-1.0-246.0","0","0","91569","","null","","","null","27","NaN","","","","","","","","","","","","","","",""
"","S2","","html-keyboard-response","169","234919","0.0-1.0-247.0","0","0","91569","","60","","","75","27","","k","1","27","training","adjacent","ED","5","4","Q.jpg","N.jpg","1","0","0","",""
"","feedback","","html-keyboard-response","170","235935","0.0-1.0-249.0-0.0","0","0","91569","","null","","","null","27","","","","","","","","","","","","","","","",""
"","time_out","","html-keyboard-response","171","237953","0.0-1.0-251.0-0.0","0","0","91569","","null","","","null","27","","","","","","","","","","","","","","","",""
"","ITI","","html-keyboard-response","172","238971","0.0-1.0-252.0","0","0","91569","","null","","","null","27","","","","","","","","","","","","","","","NaN",""
"","S1","","html-keyboard-response","173","239235","0.0-1.0-254.0","0","0","91569","","null","","","null","28","","","","","","","","","","","","","","","",""
"","ISI","","html-keyboard-response","174","240247","0.0-1.0-255.0","0","0","91569","","null","","","null","28","NaN","","","","","","","","","","","","","","",""
"","S2","","html-keyboard-response","175","240530","0.0-1.0-256.0","0","0","91569","","null","","","null","28","","NaN","","","","","","","","","","","","","",""
"","response","","html-keyboard-response","176","240570","0.0-1.0-257.0-0.0","0","0","91569","","37","","","68","28","","","1","28","training","adjacent","EF","5","6","Q.jpg","R.jpg","0","1","0","",""
"","feedback","","html-keyboard-response","177","241585","0.0-1.0-258.0-0.0","0","0","91569","","null","","","null","28","","","","","","","","","","","","","","","",""
"","time_out","","html-keyboard-response","178","243594","0.0-1.0-260.0-0.0","0","0","91569","","null","","","null","28","","","","","","","","","","","","","","","",""
"","ITI","","html-keyboard-response","179","244598","0.0-1.0-261.0","0","0","91569","","null","","","null","28","","","","","","","","","","","","","","","NaN",""
"","S1","","html-keyboard-response","180","244865","0.0-1.0-263.0","0","0","91569","","null","","","null","29","","","","","","","","","","","","","","","",""
"","ISI","","html-keyboard-response","181","245894","0.0-1.0-264.0","0","0","91569","","null","","","null","29","NaN","","","","","","","","","","","","","","",""
"","S2","","html-keyboard-response","182","246096","0.0-1.0-265.0","0","0","91569","","198","","","75","29","","k","1","29","training","adjacent","DC","4","3","N.jpg","L.jpg","1","0","0","",""
"","feedback","","html-keyboard-response","183","247108","0.0-1.0-267.0-0.0","0","0","91569","","null","","","null","29","","","","","","","","","","","","","","","",""
"","time_out","","html-keyboard-response","184","249125","0.0-1.0-269.0-0.0","0","0","91569","","null","","","null","29","","","","","","","","","","","","","","","",""
"","ITI","","html-keyboard-response","185","250142","0.0-1.0-270.0","0","0","91569","","null","","","null","29","","","","","","","","","","","","","","","NaN",""
"","S1","","html-keyboard-response","186","250409","0.0-1.0-272.0","0","0","91569","","null","","","null","30","","","","","","","","","","","","","","","",""
"","ISI","","html-keyboard-response","187","251440","0.0-1.0-273.0","0","0","91569","","null","","","null","30","NaN","","","","","","","","","","","","","","",""
"","S2","","html-keyboard-response","188","251708","0.0-1.0-274.0","0","0","91569","","null","","","null","30","","NaN","","","","","","","","","","","","","",""
"","response","","html-keyboard-response","189","251721","0.0-1.0-275.0-0.0","0","0","91569","","11","","","68","30","","","1","30","training","adjacent","EF","5","6","Q.jpg","R.jpg","0","1","0","",""
"","feedback","","html-keyboard-response","190","252731","0.0-1.0-276.0-0.0","0","0","91569","","null","","","null","30","","","","","","","","","","","","","","","",""
"","time_out","","html-keyboard-response","191","254745","0.0-1.0-278.0-0.0","0","0","91569","","null","","","null","30","","","","","","","","","","","","","","","",""
"","ITI","","html-keyboard-response","192","255752","0.0-1.0-279.0","0","0","91569","","null","","","null","30","","","","","","","","","","","","","","","NaN",""
"","S1","","html-keyboard-response","193","256005","0.0-1.0-281.0","0","0","91569","","null","","","null","31","","","","","","","","","","","","","","","",""
"","ISI","","html-keyboard-response","194","257023","0.0-1.0-282.0","0","0","91569","","null","","","null","31","NaN","","","","","","","","","","","","","","",""
"","S2","","html-keyboard-response","195","257288","0.0-1.0-283.0","0","0","91569","","null","","","null","31","","NaN","","","","","","","","","","","","","",""
"","response","","html-keyboard-response","196","257329","0.0-1.0-284.0-0.0","0","0","91569","","40","","","75","31","","","1","31","training","adjacent","BC","2","3","O.jpg","L.jpg","1","1","1","",""
"","feedback","","html-keyboard-response","197","258342","0.0-1.0-285.0-0.0","0","0","91569","","null","","","null","31","","","","","","","","","","","","","","","",""
"","ITI","","html-keyboard-response","198","259356","0.0-1.0-288.0","0","0","91569","","null","","","null","31","","","","","","","","","","","","","","","NaN",""
"","S1","","html-keyboard-response","199","259622","0.0-1.0-290.0","0","0","91569","","null","","","null","32","","","","","","","","","","","","","","","",""
"","ISI","","html-keyboard-response","200","260636","0.0-1.0-291.0","0","0","91569","","null","","","null","32","NaN","","","","","","","","","","","","","","",""
"","S2","","html-keyboard-response","201","260901","0.0-1.0-292.0","0","0","91569","","null","","","null","32","","NaN","","","","","","","","","","","","","",""
"","response","","html-keyboard-response","202","260933","0.0-1.0-293.0-0.0","0","0","91569","","29","","","75","32","","","1","32","training","adjacent","CD","3","4","L.jpg","N.jpg","1","1","1","",""
"","feedback","","html-keyboard-response","203","261945","0.0-1.0-294.0-0.0","0","0","91569","","null","","","null","32","","","","","","","","","","","","","","","",""
"","ITI","","html-keyboard-response","204","262964","0.0-1.0-297.0","0","0","91569","","null","","","null","32","","","","","","","","","","","","","","","NaN",""
"","S1","","html-keyboard-response","205","263229","0.0-1.0-299.0","0","0","91569","","null","","","null","33","","","","","","","","","","","","","","","",""
"","ISI","","html-keyboard-response","206","264259","0.0-1.0-300.0","0","0","91569","","null","","","null","33","NaN","","","","","","","","","","","","","","",""
"","S2","","html-keyboard-response","207","264496","0.0-1.0-301.0","0","0","91569","","234","","","75","33","","k","1","33","training","adjacent","GF","7","6","M.jpg","R.jpg","1","0","0","",""
"","feedback","","html-keyboard-response","208","265510","0.0-1.0-303.0-0.0","0","0","91569","","null","","","null","33","","","","","","","","","","","","","","","",""
"","time_out","","html-keyboard-response","209","267522","0.0-1.0-305.0-0.0","0","0","91569","","null","","","null","33","","","","","","","","","","","","","","","",""
"","ITI","","html-keyboard-response","210","268539","0.0-1.0-306.0","0","0","91569","","null","","","null","33","","","","","","","","","","","","","","","NaN",""
"","S1","","html-keyboard-response","211","268791","0.0-1.0-308.0","0","0","91569","","null","","","null","34","","","","","","","","","","","","","","","",""
"","ISI","","html-keyboard-response","212","269806","0.0-1.0-309.0","0","0","91569","","null","","","null","34","NaN","","","","","","","","","","","","","","",""
"","S2","","html-keyboard-response","213","270045","0.0-1.0-310.0","0","0","91569","","237","","","75","34","","k","1","34","training","adjacent","BA","2","1","O.jpg","P.jpg","1","0","0","",""
"","feedback","","html-keyboard-response","214","271056","0.0-1.0-312.0-0.0","0","0","91569","","null","","","null","34","","","","","","","","","","","","","","","",""
"","time_out","","html-keyboard-response","215","273067","0.0-1.0-314.0-0.0","0","0","91569","","null","","","null","34","","","","","","","","","","","","","","","",""
"","ITI","","html-keyboard-response","216","274084","0.0-1.0-315.0","0","0","91569","","null","","","null","34","","","","","","","","","","","","","","","NaN",""
"","S1","","html-keyboard-response","217","274339","0.0-1.0-317.0","0","0","91569","","null","","","null","35","","","","","","","","","","","","","","","",""
"","ISI","","html-keyboard-response","218","275352","0.0-1.0-318.0","0","0","91569","","null","","","null","35","NaN","","","","","","","","","","","","","","",""
"","S2","","html-keyboard-response","219","275570","0.0-1.0-319.0","0","0","91569","","215","","","75","35","","k","1","35","training","adjacent","AB","1","2","P.jpg","O.jpg","1","1","1","",""
"","feedback","","html-keyboard-response","220","276575","0.0-1.0-321.0-0.0","0","0","91569","","null","","","null","35","","","","","","","","","","","","","","","",""
"","ITI","","html-keyboard-response","221","277594","0.0-1.0-324.0","0","0","91569","","null","","","null","35","","","","","","","","","","","","","","","NaN",""
"","S1","","html-keyboard-response","222","277858","0.0-1.0-326.0","0","0","91569","","null","","","null","36","","","","","","","","","","","","","","","",""
"","ISI","","html-keyboard-response","223","278872","0.0-1.0-327.0","0","0","91569","","null","","","null","36","NaN","","","","","","","","","","","","","","",""
"","S2","","html-keyboard-response","224","279040","0.0-1.0-328.0","0","0","91569","","165","","","75","36","","k","1","36","training","adjacent","GF","7","6","M.jpg","R.jpg","1","0","0","",""
"","feedback","","html-keyboard-response","225","280043","0.0-1.0-330.0-0.0","0","0","91569","","null","","","null","36","","","","","","","","","","","","","","","",""
"","time_out","","html-keyboard-response","226","282074","0.0-1.0-332.0-0.0","0","0","91569","","null","","","null","36","","","","","","","","","","","","","","","",""
"","ITI","","html-keyboard-response","227","283095","0.0-1.0-333.0","0","0","91569","","null","","","null","36","","","","","","","","","","","","","","","NaN",""
"","S1","","html-keyboard-response","228","283361","0.0-1.0-335.0","0","0","91569","","null","","","null","37","","","","","","","","","","","","","","","",""
"","ISI","","html-keyboard-response","229","284383","0.0-1.0-336.0","0","0","91569","","null","","","null","37","NaN","","","","","","","","","","","","","","",""
"","S2","","html-keyboard-response","230","284577","0.0-1.0-337.0","0","0","91569","","191","","","68","37","","d","1","37","training","adjacent","CD","3","4","L.jpg","N.jpg","0","1","0","",""
"","feedback","","html-keyboard-response","231","285595","0.0-1.0-339.0-0.0","0","0","91569","","null","","","null","37","","","","","","","","","","","","","","","",""
"","time_out","","html-keyboard-response","232","287598","0.0-1.0-341.0-0.0","0","0","91569","","null","","","null","37","","","","","","","","","","","","","","","",""
"","ITI","","html-keyboard-response","233","288614","0.0-1.0-342.0","0","0","91569","","null","","","null","37","","","","","","","","","","","","","","","NaN",""
"","S1","","html-keyboard-response","234","288881","0.0-1.0-344.0","0","0","91569","","null","","","null","38","","","","","","","","","","","","","","","",""
"","ISI","","html-keyboard-response","235","289899","0.0-1.0-345.0","0","0","91569","","null","","","null","38","NaN","","","","","","","","","","","","","","",""
"","S2","","html-keyboard-response","236","290178","0.0-1.0-346.0","0","0","91569","","null","","","null","38","","NaN","","","","","","","","","","","","","",""
"","response","","html-keyboard-response","237","290215","0.0-1.0-347.0-0.0","0","0","91569","","34","","","68","38","","","1","38","training","adjacent","FE","6","5","R.jpg","Q.jpg","0","0","1","",""
"","feedback","","html-keyboard-response","238","291229","0.0-1.0-348.0-0.0","0","0","91569","","null","","","null","38","","","","","","","","","","","","","","","",""
"","ITI","","html-keyboard-response","239","292246","0.0-1.0-351.0","0","0","91569","","null","","","null","38","","","","","","","","","","","","","","","NaN",""
"","S1","","html-keyboard-response","240","292511","0.0-1.0-353.0","0","0","91569","","null","","","null","39","","","","","","","","","","","","","","","",""
"","ISI","","html-keyboard-response","241","293528","0.0-1.0-354.0","0","0","91569","","null","","","null","39","NaN","","","","","","","","","","","","","","",""
"","S2","","html-keyboard-response","242","293757","0.0-1.0-355.0","0","0","91569","","228","","","75","39","","k","1","39","training","adjacent","CB","3","2","L.jpg","O.jpg","1","0","0","",""
"","feedback","","html-keyboard-response","243","294761","0.0-1.0-357.0-0.0","0","0","91569","","null","","","null","39","","","","","","","","","","","","","","","",""
"","time_out","","html-keyboard-response","244","296776","0.0-1.0-359.0-0.0","0","0","91569","","null","","","null","39","","","","","","","","","","","","","","","",""
"","ITI","","html-keyboard-response","245","297789","0.0-1.0-360.0","0","0","91569","","null","","","null","39","","","","","","","","","","","","","","","NaN",""
"","S1","","html-keyboard-response","246","298067","0.0-1.0-362.0","0","0","91569","","null","","","null","40","","","","","","","","","","","","","","","",""
"","ISI","","html-keyboard-response","247","299091","0.0-1.0-363.0","0","0","91569","","null","","","null","40","NaN","","","","","","","","","","","","","","",""
"","S2","","html-keyboard-response","248","299301","0.0-1.0-364.0","0","0","91569","","209","","","75","40","","k","1","40","training","adjacent","GF","7","6","M.jpg","R.jpg","1","0","0","",""
"","feedback","","html-keyboard-response","249","300306","0.0-1.0-366.0-0.0","0","0","91569","","null","","","null","40","","","","","","","","","","","","","","","",""
"","time_out","","html-keyboard-response","250","302315","0.0-1.0-368.0-0.0","0","0","91569","","null","","","null","40","","","","","","","","","","","","","","","",""
"","ITI","","html-keyboard-response","251","303327","0.0-1.0-369.0","0","0","91569","","null","","","null","40","","","","","","","","","","","","","","","NaN",""
"","S1","","html-keyboard-response","252","303594","0.0-1.0-371.0","0","0","91569","","null","","","null","41","","","","","","","","","","","","","","","",""
"","ISI","","html-keyboard-response","253","304641","0.0-1.0-372.0","0","0","91569","","null","","","null","41","NaN","","","","","","","","","","","","","","",""
"","S2","","html-keyboard-response","254","304780","0.0-1.0-373.0","0","0","91569","","138","","","75","41","","k","1","41","training","adjacent","CB","3","2","L.jpg","O.jpg","1","0","0","",""
"","feedback","","html-keyboard-response","255","305788","0.0-1.0-375.0-0.0","0","0","91569","","null","","","null","41","","","","","","","","","","","","","","","",""
"","time_out","","html-keyboard-response","256","307801","0.0-1.0-377.0-0.0","0","0","91569","","null","","","null","41","","","","","","","","","","","","","","","",""
"","ITI","","html-keyboard-response","257","308817","0.0-1.0-378.0","0","0","91569","","null","","","null","41","","","","","","","","","","","","","","","NaN",""
"","S1","","html-keyboard-response","258","309069","0.0-1.0-380.0","0","0","91569","","null","","","null","42","","","","","","","","","","","","","","","",""
"","ISI","","html-keyboard-response","259","310094","0.0-1.0-381.0","0","0","91569","","null","","","null","42","NaN","","","","","","","","","","","","","","",""
"","S2","","html-keyboard-response","260","310340","0.0-1.0-382.0","0","0","91569","","245","","","75","42","","k","1","42","training","adjacent","AB","1","2","P.jpg","O.jpg","1","1","1","",""
"","feedback","","html-keyboard-response","261","311351","0.0-1.0-384.0-0.0","0","0","91569","","null","","","null","42","","","","","","","","","","","","","","","",""
"","ITI","","html-keyboard-response","262","312360","0.0-1.0-387.0","0","0","91569","","null","","","null","42","","","","","","","","","","","","","","","NaN",""
"","S1","","html-keyboard-response","263","312613","0.0-1.0-389.0","0","0","91569","","null","","","null","43","","","","","","","","","","","","","","","",""
"","ISI","","html-keyboard-response","264","313631","0.0-1.0-390.0","0","0","91569","","null","","","null","43","NaN","","","","","","","","","","","","","","",""
"","S2","","html-keyboard-response","265","313896","0.0-1.0-391.0","0","0","91569","","null","","","null","43","","NaN","","","","","","","","","","","","","",""
"","response","","html-keyboard-response","266","313954","0.0-1.0-392.0-0.0","0","0","91569","","57","","","68","43","","","1","43","training","adjacent","DE","4","5","N.jpg","Q.jpg","0","1","0","",""
"","feedback","","html-keyboard-response","267","314961","0.0-1.0-393.0-0.0","0","0","91569","","null","","","null","43","","","","","","","","","","","","","","","",""
"","time_out","","html-keyboard-response","268","316990","0.0-1.0-395.0-0.0","0","0","91569","","null","","","null","43","","","","","","","","","","","","","","","",""
"","ITI","","html-keyboard-response","269","318018","0.0-1.0-396.0","0","0","91569","","null","","","null","43","","","","","","","","","","","","","","","NaN",""
"","S1","","html-keyboard-response","270","318281","0.0-1.0-398.0","0","0","91569","","null","","","null","44","","","","","","","","","","","","","","","",""
"","ISI","","html-keyboard-response","271","319312","0.0-1.0-399.0","0","0","91569","","null","","","null","44","NaN","","","","","","","","","","","","","","",""
"","S2","","html-keyboard-response","272","319575","0.0-1.0-400.0","0","0","91569","","null","","","null","44","","NaN","","","","","","","","","","","","","",""
"","response","","html-keyboard-response","273","319617","0.0-1.0-401.0-0.0","0","0","91569","","40","","","75","44","","","1","44","training","adjacent","DE","4","5","N.jpg","Q.jpg","1","1","1","",""
"","feedback","","html-keyboard-response","274","320621","0.0-1.0-402.0-0.0","0","0","91569","","null","","","null","44","","","","","","","","","","","","","","","",""
"","ITI","","html-keyboard-response","275","321626","0.0-1.0-405.0","0","0","91569","","null","","","null","44","","","","","","","","","","","","","","","NaN",""
"","S1","","html-keyboard-response","276","321893","0.0-1.0-407.0","0","0","91569","","null","","","null","45","","","","","","","","","","","","","","","",""
"","ISI","","html-keyboard-response","277","322905","0.0-1.0-408.0","0","0","91569","","null","","","null","45","NaN","","","","","","","","","","","","","","",""
"","S2","","html-keyboard-response","278","323162","0.0-1.0-409.0","0","0","91569","","null","","","null","45","","NaN","","","","","","","","","","","","","",""
"","response","","html-keyboard-response","279","323193","0.0-1.0-410.0-0.0","0","0","91569","","30","","","75","45","","","1","45","training","adjacent","FG","6","7","R.jpg","M.jpg","1","1","1","",""
"","feedback","","html-keyboard-response","280","324206","0.0-1.0-411.0-0.0","0","0","91569","","null","","","null","45","","","","","","","","","","","","","","","",""
"","ITI","","html-keyboard-response","281","325241","0.0-1.0-414.0","0","0","91569","","null","","","null","45","","","","","","","","","","","","","","","NaN",""
"","S1","","html-keyboard-response","282","325515","0.0-1.0-416.0","0","0","91569","","null","","","null","46","","","","","","","","","","","","","","","",""
"","ISI","","html-keyboard-response","283","326540","0.0-1.0-417.0","0","0","91569","","null","","","null","46","NaN","","","","","","","","","","","","","","",""
"","S2","","html-keyboard-response","284","326753","0.0-1.0-418.0","0","0","91569","","211","","","68","46","","d","1","46","training","adjacent","BA","2","1","O.jpg","P.jpg","0","0","1","",""
"","feedback","","html-keyboard-response","285","327764","0.0-1.0-420.0-0.0","0","0","91569","","null","","","null","46","","","","","","","","","","","","","","","",""
"","ITI","","html-keyboard-response","286","328785","0.0-1.0-423.0","0","0","91569","","null","","","null","46","","","","","","","","","","","","","","","NaN",""
"","S1","","html-keyboard-response","287","329046","0.0-1.0-425.0","0","0","91569","","null","","","null","47","","","","","","","","","","","","","","","",""
"","ISI","","html-keyboard-response","288","330058","0.0-1.0-426.0","0","0","91569","","null","","","null","47","NaN","","","","","","","","","","","","","","",""
"","S2","","html-keyboard-response","289","330284","0.0-1.0-427.0","0","0","91569","","224","","","68","47","","d","1","47","training","adjacent","CB","3","2","L.jpg","O.jpg","0","0","1","",""
"","feedback","","html-keyboard-response","290","331293","0.0-1.0-429.0-0.0","0","0","91569","","null","","","null","47","","","","","","","","","","","","","","","",""
"","ITI","","html-keyboard-response","291","332324","0.0-1.0-432.0","0","0","91569","","null","","","null","47","","","","","","","","","","","","","","","NaN",""
"","block_over","","html-keyboard-response","292","338496","0.0-1.0-433.0-0.0","0","0","91569","","6170","","","32","47","","","","","","","","","","","","","","","",""
"","S1","","html-keyboard-response","293","338750","0.0-1.0-434.0","0","0","91569","","null","","","null","48","","","","","","","","","","","","","","","",""
"","ISI","","html-keyboard-response","294","339755","0.0-1.0-435.0","0","0","91569","","null","","","null","48","NaN","","","","","","","","","","","","","","",""
"","S2","","html-keyboard-response","295","340019","0.0-1.0-436.0","0","0","91569","","null","","","null","48","","NaN","","","","","","","","","","","","","",""
"","response","","html-keyboard-response","296","340465","0.0-1.0-437.0-0.0","0","0","91569","","443","","","75","48","","","2","48","training","adjacent","BC","2","3","O.jpg","L.jpg","1","1","1","",""
"","feedback","","html-keyboard-response","297","341469","0.0-1.0-438.0-0.0","0","0","91569","","null","","","null","48","","","","","","","","","","","","","","","",""
"","ITI","","html-keyboard-response","298","342486","0.0-1.0-441.0","0","0","91569","","null","","","null","48","","","","","","","","","","","","","","","NaN",""
"","S1","","html-keyboard-response","299","342754","0.0-1.0-443.0","0","0","91569","","null","","","null","49","","","","","","","","","","","","","","","",""
"","ISI","","html-keyboard-response","300","343789","0.0-1.0-444.0","0","0","91569","","null","","","null","49","NaN","","","","","","","","","","","","","","",""
"","S2","","html-keyboard-response","301","344014","0.0-1.0-445.0","0","0","91569","","222","","","75","49","","k","2","49","training","adjacent","FG","6","7","R.jpg","M.jpg","1","1","1","",""
"","feedback","","html-keyboard-response","302","345020","0.0-1.0-447.0-0.0","0","0","91569","","null","","","null","49","","","","","","","","","","","","","","","",""
"","ITI","","html-keyboard-response","303","346024","0.0-1.0-450.0","0","0","91569","","null","","","null","49","","","","","","","","","","","","","","","NaN",""
"","S1","","html-keyboard-response","304","346286","0.0-1.0-452.0","0","0","91569","","null","","","null","50","","","","","","","","","","","","","","","",""
"","ISI","","html-keyboard-response","305","347289","0.0-1.0-453.0","0","0","91569","","null","","","null","50","NaN","","","","","","","","","","","","","","",""
"","S2","","html-keyboard-response","306","347555","0.0-1.0-454.0","0","0","91569","","null","","","null","50","","NaN","","","","","","","","","","","","","",""
"","response","","html-keyboard-response","307","347757","0.0-1.0-455.0-0.0","0","0","91569","","199","","","68","50","","","2","50","training","adjacent","GF","7","6","M.jpg","R.jpg","0","0","1","",""
"","feedback","","html-keyboard-response","308","348765","0.0-1.0-456.0-0.0","0","0","91569","","null","","","null","50","","","","","","","","","","","","","","","",""
"","ITI","","html-keyboard-response","309","349783","0.0-1.0-459.0","0","0","91569","","null","","","null","50","","","","","","","","","","","","","","","NaN",""
"","S1","","html-keyboard-response","310","350049","0.0-1.0-461.0","0","0","91569","","null","","","null","51","","","","","","","","","","","","","","","",""
"","ISI","","html-keyboard-response","311","351063","0.0-1.0-462.0","0","0","91569","","923","","","75","51","k","","","","","","","","","","","","","","",""
"","S2","","html-keyboard-response","312","351328","0.0-1.0-463.0","0","0","91569","","null","","","null","51","","NaN","","","","","","","","","","","","","",""
"","response","","html-keyboard-response","313","351421","0.0-1.0-464.0-0.0","0","0","91569","","91","","","75","51","","","2","51","training","adjacent","BC","2","3","O.jpg","L.jpg","1","1","1","",""
"","feedback","","html-keyboard-response","314","352435","0.0-1.0-465.0-0.0","0","0","91569","","null","","","null","51","","","","","","","","","","","","","","","",""
"","ITI","","html-keyboard-response","315","353448","0.0-1.0-468.0","0","0","91569","","null","","","null","51","","","","","","","","","","","","","","","NaN",""
"","S1","","html-keyboard-response","316","353713","0.0-1.0-470.0","0","0","91569","","null","","","null","52","","","","","","","","","","","","","","","",""
"","ISI","","html-keyboard-response","317","354726","0.0-1.0-471.0","0","0","91569","","902","","","68","52","d","","","","","","","","","","","","","","",""
"","S2","","html-keyboard-response","318","354993","0.0-1.0-472.0","0","0","91569","","null","","","null","52","","NaN","","","","","","","","","","","","","",""
"","response","","html-keyboard-response","319","354995","0.0-1.0-473.0-0.0","0","0","91569","","1","","","68","52","","","2","52","training","adjacent","FE","6","5","R.jpg","Q.jpg","0","0","1","",""
"","feedback","","html-keyboard-response","320","356025","0.0-1.0-474.0-0.0","0","0","91569","","null","","","null","52","","","","","","","","","","","","","","","",""
"","ITI","","html-keyboard-response","321","357041","0.0-1.0-477.0","0","0","91569","","null","","","null","52","","","","","","","","","","","","","","","NaN",""
"","S1","","html-keyboard-response","322","357322","0.0-1.0-479.0","0","0","91569","","null","","","null","53","","","","","","","","","","","","","","","",""
"","ISI","","html-keyboard-response","323","358342","0.0-1.0-480.0","0","0","91569","","null","","","null","53","NaN","","","","","","","","","","","","","","",""
"","S2","","html-keyboard-response","324","358572","0.0-1.0-481.0","0","0","91569","","228","","","75","53","","k","2","53","training","adjacent","CD","3","4","L.jpg","N.jpg","1","1","1","",""
"","feedback","","html-keyboard-response","325","359580","0.0-1.0-483.0-0.0","0","0","91569","","null","","","null","53","","","","","","","","","","","","","","","",""
"","ITI","","html-keyboard-response","326","360594","0.0-1.0-486.0","0","0","91569","","null","","","null","53","","","","","","","","","","","","","","","NaN",""
"","S1","","html-keyboard-response","327","360857","0.0-1.0-488.0","0","0","91569","","null","","","null","54","","","","","","","","","","","","","","","",""
"","ISI","","html-keyboard-response","328","361873","0.0-1.0-489.0","0","0","91569","","null","","","null","54","NaN","","","","","","","","","","","","","","",""
"","S2","","html-keyboard-response","329","362138","0.0-1.0-490.0","0","0","91569","","null","","","null","54","","NaN","","","","","","","","","","","","","",""
"","response","","html-keyboard-response","330","362191","0.0-1.0-491.0-0.0","0","0","91569","","51","","","75","54","","","2","54","training","adjacent","CB","3","2","L.jpg","O.jpg","1","0","0","",""
"","feedback","","html-keyboard-response","331","363204","0.0-1.0-492.0-0.0","0","0","91569","","null","","","null","54","","","","","","","","","","","","","","","",""
"","time_out","","html-keyboard-response","332","365233","0.0-1.0-494.0-0.0","0","0","91569","","null","","","null","54","","","","","","","","","","","","","","","",""
"","ITI","","html-keyboard-response","333","366258","0.0-1.0-495.0","0","0","91569","","null","","","null","54","","","","","","","","","","","","","","","NaN",""
"","S1","","html-keyboard-response","334","366525","0.0-1.0-497.0","0","0","91569","","null","","","null","55","","","","","","","","","","","","","","","",""
"","ISI","","html-keyboard-response","335","367543","0.0-1.0-498.0","0","0","91569","","null","","","null","55","NaN","","","","","","","","","","","","","","",""
"","S2","","html-keyboard-response","336","367811","0.0-1.0-499.0","0","0","91569","","null","","","null","55","","NaN","","","","","","","","","","","","","",""
"","response","","html-keyboard-response","337","367855","0.0-1.0-500.0-0.0","0","0","91569","","41","","","68","55","","","2","55","training","adjacent","ED","5","4","Q.jpg","N.jpg","0","0","1","",""
"","feedback","","html-keyboard-response","338","368860","0.0-1.0-501.0-0.0","0","0","91569","","null","","","null","55","","","","","","","","","","","","","","","",""
"","ITI","","html-keyboard-response","339","369872","0.0-1.0-504.0","0","0","91569","","null","","","null","55","","","","","","","","","","","","","","","NaN",""
"","S1","","html-keyboard-response","340","370140","0.0-1.0-506.0","0","0","91569","","null","","","null","56","","","","","","","","","","","","","","","",""
"","ISI","","html-keyboard-response","341","371155","0.0-1.0-507.0","0","0","91569","","null","","","null","56","NaN","","","","","","","","","","","","","","",""
"","S2","","html-keyboard-response","342","371370","0.0-1.0-508.0","0","0","91569","","211","","","75","56","","k","2","56","training","adjacent","GF","7","6","M.jpg","R.jpg","1","0","0","",""
"","feedback","","html-keyboard-response","343","372381","0.0-1.0-510.0-0.0","0","0","91569","","null","","","null","56","","","","","","","","","","","","","","","",""
"","time_out","","html-keyboard-response","344","374408","0.0-1.0-512.0-0.0","0","0","91569","","null","","","null","56","","","","","","","","","","","","","","","",""
"","ITI","","html-keyboard-response","345","375435","0.0-1.0-513.0","0","0","91569","","null","","","null","56","","","","","","","","","","","","","","","NaN",""
"","S1","","html-keyboard-response","346","375701","0.0-1.0-515.0","0","0","91569","","null","","","null","57","","","","","","","","","","","","","","","",""
"","ISI","","html-keyboard-response","347","376718","0.0-1.0-516.0","0","0","91569","","null","","","null","57","NaN","","","","","","","","","","","","","","",""
"","S2","","html-keyboard-response","348","376926","0.0-1.0-517.0","0","0","91569","","206","","","75","57","","k","2","57","training","adjacent","AB","1","2","P.jpg","O.jpg","1","1","1","",""
"","feedback","","html-keyboard-response","349","377942","0.0-1.0-519.0-0.0","0","0","91569","","null","","","null","57","","","","","","","","","","","","","","","",""
"","ITI","","html-keyboard-response","350","378949","0.0-1.0-522.0","0","0","91569","","null","","","null","57","","","","","","","","","","","","","","","NaN",""
"","S1","","html-keyboard-response","351","379216","0.0-1.0-524.0","0","0","91569","","null","","","null","58","","","","","","","","","","","","","","","",""
"","ISI","","html-keyboard-response","352","380221","0.0-1.0-525.0","0","0","91569","","null","","","null","58","NaN","","","","","","","","","","","","","","",""
"","S2","","html-keyboard-response","353","380487","0.0-1.0-526.0","0","0","91569","","null","","","null","58","","NaN","","","","","","","","","","","","","",""
"","response","","html-keyboard-response","354","380548","0.0-1.0-527.0-0.0","0","0","91569","","58","","","68","58","","","2","58","training","adjacent","DE","4","5","N.jpg","Q.jpg","0","1","0","",""
"","feedback","","html-keyboard-response","355","381554","0.0-1.0-528.0-0.0","0","0","91569","","null","","","null","58","","","","","","","","","","","","","","","",""
"","time_out","","html-keyboard-response","356","383590","0.0-1.0-530.0-0.0","0","0","91569","","null","","","null","58","","","","","","","","","","","","","","","",""
"","ITI","","html-keyboard-response","357","384620","0.0-1.0-531.0","0","0","91569","","null","","","null","58","","","","","","","","","","","","","","","NaN",""
"","S1","","html-keyboard-response","358","384886","0.0-1.0-533.0","0","0","91569","","null","","","null","59","","","","","","","","","","","","","","","",""
"","ISI","","html-keyboard-response","359","385905","0.0-1.0-534.0","0","0","91569","","null","","","null","59","NaN","","","","","","","","","","","","","","",""
"","S2","","html-keyboard-response","360","386171","0.0-1.0-535.0","0","0","91569","","null","","","null","59","","NaN","","","","","","","","","","","","","",""
"","response","","html-keyboard-response","361","386256","0.0-1.0-536.0-0.0","0","0","91569","","82","","","68","59","","","2","59","training","adjacent","BA","2","1","O.jpg","P.jpg","0","0","1","",""
"","feedback","","html-keyboard-response","362","387273","0.0-1.0-537.0-0.0","0","0","91569","","null","","","null","59","","","","","","","","","","","","","","","",""
"","ITI","","html-keyboard-response","363","388287","0.0-1.0-540.0","0","0","91569","","null","","","null","59","","","","","","","","","","","","","","","NaN",""
"","S1","","html-keyboard-response","364","388552","0.0-1.0-542.0","0","0","91569","","null","","","null","60","","","","","","","","","","","","","","","",""
"","ISI","","html-keyboard-response","365","389570","0.0-1.0-543.0","0","0","91569","","null","","","null","60","NaN","","","","","","","","","","","","","","",""
"","S2","","html-keyboard-response","366","389795","0.0-1.0-544.0","0","0","91569","","223","","","75","60","","k","2","60","training","adjacent","AB","1","2","P.jpg","O.jpg","1","1","1","",""
"","feedback","","html-keyboard-response","367","390806","0.0-1.0-546.0-0.0","0","0","91569","","null","","","null","60","","","","","","","","","","","","","","","",""
"","ITI","","html-keyboard-response","368","391852","0.0-1.0-549.0","0","0","91569","","null","","","null","60","","","","","","","","","","","","","","","NaN",""
"","S1","","html-keyboard-response","369","392117","0.0-1.0-551.0","0","0","91569","","null","","","null","61","","","","","","","","","","","","","","","",""
"","ISI","","html-keyboard-response","370","393129","0.0-1.0-552.0","0","0","91569","","null","","","null","61","NaN","","","","","","","","","","","","","","",""
"","S2","","html-keyboard-response","371","393410","0.0-1.0-553.0","0","0","91569","","null","","","null","61","","NaN","","","","","","","","","","","","","",""
"","response","","html-keyboard-response","372","393438","0.0-1.0-554.0-0.0","0","0","91569","","27","","","68","61","","","2","61","training","adjacent","GF","7","6","M.jpg","R.jpg","0","0","1","",""
"","feedback","","html-keyboard-response","373","394443","0.0-1.0-555.0-0.0","0","0","91569","","null","","","null","61","","","","","","","","","","","","","","","",""
"","ITI","","html-keyboard-response","374","395460","0.0-1.0-558.0","0","0","91569","","null","","","null","61","","","","","","","","","","","","","","","NaN",""
"","S1","","html-keyboard-response","375","395724","0.0-1.0-560.0","0","0","91569","","null","","","null","62","","","","","","","","","","","","","","","",""
"","ISI","","html-keyboard-response","376","396742","0.0-1.0-561.0","0","0","91569","","null","","","null","62","NaN","","","","","","","","","","","","","","",""
"","S2","","html-keyboard-response","377","397004","0.0-1.0-562.0","0","0","91569","","null","","","null","62","","NaN","","","","","","","","","","","","","",""
"","response","","html-keyboard-response","378","397062","0.0-1.0-563.0-0.0","0","0","91569","","56","","","68","62","","","2","62","training","adjacent","EF","5","6","Q.jpg","R.jpg","0","1","0","",""
"","feedback","","html-keyboard-response","379","398069","0.0-1.0-564.0-0.0","0","0","91569","","null","","","null","62","","","","","","","","","","","","","","","",""
"","time_out","","html-keyboard-response","380","400097","0.0-1.0-566.0-0.0","0","0","91569","","null","","","null","62","","","","","","","","","","","","","","","",""
"","ITI","","html-keyboard-response","381","401118","0.0-1.0-567.0","0","0","91569","","null","","","null","62","","","","","","","","","","","","","","","NaN",""
"","S1","","html-keyboard-response","382","401381","0.0-1.0-569.0","0","0","91569","","null","","","null","63","","","","","","","","","","","","","","","",""
"","ISI","","html-keyboard-response","383","402402","0.0-1.0-570.0","0","0","91569","","null","","","null","63","NaN","","","","","","","","","","","","","","",""
"","S2","","html-keyboard-response","384","402645","0.0-1.0-571.0","0","0","91569","","240","","","75","63","","k","2","63","training","adjacent","CB","3","2","L.jpg","O.jpg","1","0","0","",""
"","feedback","","html-keyboard-response","385","403656","0.0-1.0-573.0-0.0","0","0","91569","","null","","","null","63","","","","","","","","","","","","","","","",""
"","time_out","","html-keyboard-response","386","405666","0.0-1.0-575.0-0.0","0","0","91569","","null","","","null","63","","","","","","","","","","","","","","","",""
"","ITI","","html-keyboard-response","387","406684","0.0-1.0-576.0","0","0","91569","","null","","","null","63","","","","","","","","","","","","","","","NaN",""
"","S1","","html-keyboard-response","388","406948","0.0-1.0-578.0","0","0","91569","","null","","","null","64","","","","","","","","","","","","","","","",""
"","ISI","","html-keyboard-response","389","407986","0.0-1.0-579.0","0","0","91569","","null","","","null","64","NaN","","","","","","","","","","","","","","",""
"","S2","","html-keyboard-response","390","408253","0.0-1.0-580.0","0","0","91569","","null","","","null","64","","NaN","","","","","","","","","","","","","",""
"","response","","html-keyboard-response","391","408719","0.0-1.0-581.0-0.0","0","0","91569","","463","","","68","64","","","2","64","training","adjacent","FE","6","5","R.jpg","Q.jpg","0","0","1","",""
"","feedback","","html-keyboard-response","392","409732","0.0-1.0-582.0-0.0","0","0","91569","","null","","","null","64","","","","","","","","","","","","","","","",""
"","ITI","","html-keyboard-response","393","410750","0.0-1.0-585.0","0","0","91569","","null","","","null","64","","","","","","","","","","","","","","","NaN",""
"","S1","","html-keyboard-response","394","411017","0.0-1.0-587.0","0","0","91569","","null","","","null","65","","","","","","","","","","","","","","","",""
"","ISI","","html-keyboard-response","395","412032","0.0-1.0-588.0","0","0","91569","","null","","","null","65","NaN","","","","","","","","","","","","","","",""
"","S2","","html-keyboard-response","396","412265","0.0-1.0-589.0","0","0","91569","","231","","","75","65","","k","2","65","training","adjacent","CD","3","4","L.jpg","N.jpg","1","1","1","",""
"","feedback","","html-keyboard-response","397","413282","0.0-1.0-591.0-0.0","0","0","91569","","null","","","null","65","","","","","","","","","","","","","","","",""
"","ITI","","html-keyboard-response","398","414315","0.0-1.0-594.0","0","0","91569","","null","","","null","65","","","","","","","","","","","","","","","NaN",""
"","S1","","html-keyboard-response","399","414581","0.0-1.0-596.0","0","0","91569","","null","","","null","66","","","","","","","","","","","","","","","",""
"","ISI","","html-keyboard-response","400","415611","0.0-1.0-597.0","0","0","91569","","null","","","null","66","NaN","","","","","","","","","","","","","","",""
"","S2","","html-keyboard-response","401","415847","0.0-1.0-598.0","0","0","91569","","234","","","75","66","","k","2","66","training","adjacent","DE","4","5","N.jpg","Q.jpg","1","1","1","",""
"","feedback","","html-keyboard-response","402","416861","0.0-1.0-600.0-0.0","0","0","91569","","null","","","null","66","","","","","","","","","","","","","","","",""
"","ITI","","html-keyboard-response","403","417872","0.0-1.0-603.0","0","0","91569","","null","","","null","66","","","","","","","","","","","","","","","NaN",""
"","S1","","html-keyboard-response","404","418139","0.0-1.0-605.0","0","0","91569","","null","","","null","67","","","","","","","","","","","","","","","",""
"","ISI","","html-keyboard-response","405","419153","0.0-1.0-606.0","0","0","91569","","null","","","null","67","NaN","","","","","","","","","","","","","","",""
"","S2","","html-keyboard-response","406","419392","0.0-1.0-607.0","0","0","91569","","236","","","75","67","","k","2","67","training","adjacent","GF","7","6","M.jpg","R.jpg","1","0","0","",""
"","feedback","","html-keyboard-response","407","420399","0.0-1.0-609.0-0.0","0","0","91569","","null","","","null","67","","","","","","","","","","","","","","","",""
"","time_out","","html-keyboard-response","408","422407","0.0-1.0-611.0-0.0","0","0","91569","","null","","","null","67","","","","","","","","","","","","","","","",""
"","ITI","","html-keyboard-response","409","423438","0.0-1.0-612.0","0","0","91569","","null","","","null","67","","","","","","","","","","","","","","","NaN",""
"","S1","","html-keyboard-response","410","423704","0.0-1.0-614.0","0","0","91569","","null","","","null","68","","","","","","","","","","","","","","","",""
"","ISI","","html-keyboard-response","411","424722","0.0-1.0-615.0","0","0","91569","","null","","","null","68","NaN","","","","","","","","","","","","","","",""
"","S2","","html-keyboard-response","412","424989","0.0-1.0-616.0","0","0","91569","","null","","","null","68","","NaN","","","","","","","","","","","","","",""
"","response","","html-keyboard-response","413","425011","0.0-1.0-617.0-0.0","0","0","91569","","20","","","68","68","","","2","68","training","adjacent","FG","6","7","R.jpg","M.jpg","0","1","0","",""
"","feedback","","html-keyboard-response","414","426019","0.0-1.0-618.0-0.0","0","0","91569","","null","","","null","68","","","","","","","","","","","","","","","",""
"","time_out","","html-keyboard-response","415","428024","0.0-1.0-620.0-0.0","0","0","91569","","null","","","null","68","","","","","","","","","","","","","","","",""
"","ITI","","html-keyboard-response","416","429042","0.0-1.0-621.0","0","0","91569","","null","","","null","68","","","","","","","","","","","","","","","NaN",""
"","S1","","html-keyboard-response","417","429307","0.0-1.0-623.0","0","0","91569","","null","","","null","69","","","","","","","","","","","","","","","",""
"","ISI","","html-keyboard-response","418","430332","0.0-1.0-624.0","0","0","91569","","null","","","null","69","NaN","","","","","","","","","","","","","","",""
"","S2","","html-keyboard-response","419","430570","0.0-1.0-625.0","0","0","91569","","231","","","75","69","","k","2","69","training","adjacent","DC","4","3","N.jpg","L.jpg","1","0","0","",""
"","feedback","","html-keyboard-response","420","431587","0.0-1.0-627.0-0.0","0","0","91569","","null","","","null","69","","","","","","","","","","","","","","","",""
"","time_out","","html-keyboard-response","421","433603","0.0-1.0-629.0-0.0","0","0","91569","","null","","","null","69","","","","","","","","","","","","","","","",""
"","ITI","","html-keyboard-response","422","434607","0.0-1.0-630.0","0","0","91569","","null","","","null","69","","","","","","","","","","","","","","","NaN",""
"","S1","","html-keyboard-response","423","434873","0.0-1.0-632.0","0","0","91569","","null","","","null","70","","","","","","","","","","","","","","","",""
"","ISI","","html-keyboard-response","424","435886","0.0-1.0-633.0","0","0","91569","","null","","","null","70","NaN","","","","","","","","","","","","","","",""
"","S2","","html-keyboard-response","425","436153","0.0-1.0-634.0","0","0","91569","","null","","","null","70","","NaN","","","","","","","","","","","","","",""
"","response","","html-keyboard-response","426","436193","0.0-1.0-635.0-0.0","0","0","91569","","39","","","68","70","","","2","70","training","adjacent","EF","5","6","Q.jpg","R.jpg","0","1","0","",""
"","feedback","","html-keyboard-response","427","437203","0.0-1.0-636.0-0.0","0","0","91569","","null","","","null","70","","","","","","","","","","","","","","","",""
"","time_out","","html-keyboard-response","428","439209","0.0-1.0-638.0-0.0","0","0","91569","","null","","","null","70","","","","","","","","","","","","","","","",""
"","ITI","","html-keyboard-response","429","440225","0.0-1.0-639.0","0","0","91569","","null","","","null","70","","","","","","","","","","","","","","","NaN",""
"","S1","","html-keyboard-response","430","440490","0.0-1.0-641.0","0","0","91569","","null","","","null","71","","","","","","","","","","","","","","","",""
"","ISI","","html-keyboard-response","431","441519","0.0-1.0-642.0","0","0","91569","","null","","","null","71","NaN","","","","","","","","","","","","","","",""
"","S2","","html-keyboard-response","432","441533","0.0-1.0-643.0","0","0","91569","","12","","","75","71","","k","2","71","training","adjacent","AB","1","2","P.jpg","O.jpg","1","1","1","",""
"","feedback","","html-keyboard-response","433","442540","0.0-1.0-645.0-0.0","0","0","91569","","null","","","null","71","","","","","","","","","","","","","","","",""
"","ITI","","html-keyboard-response","434","443556","0.0-1.0-648.0","0","0","91569","","null","","","null","71","","","","","","","","","","","","","","","NaN",""
"","S1","","html-keyboard-response","435","443822","0.0-1.0-650.0","0","0","91569","","null","","","null","72","","","","","","","","","","","","","","","",""
"","ISI","","html-keyboard-response","436","444838","0.0-1.0-651.0","0","0","91569","","null","","","null","72","NaN","","","","","","","","","","","","","","",""
"","S2","","html-keyboard-response","437","445036","0.0-1.0-652.0","0","0","91569","","195","","","75","72","","k","2","72","training","adjacent","EF","5","6","Q.jpg","R.jpg","1","1","1","",""
"","feedback","","html-keyboard-response","438","446047","0.0-1.0-654.0-0.0","0","0","91569","","null","","","null","72","","","","","","","","","","","","","","","",""
"","ITI","","html-keyboard-response","439","447077","0.0-1.0-657.0","0","0","91569","","null","","","null","72","","","","","","","","","","","","","","","NaN",""
"","S1","","html-keyboard-response","440","447341","0.0-1.0-659.0","0","0","91569","","null","","","null","73","","","","","","","","","","","","","","","",""
"","ISI","","html-keyboard-response","441","448361","0.0-1.0-660.0","0","0","91569","","null","","","null","73","NaN","","","","","","","","","","","","","","",""
"","S2","","html-keyboard-response","442","448632","0.0-1.0-661.0","0","0","91569","","null","","","null","73","","NaN","","","","","","","","","","","","","",""
"","response","","html-keyboard-response","443","448678","0.0-1.0-662.0-0.0","0","0","91569","","44","","","68","73","","","2","73","training","adjacent","FE","6","5","R.jpg","Q.jpg","0","0","1","",""
"","feedback","","html-keyboard-response","444","449692","0.0-1.0-663.0-0.0","0","0","91569","","null","","","null","73","","","","","","","","","","","","","","","",""
"","ITI","","html-keyboard-response","445","450704","0.0-1.0-666.0","0","0","91569","","null","","","null","73","","","","","","","","","","","","","","","NaN",""
"","S1","","html-keyboard-response","446","450970","0.0-1.0-668.0","0","0","91569","","null","","","null","74","","","","","","","","","","","","","","","",""
"","ISI","","html-keyboard-response","447","451983","0.0-1.0-669.0","0","0","91569","","null","","","null","74","NaN","","","","","","","","","","","","","","",""
"","S2","","html-keyboard-response","448","452249","0.0-1.0-670.0","0","0","91569","","null","","","null","74","","NaN","","","","","","","","","","","","","",""
"","response","","html-keyboard-response","449","452316","0.0-1.0-671.0-0.0","0","0","91569","","64","","","75","74","","","2","74","training","adjacent","CB","3","2","L.jpg","O.jpg","1","0","0","",""
"","feedback","","html-keyboard-response","450","453333","0.0-1.0-672.0-0.0","0","0","91569","","null","","","null","74","","","","","","","","","","","","","","","",""
"","time_out","","html-keyboard-response","451","455356","0.0-1.0-674.0-0.0","0","0","91569","","null","","","null","74","","","","","","","","","","","","","","","",""
"","ITI","","html-keyboard-response","452","456375","0.0-1.0-675.0","0","0","91569","","null","","","null","74","","","","","","","","","","","","","","","NaN",""
"","S1","","html-keyboard-response","453","456640","0.0-1.0-677.0","0","0","91569","","null","","","null","75","","","","","","","","","","","","","","","",""
"","ISI","","html-keyboard-response","454","457657","0.0-1.0-678.0","0","0","91569","","null","","","null","75","NaN","","","","","","","","","","","","","","",""
"","S2","","html-keyboard-response","455","457932","0.0-1.0-679.0","0","0","91569","","273","","","68","75","","d","2","75","training","adjacent","ED","5","4","Q.jpg","N.jpg","0","0","1","",""
"","feedback","","html-keyboard-response","456","458936","0.0-1.0-681.0-0.0","0","0","91569","","null","","","null","75","","","","","","","","","","","","","","","",""
"","ITI","","html-keyboard-response","457","459943","0.0-1.0-684.0","0","0","91569","","null","","","null","75","","","","","","","","","","","","","","","NaN",""
"","S1","","html-keyboard-response","458","460197","0.0-1.0-686.0","0","0","91569","","null","","","null","76","","","","","","","","","","","","","","","",""
"","ISI","","html-keyboard-response","459","461199","0.0-1.0-687.0","0","0","91569","","null","","","null","76","NaN","","","","","","","","","","","","","","",""
"","S2","","html-keyboard-response","460","461461","0.0-1.0-688.0","0","0","91569","","259","","","75","76","","k","2","76","training","adjacent","DC","4","3","N.jpg","L.jpg","1","0","0","",""
"","feedback","","html-keyboard-response","461","462468","0.0-1.0-690.0-0.0","0","0","91569","","null","","","null","76","","","","","","","","","","","","","","","",""
"","time_out","","html-keyboard-response","462","464504","0.0-1.0-692.0-0.0","0","0","91569","","null","","","null","76","","","","","","","","","","","","","","","",""
"","ITI","","html-keyboard-response","463","465518","0.0-1.0-693.0","0","0","91569","","null","","","null","76","","","","","","","","","","","","","","","NaN",""
"","S1","","html-keyboard-response","464","465801","0.0-1.0-695.0","0","0","91569","","null","","","null","77","","","","","","","","","","","","","","","",""
"","ISI","","html-keyboard-response","465","466817","0.0-1.0-696.0","0","0","91569","","null","","","null","77","NaN","","","","","","","","","","","","","","",""
"","S2","","html-keyboard-response","466","467082","0.0-1.0-697.0","0","0","91569","","null","","","null","77","","NaN","","","","","","","","","","","","","",""
"","response","","html-keyboard-response","467","467116","0.0-1.0-698.0-0.0","0","0","91569","","32","","","68","77","","","2","77","training","adjacent","BC","2","3","O.jpg","L.jpg","0","1","0","",""
"","feedback","","html-keyboard-response","468","468134","0.0-1.0-699.0-0.0","0","0","91569","","null","","","null","77","","","","","","","","","","","","","","","",""
"","time_out","","html-keyboard-response","469","470138","0.0-1.0-701.0-0.0","0","0","91569","","null","","","null","77","","","","","","","","","","","","","","","",""
"","ITI","","html-keyboard-response","470","471142","0.0-1.0-702.0","0","0","91569","","null","","","null","77","","","","","","","","","","","","","","","NaN",""
"","S1","","html-keyboard-response","471","471407","0.0-1.0-704.0","0","0","91569","","null","","","null","78","","","","","","","","","","","","","","","",""
"","ISI","","html-keyboard-response","472","472429","0.0-1.0-705.0","0","0","91569","","null","","","null","78","NaN","","","","","","","","","","","","","","",""
"","S2","","html-keyboard-response","473","472625","0.0-1.0-706.0","0","0","91569","","194","","","75","78","","k","2","78","training","adjacent","AB","1","2","P.jpg","O.jpg","1","1","1","",""
"","feedback","","html-keyboard-response","474","473628","0.0-1.0-708.0-0.0","0","0","91569","","null","","","null","78","","","","","","","","","","","","","","","",""
"","ITI","","html-keyboard-response","475","474642","0.0-1.0-711.0","0","0","91569","","null","","","null","78","","","","","","","","","","","","","","","NaN",""
"","S1","","html-keyboard-response","476","474906","0.0-1.0-713.0","0","0","91569","","null","","","null","79","","","","","","","","","","","","","","","",""
"","ISI","","html-keyboard-response","477","475911","0.0-1.0-714.0","0","0","91569","","null","","","null","79","NaN","","","","","","","","","","","","","","",""
"","S2","","html-keyboard-response","478","476149","0.0-1.0-715.0","0","0","91569","","237","","","75","79","","k","2","79","training","adjacent","ED","5","4","Q.jpg","N.jpg","1","0","0","",""
"","feedback","","html-keyboard-response","479","477161","0.0-1.0-717.0-0.0","0","0","91569","","null","","","null","79","","","","","","","","","","","","","","","",""
"","time_out","","html-keyboard-response","480","479174","0.0-1.0-719.0-0.0","0","0","91569","","null","","","null","79","","","","","","","","","","","","","","","",""
"","ITI","","html-keyboard-response","481","480192","0.0-1.0-720.0","0","0","91569","","null","","","null","79","","","","","","","","","","","","","","","NaN",""
"","S1","","html-keyboard-response","482","480461","0.0-1.0-722.0","0","0","91569","","null","","","null","80","","","","","","","","","","","","","","","",""
"","ISI","","html-keyboard-response","483","481485","0.0-1.0-723.0","0","0","91569","","null","","","null","80","NaN","","","","","","","","","","","","","","",""
"","S2","","html-keyboard-response","484","481730","0.0-1.0-724.0","0","0","91569","","244","","","68","80","","d","2","80","training","adjacent","CD","3","4","L.jpg","N.jpg","0","1","0","",""
"","feedback","","html-keyboard-response","485","482737","0.0-1.0-726.0-0.0","0","0","91569","","null","","","null","80","","","","","","","","","","","","","","","",""
"","time_out","","html-keyboard-response","486","484750","0.0-1.0-728.0-0.0","0","0","91569","","null","","","null","80","","","","","","","","","","","","","","","",""
"","ITI","","html-keyboard-response","487","485762","0.0-1.0-729.0","0","0","91569","","null","","","null","80","","","","","","","","","","","","","","","NaN",""
"","S1","","html-keyboard-response","488","486027","0.0-1.0-731.0","0","0","91569","","null","","","null","81","","","","","","","","","","","","","","","",""
"","ISI","","html-keyboard-response","489","487064","0.0-1.0-732.0","0","0","91569","","null","","","null","81","NaN","","","","","","","","","","","","","","",""
"","S2","","html-keyboard-response","490","487329","0.0-1.0-733.0","0","0","91569","","null","","","null","81","","NaN","","","","","","","","","","","","","",""
"","response","","html-keyboard-response","491","487339","0.0-1.0-734.0-0.0","0","0","91569","","8","","","68","81","","","2","81","training","adjacent","FG","6","7","R.jpg","M.jpg","0","1","0","",""
"","feedback","","html-keyboard-response","492","488349","0.0-1.0-735.0-0.0","0","0","91569","","null","","","null","81","","","","","","","","","","","","","","","",""
"","time_out","","html-keyboard-response","493","490356","0.0-1.0-737.0-0.0","0","0","91569","","null","","","null","81","","","","","","","","","","","","","","","",""
"","ITI","","html-keyboard-response","494","491374","0.0-1.0-738.0","0","0","91569","","null","","","null","81","","","","","","","","","","","","","","","NaN",""
"","S1","","html-keyboard-response","495","491627","0.0-1.0-740.0","0","0","91569","","null","","","null","82","","","","","","","","","","","","","","","",""
"","ISI","","html-keyboard-response","496","492647","0.0-1.0-741.0","0","0","91569","","null","","","null","82","NaN","","","","","","","","","","","","","","",""
"","S2","","html-keyboard-response","497","492887","0.0-1.0-742.0","0","0","91569","","239","","","75","82","","k","2","82","training","adjacent","CB","3","2","L.jpg","O.jpg","1","0","0","",""
"","feedback","","html-keyboard-response","498","493895","0.0-1.0-744.0-0.0","0","0","91569","","null","","","null","82","","","","","","","","","","","","","","","",""
"","time_out","","html-keyboard-response","499","495899","0.0-1.0-746.0-0.0","0","0","91569","","null","","","null","82","","","","","","","","","","","","","","","",""
"","ITI","","html-keyboard-response","500","496909","0.0-1.0-747.0","0","0","91569","","null","","","null","82","","","","","","","","","","","","","","","NaN",""
"","S1","","html-keyboard-response","501","497175","0.0-1.0-749.0","0","0","91569","","null","","","null","83","","","","","","","","","","","","","","","",""
"","ISI","","html-keyboard-response","502","498190","0.0-1.0-750.0","0","0","91569","","null","","","null","83","NaN","","","","","","","","","","","","","","",""
"","S2","","html-keyboard-response","503","498404","0.0-1.0-751.0","0","0","91569","","211","","","75","83","","k","2","83","training","adjacent","DC","4","3","N.jpg","L.jpg","1","0","0","",""
"","feedback","","html-keyboard-response","504","499411","0.0-1.0-753.0-0.0","0","0","91569","","null","","","null","83","","","","","","","","","","","","","","","",""
"","time_out","","html-keyboard-response","505","501414","0.0-1.0-755.0-0.0","0","0","91569","","null","","","null","83","","","","","","","","","","","","","","","",""
"","ITI","","html-keyboard-response","506","502422","0.0-1.0-756.0","0","0","91569","","null","","","null","83","","","","","","","","","","","","","","","NaN",""
"","S1","","html-keyboard-response","507","502675","0.0-1.0-758.0","0","0","91569","","null","","","null","84","","","","","","","","","","","","","","","",""
"","ISI","","html-keyboard-response","508","503707","0.0-1.0-759.0","0","0","91569","","null","","","null","84","NaN","","","","","","","","","","","","","","",""
"","S2","","html-keyboard-response","509","503988","0.0-1.0-760.0","0","0","91569","","279","","","68","84","","d","2","84","training","adjacent","FG","6","7","R.jpg","M.jpg","0","1","0","",""
"","feedback","","html-keyboard-response","510","505004","0.0-1.0-762.0-0.0","0","0","91569","","null","","","null","84","","","","","","","","","","","","","","","",""
"","time_out","","html-keyboard-response","511","507019","0.0-1.0-764.0-0.0","0","0","91569","","null","","","null","84","","","","","","","","","","","","","","","",""
"","ITI","","html-keyboard-response","512","508032","0.0-1.0-765.0","0","0","91569","","null","","","null","84","","","","","","","","","","","","","","","NaN",""
"","S1","","html-keyboard-response","513","508298","0.0-1.0-767.0","0","0","91569","","null","","","null","85","","","","","","","","","","","","","","","",""
"","ISI","","html-keyboard-response","514","509330","0.0-1.0-768.0","0","0","91569","","null","","","null","85","NaN","","","","","","","","","","","","","","",""
"","S2","","html-keyboard-response","515","509561","0.0-1.0-769.0","0","0","91569","","230","","","68","85","","d","2","85","training","adjacent","DE","4","5","N.jpg","Q.jpg","0","1","0","",""
"","feedback","","html-keyboard-response","516","510580","0.0-1.0-771.0-0.0","0","0","91569","","null","","","null","85","","","","","","","","","","","","","","","",""
"","time_out","","html-keyboard-response","517","512597","0.0-1.0-773.0-0.0","0","0","91569","","null","","","null","85","","","","","","","","","","","","","","","",""
"","ITI","","html-keyboard-response","518","513612","0.0-1.0-774.0","0","0","91569","","null","","","null","85","","","","","","","","","","","","","","","NaN",""
"","S1","","html-keyboard-response","519","513881","0.0-1.0-776.0","0","0","91569","","null","","","null","86","","","","","","","","","","","","","","","",""
"","ISI","","html-keyboard-response","520","514899","0.0-1.0-777.0","0","0","91569","","null","","","null","86","NaN","","","","","","","","","","","","","","",""
"","S2","","html-keyboard-response","521","515126","0.0-1.0-778.0","0","0","91569","","224","","","75","86","","k","2","86","training","adjacent","FE","6","5","R.jpg","Q.jpg","1","0","0","",""
"","feedback","","html-keyboard-response","522","516138","0.0-1.0-780.0-0.0","0","0","91569","","null","","","null","86","","","","","","","","","","","","","","","",""
"","time_out","","html-keyboard-response","523","518156","0.0-1.0-782.0-0.0","0","0","91569","","null","","","null","86","","","","","","","","","","","","","","","",""
"","ITI","","html-keyboard-response","524","519169","0.0-1.0-783.0","0","0","91569","","null","","","null","86","","","","","","","","","","","","","","","NaN",""
"","S1","","html-keyboard-response","525","519437","0.0-1.0-785.0","0","0","91569","","null","","","null","87","","","","","","","","","","","","","","","",""
"","ISI","","html-keyboard-response","526","520459","0.0-1.0-786.0","0","0","91569","","null","","","null","87","NaN","","","","","","","","","","","","","","",""
"","S2","","html-keyboard-response","527","520662","0.0-1.0-787.0","0","0","91569","","200","","","75","87","","k","2","87","training","adjacent","EF","5","6","Q.jpg","R.jpg","1","1","1","",""
"","feedback","","html-keyboard-response","528","521680","0.0-1.0-789.0-0.0","0","0","91569","","null","","","null","87","","","","","","","","","","","","","","","",""
"","ITI","","html-keyboard-response","529","522685","0.0-1.0-792.0","0","0","91569","","null","","","null","87","","","","","","","","","","","","","","","NaN",""
"","S1","","html-keyboard-response","530","522952","0.0-1.0-794.0","0","0","91569","","null","","","null","88","","","","","","","","","","","","","","","",""
"","ISI","","html-keyboard-response","531","523968","0.0-1.0-795.0","0","0","91569","","null","","","null","88","NaN","","","","","","","","","","","","","","",""
"","S2","","html-keyboard-response","532","524187","0.0-1.0-796.0","0","0","91569","","217","","","75","88","","k","2","88","training","adjacent","DC","4","3","N.jpg","L.jpg","1","0","0","",""
"","feedback","","html-keyboard-response","533","525201","0.0-1.0-798.0-0.0","0","0","91569","","null","","","null","88","","","","","","","","","","","","","","","",""
"","time_out","","html-keyboard-response","534","527227","0.0-1.0-800.0-0.0","0","0","91569","","null","","","null","88","","","","","","","","","","","","","","","",""
"","ITI","","html-keyboard-response","535","528256","0.0-1.0-801.0","0","0","91569","","null","","","null","88","","","","","","","","","","","","","","","NaN",""
"","S1","","html-keyboard-response","536","528521","0.0-1.0-803.0","0","0","91569","","null","","","null","89","","","","","","","","","","","","","","","",""
"","ISI","","html-keyboard-response","537","529552","0.0-1.0-804.0","0","0","91569","","null","","","null","89","NaN","","","","","","","","","","","","","","",""
"","S2","","html-keyboard-response","538","529803","0.0-1.0-805.0","0","0","91569","","248","","","68","89","","d","2","89","training","adjacent","CD","3","4","L.jpg","N.jpg","0","1","0","",""
"","feedback","","html-keyboard-response","539","530814","0.0-1.0-807.0-0.0","0","0","91569","","null","","","null","89","","","","","","","","","","","","","","","",""
"","time_out","","html-keyboard-response","540","532832","0.0-1.0-809.0-0.0","0","0","91569","","null","","","null","89","","","","","","","","","","","","","","","",""
"","ITI","","html-keyboard-response","541","533844","0.0-1.0-810.0","0","0","91569","","null","","","null","89","","","","","","","","","","","","","","","NaN",""
"","S1","","html-keyboard-response","542","534110","0.0-1.0-812.0","0","0","91569","","null","","","null","90","","","","","","","","","","","","","","","",""
"","ISI","","html-keyboard-response","543","535119","0.0-1.0-813.0","0","0","91569","","1007","","","75","90","k","","","","","","","","","","","","","","",""
"","S2","","html-keyboard-response","544","535372","0.0-1.0-814.0","0","0","91569","","null","","","null","90","","NaN","","","","","","","","","","","","","",""
"","response","","html-keyboard-response","545","535486","0.0-1.0-815.0-0.0","0","0","91569","","111","","","75","90","","","2","90","training","adjacent","BA","2","1","O.jpg","P.jpg","1","0","0","",""
"","feedback","","html-keyboard-response","546","536496","0.0-1.0-816.0-0.0","0","0","91569","","null","","","null","90","","","","","","","","","","","","","","","",""
"","time_out","","html-keyboard-response","547","538505","0.0-1.0-818.0-0.0","0","0","91569","","null","","","null","90","","","","","","","","","","","","","","","",""
"","ITI","","html-keyboard-response","548","539521","0.0-1.0-819.0","0","0","91569","","null","","","null","90","","","","","","","","","","","","","","","NaN",""
"","S1","","html-keyboard-response","549","539787","0.0-1.0-821.0","0","0","91569","","null","","","null","91","","","","","","","","","","","","","","","",""
"","ISI","","html-keyboard-response","550","540825","0.0-1.0-822.0","0","0","91569","","null","","","null","91","NaN","","","","","","","","","","","","","","",""
"","S2","","html-keyboard-response","551","541088","0.0-1.0-823.0","0","0","91569","","null","","","null","91","","NaN","","","","","","","","","","","","","",""
"","response","","html-keyboard-response","552","541156","0.0-1.0-824.0-0.0","0","0","91569","","65","","","68","91","","","2","91","training","adjacent","BA","2","1","O.jpg","P.jpg","0","0","1","",""
"","feedback","","html-keyboard-response","553","542169","0.0-1.0-825.0-0.0","0","0","91569","","null","","","null","91","","","","","","","","","","","","","","","",""
"","ITI","","html-keyboard-response","554","543183","0.0-1.0-828.0","0","0","91569","","null","","","null","91","","","","","","","","","","","","","","","NaN",""
"","S1","","html-keyboard-response","555","543449","0.0-1.0-830.0","0","0","91569","","null","","","null","92","","","","","","","","","","","","","","","",""
"","ISI","","html-keyboard-response","556","544466","0.0-1.0-831.0","0","0","91569","","null","","","null","92","NaN","","","","","","","","","","","","","","",""
"","S2","","html-keyboard-response","557","544734","0.0-1.0-832.0","0","0","91569","","null","","","null","92","","NaN","","","","","","","","","","","","","",""
"","response","","html-keyboard-response","558","544981","0.0-1.0-833.0-0.0","0","0","91569","","246","","","68","92","","","2","92","training","adjacent","DE","4","5","N.jpg","Q.jpg","0","1","0","",""
"","feedback","","html-keyboard-response","559","545998","0.0-1.0-834.0-0.0","0","0","91569","","null","","","null","92","","","","","","","","","","","","","","","",""
"","time_out","","html-keyboard-response","560","548027","0.0-1.0-836.0-0.0","0","0","91569","","null","","","null","92","","","","","","","","","","","","","","","",""
"","ITI","","html-keyboard-response","561","549043","0.0-1.0-837.0","0","0","91569","","null","","","null","92","","","","","","","","","","","","","","","NaN",""
"","S1","","html-keyboard-response","562","549307","0.0-1.0-839.0","0","0","91569","","null","","","null","93","","","","","","","","","","","","","","","",""
"","ISI","","html-keyboard-response","563","550342","0.0-1.0-840.0","0","0","91569","","null","","","null","93","NaN","","","","","","","","","","","","","","",""
"","S2","","html-keyboard-response","564","550556","0.0-1.0-841.0","0","0","91569","","213","","","75","93","","k","2","93","training","adjacent","ED","5","4","Q.jpg","N.jpg","1","0","0","",""
"","feedback","","html-keyboard-response","565","551566","0.0-1.0-843.0-0.0","0","0","91569","","null","","","null","93","","","","","","","","","","","","","","","",""
"","time_out","","html-keyboard-response","566","553583","0.0-1.0-845.0-0.0","0","0","91569","","null","","","null","93","","","","","","","","","","","","","","","",""
"","ITI","","html-keyboard-response","567","554597","0.0-1.0-846.0","0","0","91569","","null","","","null","93","","","","","","","","","","","","","","","NaN",""
"","S1","","html-keyboard-response","568","554863","0.0-1.0-848.0","0","0","91569","","null","","","null","94","","","","","","","","","","","","","","","",""
"","ISI","","html-keyboard-response","569","555881","0.0-1.0-849.0","0","0","91569","","null","","","null","94","NaN","","","","","","","","","","","","","","",""
"","S2","","html-keyboard-response","570","556149","0.0-1.0-850.0","0","0","91569","","null","","","null","94","","NaN","","","","","","","","","","","","","",""
"","response","","html-keyboard-response","571","556348","0.0-1.0-851.0-0.0","0","0","91569","","197","","","68","94","","","2","94","training","adjacent","BA","2","1","O.jpg","P.jpg","0","0","1","",""
"","feedback","","html-keyboard-response","572","557357","0.0-1.0-852.0-0.0","0","0","91569","","null","","","null","94","","","","","","","","","","","","","","","",""
"","ITI","","html-keyboard-response","573","558362","0.0-1.0-855.0","0","0","91569","","null","","","null","94","","","","","","","","","","","","","","","NaN",""
"","S1","","html-keyboard-response","574","558628","0.0-1.0-857.0","0","0","91569","","null","","","null","95","","","","","","","","","","","","","","","",""
"","ISI","","html-keyboard-response","575","559645","0.0-1.0-858.0","0","0","91569","","null","","","null","95","NaN","","","","","","","","","","","","","","",""
"","S2","","html-keyboard-response","576","559898","0.0-1.0-859.0","0","0","91569","","null","","","null","95","","NaN","","","","","","","","","","","","","",""
"","response","","html-keyboard-response","577","559971","0.0-1.0-860.0-0.0","0","0","91569","","71","","","68","95","","","2","95","training","adjacent","BC","2","3","O.jpg","L.jpg","0","1","0","",""
"","feedback","","html-keyboard-response","578","560984","0.0-1.0-861.0-0.0","0","0","91569","","null","","","null","95","","","","","","","","","","","","","","","",""
"","time_out","","html-keyboard-response","579","563019","0.0-1.0-863.0-0.0","0","0","91569","","null","","","null","95","","","","","","","","","","","","","","","",""
"","ITI","","html-keyboard-response","580","564052","0.0-1.0-864.0","0","0","91569","","null","","","null","95","","","","","","","","","","","","","","","NaN",""
"","block_over","","html-keyboard-response","581","579617","0.0-1.0-865.0-0.0","0","0","91569","","15562","","","32","95","","","","","","","","","","","","","","","",""
"","S1","","html-keyboard-response","582","579881","0.0-1.0-866.0","0","0","91569","","null","","","null","96","","","","","","","","","","","","","","","",""
"","ISI","","html-keyboard-response","583","580884","0.0-1.0-867.0","0","0","91569","","null","","","null","96","NaN","","","","","","","","","","","","","","",""
