"success","ttype","start_time","trial_type","trial_index","time_elapsed","internal_node_id","warning","missed_checkup","PID","view_history","rt","responses","repeat_instructions","key_press","index","keypress_isi","keypress_S2","block","trial_num","phase","group_type","pair_type","S1_stim","S2_stim","S1_img","S2_img","S1_chosen","S1_higher","accuracy","keypress_iti","total_bonus_tally"
"true","full_screen","d08022022hr0017","fullscreen","0","6374","0.0-0.0","0","0","96907","","","","","","","","","","","","","","","","","","","","","",""
"","instructions","","instructions","1","45145","0.0-1.0-0.0-0.0","0","0","96907","[{""page_index"":0,""viewing_time"":5171},{""page_index"":1,""viewing_time"":8524},{""page_index"":2,""viewing_time"":17382},{""page_index"":1,""viewing_time"":2720},{""page_index"":2,""viewing_time"":2838},{""page_index"":3,""viewing_time"":2130}]","38767","","","","","","","","","","","","","","","","","","","",""
"","comprehension_check","","survey-multi-choice","2","64036","0.0-1.0-0.0-1.0","0","0","96907","","18880","{""Q0"":""True"",""Q1"":""D"",""Q2"":""When you see the prompt 'MAKE A CHOICE' after the second image was presented"",""Q3"":""Green mark"",""Q4"":""either D or K""}","1","","","","","","","","","","","","","","","","","",""
"","missed_instruction_checkup","","html-keyboard-response","3","65921","0.0-1.0-0.0-2.0-0.0","0","1","96907","","1881","","","32","","","","","","","","","","","","","","","","",""
"","instructions","","instructions","4","338511","0.0-1.0-0.1-0.1","0","0","96907","[{""page_index"":0,""viewing_time"":2168},{""page_index"":1,""viewing_time"":10171},{""page_index"":2,""viewing_time"":1558},{""page_index"":1,""viewing_time"":248849},{""page_index"":2,""viewing_time"":8936},{""page_index"":3,""viewing_time"":906}]","272588","","","","","","","","","","","","","","","","","","","",""
"","comprehension_check","","survey-multi-choice","5","352160","0.0-1.0-0.1-1.1","0","0","96907","","13641","{""Q0"":""True"",""Q1"":""K"",""Q2"":""When you see the prompt 'MAKE A CHOICE' after the second image was presented"",""Q3"":""Green mark"",""Q4"":""either D or K""}","0","","","","","","","","","","","","","","","","","",""
"","start_exp","","html-keyboard-response","6","355071","0.0-1.0-1.0","0","0","96907","","2908","","","32","","","","","","","","","","","","","","","","",""
"","S1","","html-keyboard-response","7","355334","0.0-1.0-2.0","0","0","96907","","null","","","null","0","","","","","","","","","","","","","","","",""
"","ISI","","html-keyboard-response","8","357337","0.0-1.0-3.0","0","0","96907","","357","","","75","0","k","","","","","","","","","","","","","","",""
"","S2","","html-keyboard-response","9","357591","0.0-1.0-4.0","0","0","96907","","null","","","null","0","","NaN","","","","","","","","","","","","","",""
"","response","","html-keyboard-response","10","358289","0.0-1.0-5.0","0","0","96907","","696","","","75","0","","","1","0","training","adjacent","CB","3","2","N.jpg","M.jpg","1","0","0","",""
"","feedback","","html-keyboard-response","11","359292","0.0-1.0-6.0-0.0","0","0","96907","","null","","","null","0","","","","","","","","","","","","","","","",""
"","time_out","","html-keyboard-response","12","361297","0.0-1.0-8.0-0.0","0","0","96907","","null","","","null","0","","","","","","","","","","","","","","","",""
"","ITI","","html-keyboard-response","13","362302","0.0-1.0-9.0","0","0","96907","","null","","","null","0","","","","","","","","","","","","","","","NaN",""
"","S1","","html-keyboard-response","14","362555","0.0-1.0-11.0","0","0","96907","","null","","","null","1","","","","","","","","","","","","","","","",""
"","ISI","","html-keyboard-response","15","364557","0.0-1.0-12.0","0","0","96907","","null","","","null","1","NaN","","","","","","","","","","","","","","",""
"","S2","","html-keyboard-response","16","364809","0.0-1.0-13.0","0","0","96907","","null","","","null","1","","NaN","","","","","","","","","","","","","",""
"","response","","html-keyboard-response","17","365521","0.0-1.0-14.0","0","0","96907","","709","","","68","1","","","1","1","training","adjacent","DC","4","3","L.jpg","N.jpg","0","0","1","",""
"","feedback","","html-keyboard-response","18","366524","0.0-1.0-15.0-0.0","0","0","96907","","null","","","null","1","","","","","","","","","","","","","","","",""
"","ITI","","html-keyboard-response","19","367527","0.0-1.0-18.0","0","0","96907","","null","","","null","1","","","","","","","","","","","","","","","NaN",""
"","S1","","html-keyboard-response","20","367780","0.0-1.0-20.0","0","0","96907","","null","","","null","2","","","","","","","","","","","","","","","",""
"","ISI","","html-keyboard-response","21","369783","0.0-1.0-21.0","0","0","96907","","null","","","null","2","NaN","","","","","","","","","","","","","","",""
"","S2","","html-keyboard-response","22","370035","0.0-1.0-22.0","0","0","96907","","null","","","null","2","","NaN","","","","","","","","","","","","","",""
"","response","","html-keyboard-response","23","370814","0.0-1.0-23.0","0","0","96907","","776","","","68","2","","","1","2","training","adjacent","FE","6","5","P.jpg","R.jpg","0","0","1","",""
"","feedback","","html-keyboard-response","24","371818","0.0-1.0-24.0-0.0","0","0","96907","","null","","","null","2","","","","","","","","","","","","","","","",""
"","ITI","","html-keyboard-response","25","372821","0.0-1.0-27.0","0","0","96907","","null","","","null","2","","","","","","","","","","","","","","","NaN",""
"","S1","","html-keyboard-response","26","373074","0.0-1.0-29.0","0","0","96907","","null","","","null","3","","","","","","","","","","","","","","","",""
"","ISI","","html-keyboard-response","27","375077","0.0-1.0-30.0","0","0","96907","","null","","","null","3","NaN","","","","","","","","","","","","","","",""
"","S2","","html-keyboard-response","28","375330","0.0-1.0-31.0","0","0","96907","","null","","","null","3","","NaN","","","","","","","","","","","","","",""
"","response","","html-keyboard-response","29","375868","0.0-1.0-32.0","0","0","96907","","536","","","68","3","","","1","3","training","adjacent","EF","5","6","R.jpg","P.jpg","0","1","0","",""
"","feedback","","html-keyboard-response","30","376872","0.0-1.0-33.0-0.0","0","0","96907","","null","","","null","3","","","","","","","","","","","","","","","",""
"","time_out","","html-keyboard-response","31","378875","0.0-1.0-35.0-0.0","0","0","96907","","null","","","null","3","","","","","","","","","","","","","","","",""
"","ITI","","html-keyboard-response","32","379879","0.0-1.0-36.0","0","0","96907","","null","","","null","3","","","","","","","","","","","","","","","NaN",""
"","S1","","html-keyboard-response","33","380132","0.0-1.0-38.0","0","0","96907","","null","","","null","4","","","","","","","","","","","","","","","",""
"","ISI","","html-keyboard-response","34","382135","0.0-1.0-39.0","0","0","96907","","null","","","null","4","NaN","","","","","","","","","","","","","","",""
"","S2","","html-keyboard-response","35","382388","0.0-1.0-40.0","0","0","96907","","null","","","null","4","","NaN","","","","","","","","","","","","","",""
"","response","","html-keyboard-response","36","382841","0.0-1.0-41.0","0","0","96907","","452","","","68","4","","","1","4","training","adjacent","AB","1","2","Q.jpg","M.jpg","0","1","0","",""
"","feedback","","html-keyboard-response","37","383844","0.0-1.0-42.0-0.0","0","0","96907","","null","","","null","4","","","","","","","","","","","","","","","",""
"","time_out","","html-keyboard-response","38","385847","0.0-1.0-44.0-0.0","0","0","96907","","null","","","null","4","","","","","","","","","","","","","","","",""
"","ITI","","html-keyboard-response","39","386850","0.0-1.0-45.0","0","0","96907","","null","","","null","4","","","","","","","","","","","","","","","NaN",""
"","S1","","html-keyboard-response","40","387103","0.0-1.0-47.0","0","0","96907","","null","","","null","5","","","","","","","","","","","","","","","",""
"","ISI","","html-keyboard-response","41","389106","0.0-1.0-48.0","0","0","96907","","null","","","null","5","NaN","","","","","","","","","","","","","","",""
"","S2","","html-keyboard-response","42","389359","0.0-1.0-49.0","0","0","96907","","null","","","null","5","","NaN","","","","","","","","","","","","","",""
"","response","","html-keyboard-response","43","389746","0.0-1.0-50.0","0","0","96907","","385","","","75","5","","","1","5","training","adjacent","CB","3","2","N.jpg","M.jpg","1","0","0","",""
"","feedback","","html-keyboard-response","44","390750","0.0-1.0-51.0-0.0","0","0","96907","","null","","","null","5","","","","","","","","","","","","","","","",""
"","time_out","","html-keyboard-response","45","392753","0.0-1.0-53.0-0.0","0","0","96907","","null","","","null","5","","","","","","","","","","","","","","","",""
"","ITI","","html-keyboard-response","46","393756","0.0-1.0-54.0","0","0","96907","","null","","","null","5","","","","","","","","","","","","","","","NaN",""
"","S1","","html-keyboard-response","47","394011","0.0-1.0-56.0","0","0","96907","","null","","","null","6","","","","","","","","","","","","","","","",""
"","ISI","","html-keyboard-response","48","396014","0.0-1.0-57.0","0","0","96907","","null","","","null","6","NaN","","","","","","","","","","","","","","",""
"","S2","","html-keyboard-response","49","396268","0.0-1.0-58.0","0","0","96907","","null","","","null","6","","NaN","","","","","","","","","","","","","",""
"","response","","html-keyboard-response","50","396924","0.0-1.0-59.0","0","0","96907","","654","","","68","6","","","1","6","training","adjacent","DC","4","3","L.jpg","N.jpg","0","0","1","",""
"","feedback","","html-keyboard-response","51","397926","0.0-1.0-60.0-0.0","0","0","96907","","null","","","null","6","","","","","","","","","","","","","","","",""
"","ITI","","html-keyboard-response","52","398928","0.0-1.0-63.0","0","0","96907","","null","","","null","6","","","","","","","","","","","","","","","NaN",""
"","S1","","html-keyboard-response","53","399182","0.0-1.0-65.0","0","0","96907","","null","","","null","7","","","","","","","","","","","","","","","",""
"","ISI","","html-keyboard-response","54","401185","0.0-1.0-66.0","0","0","96907","","null","","","null","7","NaN","","","","","","","","","","","","","","",""
"","S2","","html-keyboard-response","55","401439","0.0-1.0-67.0","0","0","96907","","null","","","null","7","","NaN","","","","","","","","","","","","","",""
"","response","","html-keyboard-response","56","402094","0.0-1.0-68.0","0","0","96907","","654","","","68","7","","","1","7","training","adjacent","CD","3","4","N.jpg","L.jpg","0","1","0","",""
"","feedback","","html-keyboard-response","57","403096","0.0-1.0-69.0-0.0","0","0","96907","","null","","","null","7","","","","","","","","","","","","","","","",""
"","time_out","","html-keyboard-response","58","405099","0.0-1.0-71.0-0.0","0","0","96907","","null","","","null","7","","","","","","","","","","","","","","","",""
"","ITI","","html-keyboard-response","59","406103","0.0-1.0-72.0","0","0","96907","","null","","","null","7","","","","","","","","","","","","","","","NaN",""
"","S1","","html-keyboard-response","60","406355","0.0-1.0-74.0","0","0","96907","","null","","","null","8","","","","","","","","","","","","","","","",""
"","ISI","","html-keyboard-response","61","408357","0.0-1.0-75.0","0","0","96907","","null","","","null","8","NaN","","","","","","","","","","","","","","",""
"","S2","","html-keyboard-response","62","408610","0.0-1.0-76.0","0","0","96907","","null","","","null","8","","NaN","","","","","","","","","","","","","",""
"","response","","html-keyboard-response","63","409162","0.0-1.0-77.0","0","0","96907","","551","","","68","8","","","1","8","training","adjacent","DE","4","5","L.jpg","R.jpg","0","1","0","",""
"","feedback","","html-keyboard-response","64","410164","0.0-1.0-78.0-0.0","0","0","96907","","null","","","null","8","","","","","","","","","","","","","","","",""
"","time_out","","html-keyboard-response","65","412167","0.0-1.0-80.0-0.0","0","0","96907","","null","","","null","8","","","","","","","","","","","","","","","",""
"","ITI","","html-keyboard-response","66","413170","0.0-1.0-81.0","0","0","96907","","null","","","null","8","","","","","","","","","","","","","","","NaN",""
"","S1","","html-keyboard-response","67","413423","0.0-1.0-83.0","0","0","96907","","null","","","null","9","","","","","","","","","","","","","","","",""
"","ISI","","html-keyboard-response","68","415427","0.0-1.0-84.0","0","0","96907","","null","","","null","9","NaN","","","","","","","","","","","","","","",""
"","S2","","html-keyboard-response","69","415679","0.0-1.0-85.0","0","0","96907","","null","","","null","9","","NaN","","","","","","","","","","","","","",""
"","response","","html-keyboard-response","70","416200","0.0-1.0-86.0","0","0","96907","","519","","","68","9","","","1","9","training","adjacent","GF","7","6","O.jpg","P.jpg","0","0","1","",""
"","feedback","","html-keyboard-response","71","417202","0.0-1.0-87.0-0.0","0","0","96907","","null","","","null","9","","","","","","","","","","","","","","","",""
"","ITI","","html-keyboard-response","72","418205","0.0-1.0-90.0","0","0","96907","","null","","","null","9","","","","","","","","","","","","","","","NaN",""
"","S1","","html-keyboard-response","73","418457","0.0-1.0-92.0","0","0","96907","","null","","","null","10","","","","","","","","","","","","","","","",""
"","ISI","","html-keyboard-response","74","420459","0.0-1.0-93.0","0","0","96907","","null","","","null","10","NaN","","","","","","","","","","","","","","",""
"","S2","","html-keyboard-response","75","420714","0.0-1.0-94.0","0","0","96907","","null","","","null","10","","NaN","","","","","","","","","","","","","",""
"","response","","html-keyboard-response","76","421237","0.0-1.0-95.0","0","0","96907","","520","","","68","10","","","1","10","training","adjacent","AB","1","2","Q.jpg","M.jpg","0","1","0","",""
"","feedback","","html-keyboard-response","77","422242","0.0-1.0-96.0-0.0","0","0","96907","","null","","","null","10","","","","","","","","","","","","","","","",""
"","time_out","","html-keyboard-response","78","424245","0.0-1.0-98.0-0.0","0","0","96907","","null","","","null","10","","","","","","","","","","","","","","","",""
"","ITI","","html-keyboard-response","79","425260","0.0-1.0-99.0","0","0","96907","","null","","","null","10","","","","","","","","","","","","","","","NaN",""
"","S1","","html-keyboard-response","80","425513","0.0-1.0-101.0","0","0","96907","","null","","","null","11","","","","","","","","","","","","","","","",""
"","ISI","","html-keyboard-response","81","427517","0.0-1.0-102.0","0","0","96907","","null","","","null","11","NaN","","","","","","","","","","","","","","",""
"","S2","","html-keyboard-response","82","427770","0.0-1.0-103.0","0","0","96907","","null","","","null","11","","NaN","","","","","","","","","","","","","",""
"","response","","html-keyboard-response","83","428255","0.0-1.0-104.0","0","0","96907","","483","","","75","11","","","1","11","training","adjacent","FE","6","5","P.jpg","R.jpg","1","0","0","",""
"","feedback","","html-keyboard-response","84","429258","0.0-1.0-105.0-0.0","0","0","96907","","null","","","null","11","","","","","","","","","","","","","","","",""
"","time_out","","html-keyboard-response","85","431260","0.0-1.0-107.0-0.0","0","0","96907","","null","","","null","11","","","","","","","","","","","","","","","",""
"","ITI","","html-keyboard-response","86","432262","0.0-1.0-108.0","0","0","96907","","null","","","null","11","","","","","","","","","","","","","","","NaN",""
"","S1","","html-keyboard-response","87","432516","0.0-1.0-110.0","0","0","96907","","null","","","null","12","","","","","","","","","","","","","","","",""
"","ISI","","html-keyboard-response","88","434518","0.0-1.0-111.0","0","0","96907","","null","","","null","12","NaN","","","","","","","","","","","","","","",""
"","S2","","html-keyboard-response","89","434772","0.0-1.0-112.0","0","0","96907","","null","","","null","12","","NaN","","","","","","","","","","","","","",""
"","response","","html-keyboard-response","90","435442","0.0-1.0-113.0","0","0","96907","","667","","","75","12","","","1","12","training","adjacent","ED","5","4","R.jpg","L.jpg","1","0","0","",""
"","feedback","","html-keyboard-response","91","436444","0.0-1.0-114.0-0.0","0","0","96907","","null","","","null","12","","","","","","","","","","","","","","","",""
"","time_out","","html-keyboard-response","92","438446","0.0-1.0-116.0-0.0","0","0","96907","","null","","","null","12","","","","","","","","","","","","","","","",""
"","ITI","","html-keyboard-response","93","439449","0.0-1.0-117.0","0","0","96907","","null","","","null","12","","","","","","","","","","","","","","","NaN",""
"","S1","","html-keyboard-response","94","439701","0.0-1.0-119.0","0","0","96907","","null","","","null","13","","","","","","","","","","","","","","","",""
"","ISI","","html-keyboard-response","95","441704","0.0-1.0-120.0","0","0","96907","","null","","","null","13","NaN","","","","","","","","","","","","","","",""
"","S2","","html-keyboard-response","96","441958","0.0-1.0-121.0","0","0","96907","","null","","","null","13","","NaN","","","","","","","","","","","","","",""
"","response","","html-keyboard-response","97","442579","0.0-1.0-122.0","0","0","96907","","619","","","68","13","","","1","13","training","adjacent","ED","5","4","R.jpg","L.jpg","0","0","1","",""
"","feedback","","html-keyboard-response","98","443583","0.0-1.0-123.0-0.0","0","0","96907","","null","","","null","13","","","","","","","","","","","","","","","",""
"","ITI","","html-keyboard-response","99","444586","0.0-1.0-126.0","0","0","96907","","null","","","null","13","","","","","","","","","","","","","","","NaN",""
"","S1","","html-keyboard-response","100","444838","0.0-1.0-128.0","0","0","96907","","null","","","null","14","","","","","","","","","","","","","","","",""
"","ISI","","html-keyboard-response","101","446840","0.0-1.0-129.0","0","0","96907","","null","","","null","14","NaN","","","","","","","","","","","","","","",""
"","S2","","html-keyboard-response","102","447093","0.0-1.0-130.0","0","0","96907","","null","","","null","14","","NaN","","","","","","","","","","","","","",""
"","response","","html-keyboard-response","103","447766","0.0-1.0-131.0","0","0","96907","","670","","","68","14","","","1","14","training","adjacent","FE","6","5","P.jpg","R.jpg","0","0","1","",""
"","feedback","","html-keyboard-response","104","448769","0.0-1.0-132.0-0.0","0","0","96907","","null","","","null","14","","","","","","","","","","","","","","","",""
"","ITI","","html-keyboard-response","105","449772","0.0-1.0-135.0","0","0","96907","","null","","","null","14","","","","","","","","","","","","","","","NaN",""
"","S1","","html-keyboard-response","106","450024","0.0-1.0-137.0","0","0","96907","","null","","","null","15","","","","","","","","","","","","","","","",""
"","ISI","","html-keyboard-response","107","452027","0.0-1.0-138.0","0","0","96907","","null","","","null","15","NaN","","","","","","","","","","","","","","",""
"","S2","","html-keyboard-response","108","452281","0.0-1.0-139.0","0","0","96907","","null","","","null","15","","NaN","","","","","","","","","","","","","",""
"","response","","html-keyboard-response","109","452853","0.0-1.0-140.0","0","0","96907","","569","","","75","15","","","1","15","training","adjacent","BA","2","1","M.jpg","Q.jpg","1","0","0","",""
"","feedback","","html-keyboard-response","110","453856","0.0-1.0-141.0-0.0","0","0","96907","","null","","","null","15","","","","","","","","","","","","","","","",""
"","time_out","","html-keyboard-response","111","455859","0.0-1.0-143.0-0.0","0","0","96907","","null","","","null","15","","","","","","","","","","","","","","","",""
"","ITI","","html-keyboard-response","112","456863","0.0-1.0-144.0","0","0","96907","","null","","","null","15","","","","","","","","","","","","","","","NaN",""
"","S1","","html-keyboard-response","113","457116","0.0-1.0-146.0","0","0","96907","","null","","","null","16","","","","","","","","","","","","","","","",""
"","ISI","","html-keyboard-response","114","459119","0.0-1.0-147.0","0","0","96907","","null","","","null","16","NaN","","","","","","","","","","","","","","",""
"","S2","","html-keyboard-response","115","459372","0.0-1.0-148.0","0","0","96907","","null","","","null","16","","NaN","","","","","","","","","","","","","",""
"","response","","html-keyboard-response","116","459990","0.0-1.0-149.0","0","0","96907","","617","","","68","16","","","1","16","training","adjacent","BA","2","1","M.jpg","Q.jpg","0","0","1","",""
"","feedback","","html-keyboard-response","117","460993","0.0-1.0-150.0-0.0","0","0","96907","","null","","","null","16","","","","","","","","","","","","","","","",""
"","ITI","","html-keyboard-response","118","461995","0.0-1.0-153.0","0","0","96907","","null","","","null","16","","","","","","","","","","","","","","","NaN",""
"","S1","","html-keyboard-response","119","462248","0.0-1.0-155.0","0","0","96907","","null","","","null","17","","","","","","","","","","","","","","","",""
"","ISI","","html-keyboard-response","120","464250","0.0-1.0-156.0","0","0","96907","","null","","","null","17","NaN","","","","","","","","","","","","","","",""
"","S2","","html-keyboard-response","121","464503","0.0-1.0-157.0","0","0","96907","","null","","","null","17","","NaN","","","","","","","","","","","","","",""
"","response","","html-keyboard-response","122","464949","0.0-1.0-158.0","0","0","96907","","444","","","75","17","","","1","17","training","adjacent","FG","6","7","P.jpg","O.jpg","1","1","1","",""
"","feedback","","html-keyboard-response","123","465953","0.0-1.0-159.0-0.0","0","0","96907","","null","","","null","17","","","","","","","","","","","","","","","",""
"","ITI","","html-keyboard-response","124","466955","0.0-1.0-162.0","0","0","96907","","null","","","null","17","","","","","","","","","","","","","","","NaN",""
"","S1","","html-keyboard-response","125","467207","0.0-1.0-164.0","0","0","96907","","null","","","null","18","","","","","","","","","","","","","","","",""
"","ISI","","html-keyboard-response","126","469210","0.0-1.0-165.0","0","0","96907","","null","","","null","18","NaN","","","","","","","","","","","","","","",""
"","S2","","html-keyboard-response","127","469463","0.0-1.0-166.0","0","0","96907","","null","","","null","18","","NaN","","","","","","","","","","","","","",""
"","response","","html-keyboard-response","128","470393","0.0-1.0-167.0","0","0","96907","","928","","","68","18","","","1","18","training","adjacent","FG","6","7","P.jpg","O.jpg","0","1","0","",""
"","feedback","","html-keyboard-response","129","471397","0.0-1.0-168.0-0.0","0","0","96907","","null","","","null","18","","","","","","","","","","","","","","","",""
"","time_out","","html-keyboard-response","130","473400","0.0-1.0-170.0-0.0","0","0","96907","","null","","","null","18","","","","","","","","","","","","","","","",""
"","ITI","","html-keyboard-response","131","474403","0.0-1.0-171.0","0","0","96907","","null","","","null","18","","","","","","","","","","","","","","","NaN",""
"","S1","","html-keyboard-response","132","474656","0.0-1.0-173.0","0","0","96907","","null","","","null","19","","","","","","","","","","","","","","","",""
"","ISI","","html-keyboard-response","133","476663","0.0-1.0-174.0","0","0","96907","","null","","","null","19","NaN","","","","","","","","","","","","","","",""
"","S2","","html-keyboard-response","134","476917","0.0-1.0-175.0","0","0","96907","","null","","","null","19","","NaN","","","","","","","","","","","","","",""
"","response","","html-keyboard-response","135","477289","0.0-1.0-176.0","0","0","96907","","369","","","75","19","","","1","19","training","adjacent","AB","1","2","Q.jpg","M.jpg","1","1","1","",""
"","feedback","","html-keyboard-response","136","478293","0.0-1.0-177.0-0.0","0","0","96907","","null","","","null","19","","","","","","","","","","","","","","","",""
"","ITI","","html-keyboard-response","137","479295","0.0-1.0-180.0","0","0","96907","","null","","","null","19","","","","","","","","","","","","","","","NaN",""
"","S1","","html-keyboard-response","138","479548","0.0-1.0-182.0","0","0","96907","","null","","","null","20","","","","","","","","","","","","","","","",""
"","ISI","","html-keyboard-response","139","481551","0.0-1.0-183.0","0","0","96907","","null","","","null","20","NaN","","","","","","","","","","","","","","",""
"","S2","","html-keyboard-response","140","481804","0.0-1.0-184.0","0","0","96907","","null","","","null","20","","NaN","","","","","","","","","","","","","",""
"","response","","html-keyboard-response","141","482398","0.0-1.0-185.0","0","0","96907","","593","","","68","20","","","1","20","training","adjacent","GF","7","6","O.jpg","P.jpg","0","0","1","",""
"","feedback","","html-keyboard-response","142","483401","0.0-1.0-186.0-0.0","0","0","96907","","null","","","null","20","","","","","","","","","","","","","","","",""
"","ITI","","html-keyboard-response","143","484404","0.0-1.0-189.0","0","0","96907","","null","","","null","20","","","","","","","","","","","","","","","NaN",""
"","S1","","html-keyboard-response","144","484657","0.0-1.0-191.0","0","0","96907","","null","","","null","21","","","","","","","","","","","","","","","",""
"","ISI","","html-keyboard-response","145","486660","0.0-1.0-192.0","0","0","96907","","null","","","null","21","NaN","","","","","","","","","","","","","","",""
"","S2","","html-keyboard-response","146","486914","0.0-1.0-193.0","0","0","96907","","null","","","null","21","","NaN","","","","","","","","","","","","","",""
"","response","","html-keyboard-response","147","487108","0.0-1.0-194.0","0","0","96907","","192","","","75","21","","","1","21","training","adjacent","EF","5","6","R.jpg","P.jpg","1","1","1","",""
"","feedback","","html-keyboard-response","148","488111","0.0-1.0-195.0-0.0","0","0","96907","","null","","","null","21","","","","","","","","","","","","","","","",""
"","ITI","","html-keyboard-response","149","489114","0.0-1.0-198.0","0","0","96907","","null","","","null","21","","","","","","","","","","","","","","","NaN",""
"","S1","","html-keyboard-response","150","489367","0.0-1.0-200.0","0","0","96907","","null","","","null","22","","","","","","","","","","","","","","","",""
"","ISI","","html-keyboard-response","151","491369","0.0-1.0-201.0","0","0","96907","","null","","","null","22","NaN","","","","","","","","","","","","","","",""
"","S2","","html-keyboard-response","152","491622","0.0-1.0-202.0","0","0","96907","","null","","","null","22","","NaN","","","","","","","","","","","","","",""
"","response","","html-keyboard-response","153","492160","0.0-1.0-203.0","0","0","96907","","536","","","75","22","","","1","22","training","adjacent","DE","4","5","L.jpg","R.jpg","1","1","1","",""
"","feedback","","html-keyboard-response","154","493163","0.0-1.0-204.0-0.0","0","0","96907","","null","","","null","22","","","","","","","","","","","","","","","",""
"","ITI","","html-keyboard-response","155","494165","0.0-1.0-207.0","0","0","96907","","null","","","null","22","","","","","","","","","","","","","","","NaN",""
"","S1","","html-keyboard-response","156","494418","0.0-1.0-209.0","0","0","96907","","null","","","null","23","","","","","","","","","","","","","","","",""
"","ISI","","html-keyboard-response","157","496420","0.0-1.0-210.0","0","0","96907","","null","","","null","23","NaN","","","","","","","","","","","","","","",""
"","S2","","html-keyboard-response","158","496687","0.0-1.0-211.0","0","0","96907","","null","","","null","23","","NaN","","","","","","","","","","","","","",""
"","response","","html-keyboard-response","159","497337","0.0-1.0-212.0","0","0","96907","","647","","","75","23","","","1","23","training","adjacent","DE","4","5","L.jpg","R.jpg","1","1","1","",""
"","feedback","","html-keyboard-response","160","498339","0.0-1.0-213.0-0.0","0","0","96907","","null","","","null","23","","","","","","","","","","","","","","","",""
"","ITI","","html-keyboard-response","161","499342","0.0-1.0-216.0","0","0","96907","","null","","","null","23","","","","","","","","","","","","","","","NaN",""
"","S1","","html-keyboard-response","162","499594","0.0-1.0-218.0","0","0","96907","","null","","","null","24","","","","","","","","","","","","","","","",""
"","ISI","","html-keyboard-response","163","501596","0.0-1.0-219.0","0","0","96907","","null","","","null","24","NaN","","","","","","","","","","","","","","",""
"","S2","","html-keyboard-response","164","501849","0.0-1.0-220.0","0","0","96907","","null","","","null","24","","NaN","","","","","","","","","","","","","",""
"","response","","html-keyboard-response","165","502388","0.0-1.0-221.0","0","0","96907","","538","","","68","24","","","1","24","training","adjacent","BA","2","1","M.jpg","Q.jpg","0","0","1","",""
"","feedback","","html-keyboard-response","166","503390","0.0-1.0-222.0-0.0","0","0","96907","","null","","","null","24","","","","","","","","","","","","","","","",""
"","ITI","","html-keyboard-response","167","504394","0.0-1.0-225.0","0","0","96907","","null","","","null","24","","","","","","","","","","","","","","","NaN",""
"","S1","","html-keyboard-response","168","504648","0.0-1.0-227.0","0","0","96907","","null","","","null","25","","","","","","","","","","","","","","","",""
"","ISI","","html-keyboard-response","169","506650","0.0-1.0-228.0","0","0","96907","","null","","","null","25","NaN","","","","","","","","","","","","","","",""
"","S2","","html-keyboard-response","170","506903","0.0-1.0-229.0","0","0","96907","","null","","","null","25","","NaN","","","","","","","","","","","","","",""
"","response","","html-keyboard-response","171","507326","0.0-1.0-230.0","0","0","96907","","422","","","68","25","","","1","25","training","adjacent","FG","6","7","P.jpg","O.jpg","0","1","0","",""
"","feedback","","html-keyboard-response","172","508329","0.0-1.0-231.0-0.0","0","0","96907","","null","","","null","25","","","","","","","","","","","","","","","",""
"","time_out","","html-keyboard-response","173","510347","0.0-1.0-233.0-0.0","0","0","96907","","null","","","null","25","","","","","","","","","","","","","","","",""
"","ITI","","html-keyboard-response","174","511350","0.0-1.0-234.0","0","0","96907","","null","","","null","25","","","","","","","","","","","","","","","NaN",""
"","S1","","html-keyboard-response","175","511603","0.0-1.0-236.0","0","0","96907","","null","","","null","26","","","","","","","","","","","","","","","",""
"","ISI","","html-keyboard-response","176","513607","0.0-1.0-237.0","0","0","96907","","null","","","null","26","NaN","","","","","","","","","","","","","","",""
"","S2","","html-keyboard-response","177","513859","0.0-1.0-238.0","0","0","96907","","null","","","null","26","","NaN","","","","","","","","","","","","","",""
"","response","","html-keyboard-response","178","514200","0.0-1.0-239.0","0","0","96907","","340","","","75","26","","","1","26","training","adjacent","DE","4","5","L.jpg","R.jpg","1","1","1","",""
"","feedback","","html-keyboard-response","179","515216","0.0-1.0-240.0-0.0","0","0","96907","","null","","","null","26","","","","","","","","","","","","","","","",""
"","ITI","","html-keyboard-response","180","516219","0.0-1.0-243.0","0","0","96907","","null","","","null","26","","","","","","","","","","","","","","","NaN",""
"","S1","","html-keyboard-response","181","516471","0.0-1.0-245.0","0","0","96907","","null","","","null","27","","","","","","","","","","","","","","","",""
"","ISI","","html-keyboard-response","182","518474","0.0-1.0-246.0","0","0","96907","","null","","","null","27","NaN","","","","","","","","","","","","","","",""
"","S2","","html-keyboard-response","183","518727","0.0-1.0-247.0","0","0","96907","","null","","","null","27","","NaN","","","","","","","","","","","","","",""
"","response","","html-keyboard-response","184","519192","0.0-1.0-248.0","0","0","96907","","462","","","75","27","","","1","27","training","adjacent","CD","3","4","N.jpg","L.jpg","1","1","1","",""
"","feedback","","html-keyboard-response","185","520194","0.0-1.0-249.0-0.0","0","0","96907","","null","","","null","27","","","","","","","","","","","","","","","",""
"","ITI","","html-keyboard-response","186","521198","0.0-1.0-252.0","0","0","96907","","null","","","null","27","","","","","","","","","","","","","","","NaN",""
"","S1","","html-keyboard-response","187","521451","0.0-1.0-254.0","0","0","96907","","null","","","null","28","","","","","","","","","","","","","","","",""
"","ISI","","html-keyboard-response","188","523454","0.0-1.0-255.0","0","0","96907","","null","","","null","28","NaN","","","","","","","","","","","","","","",""
"","S2","","html-keyboard-response","189","523706","0.0-1.0-256.0","0","0","96907","","null","","","null","28","","NaN","","","","","","","","","","","","","",""
"","response","","html-keyboard-response","190","523880","0.0-1.0-257.0","0","0","96907","","172","","","68","28","","","1","28","training","adjacent","FE","6","5","P.jpg","R.jpg","0","0","1","",""
"","feedback","","html-keyboard-response","191","524884","0.0-1.0-258.0-0.0","0","0","96907","","null","","","null","28","","","","","","","","","","","","","","","",""
"","ITI","","html-keyboard-response","192","525886","0.0-1.0-261.0","0","0","96907","","null","","","null","28","","","","","","","","","","","","","","","NaN",""
"","S1","","html-keyboard-response","193","526139","0.0-1.0-263.0","0","0","96907","","null","","","null","29","","","","","","","","","","","","","","","",""
"","ISI","","html-keyboard-response","194","528141","0.0-1.0-264.0","0","0","96907","","null","","","null","29","NaN","","","","","","","","","","","","","","",""
"","S2","","html-keyboard-response","195","528394","0.0-1.0-265.0","0","0","96907","","null","","","null","29","","NaN","","","","","","","","","","","","","",""
"","response","","html-keyboard-response","196","528929","0.0-1.0-266.0","0","0","96907","","532","","","75","29","","","1","29","training","adjacent","BC","2","3","M.jpg","N.jpg","1","1","1","",""
"","feedback","","html-keyboard-response","197","529932","0.0-1.0-267.0-0.0","0","0","96907","","null","","","null","29","","","","","","","","","","","","","","","",""
"","ITI","","html-keyboard-response","198","530935","0.0-1.0-270.0","0","0","96907","","null","","","null","29","","","","","","","","","","","","","","","NaN",""
"","S1","","html-keyboard-response","199","531190","0.0-1.0-272.0","0","0","96907","","null","","","null","30","","","","","","","","","","","","","","","",""
"","ISI","","html-keyboard-response","200","533193","0.0-1.0-273.0","0","0","96907","","null","","","null","30","NaN","","","","","","","","","","","","","","",""
"","S2","","html-keyboard-response","201","533446","0.0-1.0-274.0","0","0","96907","","null","","","null","30","","NaN","","","","","","","","","","","","","",""
"","response","","html-keyboard-response","202","534159","0.0-1.0-275.0","0","0","96907","","711","","","68","30","","","1","30","training","adjacent","DC","4","3","L.jpg","N.jpg","0","0","1","",""
"","feedback","","html-keyboard-response","203","535162","0.0-1.0-276.0-0.0","0","0","96907","","null","","","null","30","","","","","","","","","","","","","","","",""
"","ITI","","html-keyboard-response","204","536167","0.0-1.0-279.0","0","0","96907","","null","","","null","30","","","","","","","","","","","","","","","NaN",""
"","S1","","html-keyboard-response","205","536419","0.0-1.0-281.0","0","0","96907","","null","","","null","31","","","","","","","","","","","","","","","",""
"","ISI","","html-keyboard-response","206","538422","0.0-1.0-282.0","0","0","96907","","null","","","null","31","NaN","","","","","","","","","","","","","","",""
"","S2","","html-keyboard-response","207","538675","0.0-1.0-283.0","0","0","96907","","null","","","null","31","","NaN","","","","","","","","","","","","","",""
"","response","","html-keyboard-response","208","539052","0.0-1.0-284.0","0","0","96907","","376","","","68","31","","","1","31","training","adjacent","GF","7","6","O.jpg","P.jpg","0","0","1","",""
"","feedback","","html-keyboard-response","209","540056","0.0-1.0-285.0-0.0","0","0","96907","","null","","","null","31","","","","","","","","","","","","","","","",""
"","ITI","","html-keyboard-response","210","541059","0.0-1.0-288.0","0","0","96907","","null","","","null","31","","","","","","","","","","","","","","","NaN",""
"","S1","","html-keyboard-response","211","541312","0.0-1.0-290.0","0","0","96907","","null","","","null","32","","","","","","","","","","","","","","","",""
"","ISI","","html-keyboard-response","212","543314","0.0-1.0-291.0","0","0","96907","","null","","","null","32","NaN","","","","","","","","","","","","","","",""
"","S2","","html-keyboard-response","213","543567","0.0-1.0-292.0","0","0","96907","","null","","","null","32","","NaN","","","","","","","","","","","","","",""
"","response","","html-keyboard-response","214","544454","0.0-1.0-293.0","0","0","96907","","885","","","68","32","","","1","32","training","adjacent","ED","5","4","R.jpg","L.jpg","0","0","1","",""
"","feedback","","html-keyboard-response","215","545457","0.0-1.0-294.0-0.0","0","0","96907","","null","","","null","32","","","","","","","","","","","","","","","",""
"","ITI","","html-keyboard-response","216","546459","0.0-1.0-297.0","0","0","96907","","null","","","null","32","","","","","","","","","","","","","","","NaN",""
"","S1","","html-keyboard-response","217","546712","0.0-1.0-299.0","0","0","96907","","null","","","null","33","","","","","","","","","","","","","","","",""
"","ISI","","html-keyboard-response","218","548715","0.0-1.0-300.0","0","0","96907","","null","","","null","33","NaN","","","","","","","","","","","","","","",""
"","S2","","html-keyboard-response","219","548968","0.0-1.0-301.0","0","0","96907","","null","","","null","33","","NaN","","","","","","","","","","","","","",""
"","response","","html-keyboard-response","220","549714","0.0-1.0-302.0","0","0","96907","","745","","","68","33","","","1","33","training","adjacent","BA","2","1","M.jpg","Q.jpg","0","0","1","",""
"","feedback","","html-keyboard-response","221","550716","0.0-1.0-303.0-0.0","0","0","96907","","null","","","null","33","","","","","","","","","","","","","","","",""
"","ITI","","html-keyboard-response","222","551720","0.0-1.0-306.0","0","0","96907","","null","","","null","33","","","","","","","","","","","","","","","NaN",""
"","S1","","html-keyboard-response","223","551972","0.0-1.0-308.0","0","0","96907","","null","","","null","34","","","","","","","","","","","","","","","",""
"","ISI","","html-keyboard-response","224","553976","0.0-1.0-309.0","0","0","96907","","null","","","null","34","NaN","","","","","","","","","","","","","","",""
"","S2","","html-keyboard-response","225","554230","0.0-1.0-310.0","0","0","96907","","null","","","null","34","","NaN","","","","","","","","","","","","","",""
"","response","","html-keyboard-response","226","554601","0.0-1.0-311.0","0","0","96907","","370","","","68","34","","","1","34","training","adjacent","ED","5","4","R.jpg","L.jpg","0","0","1","",""
"","feedback","","html-keyboard-response","227","555606","0.0-1.0-312.0-0.0","0","0","96907","","null","","","null","34","","","","","","","","","","","","","","","",""
"","ITI","","html-keyboard-response","228","556609","0.0-1.0-315.0","0","0","96907","","null","","","null","34","","","","","","","","","","","","","","","NaN",""
"","S1","","html-keyboard-response","229","556862","0.0-1.0-317.0","0","0","96907","","null","","","null","35","","","","","","","","","","","","","","","",""
"","ISI","","html-keyboard-response","230","558864","0.0-1.0-318.0","0","0","96907","","null","","","null","35","NaN","","","","","","","","","","","","","","",""
"","S2","","html-keyboard-response","231","559117","0.0-1.0-319.0","0","0","96907","","null","","","null","35","","NaN","","","","","","","","","","","","","",""
"","response","","html-keyboard-response","232","559456","0.0-1.0-320.0","0","0","96907","","337","","","68","35","","","1","35","training","adjacent","GF","7","6","O.jpg","P.jpg","0","0","1","",""
"","feedback","","html-keyboard-response","233","560459","0.0-1.0-321.0-0.0","0","0","96907","","null","","","null","35","","","","","","","","","","","","","","","",""
"","ITI","","html-keyboard-response","234","561462","0.0-1.0-324.0","0","0","96907","","null","","","null","35","","","","","","","","","","","","","","","NaN",""
"","S1","","html-keyboard-response","235","561717","0.0-1.0-326.0","0","0","96907","","null","","","null","36","","","","","","","","","","","","","","","",""
"","ISI","","html-keyboard-response","236","563721","0.0-1.0-327.0","0","0","96907","","null","","","null","36","NaN","","","","","","","","","","","","","","",""
"","S2","","html-keyboard-response","237","563974","0.0-1.0-328.0","0","0","96907","","null","","","null","36","","NaN","","","","","","","","","","","","","",""
"","response","","html-keyboard-response","238","564240","0.0-1.0-329.0","0","0","96907","","263","","","75","36","","","1","36","training","adjacent","CD","3","4","N.jpg","L.jpg","1","1","1","",""
"","feedback","","html-keyboard-response","239","565242","0.0-1.0-330.0-0.0","0","0","96907","","null","","","null","36","","","","","","","","","","","","","","","",""
"","ITI","","html-keyboard-response","240","566245","0.0-1.0-333.0","0","0","96907","","null","","","null","36","","","","","","","","","","","","","","","NaN",""
"","S1","","html-keyboard-response","241","566497","0.0-1.0-335.0","0","0","96907","","null","","","null","37","","","","","","","","","","","","","","","",""
"","ISI","","html-keyboard-response","242","568499","0.0-1.0-336.0","0","0","96907","","null","","","null","37","NaN","","","","","","","","","","","","","","",""
"","S2","","html-keyboard-response","243","568752","0.0-1.0-337.0","0","0","96907","","null","","","null","37","","NaN","","","","","","","","","","","","","",""
"","response","","html-keyboard-response","244","569301","0.0-1.0-338.0","0","0","96907","","548","","","68","37","","","1","37","training","adjacent","BC","2","3","M.jpg","N.jpg","0","1","0","",""
"","feedback","","html-keyboard-response","245","570304","0.0-1.0-339.0-0.0","0","0","96907","","null","","","null","37","","","","","","","","","","","","","","","",""
"","time_out","","html-keyboard-response","246","572306","0.0-1.0-341.0-0.0","0","0","96907","","null","","","null","37","","","","","","","","","","","","","","","",""
"","ITI","","html-keyboard-response","247","573309","0.0-1.0-342.0","0","0","96907","","null","","","null","37","","","","","","","","","","","","","","","NaN",""
"","S1","","html-keyboard-response","248","573562","0.0-1.0-344.0","0","0","96907","","null","","","null","38","","","","","","","","","","","","","","","",""
"","ISI","","html-keyboard-response","249","575565","0.0-1.0-345.0","0","0","96907","","null","","","null","38","NaN","","","","","","","","","","","","","","",""
"","S2","","html-keyboard-response","250","575818","0.0-1.0-346.0","0","0","96907","","null","","","null","38","","NaN","","","","","","","","","","","","","",""
"","response","","html-keyboard-response","251","576558","0.0-1.0-347.0","0","0","96907","","739","","","68","38","","","1","38","training","adjacent","EF","5","6","R.jpg","P.jpg","0","1","0","",""
"","feedback","","html-keyboard-response","252","577561","0.0-1.0-348.0-0.0","0","0","96907","","null","","","null","38","","","","","","","","","","","","","","","",""
"","time_out","","html-keyboard-response","253","579565","0.0-1.0-350.0-0.0","0","0","96907","","null","","","null","38","","","","","","","","","","","","","","","",""
"","ITI","","html-keyboard-response","254","580568","0.0-1.0-351.0","0","0","96907","","null","","","null","38","","","","","","","","","","","","","","","NaN",""
"","S1","","html-keyboard-response","255","580821","0.0-1.0-353.0","0","0","96907","","null","","","null","39","","","","","","","","","","","","","","","",""
"","ISI","","html-keyboard-response","256","582823","0.0-1.0-354.0","0","0","96907","","null","","","null","39","NaN","","","","","","","","","","","","","","",""
"","S2","","html-keyboard-response","257","583076","0.0-1.0-355.0","0","0","96907","","null","","","null","39","","NaN","","","","","","","","","","","","","",""
"","response","","html-keyboard-response","258","583512","0.0-1.0-356.0","0","0","96907","","434","","","68","39","","","1","39","training","adjacent","DC","4","3","L.jpg","N.jpg","0","0","1","",""
"","feedback","","html-keyboard-response","259","584514","0.0-1.0-357.0-0.0","0","0","96907","","null","","","null","39","","","","","","","","","","","","","","","",""
"","ITI","","html-keyboard-response","260","585517","0.0-1.0-360.0","0","0","96907","","null","","","null","39","","","","","","","","","","","","","","","NaN",""
"","S1","","html-keyboard-response","261","585769","0.0-1.0-362.0","0","0","96907","","null","","","null","40","","","","","","","","","","","","","","","",""
"","ISI","","html-keyboard-response","262","587772","0.0-1.0-363.0","0","0","96907","","null","","","null","40","NaN","","","","","","","","","","","","","","",""
"","S2","","html-keyboard-response","263","588025","0.0-1.0-364.0","0","0","96907","","null","","","null","40","","NaN","","","","","","","","","","","","","",""
"","response","","html-keyboard-response","264","588575","0.0-1.0-365.0","0","0","96907","","548","","","68","40","","","1","40","training","adjacent","CD","3","4","N.jpg","L.jpg","0","1","0","",""
"","feedback","","html-keyboard-response","265","589578","0.0-1.0-366.0-0.0","0","0","96907","","null","","","null","40","","","","","","","","","","","","","","","",""
"","time_out","","html-keyboard-response","266","591581","0.0-1.0-368.0-0.0","0","0","96907","","null","","","null","40","","","","","","","","","","","","","","","",""
"","ITI","","html-keyboard-response","267","592583","0.0-1.0-369.0","0","0","96907","","null","","","null","40","","","","","","","","","","","","","","","NaN",""
"","S1","","html-keyboard-response","268","592837","0.0-1.0-371.0","0","0","96907","","null","","","null","41","","","","","","","","","","","","","","","",""
"","ISI","","html-keyboard-response","269","594840","0.0-1.0-372.0","0","0","96907","","null","","","null","41","NaN","","","","","","","","","","","","","","",""
"","S2","","html-keyboard-response","270","595092","0.0-1.0-373.0","0","0","96907","","null","","","null","41","","NaN","","","","","","","","","","","","","",""
"","response","","html-keyboard-response","271","595667","0.0-1.0-374.0","0","0","96907","","574","","","75","41","","","1","41","training","adjacent","FG","6","7","P.jpg","O.jpg","1","1","1","",""
"","feedback","","html-keyboard-response","272","596669","0.0-1.0-375.0-0.0","0","0","96907","","null","","","null","41","","","","","","","","","","","","","","","",""
"","ITI","","html-keyboard-response","273","597672","0.0-1.0-378.0","0","0","96907","","null","","","null","41","","","","","","","","","","","","","","","NaN",""
"","S1","","html-keyboard-response","274","597925","0.0-1.0-380.0","0","0","96907","","null","","","null","42","","","","","","","","","","","","","","","",""
"","ISI","","html-keyboard-response","275","599927","0.0-1.0-381.0","0","0","96907","","null","","","null","42","NaN","","","","","","","","","","","","","","",""
"","S2","","html-keyboard-response","276","600182","0.0-1.0-382.0","0","0","96907","","null","","","null","42","","NaN","","","","","","","","","","","","","",""
"","response","","html-keyboard-response","277","600706","0.0-1.0-383.0","0","0","96907","","522","","","75","42","","","1","42","training","adjacent","CB","3","2","N.jpg","M.jpg","1","0","0","",""
"","feedback","","html-keyboard-response","278","601710","0.0-1.0-384.0-0.0","0","0","96907","","null","","","null","42","","","","","","","","","","","","","","","",""
"","time_out","","html-keyboard-response","279","603713","0.0-1.0-386.0-0.0","0","0","96907","","null","","","null","42","","","","","","","","","","","","","","","",""
"","ITI","","html-keyboard-response","280","604718","0.0-1.0-387.0","0","0","96907","","null","","","null","42","","","","","","","","","","","","","","","NaN",""
"","S1","","html-keyboard-response","281","604971","0.0-1.0-389.0","0","0","96907","","null","","","null","43","","","","","","","","","","","","","","","",""
"","ISI","","html-keyboard-response","282","606974","0.0-1.0-390.0","0","0","96907","","null","","","null","43","NaN","","","","","","","","","","","","","","",""
"","S2","","html-keyboard-response","283","607226","0.0-1.0-391.0","0","0","96907","","null","","","null","43","","NaN","","","","","","","","","","","","","",""
"","response","","html-keyboard-response","284","607590","0.0-1.0-392.0","0","0","96907","","362","","","75","43","","","1","43","training","adjacent","AB","1","2","Q.jpg","M.jpg","1","1","1","",""
"","feedback","","html-keyboard-response","285","608593","0.0-1.0-393.0-0.0","0","0","96907","","null","","","null","43","","","","","","","","","","","","","","","",""
"","ITI","","html-keyboard-response","286","609594","0.0-1.0-396.0","0","0","96907","","null","","","null","43","","","","","","","","","","","","","","","NaN",""
"","S1","","html-keyboard-response","287","609847","0.0-1.0-398.0","0","0","96907","","null","","","null","44","","","","","","","","","","","","","","","",""
"","ISI","","html-keyboard-response","288","611849","0.0-1.0-399.0","0","0","96907","","null","","","null","44","NaN","","","","","","","","","","","","","","",""
"","S2","","html-keyboard-response","289","612102","0.0-1.0-400.0","0","0","96907","","null","","","null","44","","NaN","","","","","","","","","","","","","",""
"","response","","html-keyboard-response","290","612612","0.0-1.0-401.0","0","0","96907","","508","","","75","44","","","1","44","training","adjacent","BC","2","3","M.jpg","N.jpg","1","1","1","",""
"","feedback","","html-keyboard-response","291","613614","0.0-1.0-402.0-0.0","0","0","96907","","null","","","null","44","","","","","","","","","","","","","","","",""
"","ITI","","html-keyboard-response","292","614617","0.0-1.0-405.0","0","0","96907","","null","","","null","44","","","","","","","","","","","","","","","NaN",""
"","S1","","html-keyboard-response","293","614870","0.0-1.0-407.0","0","0","96907","","null","","","null","45","","","","","","","","","","","","","","","",""
"","ISI","","html-keyboard-response","294","616873","0.0-1.0-408.0","0","0","96907","","null","","","null","45","NaN","","","","","","","","","","","","","","",""
"","S2","","html-keyboard-response","295","617127","0.0-1.0-409.0","0","0","96907","","null","","","null","45","","NaN","","","","","","","","","","","","","",""
"","response","","html-keyboard-response","296","617715","0.0-1.0-410.0","0","0","96907","","585","","","68","45","","","1","45","training","adjacent","EF","5","6","R.jpg","P.jpg","0","1","0","",""
"","feedback","","html-keyboard-response","297","618718","0.0-1.0-411.0-0.0","0","0","96907","","null","","","null","45","","","","","","","","","","","","","","","",""
"","time_out","","html-keyboard-response","298","620722","0.0-1.0-413.0-0.0","0","0","96907","","null","","","null","45","","","","","","","","","","","","","","","",""
"","ITI","","html-keyboard-response","299","621724","0.0-1.0-414.0","0","0","96907","","null","","","null","45","","","","","","","","","","","","","","","NaN",""
"","S1","","html-keyboard-response","300","621978","0.0-1.0-416.0","0","0","96907","","null","","","null","46","","","","","","","","","","","","","","","",""
"","ISI","","html-keyboard-response","301","623981","0.0-1.0-417.0","0","0","96907","","null","","","null","46","NaN","","","","","","","","","","","","","","",""
"","S2","","html-keyboard-response","302","624235","0.0-1.0-418.0","0","0","96907","","null","","","null","46","","NaN","","","","","","","","","","","","","",""
"","response","","html-keyboard-response","303","624728","0.0-1.0-419.0","0","0","96907","","491","","","75","46","","","1","46","training","adjacent","CB","3","2","N.jpg","M.jpg","1","0","0","",""
"","feedback","","html-keyboard-response","304","625731","0.0-1.0-420.0-0.0","0","0","96907","","null","","","null","46","","","","","","","","","","","","","","","",""
"","time_out","","html-keyboard-response","305","627733","0.0-1.0-422.0-0.0","0","0","96907","","null","","","null","46","","","","","","","","","","","","","","","",""
"","ITI","","html-keyboard-response","306","628735","0.0-1.0-423.0","0","0","96907","","null","","","null","46","","","","","","","","","","","","","","","NaN",""
"","S1","","html-keyboard-response","307","628988","0.0-1.0-425.0","0","0","96907","","null","","","null","47","","","","","","","","","","","","","","","",""
"","ISI","","html-keyboard-response","308","630991","0.0-1.0-426.0","0","0","96907","","null","","","null","47","NaN","","","","","","","","","","","","","","",""
"","S2","","html-keyboard-response","309","631244","0.0-1.0-427.0","0","0","96907","","null","","","null","47","","NaN","","","","","","","","","","","","","",""
"","response","","html-keyboard-response","310","631767","0.0-1.0-428.0","0","0","96907","","520","","","75","47","","","1","47","training","adjacent","BC","2","3","M.jpg","N.jpg","1","1","1","",""
"","feedback","","html-keyboard-response","311","632771","0.0-1.0-429.0-0.0","0","0","96907","","null","","","null","47","","","","","","","","","","","","","","","",""
"","ITI","","html-keyboard-response","312","633773","0.0-1.0-432.0","0","0","96907","","null","","","null","47","","","","","","","","","","","","","","","NaN",""
"","block_over","","html-keyboard-response","313","639567","0.0-1.0-433.0-0.0","0","0","96907","","5792","","","32","47","","","","","","","","","","","","","","","",""
"","S1","","html-keyboard-response","314","639821","0.0-1.0-434.0","0","0","96907","","null","","","null","48","","","","","","","","","","","","","","","",""
"","ISI","","html-keyboard-response","315","641824","0.0-1.0-435.0","0","0","96907","","null","","","null","48","NaN","","","","","","","","","","","","","","",""
"","S2","","html-keyboard-response","316","642077","0.0-1.0-436.0","0","0","96907","","null","","","null","48","","NaN","","","","","","","","","","","","","",""
"","response","","html-keyboard-response","317","643101","0.0-1.0-437.0","0","0","96907","","1023","","","75","48","","","2","48","training","adjacent","CD","3","4","N.jpg","L.jpg","1","1","1","",""
"","feedback","","html-keyboard-response","318","644104","0.0-1.0-438.0-0.0","0","0","96907","","null","","","null","48","","","","","","","","","","","","","","","",""
"","ITI","","html-keyboard-response","319","645108","0.0-1.0-441.0","0","0","96907","","null","","","null","48","","","","","","","","","","","","","","","NaN",""
"","S1","","html-keyboard-response","320","645361","0.0-1.0-443.0","0","0","96907","","null","","","null","49","","","","","","","","","","","","","","","",""
"","ISI","","html-keyboard-response","321","647364","0.0-1.0-444.0","0","0","96907","","null","","","null","49","NaN","","","","","","","","","","","","","","",""
"","S2","","html-keyboard-response","322","647617","0.0-1.0-445.0","0","0","96907","","null","","","null","49","","NaN","","","","","","","","","","","","","",""
"","response","","html-keyboard-response","323","648053","0.0-1.0-446.0","0","0","96907","","434","","","68","49","","","2","49","training","adjacent","GF","7","6","O.jpg","P.jpg","0","0","1","",""
"","feedback","","html-keyboard-response","324","649056","0.0-1.0-447.0-0.0","0","0","96907","","null","","","null","49","","","","","","","","","","","","","","","",""
"","ITI","","html-keyboard-response","325","650059","0.0-1.0-450.0","0","0","96907","","null","","","null","49","","","","","","","","","","","","","","","NaN",""
"","S1","","html-keyboard-response","326","650312","0.0-1.0-452.0","0","0","96907","","null","","","null","50","","","","","","","","","","","","","","","",""
"","ISI","","html-keyboard-response","327","652314","0.0-1.0-453.0","0","0","96907","","null","","","null","50","NaN","","","","","","","","","","","","","","",""
"","S2","","html-keyboard-response","328","652567","0.0-1.0-454.0","0","0","96907","","null","","","null","50","","NaN","","","","","","","","","","","","","",""
"","response","","html-keyboard-response","329","653285","0.0-1.0-455.0","0","0","96907","","716","","","68","50","","","2","50","training","adjacent","FE","6","5","P.jpg","R.jpg","0","0","1","",""
"","feedback","","html-keyboard-response","330","654288","0.0-1.0-456.0-0.0","0","0","96907","","null","","","null","50","","","","","","","","","","","","","","","",""
"","ITI","","html-keyboard-response","331","655291","0.0-1.0-459.0","0","0","96907","","null","","","null","50","","","","","","","","","","","","","","","NaN",""
"","S1","","html-keyboard-response","332","655543","0.0-1.0-461.0","0","0","96907","","null","","","null","51","","","","","","","","","","","","","","","",""
"","ISI","","html-keyboard-response","333","657545","0.0-1.0-462.0","0","0","96907","","null","","","null","51","NaN","","","","","","","","","","","","","","",""
"","S2","","html-keyboard-response","334","657798","0.0-1.0-463.0","0","0","96907","","null","","","null","51","","NaN","","","","","","","","","","","","","",""
"","response","","html-keyboard-response","335","658700","0.0-1.0-464.0","0","0","96907","","901","","","68","51","","","2","51","training","adjacent","FE","6","5","P.jpg","R.jpg","0","0","1","",""
"","feedback","","html-keyboard-response","336","659703","0.0-1.0-465.0-0.0","0","0","96907","","null","","","null","51","","","","","","","","","","","","","","","",""
"","ITI","","html-keyboard-response","337","660706","0.0-1.0-468.0","0","0","96907","","null","","","null","51","","","","","","","","","","","","","","","NaN",""
"","S1","","html-keyboard-response","338","660960","0.0-1.0-470.0","0","0","96907","","null","","","null","52","","","","","","","","","","","","","","","",""
"","ISI","","html-keyboard-response","339","662962","0.0-1.0-471.0","0","0","96907","","null","","","null","52","NaN","","","","","","","","","","","","","","",""
"","S2","","html-keyboard-response","340","663215","0.0-1.0-472.0","0","0","96907","","null","","","null","52","","NaN","","","","","","","","","","","","","",""
"","response","","html-keyboard-response","341","663926","0.0-1.0-473.0","0","0","96907","","710","","","75","52","","","2","52","training","adjacent","DE","4","5","L.jpg","R.jpg","1","1","1","",""
"","feedback","","html-keyboard-response","342","664930","0.0-1.0-474.0-0.0","0","0","96907","","null","","","null","52","","","","","","","","","","","","","","","",""
"","ITI","","html-keyboard-response","343","665934","0.0-1.0-477.0","0","0","96907","","null","","","null","52","","","","","","","","","","","","","","","NaN",""
"","S1","","html-keyboard-response","344","666187","0.0-1.0-479.0","0","0","96907","","null","","","null","53","","","","","","","","","","","","","","","",""
"","ISI","","html-keyboard-response","345","668189","0.0-1.0-480.0","0","0","96907","","null","","","null","53","NaN","","","","","","","","","","","","","","",""
"","S2","","html-keyboard-response","346","668442","0.0-1.0-481.0","0","0","96907","","null","","","null","53","","NaN","","","","","","","","","","","","","",""
"","response","","html-keyboard-response","347","668909","0.0-1.0-482.0","0","0","96907","","464","","","68","53","","","2","53","training","adjacent","ED","5","4","R.jpg","L.jpg","0","0","1","",""
"","feedback","","html-keyboard-response","348","669913","0.0-1.0-483.0-0.0","0","0","96907","","null","","","null","53","","","","","","","","","","","","","","","",""
"","ITI","","html-keyboard-response","349","670916","0.0-1.0-486.0","0","0","96907","","null","","","null","53","","","","","","","","","","","","","","","NaN",""
"","S1","","html-keyboard-response","350","671170","0.0-1.0-488.0","0","0","96907","","null","","","null","54","","","","","","","","","","","","","","","",""
"","ISI","","html-keyboard-response","351","673172","0.0-1.0-489.0","0","0","96907","","null","","","null","54","NaN","","","","","","","","","","","","","","",""
"","S2","","html-keyboard-response","352","673425","0.0-1.0-490.0","0","0","96907","","null","","","null","54","","NaN","","","","","","","","","","","","","",""
"","response","","html-keyboard-response","353","673698","0.0-1.0-491.0","0","0","96907","","272","","","68","54","","","2","54","training","adjacent","AB","1","2","Q.jpg","M.jpg","0","1","0","",""
"","feedback","","html-keyboard-response","354","674701","0.0-1.0-492.0-0.0","0","0","96907","","null","","","null","54","","","","","","","","","","","","","","","",""
"","time_out","","html-keyboard-response","355","676704","0.0-1.0-494.0-0.0","0","0","96907","","null","","","null","54","","","","","","","","","","","","","","","",""
"","ITI","","html-keyboard-response","356","677705","0.0-1.0-495.0","0","0","96907","","null","","","null","54","","","","","","","","","","","","","","","NaN",""
"","S1","","html-keyboard-response","357","677958","0.0-1.0-497.0","0","0","96907","","null","","","null","55","","","","","","","","","","","","","","","",""
"","ISI","","html-keyboard-response","358","679961","0.0-1.0-498.0","0","0","96907","","null","","","null","55","NaN","","","","","","","","","","","","","","",""
"","S2","","html-keyboard-response","359","680214","0.0-1.0-499.0","0","0","96907","","null","","","null","55","","NaN","","","","","","","","","","","","","",""
"","response","","html-keyboard-response","360","680592","0.0-1.0-500.0","0","0","96907","","375","","","75","55","","","2","55","training","adjacent","CD","3","4","N.jpg","L.jpg","1","1","1","",""
"","feedback","","html-keyboard-response","361","681595","0.0-1.0-501.0-0.0","0","0","96907","","null","","","null","55","","","","","","","","","","","","","","","",""
"","ITI","","html-keyboard-response","362","682599","0.0-1.0-504.0","0","0","96907","","null","","","null","55","","","","","","","","","","","","","","","NaN",""
"","S1","","html-keyboard-response","363","682852","0.0-1.0-506.0","0","0","96907","","null","","","null","56","","","","","","","","","","","","","","","",""
"","ISI","","html-keyboard-response","364","684855","0.0-1.0-507.0","0","0","96907","","null","","","null","56","NaN","","","","","","","","","","","","","","",""
"","S2","","html-keyboard-response","365","685109","0.0-1.0-508.0","0","0","96907","","null","","","null","56","","NaN","","","","","","","","","","","","","",""
"","response","","html-keyboard-response","366","686151","0.0-1.0-509.0","0","0","96907","","1040","","","68","56","","","2","56","training","adjacent","EF","5","6","R.jpg","P.jpg","0","1","0","",""
"","feedback","","html-keyboard-response","367","687154","0.0-1.0-510.0-0.0","0","0","96907","","null","","","null","56","","","","","","","","","","","","","","","",""
"","time_out","","html-keyboard-response","368","689157","0.0-1.0-512.0-0.0","0","0","96907","","null","","","null","56","","","","","","","","","","","","","","","",""
"","ITI","","html-keyboard-response","369","690162","0.0-1.0-513.0","0","0","96907","","null","","","null","56","","","","","","","","","","","","","","","NaN",""
"","S1","","html-keyboard-response","370","690415","0.0-1.0-515.0","0","0","96907","","null","","","null","57","","","","","","","","","","","","","","","",""
"","ISI","","html-keyboard-response","371","692418","0.0-1.0-516.0","0","0","96907","","null","","","null","57","NaN","","","","","","","","","","","","","","",""
"","S2","","html-keyboard-response","372","692672","0.0-1.0-517.0","0","0","96907","","null","","","null","57","","NaN","","","","","","","","","","","","","",""
"","response","","html-keyboard-response","373","693031","0.0-1.0-518.0","0","0","96907","","358","","","75","57","","","2","57","training","adjacent","EF","5","6","R.jpg","P.jpg","1","1","1","",""
"","feedback","","html-keyboard-response","374","694035","0.0-1.0-519.0-0.0","0","0","96907","","null","","","null","57","","","","","","","","","","","","","","","",""
"","ITI","","html-keyboard-response","375","695039","0.0-1.0-522.0","0","0","96907","","null","","","null","57","","","","","","","","","","","","","","","NaN",""
"","S1","","html-keyboard-response","376","695293","0.0-1.0-524.0","0","0","96907","","null","","","null","58","","","","","","","","","","","","","","","",""
"","ISI","","html-keyboard-response","377","697296","0.0-1.0-525.0","0","0","96907","","null","","","null","58","NaN","","","","","","","","","","","","","","",""
"","S2","","html-keyboard-response","378","697549","0.0-1.0-526.0","0","0","96907","","null","","","null","58","","NaN","","","","","","","","","","","","","",""
"","response","","html-keyboard-response","379","697954","0.0-1.0-527.0","0","0","96907","","403","","","75","58","","","2","58","training","adjacent","EF","5","6","R.jpg","P.jpg","1","1","1","",""
"","feedback","","html-keyboard-response","380","698957","0.0-1.0-528.0-0.0","0","0","96907","","null","","","null","58","","","","","","","","","","","","","","","",""
"","ITI","","html-keyboard-response","381","699961","0.0-1.0-531.0","0","0","96907","","null","","","null","58","","","","","","","","","","","","","","","NaN",""
"","S1","","html-keyboard-response","382","700214","0.0-1.0-533.0","0","0","96907","","null","","","null","59","","","","","","","","","","","","","","","",""
"","ISI","","html-keyboard-response","383","702215","0.0-1.0-534.0","0","0","96907","","null","","","null","59","NaN","","","","","","","","","","","","","","",""
"","S2","","html-keyboard-response","384","702469","0.0-1.0-535.0","0","0","96907","","null","","","null","59","","NaN","","","","","","","","","","","","","",""
"","response","","html-keyboard-response","385","703106","0.0-1.0-536.0","0","0","96907","","636","","","68","59","","","2","59","training","adjacent","DE","4","5","L.jpg","R.jpg","0","1","0","",""
"","feedback","","html-keyboard-response","386","704109","0.0-1.0-537.0-0.0","0","0","96907","","null","","","null","59","","","","","","","","","","","","","","","",""
"","time_out","","html-keyboard-response","387","706113","0.0-1.0-539.0-0.0","0","0","96907","","null","","","null","59","","","","","","","","","","","","","","","",""
"","ITI","","html-keyboard-response","388","707117","0.0-1.0-540.0","0","0","96907","","null","","","null","59","","","","","","","","","","","","","","","NaN",""
"","S1","","html-keyboard-response","389","707371","0.0-1.0-542.0","0","0","96907","","null","","","null","60","","","","","","","","","","","","","","","",""
"","ISI","","html-keyboard-response","390","709374","0.0-1.0-543.0","0","0","96907","","null","","","null","60","NaN","","","","","","","","","","","","","","",""
"","S2","","html-keyboard-response","391","709627","0.0-1.0-544.0","0","0","96907","","null","","","null","60","","NaN","","","","","","","","","","","","","",""
"","response","","html-keyboard-response","392","710309","0.0-1.0-545.0","0","0","96907","","678","","","68","60","","","2","60","training","adjacent","BC","2","3","M.jpg","N.jpg","0","1","0","",""
"","feedback","","html-keyboard-response","393","711314","0.0-1.0-546.0-0.0","0","0","96907","","null","","","null","60","","","","","","","","","","","","","","","",""
"","time_out","","html-keyboard-response","394","713317","0.0-1.0-548.0-0.0","0","0","96907","","null","","","null","60","","","","","","","","","","","","","","","",""
"","ITI","","html-keyboard-response","395","714320","0.0-1.0-549.0","0","0","96907","","null","","","null","60","","","","","","","","","","","","","","","NaN",""
"","S1","","html-keyboard-response","396","714572","0.0-1.0-551.0","0","0","96907","","null","","","null","61","","","","","","","","","","","","","","","",""
"","ISI","","html-keyboard-response","397","716575","0.0-1.0-552.0","0","0","96907","","null","","","null","61","NaN","","","","","","","","","","","","","","",""
"","S2","","html-keyboard-response","398","716829","0.0-1.0-553.0","0","0","96907","","null","","","null","61","","NaN","","","","","","","","","","","","","",""
"","response","","html-keyboard-response","399","717497","0.0-1.0-554.0","0","0","96907","","666","","","75","61","","","2","61","training","adjacent","CD","3","4","N.jpg","L.jpg","1","1","1","",""
"","feedback","","html-keyboard-response","400","718500","0.0-1.0-555.0-0.0","0","0","96907","","null","","","null","61","","","","","","","","","","","","","","","",""
"","ITI","","html-keyboard-response","401","719502","0.0-1.0-558.0","0","0","96907","","null","","","null","61","","","","","","","","","","","","","","","NaN",""
"","S1","","html-keyboard-response","402","719757","0.0-1.0-560.0","0","0","96907","","null","","","null","62","","","","","","","","","","","","","","","",""
"","ISI","","html-keyboard-response","403","721759","0.0-1.0-561.0","0","0","96907","","null","","","null","62","NaN","","","","","","","","","","","","","","",""
"","S2","","html-keyboard-response","404","722012","0.0-1.0-562.0","0","0","96907","","null","","","null","62","","NaN","","","","","","","","","","","","","",""
"","response","","html-keyboard-response","405","722568","0.0-1.0-563.0","0","0","96907","","554","","","68","62","","","2","62","training","adjacent","GF","7","6","O.jpg","P.jpg","0","0","1","",""
"","feedback","","html-keyboard-response","406","723571","0.0-1.0-564.0-0.0","0","0","96907","","null","","","null","62","","","","","","","","","","","","","","","",""
"","ITI","","html-keyboard-response","407","724573","0.0-1.0-567.0","0","0","96907","","null","","","null","62","","","","","","","","","","","","","","","NaN",""
"","S1","","html-keyboard-response","408","724827","0.0-1.0-569.0","0","0","96907","","null","","","null","63","","","","","","","","","","","","","","","",""
"","ISI","","html-keyboard-response","409","726829","0.0-1.0-570.0","0","0","96907","","null","","","null","63","NaN","","","","","","","","","","","","","","",""
"","S2","","html-keyboard-response","410","727082","0.0-1.0-571.0","0","0","96907","","null","","","null","63","","NaN","","","","","","","","","","","","","",""
"","response","","html-keyboard-response","411","728025","0.0-1.0-572.0","0","0","96907","","941","","","75","63","","","2","63","training","adjacent","BC","2","3","M.jpg","N.jpg","1","1","1","",""
"","feedback","","html-keyboard-response","412","729028","0.0-1.0-573.0-0.0","0","0","96907","","null","","","null","63","","","","","","","","","","","","","","","",""
"","ITI","","html-keyboard-response","413","730032","0.0-1.0-576.0","0","0","96907","","null","","","null","63","","","","","","","","","","","","","","","NaN",""
"","S1","","html-keyboard-response","414","730285","0.0-1.0-578.0","0","0","96907","","null","","","null","64","","","","","","","","","","","","","","","",""
"","ISI","","html-keyboard-response","415","732287","0.0-1.0-579.0","0","0","96907","","null","","","null","64","NaN","","","","","","","","","","","","","","",""
"","S2","","html-keyboard-response","416","732540","0.0-1.0-580.0","0","0","96907","","null","","","null","64","","NaN","","","","","","","","","","","","","",""
"","response","","html-keyboard-response","417","733101","0.0-1.0-581.0","0","0","96907","","559","","","68","64","","","2","64","training","adjacent","CB","3","2","N.jpg","M.jpg","0","0","1","",""
"","feedback","","html-keyboard-response","418","734103","0.0-1.0-582.0-0.0","0","0","96907","","null","","","null","64","","","","","","","","","","","","","","","",""
"","ITI","","html-keyboard-response","419","735106","0.0-1.0-585.0","0","0","96907","","null","","","null","64","","","","","","","","","","","","","","","NaN",""
"","S1","","html-keyboard-response","420","735360","0.0-1.0-587.0","0","0","96907","","null","","","null","65","","","","","","","","","","","","","","","",""
"","ISI","","html-keyboard-response","421","737362","0.0-1.0-588.0","0","0","96907","","null","","","null","65","NaN","","","","","","","","","","","","","","",""
"","S2","","html-keyboard-response","422","737614","0.0-1.0-589.0","0","0","96907","","null","","","null","65","","NaN","","","","","","","","","","","","","",""
"","response","","html-keyboard-response","423","738487","0.0-1.0-590.0","0","0","96907","","872","","","75","65","","","2","65","training","adjacent","DE","4","5","L.jpg","R.jpg","1","1","1","",""
"","feedback","","html-keyboard-response","424","739490","0.0-1.0-591.0-0.0","0","0","96907","","null","","","null","65","","","","","","","","","","","","","","","",""
"","ITI","","html-keyboard-response","425","740494","0.0-1.0-594.0","0","0","96907","","null","","","null","65","","","","","","","","","","","","","","","NaN",""
"","S1","","html-keyboard-response","426","740746","0.0-1.0-596.0","0","0","96907","","null","","","null","66","","","","","","","","","","","","","","","",""
"","ISI","","html-keyboard-response","427","742749","0.0-1.0-597.0","0","0","96907","","null","","","null","66","NaN","","","","","","","","","","","","","","",""
"","S2","","html-keyboard-response","428","743002","0.0-1.0-598.0","0","0","96907","","null","","","null","66","","NaN","","","","","","","","","","","","","",""
"","response","","html-keyboard-response","429","743181","0.0-1.0-599.0","0","0","96907","","177","","","68","66","","","2","66","training","adjacent","DC","4","3","L.jpg","N.jpg","0","0","1","",""
"","feedback","","html-keyboard-response","430","744183","0.0-1.0-600.0-0.0","0","0","96907","","null","","","null","66","","","","","","","","","","","","","","","",""
"","ITI","","html-keyboard-response","431","745187","0.0-1.0-603.0","0","0","96907","","null","","","null","66","","","","","","","","","","","","","","","NaN",""
"","S1","","html-keyboard-response","432","745441","0.0-1.0-605.0","0","0","96907","","null","","","null","67","","","","","","","","","","","","","","","",""
"","ISI","","html-keyboard-response","433","747445","0.0-1.0-606.0","0","0","96907","","null","","","null","67","NaN","","","","","","","","","","","","","","",""
"","S2","","html-keyboard-response","434","747697","0.0-1.0-607.0","0","0","96907","","null","","","null","67","","NaN","","","","","","","","","","","","","",""
"","response","","html-keyboard-response","435","748726","0.0-1.0-608.0","0","0","96907","","1027","","","68","67","","","2","67","training","adjacent","BC","2","3","M.jpg","N.jpg","0","1","0","",""
"","feedback","","html-keyboard-response","436","749730","0.0-1.0-609.0-0.0","0","0","96907","","null","","","null","67","","","","","","","","","","","","","","","",""
"","time_out","","html-keyboard-response","437","751733","0.0-1.0-611.0-0.0","0","0","96907","","null","","","null","67","","","","","","","","","","","","","","","",""
"","ITI","","html-keyboard-response","438","752736","0.0-1.0-612.0","0","0","96907","","null","","","null","67","","","","","","","","","","","","","","","NaN",""
"","S1","","html-keyboard-response","439","752989","0.0-1.0-614.0","0","0","96907","","null","","","null","68","","","","","","","","","","","","","","","",""
"","ISI","","html-keyboard-response","440","754993","0.0-1.0-615.0","0","0","96907","","null","","","null","68","NaN","","","","","","","","","","","","","","",""
"","S2","","html-keyboard-response","441","755247","0.0-1.0-616.0","0","0","96907","","null","","","null","68","","NaN","","","","","","","","","","","","","",""
"","response","","html-keyboard-response","442","755420","0.0-1.0-617.0","0","0","96907","","168","","","68","68","","","2","68","training","adjacent","CB","3","2","N.jpg","M.jpg","0","0","1","",""
"","feedback","","html-keyboard-response","443","756425","0.0-1.0-618.0-0.0","0","0","96907","","null","","","null","68","","","","","","","","","","","","","","","",""
"","ITI","","html-keyboard-response","444","757432","0.0-1.0-621.0","0","0","96907","","null","","","null","68","","","","","","","","","","","","","","","NaN",""
"","S1","","html-keyboard-response","445","757688","0.0-1.0-623.0","0","0","96907","","null","","","null","69","","","","","","","","","","","","","","","",""
"","ISI","","html-keyboard-response","446","759691","0.0-1.0-624.0","0","0","96907","","null","","","null","69","NaN","","","","","","","","","","","","","","",""
"","S2","","html-keyboard-response","447","759944","0.0-1.0-625.0","0","0","96907","","null","","","null","69","","NaN","","","","","","","","","","","","","",""
"","response","","html-keyboard-response","448","760500","0.0-1.0-626.0","0","0","96907","","554","","","75","69","","","2","69","training","adjacent","DC","4","3","L.jpg","N.jpg","1","0","0","",""
"","feedback","","html-keyboard-response","449","761504","0.0-1.0-627.0-0.0","0","0","96907","","null","","","null","69","","","","","","","","","","","","","","","",""
"","time_out","","html-keyboard-response","450","763506","0.0-1.0-629.0-0.0","0","0","96907","","null","","","null","69","","","","","","","","","","","","","","","",""
"","ITI","","html-keyboard-response","451","764510","0.0-1.0-630.0","0","0","96907","","null","","","null","69","","","","","","","","","","","","","","","NaN",""
"","S1","","html-keyboard-response","452","764763","0.0-1.0-632.0","0","0","96907","","null","","","null","70","","","","","","","","","","","","","","","",""
"","ISI","","html-keyboard-response","453","766767","0.0-1.0-633.0","0","0","96907","","null","","","null","70","NaN","","","","","","","","","","","","","","",""
"","S2","","html-keyboard-response","454","767019","0.0-1.0-634.0","0","0","96907","","null","","","null","70","","NaN","","","","","","","","","","","","","",""
"","response","","html-keyboard-response","455","767861","0.0-1.0-635.0","0","0","96907","","840","","","75","70","","","2","70","training","adjacent","EF","5","6","R.jpg","P.jpg","1","1","1","",""
"","feedback","","html-keyboard-response","456","768864","0.0-1.0-636.0-0.0","0","0","96907","","null","","","null","70","","","","","","","","","","","","","","","",""
"","ITI","","html-keyboard-response","457","769867","0.0-1.0-639.0","0","0","96907","","null","","","null","70","","","","","","","","","","","","","","","NaN",""
"","S1","","html-keyboard-response","458","770120","0.0-1.0-641.0","0","0","96907","","null","","","null","71","","","","","","","","","","","","","","","",""
"","ISI","","html-keyboard-response","459","772123","0.0-1.0-642.0","0","0","96907","","null","","","null","71","NaN","","","","","","","","","","","","","","",""
"","S2","","html-keyboard-response","460","772376","0.0-1.0-643.0","0","0","96907","","null","","","null","71","","NaN","","","","","","","","","","","","","",""
"","response","","html-keyboard-response","461","772520","0.0-1.0-644.0","0","0","96907","","142","","","75","71","","","2","71","training","adjacent","AB","1","2","Q.jpg","M.jpg","1","1","1","",""
"","feedback","","html-keyboard-response","462","773523","0.0-1.0-645.0-0.0","0","0","96907","","null","","","null","71","","","","","","","","","","","","","","","",""
"","ITI","","html-keyboard-response","463","774525","0.0-1.0-648.0","0","0","96907","","null","","","null","71","","","","","","","","","","","","","","","NaN",""
"","S1","","html-keyboard-response","464","774780","0.0-1.0-650.0","0","0","96907","","null","","","null","72","","","","","","","","","","","","","","","",""
"","ISI","","html-keyboard-response","465","776783","0.0-1.0-651.0","0","0","96907","","null","","","null","72","NaN","","","","","","","","","","","","","","",""
"","S2","","html-keyboard-response","466","777037","0.0-1.0-652.0","0","0","96907","","null","","","null","72","","NaN","","","","","","","","","","","","","",""
"","response","","html-keyboard-response","467","777746","0.0-1.0-653.0","0","0","96907","","708","","","75","72","","","2","72","training","adjacent","FG","6","7","P.jpg","O.jpg","1","1","1","",""
"","feedback","","html-keyboard-response","468","778749","0.0-1.0-654.0-0.0","0","0","96907","","null","","","null","72","","","","","","","","","","","","","","","",""
"","ITI","","html-keyboard-response","469","779751","0.0-1.0-657.0","0","0","96907","","null","","","null","72","","","","","","","","","","","","","","","NaN",""
"","S1","","html-keyboard-response","470","780004","0.0-1.0-659.0","0","0","96907","","null","","","null","73","","","","","","","","","","","","","","","",""
"","ISI","","html-keyboard-response","471","782007","0.0-1.0-660.0","0","0","96907","","null","","","null","73","NaN","","","","","","","","","","","","","","",""
"","S2","","html-keyboard-response","472","782260","0.0-1.0-661.0","0","0","96907","","null","","","null","73","","NaN","","","","","","","","","","","","","",""
"","response","","html-keyboard-response","473","782351","0.0-1.0-662.0","0","0","96907","","89","","","68","73","","","2","73","training","adjacent","GF","7","6","O.jpg","P.jpg","0","0","1","",""
"","feedback","","html-keyboard-response","474","783363","0.0-1.0-663.0-0.0","0","0","96907","","null","","","null","73","","","","","","","","","","","","","","","",""
"","ITI","","html-keyboard-response","475","784366","0.0-1.0-666.0","0","0","96907","","null","","","null","73","","","","","","","","","","","","","","","NaN",""
"","S1","","html-keyboard-response","476","784618","0.0-1.0-668.0","0","0","96907","","null","","","null","74","","","","","","","","","","","","","","","",""
"","ISI","","html-keyboard-response","477","786620","0.0-1.0-669.0","0","0","96907","","null","","","null","74","NaN","","","","","","","","","","","","","","",""
"","S2","","html-keyboard-response","478","786872","0.0-1.0-670.0","0","0","96907","","null","","","null","74","","NaN","","","","","","","","","","","","","",""
"","response","","html-keyboard-response","479","786995","0.0-1.0-671.0","0","0","96907","","121","","","75","74","","","2","74","training","adjacent","FG","6","7","P.jpg","O.jpg","1","1","1","",""
"","feedback","","html-keyboard-response","480","787999","0.0-1.0-672.0-0.0","0","0","96907","","null","","","null","74","","","","","","","","","","","","","","","",""
"","ITI","","html-keyboard-response","481","789003","0.0-1.0-675.0","0","0","96907","","null","","","null","74","","","","","","","","","","","","","","","NaN",""
"","S1","","html-keyboard-response","482","789257","0.0-1.0-677.0","0","0","96907","","null","","","null","75","","","","","","","","","","","","","","","",""
"","ISI","","html-keyboard-response","483","791260","0.0-1.0-678.0","0","0","96907","","null","","","null","75","NaN","","","","","","","","","","","","","","",""
"","S2","","html-keyboard-response","484","791514","0.0-1.0-679.0","0","0","96907","","null","","","null","75","","NaN","","","","","","","","","","","","","",""
"","response","","html-keyboard-response","485","791912","0.0-1.0-680.0","0","0","96907","","396","","","68","75","","","2","75","training","adjacent","CD","3","4","N.jpg","L.jpg","0","1","0","",""
"","feedback","","html-keyboard-response","486","792918","0.0-1.0-681.0-0.0","0","0","96907","","null","","","null","75","","","","","","","","","","","","","","","",""
"","time_out","","html-keyboard-response","487","794921","0.0-1.0-683.0-0.0","0","0","96907","","null","","","null","75","","","","","","","","","","","","","","","",""
"","ITI","","html-keyboard-response","488","795924","0.0-1.0-684.0","0","0","96907","","null","","","null","75","","","","","","","","","","","","","","","NaN",""
"","S1","","html-keyboard-response","489","796178","0.0-1.0-686.0","0","0","96907","","null","","","null","76","","","","","","","","","","","","","","","",""
"","ISI","","html-keyboard-response","490","798181","0.0-1.0-687.0","0","0","96907","","null","","","null","76","NaN","","","","","","","","","","","","","","",""
"","S2","","html-keyboard-response","491","798434","0.0-1.0-688.0","0","0","96907","","null","","","null","76","","NaN","","","","","","","","","","","","","",""
"","response","","html-keyboard-response","492","798543","0.0-1.0-689.0","0","0","96907","","107","","","75","76","","","2","76","training","adjacent","AB","1","2","Q.jpg","M.jpg","1","1","1","",""
"","feedback","","html-keyboard-response","493","799546","0.0-1.0-690.0-0.0","0","0","96907","","null","","","null","76","","","","","","","","","","","","","","","",""
"","ITI","","html-keyboard-response","494","800549","0.0-1.0-693.0","0","0","96907","","null","","","null","76","","","","","","","","","","","","","","","NaN",""
"","S1","","html-keyboard-response","495","800802","0.0-1.0-695.0","0","0","96907","","null","","","null","77","","","","","","","","","","","","","","","",""
"","ISI","","html-keyboard-response","496","802804","0.0-1.0-696.0","0","0","96907","","null","","","null","77","NaN","","","","","","","","","","","","","","",""
"","S2","","html-keyboard-response","497","803058","0.0-1.0-697.0","0","0","96907","","null","","","null","77","","NaN","","","","","","","","","","","","","",""
"","response","","html-keyboard-response","498","803466","0.0-1.0-698.0","0","0","96907","","406","","","75","77","","","2","77","training","adjacent","CB","3","2","N.jpg","M.jpg","1","0","0","",""
"","feedback","","html-keyboard-response","499","804469","0.0-1.0-699.0-0.0","0","0","96907","","null","","","null","77","","","","","","","","","","","","","","","",""
"","time_out","","html-keyboard-response","500","806472","0.0-1.0-701.0-0.0","0","0","96907","","null","","","null","77","","","","","","","","","","","","","","","",""
"","ITI","","html-keyboard-response","501","807476","0.0-1.0-702.0","0","0","96907","","null","","","null","77","","","","","","","","","","","","","","","NaN",""
"","S1","","html-keyboard-response","502","807729","0.0-1.0-704.0","0","0","96907","","null","","","null","78","","","","","","","","","","","","","","","",""
"","ISI","","html-keyboard-response","503","809732","0.0-1.0-705.0","0","0","96907","","null","","","null","78","NaN","","","","","","","","","","","","","","",""
"","S2","","html-keyboard-response","504","809984","0.0-1.0-706.0","0","0","96907","","null","","","null","78","","NaN","","","","","","","","","","","","","",""
"","response","","html-keyboard-response","505","811107","0.0-1.0-707.0","0","0","96907","","1120","","","75","78","","","2","78","training","adjacent","DE","4","5","L.jpg","R.jpg","1","1","1","",""
"","feedback","","html-keyboard-response","506","812110","0.0-1.0-708.0-0.0","0","0","96907","","null","","","null","78","","","","","","","","","","","","","","","",""
"","ITI","","html-keyboard-response","507","813113","0.0-1.0-711.0","0","0","96907","","null","","","null","78","","","","","","","","","","","","","","","NaN",""
"","S1","","html-keyboard-response","508","813364","0.0-1.0-713.0","0","0","96907","","null","","","null","79","","","","","","","","","","","","","","","",""
"","ISI","","html-keyboard-response","509","815367","0.0-1.0-714.0","0","0","96907","","null","","","null","79","NaN","","","","","","","","","","","","","","",""
"","S2","","html-keyboard-response","510","815622","0.0-1.0-715.0","0","0","96907","","null","","","null","79","","NaN","","","","","","","","","","","","","",""
"","response","","html-keyboard-response","511","816055","0.0-1.0-716.0","0","0","96907","","430","","","68","79","","","2","79","training","adjacent","BA","2","1","M.jpg","Q.jpg","0","0","1","",""
"","feedback","","html-keyboard-response","512","817058","0.0-1.0-717.0-0.0","0","0","96907","","null","","","null","79","","","","","","","","","","","","","","","",""
"","ITI","","html-keyboard-response","513","818061","0.0-1.0-720.0","0","0","96907","","null","","","null","79","","","","","","","","","","","","","","","NaN",""
"","S1","","html-keyboard-response","514","818313","0.0-1.0-722.0","0","0","96907","","null","","","null","80","","","","","","","","","","","","","","","",""
"","ISI","","html-keyboard-response","515","820316","0.0-1.0-723.0","0","0","96907","","null","","","null","80","NaN","","","","","","","","","","","","","","",""
"","S2","","html-keyboard-response","516","820570","0.0-1.0-724.0","0","0","96907","","null","","","null","80","","NaN","","","","","","","","","","","","","",""
"","response","","html-keyboard-response","517","821454","0.0-1.0-725.0","0","0","96907","","882","","","68","80","","","2","80","training","adjacent","ED","5","4","R.jpg","L.jpg","0","0","1","",""
"","feedback","","html-keyboard-response","518","822457","0.0-1.0-726.0-0.0","0","0","96907","","null","","","null","80","","","","","","","","","","","","","","","",""
"","ITI","","html-keyboard-response","519","823459","0.0-1.0-729.0","0","0","96907","","null","","","null","80","","","","","","","","","","","","","","","NaN",""
"","S1","","html-keyboard-response","520","823712","0.0-1.0-731.0","0","0","96907","","null","","","null","81","","","","","","","","","","","","","","","",""
"","ISI","","html-keyboard-response","521","825714","0.0-1.0-732.0","0","0","96907","","null","","","null","81","NaN","","","","","","","","","","","","","","",""
"","S2","","html-keyboard-response","522","825968","0.0-1.0-733.0","0","0","96907","","null","","","null","81","","NaN","","","","","","","","","","","","","",""
"","response","","html-keyboard-response","523","826661","0.0-1.0-734.0","0","0","96907","","691","","","75","81","","","2","81","training","adjacent","DC","4","3","L.jpg","N.jpg","1","0","0","",""
"","feedback","","html-keyboard-response","524","827664","0.0-1.0-735.0-0.0","0","0","96907","","null","","","null","81","","","","","","","","","","","","","","","",""
"","time_out","","html-keyboard-response","525","829668","0.0-1.0-737.0-0.0","0","0","96907","","null","","","null","81","","","","","","","","","","","","","","","",""
"","ITI","","html-keyboard-response","526","830670","0.0-1.0-738.0","0","0","96907","","null","","","null","81","","","","","","","","","","","","","","","NaN",""
"","S1","","html-keyboard-response","527","830922","0.0-1.0-740.0","0","0","96907","","null","","","null","82","","","","","","","","","","","","","","","",""
"","ISI","","html-keyboard-response","528","832924","0.0-1.0-741.0","0","0","96907","","null","","","null","82","NaN","","","","","","","","","","","","","","",""
"","S2","","html-keyboard-response","529","833177","0.0-1.0-742.0","0","0","96907","","null","","","null","82","","NaN","","","","","","","","","","","","","",""
"","response","","html-keyboard-response","530","833818","0.0-1.0-743.0","0","0","96907","","639","","","68","82","","","2","82","training","adjacent","BA","2","1","M.jpg","Q.jpg","0","0","1","",""
"","feedback","","html-keyboard-response","531","834821","0.0-1.0-744.0-0.0","0","0","96907","","null","","","null","82","","","","","","","","","","","","","","","",""
"","ITI","","html-keyboard-response","532","835824","0.0-1.0-747.0","0","0","96907","","null","","","null","82","","","","","","","","","","","","","","","NaN",""
"","S1","","html-keyboard-response","533","836078","0.0-1.0-749.0","0","0","96907","","null","","","null","83","","","","","","","","","","","","","","","",""
"","ISI","","html-keyboard-response","534","838081","0.0-1.0-750.0","0","0","96907","","null","","","null","83","NaN","","","","","","","","","","","","","","",""
"","S2","","html-keyboard-response","535","838334","0.0-1.0-751.0","0","0","96907","","null","","","null","83","","NaN","","","","","","","","","","","","","",""
"","response","","html-keyboard-response","536","838766","0.0-1.0-752.0","0","0","96907","","431","","","68","83","","","2","83","training","adjacent","BA","2","1","M.jpg","Q.jpg","0","0","1","",""
"","feedback","","html-keyboard-response","537","839769","0.0-1.0-753.0-0.0","0","0","96907","","null","","","null","83","","","","","","","","","","","","","","","",""
"","ITI","","html-keyboard-response","538","840772","0.0-1.0-756.0","0","0","96907","","null","","","null","83","","","","","","","","","","","","","","","NaN",""
"","S1","","html-keyboard-response","539","841025","0.0-1.0-758.0","0","0","96907","","null","","","null","84","","","","","","","","","","","","","","","",""
"","ISI","","html-keyboard-response","540","843027","0.0-1.0-759.0","0","0","96907","","null","","","null","84","NaN","","","","","","","","","","","","","","",""
"","S2","","html-keyboard-response","541","843280","0.0-1.0-760.0","0","0","96907","","null","","","null","84","","NaN","","","","","","","","","","","","","",""
"","response","","html-keyboard-response","542","843953","0.0-1.0-761.0","0","0","96907","","671","","","75","84","","","2","84","training","adjacent","BC","2","3","M.jpg","N.jpg","1","1","1","",""
"","feedback","","html-keyboard-response","543","844956","0.0-1.0-762.0-0.0","0","0","96907","","null","","","null","84","","","","","","","","","","","","","","","",""
"","ITI","","html-keyboard-response","544","845958","0.0-1.0-765.0","0","0","96907","","null","","","null","84","","","","","","","","","","","","","","","NaN",""
"","S1","","html-keyboard-response","545","846210","0.0-1.0-767.0","0","0","96907","","null","","","null","85","","","","","","","","","","","","","","","",""
"","ISI","","html-keyboard-response","546","848214","0.0-1.0-768.0","0","0","96907","","null","","","null","85","NaN","","","","","","","","","","","","","","",""
"","S2","","html-keyboard-response","547","848466","0.0-1.0-769.0","0","0","96907","","null","","","null","85","","NaN","","","","","","","","","","","","","",""
"","response","","html-keyboard-response","548","849259","0.0-1.0-770.0","0","0","96907","","791","","","68","85","","","2","85","training","adjacent","FE","6","5","P.jpg","R.jpg","0","0","1","",""
"","feedback","","html-keyboard-response","549","850261","0.0-1.0-771.0-0.0","0","0","96907","","null","","","null","85","","","","","","","","","","","","","","","",""
"","ITI","","html-keyboard-response","550","851264","0.0-1.0-774.0","0","0","96907","","null","","","null","85","","","","","","","","","","","","","","","NaN",""
"","S1","","html-keyboard-response","551","851516","0.0-1.0-776.0","0","0","96907","","null","","","null","86","","","","","","","","","","","","","","","",""
"","ISI","","html-keyboard-response","552","853518","0.0-1.0-777.0","0","0","96907","","null","","","null","86","NaN","","","","","","","","","","","","","","",""
"","S2","","html-keyboard-response","553","853771","0.0-1.0-778.0","0","0","96907","","null","","","null","86","","NaN","","","","","","","","","","","","","",""
"","response","","html-keyboard-response","554","854273","0.0-1.0-779.0","0","0","96907","","500","","","68","86","","","2","86","training","adjacent","BA","2","1","M.jpg","Q.jpg","0","0","1","",""
"","feedback","","html-keyboard-response","555","855277","0.0-1.0-780.0-0.0","0","0","96907","","null","","","null","86","","","","","","","","","","","","","","","",""
"","ITI","","html-keyboard-response","556","856282","0.0-1.0-783.0","0","0","96907","","null","","","null","86","","","","","","","","","","","","","","","NaN",""
"","S1","","html-keyboard-response","557","856534","0.0-1.0-785.0","0","0","96907","","null","","","null","87","","","","","","","","","","","","","","","",""
"","ISI","","html-keyboard-response","558","858537","0.0-1.0-786.0","0","0","96907","","null","","","null","87","NaN","","","","","","","","","","","","","","",""
"","S2","","html-keyboard-response","559","858790","0.0-1.0-787.0","0","0","96907","","null","","","null","87","","NaN","","","","","","","","","","","","","",""
"","response","","html-keyboard-response","560","859309","0.0-1.0-788.0","0","0","96907","","517","","","68","87","","","2","87","training","adjacent","FE","6","5","P.jpg","R.jpg","0","0","1","",""
"","feedback","","html-keyboard-response","561","860312","0.0-1.0-789.0-0.0","0","0","96907","","null","","","null","87","","","","","","","","","","","","","","","",""
"","ITI","","html-keyboard-response","562","861314","0.0-1.0-792.0","0","0","96907","","null","","","null","87","","","","","","","","","","","","","","","NaN",""
"","S1","","html-keyboard-response","563","861567","0.0-1.0-794.0","0","0","96907","","null","","","null","88","","","","","","","","","","","","","","","",""
"","ISI","","html-keyboard-response","564","863570","0.0-1.0-795.0","0","0","96907","","null","","","null","88","NaN","","","","","","","","","","","","","","",""
"","S2","","html-keyboard-response","565","863822","0.0-1.0-796.0","0","0","96907","","null","","","null","88","","NaN","","","","","","","","","","","","","",""
"","response","","html-keyboard-response","566","864313","0.0-1.0-797.0","0","0","96907","","487","","","75","88","","","2","88","training","adjacent","FG","6","7","P.jpg","O.jpg","1","1","1","",""
"","feedback","","html-keyboard-response","567","865316","0.0-1.0-798.0-0.0","0","0","96907","","null","","","null","88","","","","","","","","","","","","","","","",""
"","ITI","","html-keyboard-response","568","866319","0.0-1.0-801.0","0","0","96907","","null","","","null","88","","","","","","","","","","","","","","","NaN",""
"","S1","","html-keyboard-response","569","866572","0.0-1.0-803.0","0","0","96907","","null","","","null","89","","","","","","","","","","","","","","","",""
"","ISI","","html-keyboard-response","570","868574","0.0-1.0-804.0","0","0","96907","","null","","","null","89","NaN","","","","","","","","","","","","","","",""
"","S2","","html-keyboard-response","571","868827","0.0-1.0-805.0","0","0","96907","","null","","","null","89","","NaN","","","","","","","","","","","","","",""
"","response","","html-keyboard-response","572","869314","0.0-1.0-806.0","0","0","96907","","485","","","68","89","","","2","89","training","adjacent","CB","3","2","N.jpg","M.jpg","0","0","1","",""
"","feedback","","html-keyboard-response","573","870317","0.0-1.0-807.0-0.0","0","0","96907","","null","","","null","89","","","","","","","","","","","","","","","",""
"","ITI","","html-keyboard-response","574","871320","0.0-1.0-810.0","0","0","96907","","null","","","null","89","","","","","","","","","","","","","","","NaN",""
"","S1","","html-keyboard-response","575","871574","0.0-1.0-812.0","0","0","96907","","null","","","null","90","","","","","","","","","","","","","","","",""
"","ISI","","html-keyboard-response","576","873576","0.0-1.0-813.0","0","0","96907","","null","","","null","90","NaN","","","","","","","","","","","","","","",""
"","S2","","html-keyboard-response","577","873829","0.0-1.0-814.0","0","0","96907","","null","","","null","90","","NaN","","","","","","","","","","","","","",""
"","response","","html-keyboard-response","578","874615","0.0-1.0-815.0","0","0","96907","","785","","","68","90","","","2","90","training","adjacent","ED","5","4","R.jpg","L.jpg","0","0","1","",""
"","feedback","","html-keyboard-response","579","875619","0.0-1.0-816.0-0.0","0","0","96907","","null","","","null","90","","","","","","","","","","","","","","","",""
"","ITI","","html-keyboard-response","580","876622","0.0-1.0-819.0","0","0","96907","","null","","","null","90","","","","","","","","","","","","","","","NaN",""
"","S1","","html-keyboard-response","581","876876","0.0-1.0-821.0","0","0","96907","","null","","","null","91","","","","","","","","","","","","","","","",""
