"success","ttype","start_time","trial_type","trial_index","time_elapsed","internal_node_id","warning","missed_checkup","PID","view_history","rt","responses","repeat_instructions","key_press","index","keypress_isi","keypress_S2","block","trial_num","phase","group_type","pair_type","S1_stim","S2_stim","S1_img","S2_img","S1_chosen","S1_higher","accuracy","keypress_iti","total_bonus_tally"
"true","full_screen","d08052022hr1334","fullscreen","0","8745","0.0-0.0","0","0","48657","","","","","","","","","","","","","","","","","","","","","",""
"","instructions","","instructions","1","44209","0.0-1.0-0.0-0.0","0","0","48657","[{""page_index"":0,""viewing_time"":6402},{""page_index"":1,""viewing_time"":20152},{""page_index"":2,""viewing_time"":7509},{""page_index"":3,""viewing_time"":1399}]","35462","","","","","","","","","","","","","","","","","","","",""
"","comprehension_check","","survey-multi-choice","2","65736","0.0-1.0-0.0-1.0","0","0","48657","","21524","{""Q0"":""True"",""Q1"":""D"",""Q2"":""Only when the screen 'MAKE A CHOICE' is shown"",""Q3"":""Green mark"",""Q4"":""either D or K""}","1","","","","","","","","","","","","","","","","","",""
"","missed_instruction_checkup","","html-keyboard-response","3","68615","0.0-1.0-0.0-2.0-0.0","0","1","48657","","2876","","","32","","","","","","","","","","","","","","","","",""
"","instructions","","instructions","4","107971","0.0-1.0-0.1-0.1","0","0","48657","[{""page_index"":0,""viewing_time"":2140},{""page_index"":1,""viewing_time"":31894},{""page_index"":2,""viewing_time"":4747},{""page_index"":3,""viewing_time"":574}]","39356","","","","","","","","","","","","","","","","","","","",""
"","comprehension_check","","survey-multi-choice","5","119625","0.0-1.0-0.1-1.1","0","0","48657","","11651","{""Q0"":""True"",""Q1"":""K"",""Q2"":""Once the second image appears and while the screen 'MAKE A CHOICE' is shown"",""Q3"":""Green mark"",""Q4"":""either D or K""}","0","","","","","","","","","","","","","","","","","",""
"","start_exp","","html-keyboard-response","6","121530","0.0-1.0-1.0","0","0","48657","","1902","","","32","","","","","","","","","","","","","","","","",""
"","S1","","html-keyboard-response","7","121785","0.0-1.0-2.0","0","0","48657","","null","","","null","0","","","","","","","","","","","","","","","",""
"","ISI","","html-keyboard-response","8","123789","0.0-1.0-3.0","0","0","48657","","null","","","null","0","NaN","","","","","","","","","","","","","","",""
"","S2","","html-keyboard-response","9","124045","0.0-1.0-4.0","0","0","48657","","null","","","null","0","","NaN","","","","","","","","","","","","","",""
"","response","","html-keyboard-response","10","124502","0.0-1.0-5.0-0.0","0","0","48657","","454","","","75","0","","","1","0","training","adjacent","BA","2","1","O.jpg","N.jpg","1","0","0","",""
"","feedback","","html-keyboard-response","11","125507","0.0-1.0-6.0-0.0","0","0","48657","","null","","","null","0","","","","","","","","","","","","","","","",""
"","time_out","","html-keyboard-response","12","127512","0.0-1.0-8.0-0.0","0","0","48657","","null","","","null","0","","","","","","","","","","","","","","","",""
"","ITI","","html-keyboard-response","13","128516","0.0-1.0-9.0","0","0","48657","","null","","","null","0","","","","","","","","","","","","","","","NaN",""
"","S1","","html-keyboard-response","14","128770","0.0-1.0-11.0","0","0","48657","","null","","","null","1","","","","","","","","","","","","","","","",""
"","ISI","","html-keyboard-response","15","130772","0.0-1.0-12.0","0","0","48657","","null","","","null","1","NaN","","","","","","","","","","","","","","",""
"","S2","","html-keyboard-response","16","131027","0.0-1.0-13.0","0","0","48657","","null","","","null","1","","NaN","","","","","","","","","","","","","",""
"","response","","html-keyboard-response","17","131321","0.0-1.0-14.0-0.0","0","0","48657","","288","","","68","1","","","1","1","training","adjacent","FE","6","5","L.jpg","P.jpg","0","0","1","",""
"","feedback","","html-keyboard-response","18","132325","0.0-1.0-15.0-0.0","0","0","48657","","null","","","null","1","","","","","","","","","","","","","","","",""
"","ITI","","html-keyboard-response","19","133329","0.0-1.0-18.0","0","0","48657","","null","","","null","1","","","","","","","","","","","","","","","NaN",""
"","S1","","html-keyboard-response","20","133585","0.0-1.0-20.0","0","0","48657","","null","","","null","2","","","","","","","","","","","","","","","",""
"","ISI","","html-keyboard-response","21","135589","0.0-1.0-21.0","0","0","48657","","null","","","null","2","NaN","","","","","","","","","","","","","","",""
"","S2","","html-keyboard-response","22","135841","0.0-1.0-22.0","0","0","48657","","null","","","null","2","","NaN","","","","","","","","","","","","","",""
"","response","","html-keyboard-response","23","136216","0.0-1.0-23.0-0.0","0","0","48657","","372","","","75","2","","","1","2","training","adjacent","GF","7","6","M.jpg","L.jpg","1","0","0","",""
"","feedback","","html-keyboard-response","24","137219","0.0-1.0-24.0-0.0","0","0","48657","","null","","","null","2","","","","","","","","","","","","","","","",""
"","time_out","","html-keyboard-response","25","139220","0.0-1.0-26.0-0.0","0","0","48657","","null","","","null","2","","","","","","","","","","","","","","","",""
"","ITI","","html-keyboard-response","26","140222","0.0-1.0-27.0","0","0","48657","","null","","","null","2","","","","","","","","","","","","","","","NaN",""
"","S1","","html-keyboard-response","27","140475","0.0-1.0-29.0","0","0","48657","","null","","","null","3","","","","","","","","","","","","","","","",""
"","ISI","","html-keyboard-response","28","142477","0.0-1.0-30.0","0","0","48657","","null","","","null","3","NaN","","","","","","","","","","","","","","",""
"","S2","","html-keyboard-response","29","142730","0.0-1.0-31.0","0","0","48657","","null","","","null","3","","NaN","","","","","","","","","","","","","",""
"","response","","html-keyboard-response","30","142910","0.0-1.0-32.0-0.0","0","0","48657","","179","","","75","3","","","1","3","training","adjacent","FG","6","7","L.jpg","M.jpg","1","1","1","",""
"","feedback","","html-keyboard-response","31","143914","0.0-1.0-33.0-0.0","0","0","48657","","null","","","null","3","","","","","","","","","","","","","","","",""
"","ITI","","html-keyboard-response","32","144919","0.0-1.0-36.0","0","0","48657","","null","","","null","3","","","","","","","","","","","","","","","NaN",""
"","S1","","html-keyboard-response","33","145174","0.0-1.0-38.0","0","0","48657","","null","","","null","4","","","","","","","","","","","","","","","",""
"","ISI","","html-keyboard-response","34","147179","0.0-1.0-39.0","0","0","48657","","null","","","null","4","NaN","","","","","","","","","","","","","","",""
"","S2","","html-keyboard-response","35","147441","0.0-1.0-40.0","0","0","48657","","null","","","null","4","","NaN","","","","","","","","","","","","","",""
"","response","","html-keyboard-response","36","147939","0.0-1.0-41.0-0.0","0","0","48657","","495","","","68","4","","","1","4","training","adjacent","ED","5","4","P.jpg","Q.jpg","0","0","1","",""
"","feedback","","html-keyboard-response","37","148943","0.0-1.0-42.0-0.0","0","0","48657","","null","","","null","4","","","","","","","","","","","","","","","",""
"","ITI","","html-keyboard-response","38","149948","0.0-1.0-45.0","0","0","48657","","null","","","null","4","","","","","","","","","","","","","","","NaN",""
"","S1","","html-keyboard-response","39","150202","0.0-1.0-47.0","0","0","48657","","null","","","null","5","","","","","","","","","","","","","","","",""
"","ISI","","html-keyboard-response","40","152203","0.0-1.0-48.0","0","0","48657","","null","","","null","5","NaN","","","","","","","","","","","","","","",""
"","S2","","html-keyboard-response","41","152455","0.0-1.0-49.0","0","0","48657","","null","","","null","5","","NaN","","","","","","","","","","","","","",""
"","response","","html-keyboard-response","42","152506","0.0-1.0-50.0-0.0","0","0","48657","","49","","","75","5","","","1","5","training","adjacent","FE","6","5","L.jpg","P.jpg","1","0","0","",""
"","feedback","","html-keyboard-response","43","153511","0.0-1.0-51.0-0.0","0","0","48657","","null","","","null","5","","","","","","","","","","","","","","","",""
"","time_out","","html-keyboard-response","44","155516","0.0-1.0-53.0-0.0","0","0","48657","","null","","","null","5","","","","","","","","","","","","","","","",""
"","ITI","","html-keyboard-response","45","156518","0.0-1.0-54.0","0","0","48657","","null","","","null","5","","","","","","","","","","","","","","","NaN",""
"","S1","","html-keyboard-response","46","156770","0.0-1.0-56.0","0","0","48657","","null","","","null","6","","","","","","","","","","","","","","","",""
"","ISI","","html-keyboard-response","47","158773","0.0-1.0-57.0","0","0","48657","","null","","","null","6","NaN","","","","","","","","","","","","","","",""
"","S2","","html-keyboard-response","48","159027","0.0-1.0-58.0","0","0","48657","","null","","","null","6","","NaN","","","","","","","","","","","","","",""
"","response","","html-keyboard-response","49","159306","0.0-1.0-59.0-0.0","0","0","48657","","276","","","75","6","","","1","6","training","adjacent","DC","4","3","Q.jpg","R.jpg","1","0","0","",""
"","feedback","","html-keyboard-response","50","160310","0.0-1.0-60.0-0.0","0","0","48657","","null","","","null","6","","","","","","","","","","","","","","","",""
"","time_out","","html-keyboard-response","51","162314","0.0-1.0-62.0-0.0","0","0","48657","","null","","","null","6","","","","","","","","","","","","","","","",""
"","ITI","","html-keyboard-response","52","163318","0.0-1.0-63.0","0","0","48657","","null","","","null","6","","","","","","","","","","","","","","","NaN",""
"","S1","","html-keyboard-response","53","163571","0.0-1.0-65.0","0","0","48657","","null","","","null","7","","","","","","","","","","","","","","","",""
"","ISI","","html-keyboard-response","54","165576","0.0-1.0-66.0","0","0","48657","","null","","","null","7","NaN","","","","","","","","","","","","","","",""
"","S2","","html-keyboard-response","55","165832","0.0-1.0-67.0","0","0","48657","","null","","","null","7","","NaN","","","","","","","","","","","","","",""
"","response","","html-keyboard-response","56","166362","0.0-1.0-68.0-0.0","0","0","48657","","526","","","68","7","","","1","7","training","adjacent","CD","3","4","R.jpg","Q.jpg","0","1","0","",""
"","feedback","","html-keyboard-response","57","167365","0.0-1.0-69.0-0.0","0","0","48657","","null","","","null","7","","","","","","","","","","","","","","","",""
"","time_out","","html-keyboard-response","58","169369","0.0-1.0-71.0-0.0","0","0","48657","","null","","","null","7","","","","","","","","","","","","","","","",""
"","ITI","","html-keyboard-response","59","170374","0.0-1.0-72.0","0","0","48657","","null","","","null","7","","","","","","","","","","","","","","","NaN",""
"","S1","","html-keyboard-response","60","170628","0.0-1.0-74.0","0","0","48657","","null","","","null","8","","","","","","","","","","","","","","","",""
"","ISI","","html-keyboard-response","61","172632","0.0-1.0-75.0","0","0","48657","","null","","","null","8","NaN","","","","","","","","","","","","","","",""
"","S2","","html-keyboard-response","62","172887","0.0-1.0-76.0","0","0","48657","","null","","","null","8","","NaN","","","","","","","","","","","","","",""
"","response","","html-keyboard-response","63","173699","0.0-1.0-77.0-0.0","0","0","48657","","808","","","68","8","","","1","8","training","adjacent","ED","5","4","P.jpg","Q.jpg","0","0","1","",""
"","feedback","","html-keyboard-response","64","174703","0.0-1.0-78.0-0.0","0","0","48657","","null","","","null","8","","","","","","","","","","","","","","","",""
"","ITI","","html-keyboard-response","65","175707","0.0-1.0-81.0","0","0","48657","","null","","","null","8","","","","","","","","","","","","","","","NaN",""
"","S1","","html-keyboard-response","66","175960","0.0-1.0-83.0","0","0","48657","","null","","","null","9","","","","","","","","","","","","","","","",""
"","ISI","","html-keyboard-response","67","177962","0.0-1.0-84.0","0","0","48657","","null","","","null","9","NaN","","","","","","","","","","","","","","",""
"","S2","","html-keyboard-response","68","178216","0.0-1.0-85.0","0","0","48657","","null","","","null","9","","NaN","","","","","","","","","","","","","",""
"","response","","html-keyboard-response","69","178802","0.0-1.0-86.0-0.0","0","0","48657","","582","","","68","9","","","1","9","training","adjacent","CB","3","2","R.jpg","O.jpg","0","0","1","",""
"","feedback","","html-keyboard-response","70","179808","0.0-1.0-87.0-0.0","0","0","48657","","null","","","null","9","","","","","","","","","","","","","","","",""
"","ITI","","html-keyboard-response","71","180811","0.0-1.0-90.0","0","0","48657","","null","","","null","9","","","","","","","","","","","","","","","NaN",""
"","S1","","html-keyboard-response","72","181065","0.0-1.0-92.0","0","0","48657","","null","","","null","10","","","","","","","","","","","","","","","",""
"","ISI","","html-keyboard-response","73","183069","0.0-1.0-93.0","0","0","48657","","null","","","null","10","NaN","","","","","","","","","","","","","","",""
"","S2","","html-keyboard-response","74","183328","0.0-1.0-94.0","0","0","48657","","null","","","null","10","","NaN","","","","","","","","","","","","","",""
"","response","","html-keyboard-response","75","183641","0.0-1.0-95.0-0.0","0","0","48657","","311","","","75","10","","","1","10","training","adjacent","BC","2","3","O.jpg","R.jpg","1","1","1","",""
"","feedback","","html-keyboard-response","76","184645","0.0-1.0-96.0-0.0","0","0","48657","","null","","","null","10","","","","","","","","","","","","","","","",""
"","ITI","","html-keyboard-response","77","185649","0.0-1.0-99.0","0","0","48657","","null","","","null","10","","","","","","","","","","","","","","","NaN",""
"","S1","","html-keyboard-response","78","185903","0.0-1.0-101.0","0","0","48657","","null","","","null","11","","","","","","","","","","","","","","","",""
"","ISI","","html-keyboard-response","79","187907","0.0-1.0-102.0","0","0","48657","","null","","","null","11","NaN","","","","","","","","","","","","","","",""
"","S2","","html-keyboard-response","80","188162","0.0-1.0-103.0","0","0","48657","","null","","","null","11","","NaN","","","","","","","","","","","","","",""
"","response","","html-keyboard-response","81","188505","0.0-1.0-104.0-0.0","0","0","48657","","340","","","68","11","","","1","11","training","adjacent","CB","3","2","R.jpg","O.jpg","0","0","1","",""
"","feedback","","html-keyboard-response","82","189510","0.0-1.0-105.0-0.0","0","0","48657","","null","","","null","11","","","","","","","","","","","","","","","",""
"","ITI","","html-keyboard-response","83","190513","0.0-1.0-108.0","0","0","48657","","null","","","null","11","","","","","","","","","","","","","","","NaN",""
"","S1","","html-keyboard-response","84","190765","0.0-1.0-110.0","0","0","48657","","null","","","null","12","","","","","","","","","","","","","","","",""
"","ISI","","html-keyboard-response","85","192766","0.0-1.0-111.0","0","0","48657","","null","","","null","12","NaN","","","","","","","","","","","","","","",""
"","S2","","html-keyboard-response","86","193021","0.0-1.0-112.0","0","0","48657","","null","","","null","12","","NaN","","","","","","","","","","","","","",""
"","response","","html-keyboard-response","87","193098","0.0-1.0-113.0-0.0","0","0","48657","","72","","","68","12","","","1","12","training","adjacent","CD","3","4","R.jpg","Q.jpg","0","1","0","",""
"","feedback","","html-keyboard-response","88","194104","0.0-1.0-114.0-0.0","0","0","48657","","null","","","null","12","","","","","","","","","","","","","","","",""
"","time_out","","html-keyboard-response","89","196109","0.0-1.0-116.0-0.0","0","0","48657","","null","","","null","12","","","","","","","","","","","","","","","",""
"","ITI","","html-keyboard-response","90","197114","0.0-1.0-117.0","0","0","48657","","null","","","null","12","","","","","","","","","","","","","","","NaN",""
"","S1","","html-keyboard-response","91","197367","0.0-1.0-119.0","0","0","48657","","null","","","null","13","","","","","","","","","","","","","","","",""
"","ISI","","html-keyboard-response","92","199369","0.0-1.0-120.0","0","0","48657","","null","","","null","13","NaN","","","","","","","","","","","","","","",""
"","S2","","html-keyboard-response","93","199625","0.0-1.0-121.0","0","0","48657","","null","","","null","13","","NaN","","","","","","","","","","","","","",""
"","response","","html-keyboard-response","94","199734","0.0-1.0-122.0-0.0","0","0","48657","","107","","","75","13","","","1","13","training","adjacent","BA","2","1","O.jpg","N.jpg","1","0","0","",""
"","feedback","","html-keyboard-response","95","200736","0.0-1.0-123.0-0.0","0","0","48657","","null","","","null","13","","","","","","","","","","","","","","","",""
"","time_out","","html-keyboard-response","96","202739","0.0-1.0-125.0-0.0","0","0","48657","","null","","","null","13","","","","","","","","","","","","","","","",""
"","ITI","","html-keyboard-response","97","203741","0.0-1.0-126.0","0","0","48657","","null","","","null","13","","","","","","","","","","","","","","","NaN",""
"","S1","","html-keyboard-response","98","203996","0.0-1.0-128.0","0","0","48657","","null","","","null","14","","","","","","","","","","","","","","","",""
"","ISI","","html-keyboard-response","99","206000","0.0-1.0-129.0","0","0","48657","","null","","","null","14","NaN","","","","","","","","","","","","","","",""
"","S2","","html-keyboard-response","100","206268","0.0-1.0-130.0","0","0","48657","","null","","","null","14","","NaN","","","","","","","","","","","","","",""
"","response","","html-keyboard-response","101","206294","0.0-1.0-131.0-0.0","0","0","48657","","25","","","75","14","","","1","14","training","adjacent","GF","7","6","M.jpg","L.jpg","1","0","0","",""
"","feedback","","html-keyboard-response","102","207296","0.0-1.0-132.0-0.0","0","0","48657","","null","","","null","14","","","","","","","","","","","","","","","",""
"","time_out","","html-keyboard-response","103","209298","0.0-1.0-134.0-0.0","0","0","48657","","null","","","null","14","","","","","","","","","","","","","","","",""
"","ITI","","html-keyboard-response","104","210301","0.0-1.0-135.0","0","0","48657","","null","","","null","14","","","","","","","","","","","","","","","NaN",""
"","S1","","html-keyboard-response","105","210556","0.0-1.0-137.0","0","0","48657","","null","","","null","15","","","","","","","","","","","","","","","",""
"","ISI","","html-keyboard-response","106","212561","0.0-1.0-138.0","0","0","48657","","null","","","null","15","NaN","","","","","","","","","","","","","","",""
"","S2","","html-keyboard-response","107","212816","0.0-1.0-139.0","0","0","48657","","null","","","null","15","","NaN","","","","","","","","","","","","","",""
"","response","","html-keyboard-response","108","213042","0.0-1.0-140.0-0.0","0","0","48657","","222","","","68","15","","","1","15","training","adjacent","EF","5","6","P.jpg","L.jpg","0","1","0","",""
"","feedback","","html-keyboard-response","109","214046","0.0-1.0-141.0-0.0","0","0","48657","","null","","","null","15","","","","","","","","","","","","","","","",""
"","time_out","","html-keyboard-response","110","216051","0.0-1.0-143.0-0.0","0","0","48657","","null","","","null","15","","","","","","","","","","","","","","","",""
"","ITI","","html-keyboard-response","111","217057","0.0-1.0-144.0","0","0","48657","","null","","","null","15","","","","","","","","","","","","","","","NaN",""
"","S1","","html-keyboard-response","112","217312","0.0-1.0-146.0","0","0","48657","","null","","","null","16","","","","","","","","","","","","","","","",""
"","ISI","","html-keyboard-response","113","219317","0.0-1.0-147.0","0","0","48657","","null","","","null","16","NaN","","","","","","","","","","","","","","",""
"","S2","","html-keyboard-response","114","219572","0.0-1.0-148.0","0","0","48657","","null","","","null","16","","NaN","","","","","","","","","","","","","",""
"","response","","html-keyboard-response","115","219886","0.0-1.0-149.0-0.0","0","0","48657","","312","","","75","16","","","1","16","training","adjacent","BC","2","3","O.jpg","R.jpg","1","1","1","",""
"","feedback","","html-keyboard-response","116","220890","0.0-1.0-150.0-0.0","0","0","48657","","null","","","null","16","","","","","","","","","","","","","","","",""
"","ITI","","html-keyboard-response","117","221894","0.0-1.0-153.0","0","0","48657","","null","","","null","16","","","","","","","","","","","","","","","NaN",""
"","S1","","html-keyboard-response","118","222148","0.0-1.0-155.0","0","0","48657","","null","","","null","17","","","","","","","","","","","","","","","",""
"","ISI","","html-keyboard-response","119","224150","0.0-1.0-156.0","0","0","48657","","null","","","null","17","NaN","","","","","","","","","","","","","","",""
"","S2","","html-keyboard-response","120","224405","0.0-1.0-157.0","0","0","48657","","null","","","null","17","","NaN","","","","","","","","","","","","","",""
"","response","","html-keyboard-response","121","224433","0.0-1.0-158.0-0.0","0","0","48657","","25","","","75","17","","","1","17","training","adjacent","FE","6","5","L.jpg","P.jpg","1","0","0","",""
"","feedback","","html-keyboard-response","122","225438","0.0-1.0-159.0-0.0","0","0","48657","","null","","","null","17","","","","","","","","","","","","","","","",""
"","time_out","","html-keyboard-response","123","227441","0.0-1.0-161.0-0.0","0","0","48657","","null","","","null","17","","","","","","","","","","","","","","","",""
"","ITI","","html-keyboard-response","124","228445","0.0-1.0-162.0","0","0","48657","","null","","","null","17","","","","","","","","","","","","","","","NaN",""
"","S1","","html-keyboard-response","125","228698","0.0-1.0-164.0","0","0","48657","","null","","","null","18","","","","","","","","","","","","","","","",""
"","ISI","","html-keyboard-response","126","230702","0.0-1.0-165.0","0","0","48657","","null","","","null","18","NaN","","","","","","","","","","","","","","",""
"","S2","","html-keyboard-response","127","230957","0.0-1.0-166.0","0","0","48657","","null","","","null","18","","NaN","","","","","","","","","","","","","",""
"","response","","html-keyboard-response","128","231274","0.0-1.0-167.0-0.0","0","0","48657","","313","","","68","18","","","1","18","training","adjacent","AB","1","2","N.jpg","O.jpg","0","1","0","",""
"","feedback","","html-keyboard-response","129","232279","0.0-1.0-168.0-0.0","0","0","48657","","null","","","null","18","","","","","","","","","","","","","","","",""
"","time_out","","html-keyboard-response","130","234282","0.0-1.0-170.0-0.0","0","0","48657","","null","","","null","18","","","","","","","","","","","","","","","",""
"","ITI","","html-keyboard-response","131","235286","0.0-1.0-171.0","0","0","48657","","null","","","null","18","","","","","","","","","","","","","","","NaN",""
"","S1","","html-keyboard-response","132","235541","0.0-1.0-173.0","0","0","48657","","null","","","null","19","","","","","","","","","","","","","","","",""
"","ISI","","html-keyboard-response","133","237545","0.0-1.0-174.0","0","0","48657","","null","","","null","19","NaN","","","","","","","","","","","","","","",""
"","S2","","html-keyboard-response","134","237800","0.0-1.0-175.0","0","0","48657","","null","","","null","19","","NaN","","","","","","","","","","","","","",""
"","response","","html-keyboard-response","135","238378","0.0-1.0-176.0-0.0","0","0","48657","","574","","","75","19","","","1","19","training","adjacent","CB","3","2","R.jpg","O.jpg","1","0","0","",""
"","feedback","","html-keyboard-response","136","239384","0.0-1.0-177.0-0.0","0","0","48657","","null","","","null","19","","","","","","","","","","","","","","","",""
"","time_out","","html-keyboard-response","137","241387","0.0-1.0-179.0-0.0","0","0","48657","","null","","","null","19","","","","","","","","","","","","","","","",""
"","ITI","","html-keyboard-response","138","242391","0.0-1.0-180.0","0","0","48657","","null","","","null","19","","","","","","","","","","","","","","","NaN",""
"","S1","","html-keyboard-response","139","242646","0.0-1.0-182.0","0","0","48657","","null","","","null","20","","","","","","","","","","","","","","","",""
"","ISI","","html-keyboard-response","140","244650","0.0-1.0-183.0","0","0","48657","","null","","","null","20","NaN","","","","","","","","","","","","","","",""
"","S2","","html-keyboard-response","141","244906","0.0-1.0-184.0","0","0","48657","","null","","","null","20","","NaN","","","","","","","","","","","","","",""
"","response","","html-keyboard-response","142","245473","0.0-1.0-185.0-0.0","0","0","48657","","564","","","75","20","","","1","20","training","adjacent","AB","1","2","N.jpg","O.jpg","1","1","1","",""
"","feedback","","html-keyboard-response","143","246477","0.0-1.0-186.0-0.0","0","0","48657","","null","","","null","20","","","","","","","","","","","","","","","",""
"","ITI","","html-keyboard-response","144","247485","0.0-1.0-189.0","0","0","48657","","null","","","null","20","","","","","","","","","","","","","","","NaN",""
"","S1","","html-keyboard-response","145","247739","0.0-1.0-191.0","0","0","48657","","null","","","null","21","","","","","","","","","","","","","","","",""
"","ISI","","html-keyboard-response","146","249743","0.0-1.0-192.0","0","0","48657","","null","","","null","21","NaN","","","","","","","","","","","","","","",""
"","S2","","html-keyboard-response","147","249995","0.0-1.0-193.0","0","0","48657","","null","","","null","21","","NaN","","","","","","","","","","","","","",""
"","response","","html-keyboard-response","148","250350","0.0-1.0-194.0-0.0","0","0","48657","","353","","","68","21","","","1","21","training","adjacent","EF","5","6","P.jpg","L.jpg","0","1","0","",""
"","feedback","","html-keyboard-response","149","251353","0.0-1.0-195.0-0.0","0","0","48657","","null","","","null","21","","","","","","","","","","","","","","","",""
"","time_out","","html-keyboard-response","150","253356","0.0-1.0-197.0-0.0","0","0","48657","","null","","","null","21","","","","","","","","","","","","","","","",""
"","ITI","","html-keyboard-response","151","254360","0.0-1.0-198.0","0","0","48657","","null","","","null","21","","","","","","","","","","","","","","","NaN",""
"","S1","","html-keyboard-response","152","254621","0.0-1.0-200.0","0","0","48657","","null","","","null","22","","","","","","","","","","","","","","","",""
"","ISI","","html-keyboard-response","153","256624","0.0-1.0-201.0","0","0","48657","","null","","","null","22","NaN","","","","","","","","","","","","","","",""
"","S2","","html-keyboard-response","154","256877","0.0-1.0-202.0","0","0","48657","","null","","","null","22","","NaN","","","","","","","","","","","","","",""
"","response","","html-keyboard-response","155","257427","0.0-1.0-203.0-0.0","0","0","48657","","547","","","68","22","","","1","22","training","adjacent","BA","2","1","O.jpg","N.jpg","0","0","1","",""
"","feedback","","html-keyboard-response","156","258431","0.0-1.0-204.0-0.0","0","0","48657","","null","","","null","22","","","","","","","","","","","","","","","",""
"","ITI","","html-keyboard-response","157","259436","0.0-1.0-207.0","0","0","48657","","null","","","null","22","","","","","","","","","","","","","","","NaN",""
"","S1","","html-keyboard-response","158","259693","0.0-1.0-209.0","0","0","48657","","null","","","null","23","","","","","","","","","","","","","","","",""
"","ISI","","html-keyboard-response","159","261697","0.0-1.0-210.0","0","0","48657","","null","","","null","23","NaN","","","","","","","","","","","","","","",""
"","S2","","html-keyboard-response","160","261951","0.0-1.0-211.0","0","0","48657","","null","","","null","23","","NaN","","","","","","","","","","","","","",""
"","response","","html-keyboard-response","161","262662","0.0-1.0-212.0-0.0","0","0","48657","","709","","","75","23","","","1","23","training","adjacent","AB","1","2","N.jpg","O.jpg","1","1","1","",""
"","feedback","","html-keyboard-response","162","263664","0.0-1.0-213.0-0.0","0","0","48657","","null","","","null","23","","","","","","","","","","","","","","","",""
"","ITI","","html-keyboard-response","163","264666","0.0-1.0-216.0","0","0","48657","","null","","","null","23","","","","","","","","","","","","","","","NaN",""
"","S1","","html-keyboard-response","164","264917","0.0-1.0-218.0","0","0","48657","","null","","","null","24","","","","","","","","","","","","","","","",""
"","ISI","","html-keyboard-response","165","266921","0.0-1.0-219.0","0","0","48657","","null","","","null","24","NaN","","","","","","","","","","","","","","",""
"","S2","","html-keyboard-response","166","267173","0.0-1.0-220.0","0","0","48657","","null","","","null","24","","NaN","","","","","","","","","","","","","",""
"","response","","html-keyboard-response","167","267279","0.0-1.0-221.0-0.0","0","0","48657","","103","","","75","24","","","1","24","training","adjacent","EF","5","6","P.jpg","L.jpg","1","1","1","",""
"","feedback","","html-keyboard-response","168","268281","0.0-1.0-222.0-0.0","0","0","48657","","null","","","null","24","","","","","","","","","","","","","","","",""
"","ITI","","html-keyboard-response","169","269284","0.0-1.0-225.0","0","0","48657","","null","","","null","24","","","","","","","","","","","","","","","NaN",""
"","S1","","html-keyboard-response","170","269537","0.0-1.0-227.0","0","0","48657","","null","","","null","25","","","","","","","","","","","","","","","",""
"","ISI","","html-keyboard-response","171","271542","0.0-1.0-228.0","0","0","48657","","null","","","null","25","NaN","","","","","","","","","","","","","","",""
"","S2","","html-keyboard-response","172","271795","0.0-1.0-229.0","0","0","48657","","null","","","null","25","","NaN","","","","","","","","","","","","","",""
"","response","","html-keyboard-response","173","272341","0.0-1.0-230.0-0.0","0","0","48657","","546","","","68","25","","","1","25","training","adjacent","DC","4","3","Q.jpg","R.jpg","0","0","1","",""
"","feedback","","html-keyboard-response","174","273343","0.0-1.0-231.0-0.0","0","0","48657","","null","","","null","25","","","","","","","","","","","","","","","",""
"","ITI","","html-keyboard-response","175","274344","0.0-1.0-234.0","0","0","48657","","null","","","null","25","","","","","","","","","","","","","","","NaN",""
"","S1","","html-keyboard-response","176","274596","0.0-1.0-236.0","0","0","48657","","null","","","null","26","","","","","","","","","","","","","","","",""
"","ISI","","html-keyboard-response","177","276597","0.0-1.0-237.0","0","0","48657","","null","","","null","26","NaN","","","","","","","","","","","","","","",""
"","S2","","html-keyboard-response","178","276849","0.0-1.0-238.0","0","0","48657","","null","","","null","26","","NaN","","","","","","","","","","","","","",""
"","response","","html-keyboard-response","179","276990","0.0-1.0-239.0-0.0","0","0","48657","","140","","","75","26","","","1","26","training","adjacent","GF","7","6","M.jpg","L.jpg","1","0","0","",""
"","feedback","","html-keyboard-response","180","277994","0.0-1.0-240.0-0.0","0","0","48657","","null","","","null","26","","","","","","","","","","","","","","","",""
"","time_out","","html-keyboard-response","181","279997","0.0-1.0-242.0-0.0","0","0","48657","","null","","","null","26","","","","","","","","","","","","","","","",""
"","ITI","","html-keyboard-response","182","281000","0.0-1.0-243.0","0","0","48657","","null","","","null","26","","","","","","","","","","","","","","","NaN",""
"","S1","","html-keyboard-response","183","281257","0.0-1.0-245.0","0","0","48657","","null","","","null","27","","","","","","","","","","","","","","","",""
"","ISI","","html-keyboard-response","184","283261","0.0-1.0-246.0","0","0","48657","","null","","","null","27","NaN","","","","","","","","","","","","","","",""
"","S2","","html-keyboard-response","185","283514","0.0-1.0-247.0","0","0","48657","","null","","","null","27","","NaN","","","","","","","","","","","","","",""
"","response","","html-keyboard-response","186","284033","0.0-1.0-248.0-0.0","0","0","48657","","516","","","68","27","","","1","27","training","adjacent","FE","6","5","L.jpg","P.jpg","0","0","1","",""
"","feedback","","html-keyboard-response","187","285040","0.0-1.0-249.0-0.0","0","0","48657","","null","","","null","27","","","","","","","","","","","","","","","",""
"","ITI","","html-keyboard-response","188","286042","0.0-1.0-252.0","0","0","48657","","null","","","null","27","","","","","","","","","","","","","","","NaN",""
"","S1","","html-keyboard-response","189","286294","0.0-1.0-254.0","0","0","48657","","null","","","null","28","","","","","","","","","","","","","","","",""
"","ISI","","html-keyboard-response","190","288296","0.0-1.0-255.0","0","0","48657","","null","","","null","28","NaN","","","","","","","","","","","","","","",""
"","S2","","html-keyboard-response","191","288547","0.0-1.0-256.0","0","0","48657","","null","","","null","28","","NaN","","","","","","","","","","","","","",""
"","response","","html-keyboard-response","192","289182","0.0-1.0-257.0-0.0","0","0","48657","","633","","","68","28","","","1","28","training","adjacent","DE","4","5","Q.jpg","P.jpg","0","1","0","",""
"","feedback","","html-keyboard-response","193","290184","0.0-1.0-258.0-0.0","0","0","48657","","null","","","null","28","","","","","","","","","","","","","","","",""
"","time_out","","html-keyboard-response","194","292189","0.0-1.0-260.0-0.0","0","0","48657","","null","","","null","28","","","","","","","","","","","","","","","",""
"","ITI","","html-keyboard-response","195","293202","0.0-1.0-261.0","0","0","48657","","null","","","null","28","","","","","","","","","","","","","","","NaN",""
"","S1","","html-keyboard-response","196","293457","0.0-1.0-263.0","0","0","48657","","null","","","null","29","","","","","","","","","","","","","","","",""
"","ISI","","html-keyboard-response","197","295461","0.0-1.0-264.0","0","0","48657","","null","","","null","29","NaN","","","","","","","","","","","","","","",""
"","S2","","html-keyboard-response","198","295716","0.0-1.0-265.0","0","0","48657","","null","","","null","29","","NaN","","","","","","","","","","","","","",""
"","response","","html-keyboard-response","199","296217","0.0-1.0-266.0-0.0","0","0","48657","","498","","","68","29","","","1","29","training","adjacent","BA","2","1","O.jpg","N.jpg","0","0","1","",""
"","feedback","","html-keyboard-response","200","297221","0.0-1.0-267.0-0.0","0","0","48657","","null","","","null","29","","","","","","","","","","","","","","","",""
"","ITI","","html-keyboard-response","201","298226","0.0-1.0-270.0","0","0","48657","","null","","","null","29","","","","","","","","","","","","","","","NaN",""
"","S1","","html-keyboard-response","202","298480","0.0-1.0-272.0","0","0","48657","","null","","","null","30","","","","","","","","","","","","","","","",""
"","ISI","","html-keyboard-response","203","300483","0.0-1.0-273.0","0","0","48657","","151","","","68","30","d","","","","","","","","","","","","","","",""
"","S2","","html-keyboard-response","204","300736","0.0-1.0-274.0","0","0","48657","","null","","","null","30","","NaN","","","","","","","","","","","","","",""
"","response","","html-keyboard-response","205","301245","0.0-1.0-275.0-0.0","0","0","48657","","509","","","68","30","","","1","30","training","adjacent","AB","1","2","N.jpg","O.jpg","0","1","0","",""
"","feedback","","html-keyboard-response","206","302246","0.0-1.0-276.0-0.0","0","0","48657","","null","","","null","30","","","","","","","","","","","","","","","",""
"","time_out","","html-keyboard-response","207","304247","0.0-1.0-278.0-0.0","0","0","48657","","null","","","null","30","","","","","","","","","","","","","","","",""
"","ITI","","html-keyboard-response","208","305250","0.0-1.0-279.0","0","0","48657","","null","","","null","30","","","","","","","","","","","","","","","NaN",""
"","S1","","html-keyboard-response","209","305504","0.0-1.0-281.0","0","0","48657","","null","","","null","31","","","","","","","","","","","","","","","",""
"","ISI","","html-keyboard-response","210","307509","0.0-1.0-282.0","0","0","48657","","null","","","null","31","NaN","","","","","","","","","","","","","","",""
"","S2","","html-keyboard-response","211","307763","0.0-1.0-283.0","0","0","48657","","null","","","null","31","","NaN","","","","","","","","","","","","","",""
"","response","","html-keyboard-response","212","307891","0.0-1.0-284.0-0.0","0","0","48657","","124","","","75","31","","","1","31","training","adjacent","BC","2","3","O.jpg","R.jpg","1","1","1","",""
"","feedback","","html-keyboard-response","213","308894","0.0-1.0-285.0-0.0","0","0","48657","","null","","","null","31","","","","","","","","","","","","","","","",""
"","ITI","","html-keyboard-response","214","309897","0.0-1.0-288.0","0","0","48657","","null","","","null","31","","","","","","","","","","","","","","","NaN",""
"","S1","","html-keyboard-response","215","310149","0.0-1.0-290.0","0","0","48657","","null","","","null","32","","","","","","","","","","","","","","","",""
"","ISI","","html-keyboard-response","216","312152","0.0-1.0-291.0","0","0","48657","","null","","","null","32","NaN","","","","","","","","","","","","","","",""
"","S2","","html-keyboard-response","217","312404","0.0-1.0-292.0","0","0","48657","","null","","","null","32","","NaN","","","","","","","","","","","","","",""
"","response","","html-keyboard-response","218","314156","0.0-1.0-293.0-0.0","0","0","48657","","null","","","null","32","","","1","32","training","adjacent","CD","3","4","R.jpg","Q.jpg","NaN","1","0","",""
"","too_slow_prompt","","html-keyboard-response","219","315160","0.0-1.0-295.0-0.0","1","0","48657","","null","","","null","","","","","","","","","","","","","","","","",""
"","time_out","","html-keyboard-response","220","317165","0.0-1.0-296.0-0.0","0","0","48657","","null","","","null","32","","","","","","","","","","","","","","","",""
"","ITI","","html-keyboard-response","221","318167","0.0-1.0-297.0","0","0","48657","","null","","","null","32","","","","","","","","","","","","","","","NaN",""
"","S1","","html-keyboard-response","222","318420","0.0-1.0-299.0","0","0","48657","","null","","","null","33","","","","","","","","","","","","","","","",""
"","ISI","","html-keyboard-response","223","320423","0.0-1.0-300.0","0","0","48657","","null","","","null","33","NaN","","","","","","","","","","","","","","",""
"","S2","","html-keyboard-response","224","320674","0.0-1.0-301.0","0","0","48657","","null","","","null","33","","NaN","","","","","","","","","","","","","",""
"","response","","html-keyboard-response","225","321200","0.0-1.0-302.0-0.0","0","0","48657","","523","","","75","33","","","1","33","training","adjacent","EF","5","6","P.jpg","L.jpg","1","1","1","",""
"","feedback","","html-keyboard-response","226","322203","0.0-1.0-303.0-0.0","0","0","48657","","null","","","null","33","","","","","","","","","","","","","","","",""
"","ITI","","html-keyboard-response","227","323206","0.0-1.0-306.0","0","0","48657","","null","","","null","33","","","","","","","","","","","","","","","NaN",""
"","S1","","html-keyboard-response","228","323462","0.0-1.0-308.0","0","0","48657","","null","","","null","34","","","","","","","","","","","","","","","",""
"","ISI","","html-keyboard-response","229","325466","0.0-1.0-309.0","0","0","48657","","null","","","null","34","NaN","","","","","","","","","","","","","","",""
"","S2","","html-keyboard-response","230","325722","0.0-1.0-310.0","0","0","48657","","null","","","null","34","","NaN","","","","","","","","","","","","","",""
"","response","","html-keyboard-response","231","326074","0.0-1.0-311.0-0.0","0","0","48657","","349","","","68","34","","","1","34","training","adjacent","DE","4","5","Q.jpg","P.jpg","0","1","0","",""
"","feedback","","html-keyboard-response","232","327079","0.0-1.0-312.0-0.0","0","0","48657","","null","","","null","34","","","","","","","","","","","","","","","",""
"","time_out","","html-keyboard-response","233","329084","0.0-1.0-314.0-0.0","0","0","48657","","null","","","null","34","","","","","","","","","","","","","","","",""
"","ITI","","html-keyboard-response","234","330088","0.0-1.0-315.0","0","0","48657","","null","","","null","34","","","","","","","","","","","","","","","NaN",""
"","S1","","html-keyboard-response","235","330341","0.0-1.0-317.0","0","0","48657","","null","","","null","35","","","","","","","","","","","","","","","",""
"","ISI","","html-keyboard-response","236","332346","0.0-1.0-318.0","0","0","48657","","null","","","null","35","NaN","","","","","","","","","","","","","","",""
"","S2","","html-keyboard-response","237","332602","0.0-1.0-319.0","0","0","48657","","null","","","null","35","","NaN","","","","","","","","","","","","","",""
"","response","","html-keyboard-response","238","333261","0.0-1.0-320.0-0.0","0","0","48657","","657","","","68","35","","","1","35","training","adjacent","DE","4","5","Q.jpg","P.jpg","0","1","0","",""
"","feedback","","html-keyboard-response","239","334263","0.0-1.0-321.0-0.0","0","0","48657","","null","","","null","35","","","","","","","","","","","","","","","",""
"","time_out","","html-keyboard-response","240","336266","0.0-1.0-323.0-0.0","0","0","48657","","null","","","null","35","","","","","","","","","","","","","","","",""
"","ITI","","html-keyboard-response","241","337268","0.0-1.0-324.0","0","0","48657","","null","","","null","35","","","","","","","","","","","","","","","NaN",""
"","S1","","html-keyboard-response","242","337522","0.0-1.0-326.0","0","0","48657","","null","","","null","36","","","","","","","","","","","","","","","",""
"","ISI","","html-keyboard-response","243","339526","0.0-1.0-327.0","0","0","48657","","null","","","null","36","NaN","","","","","","","","","","","","","","",""
"","S2","","html-keyboard-response","244","339790","0.0-1.0-328.0","0","0","48657","","null","","","null","36","","NaN","","","","","","","","","","","","","",""
"","response","","html-keyboard-response","245","340287","0.0-1.0-329.0-0.0","0","0","48657","","495","","","75","36","","","1","36","training","adjacent","FG","6","7","L.jpg","M.jpg","1","1","1","",""
"","feedback","","html-keyboard-response","246","341292","0.0-1.0-330.0-0.0","0","0","48657","","null","","","null","36","","","","","","","","","","","","","","","",""
"","ITI","","html-keyboard-response","247","342296","0.0-1.0-333.0","0","0","48657","","null","","","null","36","","","","","","","","","","","","","","","NaN",""
"","S1","","html-keyboard-response","248","342551","0.0-1.0-335.0","0","0","48657","","null","","","null","37","","","","","","","","","","","","","","","",""
"","ISI","","html-keyboard-response","249","344553","0.0-1.0-336.0","0","0","48657","","null","","","null","37","NaN","","","","","","","","","","","","","","",""
"","S2","","html-keyboard-response","250","344805","0.0-1.0-337.0","0","0","48657","","null","","","null","37","","NaN","","","","","","","","","","","","","",""
"","response","","html-keyboard-response","251","345313","0.0-1.0-338.0-0.0","0","0","48657","","506","","","68","37","","","1","37","training","adjacent","DC","4","3","Q.jpg","R.jpg","0","0","1","",""
"","feedback","","html-keyboard-response","252","346330","0.0-1.0-339.0-0.0","0","0","48657","","null","","","null","37","","","","","","","","","","","","","","","",""
"","ITI","","html-keyboard-response","253","347341","0.0-1.0-342.0","0","0","48657","","null","","","null","37","","","","","","","","","","","","","","","NaN",""
"","S1","","html-keyboard-response","254","347594","0.0-1.0-344.0","0","0","48657","","null","","","null","38","","","","","","","","","","","","","","","",""
"","ISI","","html-keyboard-response","255","349598","0.0-1.0-345.0","0","0","48657","","null","","","null","38","NaN","","","","","","","","","","","","","","",""
"","S2","","html-keyboard-response","256","349854","0.0-1.0-346.0","0","0","48657","","null","","","null","38","","NaN","","","","","","","","","","","","","",""
"","response","","html-keyboard-response","257","350161","0.0-1.0-347.0-0.0","0","0","48657","","304","","","75","38","","","1","38","training","adjacent","BC","2","3","O.jpg","R.jpg","1","1","1","",""
"","feedback","","html-keyboard-response","258","351165","0.0-1.0-348.0-0.0","0","0","48657","","null","","","null","38","","","","","","","","","","","","","","","",""
"","ITI","","html-keyboard-response","259","352170","0.0-1.0-351.0","0","0","48657","","null","","","null","38","","","","","","","","","","","","","","","NaN",""
"","S1","","html-keyboard-response","260","352433","0.0-1.0-353.0","0","0","48657","","null","","","null","39","","","","","","","","","","","","","","","",""
"","ISI","","html-keyboard-response","261","354437","0.0-1.0-354.0","0","0","48657","","null","","","null","39","NaN","","","","","","","","","","","","","","",""
"","S2","","html-keyboard-response","262","354693","0.0-1.0-355.0","0","0","48657","","null","","","null","39","","NaN","","","","","","","","","","","","","",""
"","response","","html-keyboard-response","263","355250","0.0-1.0-356.0-0.0","0","0","48657","","552","","","68","39","","","1","39","training","adjacent","CD","3","4","R.jpg","Q.jpg","0","1","0","",""
"","feedback","","html-keyboard-response","264","356253","0.0-1.0-357.0-0.0","0","0","48657","","null","","","null","39","","","","","","","","","","","","","","","",""
"","time_out","","html-keyboard-response","265","358254","0.0-1.0-359.0-0.0","0","0","48657","","null","","","null","39","","","","","","","","","","","","","","","",""
"","ITI","","html-keyboard-response","266","359257","0.0-1.0-360.0","0","0","48657","","null","","","null","39","","","","","","","","","","","","","","","NaN",""
"","S1","","html-keyboard-response","267","359511","0.0-1.0-362.0","0","0","48657","","null","","","null","40","","","","","","","","","","","","","","","",""
"","ISI","","html-keyboard-response","268","361516","0.0-1.0-363.0","0","0","48657","","null","","","null","40","NaN","","","","","","","","","","","","","","",""
"","S2","","html-keyboard-response","269","361771","0.0-1.0-364.0","0","0","48657","","null","","","null","40","","NaN","","","","","","","","","","","","","",""
"","response","","html-keyboard-response","270","361942","0.0-1.0-365.0-0.0","0","0","48657","","168","","","68","40","","","1","40","training","adjacent","GF","7","6","M.jpg","L.jpg","0","0","1","",""
"","feedback","","html-keyboard-response","271","362946","0.0-1.0-366.0-0.0","0","0","48657","","null","","","null","40","","","","","","","","","","","","","","","",""
"","ITI","","html-keyboard-response","272","363950","0.0-1.0-369.0","0","0","48657","","null","","","null","40","","","","","","","","","","","","","","","NaN",""
"","S1","","html-keyboard-response","273","364203","0.0-1.0-371.0","0","0","48657","","null","","","null","41","","","","","","","","","","","","","","","",""
"","ISI","","html-keyboard-response","274","366204","0.0-1.0-372.0","0","0","48657","","null","","","null","41","NaN","","","","","","","","","","","","","","",""
"","S2","","html-keyboard-response","275","366455","0.0-1.0-373.0","0","0","48657","","null","","","null","41","","NaN","","","","","","","","","","","","","",""
"","response","","html-keyboard-response","276","366834","0.0-1.0-374.0-0.0","0","0","48657","","376","","","68","41","","","1","41","training","adjacent","ED","5","4","P.jpg","Q.jpg","0","0","1","",""
"","feedback","","html-keyboard-response","277","367840","0.0-1.0-375.0-0.0","0","0","48657","","null","","","null","41","","","","","","","","","","","","","","","",""
"","ITI","","html-keyboard-response","278","368845","0.0-1.0-378.0","0","0","48657","","null","","","null","41","","","","","","","","","","","","","","","NaN",""
"","S1","","html-keyboard-response","279","369100","0.0-1.0-380.0","0","0","48657","","null","","","null","42","","","","","","","","","","","","","","","",""
"","ISI","","html-keyboard-response","280","371104","0.0-1.0-381.0","0","0","48657","","null","","","null","42","NaN","","","","","","","","","","","","","","",""
"","S2","","html-keyboard-response","281","371359","0.0-1.0-382.0","0","0","48657","","null","","","null","42","","NaN","","","","","","","","","","","","","",""
"","response","","html-keyboard-response","282","371857","0.0-1.0-383.0-0.0","0","0","48657","","493","","","68","42","","","1","42","training","adjacent","ED","5","4","P.jpg","Q.jpg","0","0","1","",""
"","feedback","","html-keyboard-response","283","372861","0.0-1.0-384.0-0.0","0","0","48657","","null","","","null","42","","","","","","","","","","","","","","","",""
"","ITI","","html-keyboard-response","284","373864","0.0-1.0-387.0","0","0","48657","","null","","","null","42","","","","","","","","","","","","","","","NaN",""
"","S1","","html-keyboard-response","285","374117","0.0-1.0-389.0","0","0","48657","","null","","","null","43","","","","","","","","","","","","","","","",""
"","ISI","","html-keyboard-response","286","376121","0.0-1.0-390.0","0","0","48657","","null","","","null","43","NaN","","","","","","","","","","","","","","",""
"","S2","","html-keyboard-response","287","376375","0.0-1.0-391.0","0","0","48657","","null","","","null","43","","NaN","","","","","","","","","","","","","",""
"","response","","html-keyboard-response","288","376850","0.0-1.0-392.0-0.0","0","0","48657","","473","","","75","43","","","1","43","training","adjacent","FG","6","7","L.jpg","M.jpg","1","1","1","",""
"","feedback","","html-keyboard-response","289","377855","0.0-1.0-393.0-0.0","0","0","48657","","null","","","null","43","","","","","","","","","","","","","","","",""
"","ITI","","html-keyboard-response","290","378860","0.0-1.0-396.0","0","0","48657","","null","","","null","43","","","","","","","","","","","","","","","NaN",""
"","S1","","html-keyboard-response","291","379121","0.0-1.0-398.0","0","0","48657","","null","","","null","44","","","","","","","","","","","","","","","",""
"","ISI","","html-keyboard-response","292","381126","0.0-1.0-399.0","0","0","48657","","null","","","null","44","NaN","","","","","","","","","","","","","","",""
"","S2","","html-keyboard-response","293","381381","0.0-1.0-400.0","0","0","48657","","null","","","null","44","","NaN","","","","","","","","","","","","","",""
"","response","","html-keyboard-response","294","381691","0.0-1.0-401.0-0.0","0","0","48657","","307","","","75","44","","","1","44","training","adjacent","FG","6","7","L.jpg","M.jpg","1","1","1","",""
"","feedback","","html-keyboard-response","295","382695","0.0-1.0-402.0-0.0","0","0","48657","","null","","","null","44","","","","","","","","","","","","","","","",""
"","ITI","","html-keyboard-response","296","383698","0.0-1.0-405.0","0","0","48657","","null","","","null","44","","","","","","","","","","","","","","","NaN",""
"","S1","","html-keyboard-response","297","383952","0.0-1.0-407.0","0","0","48657","","null","","","null","45","","","","","","","","","","","","","","","",""
"","ISI","","html-keyboard-response","298","385955","0.0-1.0-408.0","0","0","48657","","null","","","null","45","NaN","","","","","","","","","","","","","","",""
"","S2","","html-keyboard-response","299","386211","0.0-1.0-409.0","0","0","48657","","null","","","null","45","","NaN","","","","","","","","","","","","","",""
"","response","","html-keyboard-response","300","387097","0.0-1.0-410.0-0.0","0","0","48657","","882","","","75","45","","","1","45","training","adjacent","CB","3","2","R.jpg","O.jpg","1","0","0","",""
"","feedback","","html-keyboard-response","301","388100","0.0-1.0-411.0-0.0","0","0","48657","","null","","","null","45","","","","","","","","","","","","","","","",""
"","time_out","","html-keyboard-response","302","390103","0.0-1.0-413.0-0.0","0","0","48657","","null","","","null","45","","","","","","","","","","","","","","","",""
"","ITI","","html-keyboard-response","303","391108","0.0-1.0-414.0","0","0","48657","","null","","","null","45","","","","","","","","","","","","","","","NaN",""
"","S1","","html-keyboard-response","304","391363","0.0-1.0-416.0","0","0","48657","","null","","","null","46","","","","","","","","","","","","","","","",""
"","ISI","","html-keyboard-response","305","393367","0.0-1.0-417.0","0","0","48657","","null","","","null","46","NaN","","","","","","","","","","","","","","",""
"","S2","","html-keyboard-response","306","393622","0.0-1.0-418.0","0","0","48657","","null","","","null","46","","NaN","","","","","","","","","","","","","",""
"","response","","html-keyboard-response","307","394314","0.0-1.0-419.0-0.0","0","0","48657","","689","","","68","46","","","1","46","training","adjacent","DC","4","3","Q.jpg","R.jpg","0","0","1","",""
"","feedback","","html-keyboard-response","308","395318","0.0-1.0-420.0-0.0","0","0","48657","","null","","","null","46","","","","","","","","","","","","","","","",""
"","ITI","","html-keyboard-response","309","396321","0.0-1.0-423.0","0","0","48657","","null","","","null","46","","","","","","","","","","","","","","","NaN",""
"","S1","","html-keyboard-response","310","396576","0.0-1.0-425.0","0","0","48657","","null","","","null","47","","","","","","","","","","","","","","","",""
"","ISI","","html-keyboard-response","311","398580","0.0-1.0-426.0","0","0","48657","","null","","","null","47","NaN","","","","","","","","","","","","","","",""
"","S2","","html-keyboard-response","312","398834","0.0-1.0-427.0","0","0","48657","","null","","","null","47","","NaN","","","","","","","","","","","","","",""
"","response","","html-keyboard-response","313","399593","0.0-1.0-428.0-0.0","0","0","48657","","757","","","75","47","","","1","47","training","adjacent","DE","4","5","Q.jpg","P.jpg","1","1","1","",""
"","feedback","","html-keyboard-response","314","400597","0.0-1.0-429.0-0.0","0","0","48657","","null","","","null","47","","","","","","","","","","","","","","","",""
"","ITI","","html-keyboard-response","315","401600","0.0-1.0-432.0","0","0","48657","","null","","","null","47","","","","","","","","","","","","","","","NaN",""
"","block_over","","html-keyboard-response","316","404477","0.0-1.0-433.0-0.0","0","0","48657","","2876","","","32","47","","","","","","","","","","","","","","","",""
"","S1","","html-keyboard-response","317","404730","0.0-1.0-434.0","0","0","48657","","null","","","null","48","","","","","","","","","","","","","","","",""
"","ISI","","html-keyboard-response","318","406733","0.0-1.0-435.0","0","0","48657","","null","","","null","48","NaN","","","","","","","","","","","","","","",""
"","S2","","html-keyboard-response","319","406986","0.0-1.0-436.0","0","0","48657","","null","","","null","48","","NaN","","","","","","","","","","","","","",""
"","response","","html-keyboard-response","320","407501","0.0-1.0-437.0-0.0","0","0","48657","","515","","","75","48","","","2","48","training","adjacent","CD","3","4","R.jpg","Q.jpg","1","1","1","",""
"","feedback","","html-keyboard-response","321","408503","0.0-1.0-438.0-0.0","0","0","48657","","null","","","null","48","","","","","","","","","","","","","","","",""
"","ITI","","html-keyboard-response","322","409504","0.0-1.0-441.0","0","0","48657","","null","","","null","48","","","","","","","","","","","","","","","NaN",""
"","S1","","html-keyboard-response","323","409757","0.0-1.0-443.0","0","0","48657","","null","","","null","49","","","","","","","","","","","","","","","",""
"","ISI","","html-keyboard-response","324","411760","0.0-1.0-444.0","0","0","48657","","null","","","null","49","NaN","","","","","","","","","","","","","","",""
"","S2","","html-keyboard-response","325","412013","0.0-1.0-445.0","0","0","48657","","null","","","null","49","","NaN","","","","","","","","","","","","","",""
"","response","","html-keyboard-response","326","412273","0.0-1.0-446.0-0.0","0","0","48657","","257","","","75","49","","","2","49","training","adjacent","FG","6","7","L.jpg","M.jpg","1","1","1","",""
"","feedback","","html-keyboard-response","327","413278","0.0-1.0-447.0-0.0","0","0","48657","","null","","","null","49","","","","","","","","","","","","","","","",""
"","ITI","","html-keyboard-response","328","414282","0.0-1.0-450.0","0","0","48657","","null","","","null","49","","","","","","","","","","","","","","","NaN",""
"","S1","","html-keyboard-response","329","414534","0.0-1.0-452.0","0","0","48657","","null","","","null","50","","","","","","","","","","","","","","","",""
"","ISI","","html-keyboard-response","330","416537","0.0-1.0-453.0","0","0","48657","","null","","","null","50","NaN","","","","","","","","","","","","","","",""
"","S2","","html-keyboard-response","331","416790","0.0-1.0-454.0","0","0","48657","","null","","","null","50","","NaN","","","","","","","","","","","","","",""
"","response","","html-keyboard-response","332","417057","0.0-1.0-455.0-0.0","0","0","48657","","265","","","75","50","","","2","50","training","adjacent","FG","6","7","L.jpg","M.jpg","1","1","1","",""
"","feedback","","html-keyboard-response","333","418060","0.0-1.0-456.0-0.0","0","0","48657","","null","","","null","50","","","","","","","","","","","","","","","",""
"","ITI","","html-keyboard-response","334","419064","0.0-1.0-459.0","0","0","48657","","null","","","null","50","","","","","","","","","","","","","","","NaN",""
"","S1","","html-keyboard-response","335","419317","0.0-1.0-461.0","0","0","48657","","null","","","null","51","","","","","","","","","","","","","","","",""
"","ISI","","html-keyboard-response","336","421321","0.0-1.0-462.0","0","0","48657","","null","","","null","51","NaN","","","","","","","","","","","","","","",""
"","S2","","html-keyboard-response","337","421577","0.0-1.0-463.0","0","0","48657","","null","","","null","51","","NaN","","","","","","","","","","","","","",""
"","response","","html-keyboard-response","338","422181","0.0-1.0-464.0-0.0","0","0","48657","","603","","","68","51","","","2","51","training","adjacent","ED","5","4","P.jpg","Q.jpg","0","0","1","",""
"","feedback","","html-keyboard-response","339","423184","0.0-1.0-465.0-0.0","0","0","48657","","null","","","null","51","","","","","","","","","","","","","","","",""
"","ITI","","html-keyboard-response","340","424189","0.0-1.0-468.0","0","0","48657","","null","","","null","51","","","","","","","","","","","","","","","NaN",""
"","S1","","html-keyboard-response","341","424443","0.0-1.0-470.0","0","0","48657","","null","","","null","52","","","","","","","","","","","","","","","",""
"","ISI","","html-keyboard-response","342","426445","0.0-1.0-471.0","0","0","48657","","null","","","null","52","NaN","","","","","","","","","","","","","","",""
"","S2","","html-keyboard-response","343","426698","0.0-1.0-472.0","0","0","48657","","null","","","null","52","","NaN","","","","","","","","","","","","","",""
"","response","","html-keyboard-response","344","427154","0.0-1.0-473.0-0.0","0","0","48657","","452","","","68","52","","","2","52","training","adjacent","BA","2","1","O.jpg","N.jpg","0","0","1","",""
"","feedback","","html-keyboard-response","345","428155","0.0-1.0-474.0-0.0","0","0","48657","","null","","","null","52","","","","","","","","","","","","","","","",""
"","ITI","","html-keyboard-response","346","429160","0.0-1.0-477.0","0","0","48657","","null","","","null","52","","","","","","","","","","","","","","","NaN",""
"","S1","","html-keyboard-response","347","429412","0.0-1.0-479.0","0","0","48657","","null","","","null","53","","","","","","","","","","","","","","","",""
"","ISI","","html-keyboard-response","348","431417","0.0-1.0-480.0","0","0","48657","","null","","","null","53","NaN","","","","","","","","","","","","","","",""
"","S2","","html-keyboard-response","349","431670","0.0-1.0-481.0","0","0","48657","","null","","","null","53","","NaN","","","","","","","","","","","","","",""
"","response","","html-keyboard-response","350","432178","0.0-1.0-482.0-0.0","0","0","48657","","504","","","75","53","","","2","53","training","adjacent","EF","5","6","P.jpg","L.jpg","1","1","1","",""
"","feedback","","html-keyboard-response","351","433181","0.0-1.0-483.0-0.0","0","0","48657","","null","","","null","53","","","","","","","","","","","","","","","",""
"","ITI","","html-keyboard-response","352","434182","0.0-1.0-486.0","0","0","48657","","null","","","null","53","","","","","","","","","","","","","","","NaN",""
"","S1","","html-keyboard-response","353","434433","0.0-1.0-488.0","0","0","48657","","null","","","null","54","","","","","","","","","","","","","","","",""
"","ISI","","html-keyboard-response","354","436436","0.0-1.0-489.0","0","0","48657","","null","","","null","54","NaN","","","","","","","","","","","","","","",""
"","S2","","html-keyboard-response","355","436691","0.0-1.0-490.0","0","0","48657","","null","","","null","54","","NaN","","","","","","","","","","","","","",""
"","response","","html-keyboard-response","356","437026","0.0-1.0-491.0-0.0","0","0","48657","","331","","","68","54","","","2","54","training","adjacent","DC","4","3","Q.jpg","R.jpg","0","0","1","",""
"","feedback","","html-keyboard-response","357","438029","0.0-1.0-492.0-0.0","0","0","48657","","null","","","null","54","","","","","","","","","","","","","","","",""
"","ITI","","html-keyboard-response","358","439035","0.0-1.0-495.0","0","0","48657","","null","","","null","54","","","","","","","","","","","","","","","NaN",""
"","S1","","html-keyboard-response","359","439290","0.0-1.0-497.0","0","0","48657","","null","","","null","55","","","","","","","","","","","","","","","",""
"","ISI","","html-keyboard-response","360","441292","0.0-1.0-498.0","0","0","48657","","null","","","null","55","NaN","","","","","","","","","","","","","","",""
"","S2","","html-keyboard-response","361","441547","0.0-1.0-499.0","0","0","48657","","null","","","null","55","","NaN","","","","","","","","","","","","","",""
"","response","","html-keyboard-response","362","441845","0.0-1.0-500.0-0.0","0","0","48657","","296","","","75","55","","","2","55","training","adjacent","AB","1","2","N.jpg","O.jpg","1","1","1","",""
"","feedback","","html-keyboard-response","363","442848","0.0-1.0-501.0-0.0","0","0","48657","","null","","","null","55","","","","","","","","","","","","","","","",""
"","ITI","","html-keyboard-response","364","443851","0.0-1.0-504.0","0","0","48657","","null","","","null","55","","","","","","","","","","","","","","","NaN",""
"","S1","","html-keyboard-response","365","444104","0.0-1.0-506.0","0","0","48657","","null","","","null","56","","","","","","","","","","","","","","","",""
"","ISI","","html-keyboard-response","366","446107","0.0-1.0-507.0","0","0","48657","","null","","","null","56","NaN","","","","","","","","","","","","","","",""
"","S2","","html-keyboard-response","367","446362","0.0-1.0-508.0","0","0","48657","","null","","","null","56","","NaN","","","","","","","","","","","","","",""
"","response","","html-keyboard-response","368","446597","0.0-1.0-509.0-0.0","0","0","48657","","234","","","68","56","","","2","56","training","adjacent","GF","7","6","M.jpg","L.jpg","0","0","1","",""
"","feedback","","html-keyboard-response","369","447601","0.0-1.0-510.0-0.0","0","0","48657","","null","","","null","56","","","","","","","","","","","","","","","",""
"","ITI","","html-keyboard-response","370","448607","0.0-1.0-513.0","0","0","48657","","null","","","null","56","","","","","","","","","","","","","","","NaN",""
"","S1","","html-keyboard-response","371","448861","0.0-1.0-515.0","0","0","48657","","null","","","null","57","","","","","","","","","","","","","","","",""
"","ISI","","html-keyboard-response","372","450864","0.0-1.0-516.0","0","0","48657","","null","","","null","57","NaN","","","","","","","","","","","","","","",""
"","S2","","html-keyboard-response","373","451116","0.0-1.0-517.0","0","0","48657","","null","","","null","57","","NaN","","","","","","","","","","","","","",""
"","response","","html-keyboard-response","374","451488","0.0-1.0-518.0-0.0","0","0","48657","","371","","","75","57","","","2","57","training","adjacent","CB","3","2","R.jpg","O.jpg","1","0","0","",""
"","feedback","","html-keyboard-response","375","452490","0.0-1.0-519.0-0.0","0","0","48657","","null","","","null","57","","","","","","","","","","","","","","","",""
"","time_out","","html-keyboard-response","376","454494","0.0-1.0-521.0-0.0","0","0","48657","","null","","","null","57","","","","","","","","","","","","","","","",""
"","ITI","","html-keyboard-response","377","455499","0.0-1.0-522.0","0","0","48657","","null","","","null","57","","","","","","","","","","","","","","","NaN",""
"","S1","","html-keyboard-response","378","455754","0.0-1.0-524.0","0","0","48657","","null","","","null","58","","","","","","","","","","","","","","","",""
"","ISI","","html-keyboard-response","379","457758","0.0-1.0-525.0","0","0","48657","","null","","","null","58","NaN","","","","","","","","","","","","","","",""
"","S2","","html-keyboard-response","380","458014","0.0-1.0-526.0","0","0","48657","","null","","","null","58","","NaN","","","","","","","","","","","","","",""
"","response","","html-keyboard-response","381","458341","0.0-1.0-527.0-0.0","0","0","48657","","325","","","68","58","","","2","58","training","adjacent","FE","6","5","L.jpg","P.jpg","0","0","1","",""
"","feedback","","html-keyboard-response","382","459347","0.0-1.0-528.0-0.0","0","0","48657","","null","","","null","58","","","","","","","","","","","","","","","",""
"","ITI","","html-keyboard-response","383","460351","0.0-1.0-531.0","0","0","48657","","null","","","null","58","","","","","","","","","","","","","","","NaN",""
"","S1","","html-keyboard-response","384","460606","0.0-1.0-533.0","0","0","48657","","null","","","null","59","","","","","","","","","","","","","","","",""
"","ISI","","html-keyboard-response","385","462611","0.0-1.0-534.0","0","0","48657","","null","","","null","59","NaN","","","","","","","","","","","","","","",""
"","S2","","html-keyboard-response","386","462866","0.0-1.0-535.0","0","0","48657","","null","","","null","59","","NaN","","","","","","","","","","","","","",""
"","response","","html-keyboard-response","387","463007","0.0-1.0-536.0-0.0","0","0","48657","","138","","","75","59","","","2","59","training","adjacent","FG","6","7","L.jpg","M.jpg","1","1","1","",""
"","feedback","","html-keyboard-response","388","464011","0.0-1.0-537.0-0.0","0","0","48657","","null","","","null","59","","","","","","","","","","","","","","","",""
"","ITI","","html-keyboard-response","389","465015","0.0-1.0-540.0","0","0","48657","","null","","","null","59","","","","","","","","","","","","","","","NaN",""
"","S1","","html-keyboard-response","390","465270","0.0-1.0-542.0","0","0","48657","","null","","","null","60","","","","","","","","","","","","","","","",""
"","ISI","","html-keyboard-response","391","467272","0.0-1.0-543.0","0","0","48657","","null","","","null","60","NaN","","","","","","","","","","","","","","",""
"","S2","","html-keyboard-response","392","467525","0.0-1.0-544.0","0","0","48657","","null","","","null","60","","NaN","","","","","","","","","","","","","",""
"","response","","html-keyboard-response","393","468049","0.0-1.0-545.0-0.0","0","0","48657","","521","","","68","60","","","2","60","training","adjacent","CD","3","4","R.jpg","Q.jpg","0","1","0","",""
"","feedback","","html-keyboard-response","394","469057","0.0-1.0-546.0-0.0","0","0","48657","","null","","","null","60","","","","","","","","","","","","","","","",""
"","time_out","","html-keyboard-response","395","471062","0.0-1.0-548.0-0.0","0","0","48657","","null","","","null","60","","","","","","","","","","","","","","","",""
"","ITI","","html-keyboard-response","396","472064","0.0-1.0-549.0","0","0","48657","","null","","","null","60","","","","","","","","","","","","","","","NaN",""
"","S1","","html-keyboard-response","397","472317","0.0-1.0-551.0","0","0","48657","","null","","","null","61","","","","","","","","","","","","","","","",""
"","ISI","","html-keyboard-response","398","474320","0.0-1.0-552.0","0","0","48657","","null","","","null","61","NaN","","","","","","","","","","","","","","",""
"","S2","","html-keyboard-response","399","474572","0.0-1.0-553.0","0","0","48657","","null","","","null","61","","NaN","","","","","","","","","","","","","",""
"","response","","html-keyboard-response","400","475333","0.0-1.0-554.0-0.0","0","0","48657","","760","","","68","61","","","2","61","training","adjacent","ED","5","4","P.jpg","Q.jpg","0","0","1","",""
"","feedback","","html-keyboard-response","401","476335","0.0-1.0-555.0-0.0","0","0","48657","","null","","","null","61","","","","","","","","","","","","","","","",""
"","ITI","","html-keyboard-response","402","477339","0.0-1.0-558.0","0","0","48657","","null","","","null","61","","","","","","","","","","","","","","","NaN",""
"","S1","","html-keyboard-response","403","477600","0.0-1.0-560.0","0","0","48657","","null","","","null","62","","","","","","","","","","","","","","","",""
"","ISI","","html-keyboard-response","404","479604","0.0-1.0-561.0","0","0","48657","","null","","","null","62","NaN","","","","","","","","","","","","","","",""
"","S2","","html-keyboard-response","405","479856","0.0-1.0-562.0","0","0","48657","","null","","","null","62","","NaN","","","","","","","","","","","","","",""
"","response","","html-keyboard-response","406","480295","0.0-1.0-563.0-0.0","0","0","48657","","437","","","75","62","","","2","62","training","adjacent","BC","2","3","O.jpg","R.jpg","1","1","1","",""
"","feedback","","html-keyboard-response","407","481300","0.0-1.0-564.0-0.0","0","0","48657","","null","","","null","62","","","","","","","","","","","","","","","",""
"","ITI","","html-keyboard-response","408","482303","0.0-1.0-567.0","0","0","48657","","null","","","null","62","","","","","","","","","","","","","","","NaN",""
"","S1","","html-keyboard-response","409","482557","0.0-1.0-569.0","0","0","48657","","null","","","null","63","","","","","","","","","","","","","","","",""
"","ISI","","html-keyboard-response","410","484560","0.0-1.0-570.0","0","0","48657","","null","","","null","63","NaN","","","","","","","","","","","","","","",""
"","S2","","html-keyboard-response","411","484814","0.0-1.0-571.0","0","0","48657","","null","","","null","63","","NaN","","","","","","","","","","","","","",""
"","response","","html-keyboard-response","412","485168","0.0-1.0-572.0-0.0","0","0","48657","","350","","","68","63","","","2","63","training","adjacent","AB","1","2","N.jpg","O.jpg","0","1","0","",""
"","feedback","","html-keyboard-response","413","486172","0.0-1.0-573.0-0.0","0","0","48657","","null","","","null","63","","","","","","","","","","","","","","","",""
"","time_out","","html-keyboard-response","414","488174","0.0-1.0-575.0-0.0","0","0","48657","","null","","","null","63","","","","","","","","","","","","","","","",""
"","ITI","","html-keyboard-response","415","489177","0.0-1.0-576.0","0","0","48657","","null","","","null","63","","","","","","","","","","","","","","","NaN",""
"","S1","","html-keyboard-response","416","489433","0.0-1.0-578.0","0","0","48657","","null","","","null","64","","","","","","","","","","","","","","","",""
"","ISI","","html-keyboard-response","417","491437","0.0-1.0-579.0","0","0","48657","","null","","","null","64","NaN","","","","","","","","","","","","","","",""
"","S2","","html-keyboard-response","418","491691","0.0-1.0-580.0","0","0","48657","","null","","","null","64","","NaN","","","","","","","","","","","","","",""
"","response","","html-keyboard-response","419","492225","0.0-1.0-581.0-0.0","0","0","48657","","530","","","68","64","","","2","64","training","adjacent","ED","5","4","P.jpg","Q.jpg","0","0","1","",""
"","feedback","","html-keyboard-response","420","493229","0.0-1.0-582.0-0.0","0","0","48657","","null","","","null","64","","","","","","","","","","","","","","","",""
"","ITI","","html-keyboard-response","421","494233","0.0-1.0-585.0","0","0","48657","","null","","","null","64","","","","","","","","","","","","","","","NaN",""
"","S1","","html-keyboard-response","422","494488","0.0-1.0-587.0","0","0","48657","","null","","","null","65","","","","","","","","","","","","","","","",""
"","ISI","","html-keyboard-response","423","496492","0.0-1.0-588.0","0","0","48657","","null","","","null","65","NaN","","","","","","","","","","","","","","",""
"","S2","","html-keyboard-response","424","496743","0.0-1.0-589.0","0","0","48657","","null","","","null","65","","NaN","","","","","","","","","","","","","",""
"","response","","html-keyboard-response","425","497008","0.0-1.0-590.0-0.0","0","0","48657","","262","","","68","65","","","2","65","training","adjacent","FE","6","5","L.jpg","P.jpg","0","0","1","",""
"","feedback","","html-keyboard-response","426","498013","0.0-1.0-591.0-0.0","0","0","48657","","null","","","null","65","","","","","","","","","","","","","","","",""
"","ITI","","html-keyboard-response","427","499017","0.0-1.0-594.0","0","0","48657","","null","","","null","65","","","","","","","","","","","","","","","NaN",""
"","S1","","html-keyboard-response","428","499270","0.0-1.0-596.0","0","0","48657","","null","","","null","66","","","","","","","","","","","","","","","",""
"","ISI","","html-keyboard-response","429","501275","0.0-1.0-597.0","0","0","48657","","null","","","null","66","NaN","","","","","","","","","","","","","","",""
"","S2","","html-keyboard-response","430","501531","0.0-1.0-598.0","0","0","48657","","null","","","null","66","","NaN","","","","","","","","","","","","","",""
"","response","","html-keyboard-response","431","502278","0.0-1.0-599.0-0.0","0","0","48657","","745","","","68","66","","","2","66","training","adjacent","GF","7","6","M.jpg","L.jpg","0","0","1","",""
"","feedback","","html-keyboard-response","432","503281","0.0-1.0-600.0-0.0","0","0","48657","","null","","","null","66","","","","","","","","","","","","","","","",""
"","ITI","","html-keyboard-response","433","504284","0.0-1.0-603.0","0","0","48657","","null","","","null","66","","","","","","","","","","","","","","","NaN",""
"","S1","","html-keyboard-response","434","504538","0.0-1.0-605.0","0","0","48657","","null","","","null","67","","","","","","","","","","","","","","","",""
"","ISI","","html-keyboard-response","435","506543","0.0-1.0-606.0","0","0","48657","","null","","","null","67","NaN","","","","","","","","","","","","","","",""
"","S2","","html-keyboard-response","436","506797","0.0-1.0-607.0","0","0","48657","","null","","","null","67","","NaN","","","","","","","","","","","","","",""
"","response","","html-keyboard-response","437","507809","0.0-1.0-608.0-0.0","0","0","48657","","1010","","","68","67","","","2","67","training","adjacent","GF","7","6","M.jpg","L.jpg","0","0","1","",""
"","feedback","","html-keyboard-response","438","508815","0.0-1.0-609.0-0.0","0","0","48657","","null","","","null","67","","","","","","","","","","","","","","","",""
"","ITI","","html-keyboard-response","439","509820","0.0-1.0-612.0","0","0","48657","","null","","","null","67","","","","","","","","","","","","","","","NaN",""
"","S1","","html-keyboard-response","440","510076","0.0-1.0-614.0","0","0","48657","","null","","","null","68","","","","","","","","","","","","","","","",""
"","ISI","","html-keyboard-response","441","512080","0.0-1.0-615.0","0","0","48657","","null","","","null","68","NaN","","","","","","","","","","","","","","",""
"","S2","","html-keyboard-response","442","512336","0.0-1.0-616.0","0","0","48657","","null","","","null","68","","NaN","","","","","","","","","","","","","",""
"","response","","html-keyboard-response","443","513166","0.0-1.0-617.0-0.0","0","0","48657","","827","","","75","68","","","2","68","training","adjacent","DE","4","5","Q.jpg","P.jpg","1","1","1","",""
"","feedback","","html-keyboard-response","444","514169","0.0-1.0-618.0-0.0","0","0","48657","","null","","","null","68","","","","","","","","","","","","","","","",""
"","ITI","","html-keyboard-response","445","515173","0.0-1.0-621.0","0","0","48657","","null","","","null","68","","","","","","","","","","","","","","","NaN",""
"","S1","","html-keyboard-response","446","515428","0.0-1.0-623.0","0","0","48657","","null","","","null","69","","","","","","","","","","","","","","","",""
"","ISI","","html-keyboard-response","447","517431","0.0-1.0-624.0","0","0","48657","","null","","","null","69","NaN","","","","","","","","","","","","","","",""
"","S2","","html-keyboard-response","448","517687","0.0-1.0-625.0","0","0","48657","","null","","","null","69","","NaN","","","","","","","","","","","","","",""
"","response","","html-keyboard-response","449","517944","0.0-1.0-626.0-0.0","0","0","48657","","254","","","75","69","","","2","69","training","adjacent","DE","4","5","Q.jpg","P.jpg","1","1","1","",""
"","feedback","","html-keyboard-response","450","518951","0.0-1.0-627.0-0.0","0","0","48657","","null","","","null","69","","","","","","","","","","","","","","","",""
"","ITI","","html-keyboard-response","451","519953","0.0-1.0-630.0","0","0","48657","","null","","","null","69","","","","","","","","","","","","","","","NaN",""
"","S1","","html-keyboard-response","452","520206","0.0-1.0-632.0","0","0","48657","","null","","","null","70","","","","","","","","","","","","","","","",""
"","ISI","","html-keyboard-response","453","522210","0.0-1.0-633.0","0","0","48657","","null","","","null","70","NaN","","","","","","","","","","","","","","",""
"","S2","","html-keyboard-response","454","522463","0.0-1.0-634.0","0","0","48657","","null","","","null","70","","NaN","","","","","","","","","","","","","",""
"","response","","html-keyboard-response","455","522968","0.0-1.0-635.0-0.0","0","0","48657","","502","","","68","70","","","2","70","training","adjacent","CB","3","2","R.jpg","O.jpg","0","0","1","",""
"","feedback","","html-keyboard-response","456","523974","0.0-1.0-636.0-0.0","0","0","48657","","null","","","null","70","","","","","","","","","","","","","","","",""
"","ITI","","html-keyboard-response","457","524977","0.0-1.0-639.0","0","0","48657","","null","","","null","70","","","","","","","","","","","","","","","NaN",""
"","S1","","html-keyboard-response","458","525230","0.0-1.0-641.0","0","0","48657","","null","","","null","71","","","","","","","","","","","","","","","",""
"","ISI","","html-keyboard-response","459","527232","0.0-1.0-642.0","0","0","48657","","null","","","null","71","NaN","","","","","","","","","","","","","","",""
"","S2","","html-keyboard-response","460","527484","0.0-1.0-643.0","0","0","48657","","null","","","null","71","","NaN","","","","","","","","","","","","","",""
"","response","","html-keyboard-response","461","527601","0.0-1.0-644.0-0.0","0","0","48657","","115","","","75","71","","","2","71","training","adjacent","EF","5","6","P.jpg","L.jpg","1","1","1","",""
"","feedback","","html-keyboard-response","462","528607","0.0-1.0-645.0-0.0","0","0","48657","","null","","","null","71","","","","","","","","","","","","","","","",""
"","ITI","","html-keyboard-response","463","529612","0.0-1.0-648.0","0","0","48657","","null","","","null","71","","","","","","","","","","","","","","","NaN",""
"","S1","","html-keyboard-response","464","529866","0.0-1.0-650.0","0","0","48657","","null","","","null","72","","","","","","","","","","","","","","","",""
"","ISI","","html-keyboard-response","465","531869","0.0-1.0-651.0","0","0","48657","","null","","","null","72","NaN","","","","","","","","","","","","","","",""
"","S2","","html-keyboard-response","466","532131","0.0-1.0-652.0","0","0","48657","","null","","","null","72","","NaN","","","","","","","","","","","","","",""
"","response","","html-keyboard-response","467","533008","0.0-1.0-653.0-0.0","0","0","48657","","875","","","75","72","","","2","72","training","adjacent","DE","4","5","Q.jpg","P.jpg","1","1","1","",""
"","feedback","","html-keyboard-response","468","534012","0.0-1.0-654.0-0.0","0","0","48657","","null","","","null","72","","","","","","","","","","","","","","","",""
"","ITI","","html-keyboard-response","469","535014","0.0-1.0-657.0","0","0","48657","","null","","","null","72","","","","","","","","","","","","","","","NaN",""
"","S1","","html-keyboard-response","470","535267","0.0-1.0-659.0","0","0","48657","","null","","","null","73","","","","","","","","","","","","","","","",""
"","ISI","","html-keyboard-response","471","537270","0.0-1.0-660.0","0","0","48657","","null","","","null","73","NaN","","","","","","","","","","","","","","",""
"","S2","","html-keyboard-response","472","537536","0.0-1.0-661.0","0","0","48657","","null","","","null","73","","NaN","","","","","","","","","","","","","",""
"","response","","html-keyboard-response","473","538477","0.0-1.0-662.0-0.0","0","0","48657","","940","","","68","73","","","2","73","training","adjacent","FE","6","5","L.jpg","P.jpg","0","0","1","",""
"","feedback","","html-keyboard-response","474","539480","0.0-1.0-663.0-0.0","0","0","48657","","null","","","null","73","","","","","","","","","","","","","","","",""
"","ITI","","html-keyboard-response","475","540485","0.0-1.0-666.0","0","0","48657","","null","","","null","73","","","","","","","","","","","","","","","NaN",""
"","S1","","html-keyboard-response","476","540739","0.0-1.0-668.0","0","0","48657","","null","","","null","74","","","","","","","","","","","","","","","",""
"","ISI","","html-keyboard-response","477","542741","0.0-1.0-669.0","0","0","48657","","null","","","null","74","NaN","","","","","","","","","","","","","","",""
"","S2","","html-keyboard-response","478","543004","0.0-1.0-670.0","0","0","48657","","null","","","null","74","","NaN","","","","","","","","","","","","","",""
"","response","","html-keyboard-response","479","543399","0.0-1.0-671.0-0.0","0","0","48657","","392","","","75","74","","","2","74","training","adjacent","CD","3","4","R.jpg","Q.jpg","1","1","1","",""
"","feedback","","html-keyboard-response","480","544402","0.0-1.0-672.0-0.0","0","0","48657","","null","","","null","74","","","","","","","","","","","","","","","",""
"","ITI","","html-keyboard-response","481","545407","0.0-1.0-675.0","0","0","48657","","null","","","null","74","","","","","","","","","","","","","","","NaN",""
"","S1","","html-keyboard-response","482","545662","0.0-1.0-677.0","0","0","48657","","null","","","null","75","","","","","","","","","","","","","","","",""
"","ISI","","html-keyboard-response","483","547666","0.0-1.0-678.0","0","0","48657","","null","","","null","75","NaN","","","","","","","","","","","","","","",""
"","S2","","html-keyboard-response","484","547921","0.0-1.0-679.0","0","0","48657","","null","","","null","75","","NaN","","","","","","","","","","","","","",""
"","response","","html-keyboard-response","485","548522","0.0-1.0-680.0-0.0","0","0","48657","","596","","","75","75","","","2","75","training","adjacent","BC","2","3","O.jpg","R.jpg","1","1","1","",""
"","feedback","","html-keyboard-response","486","549530","0.0-1.0-681.0-0.0","0","0","48657","","null","","","null","75","","","","","","","","","","","","","","","",""
"","ITI","","html-keyboard-response","487","550535","0.0-1.0-684.0","0","0","48657","","null","","","null","75","","","","","","","","","","","","","","","NaN",""
"","S1","","html-keyboard-response","488","550794","0.0-1.0-686.0","0","0","48657","","null","","","null","76","","","","","","","","","","","","","","","",""
"","ISI","","html-keyboard-response","489","552798","0.0-1.0-687.0","0","0","48657","","null","","","null","76","NaN","","","","","","","","","","","","","","",""
"","S2","","html-keyboard-response","490","553051","0.0-1.0-688.0","0","0","48657","","null","","","null","76","","NaN","","","","","","","","","","","","","",""
"","response","","html-keyboard-response","491","553569","0.0-1.0-689.0-0.0","0","0","48657","","515","","","75","76","","","2","76","training","adjacent","CB","3","2","R.jpg","O.jpg","1","0","0","",""
"","feedback","","html-keyboard-response","492","554574","0.0-1.0-690.0-0.0","0","0","48657","","null","","","null","76","","","","","","","","","","","","","","","",""
"","time_out","","html-keyboard-response","493","556577","0.0-1.0-692.0-0.0","0","0","48657","","null","","","null","76","","","","","","","","","","","","","","","",""
"","ITI","","html-keyboard-response","494","557583","0.0-1.0-693.0","0","0","48657","","null","","","null","76","","","","","","","","","","","","","","","NaN",""
"","S1","","html-keyboard-response","495","557837","0.0-1.0-695.0","0","0","48657","","null","","","null","77","","","","","","","","","","","","","","","",""
"","ISI","","html-keyboard-response","496","559840","0.0-1.0-696.0","0","0","48657","","null","","","null","77","NaN","","","","","","","","","","","","","","",""
"","S2","","html-keyboard-response","497","560096","0.0-1.0-697.0","0","0","48657","","null","","","null","77","","NaN","","","","","","","","","","","","","",""
"","response","","html-keyboard-response","498","560622","0.0-1.0-698.0-0.0","0","0","48657","","524","","","75","77","","","2","77","training","adjacent","BA","2","1","O.jpg","N.jpg","1","0","0","",""
"","feedback","","html-keyboard-response","499","561625","0.0-1.0-699.0-0.0","0","0","48657","","null","","","null","77","","","","","","","","","","","","","","","",""
"","time_out","","html-keyboard-response","500","563628","0.0-1.0-701.0-0.0","0","0","48657","","null","","","null","77","","","","","","","","","","","","","","","",""
"","ITI","","html-keyboard-response","501","564629","0.0-1.0-702.0","0","0","48657","","null","","","null","77","","","","","","","","","","","","","","","NaN",""
"","S1","","html-keyboard-response","502","564883","0.0-1.0-704.0","0","0","48657","","null","","","null","78","","","","","","","","","","","","","","","",""
"","ISI","","html-keyboard-response","503","566886","0.0-1.0-705.0","0","0","48657","","null","","","null","78","NaN","","","","","","","","","","","","","","",""
"","S2","","html-keyboard-response","504","567141","0.0-1.0-706.0","0","0","48657","","null","","","null","78","","NaN","","","","","","","","","","","","","",""
"","response","","html-keyboard-response","505","567498","0.0-1.0-707.0-0.0","0","0","48657","","353","","","75","78","","","2","78","training","adjacent","FG","6","7","L.jpg","M.jpg","1","1","1","",""
"","feedback","","html-keyboard-response","506","568503","0.0-1.0-708.0-0.0","0","0","48657","","null","","","null","78","","","","","","","","","","","","","","","",""
"","ITI","","html-keyboard-response","507","569508","0.0-1.0-711.0","0","0","48657","","null","","","null","78","","","","","","","","","","","","","","","NaN",""
"","S1","","html-keyboard-response","508","569761","0.0-1.0-713.0","0","0","48657","","null","","","null","79","","","","","","","","","","","","","","","",""
"","ISI","","html-keyboard-response","509","571763","0.0-1.0-714.0","0","0","48657","","null","","","null","79","NaN","","","","","","","","","","","","","","",""
"","S2","","html-keyboard-response","510","572018","0.0-1.0-715.0","0","0","48657","","null","","","null","79","","NaN","","","","","","","","","","","","","",""
"","response","","html-keyboard-response","511","572890","0.0-1.0-716.0-0.0","0","0","48657","","868","","","68","79","","","2","79","training","adjacent","BA","2","1","O.jpg","N.jpg","0","0","1","",""
"","feedback","","html-keyboard-response","512","573895","0.0-1.0-717.0-0.0","0","0","48657","","null","","","null","79","","","","","","","","","","","","","","","",""
"","ITI","","html-keyboard-response","513","574897","0.0-1.0-720.0","0","0","48657","","null","","","null","79","","","","","","","","","","","","","","","NaN",""
"","S1","","html-keyboard-response","514","575150","0.0-1.0-722.0","0","0","48657","","null","","","null","80","","","","","","","","","","","","","","","",""
"","ISI","","html-keyboard-response","515","577154","0.0-1.0-723.0","0","0","48657","","null","","","null","80","NaN","","","","","","","","","","","","","","",""
"","S2","","html-keyboard-response","516","577408","0.0-1.0-724.0","0","0","48657","","null","","","null","80","","NaN","","","","","","","","","","","","","",""
"","response","","html-keyboard-response","517","577811","0.0-1.0-725.0-0.0","0","0","48657","","400","","","68","80","","","2","80","training","adjacent","FE","6","5","L.jpg","P.jpg","0","0","1","",""
"","feedback","","html-keyboard-response","518","578817","0.0-1.0-726.0-0.0","0","0","48657","","null","","","null","80","","","","","","","","","","","","","","","",""
"","ITI","","html-keyboard-response","519","579820","0.0-1.0-729.0","0","0","48657","","null","","","null","80","","","","","","","","","","","","","","","NaN",""
"","S1","","html-keyboard-response","520","580073","0.0-1.0-731.0","0","0","48657","","null","","","null","81","","","","","","","","","","","","","","","",""
"","ISI","","html-keyboard-response","521","582076","0.0-1.0-732.0","0","0","48657","","null","","","null","81","NaN","","","","","","","","","","","","","","",""
"","S2","","html-keyboard-response","522","582336","0.0-1.0-733.0","0","0","48657","","null","","","null","81","","NaN","","","","","","","","","","","","","",""
"","response","","html-keyboard-response","523","582838","0.0-1.0-734.0-0.0","0","0","48657","","500","","","68","81","","","2","81","training","adjacent","DC","4","3","Q.jpg","R.jpg","0","0","1","",""
"","feedback","","html-keyboard-response","524","583843","0.0-1.0-735.0-0.0","0","0","48657","","null","","","null","81","","","","","","","","","","","","","","","",""
"","ITI","","html-keyboard-response","525","584852","0.0-1.0-738.0","0","0","48657","","null","","","null","81","","","","","","","","","","","","","","","NaN",""
"","S1","","html-keyboard-response","526","585107","0.0-1.0-740.0","0","0","48657","","null","","","null","82","","","","","","","","","","","","","","","",""
"","ISI","","html-keyboard-response","527","587110","0.0-1.0-741.0","0","0","48657","","null","","","null","82","NaN","","","","","","","","","","","","","","",""
"","S2","","html-keyboard-response","528","587362","0.0-1.0-742.0","0","0","48657","","null","","","null","82","","NaN","","","","","","","","","","","","","",""
"","response","","html-keyboard-response","529","587978","0.0-1.0-743.0-0.0","0","0","48657","","614","","","75","82","","","2","82","training","adjacent","DE","4","5","Q.jpg","P.jpg","1","1","1","",""
"","feedback","","html-keyboard-response","530","588985","0.0-1.0-744.0-0.0","0","0","48657","","null","","","null","82","","","","","","","","","","","","","","","",""
"","ITI","","html-keyboard-response","531","589989","0.0-1.0-747.0","0","0","48657","","null","","","null","82","","","","","","","","","","","","","","","NaN",""
"","S1","","html-keyboard-response","532","590242","0.0-1.0-749.0","0","0","48657","","null","","","null","83","","","","","","","","","","","","","","","",""
"","ISI","","html-keyboard-response","533","592244","0.0-1.0-750.0","0","0","48657","","null","","","null","83","NaN","","","","","","","","","","","","","","",""
"","S2","","html-keyboard-response","534","592497","0.0-1.0-751.0","0","0","48657","","null","","","null","83","","NaN","","","","","","","","","","","","","",""
"","response","","html-keyboard-response","535","593145","0.0-1.0-752.0-0.0","0","0","48657","","644","","","68","83","","","2","83","training","adjacent","DC","4","3","Q.jpg","R.jpg","0","0","1","",""
"","feedback","","html-keyboard-response","536","594150","0.0-1.0-753.0-0.0","0","0","48657","","null","","","null","83","","","","","","","","","","","","","","","",""
"","ITI","","html-keyboard-response","537","595154","0.0-1.0-756.0","0","0","48657","","null","","","null","83","","","","","","","","","","","","","","","NaN",""
"","S1","","html-keyboard-response","538","595408","0.0-1.0-758.0","0","0","48657","","null","","","null","84","","","","","","","","","","","","","","","",""
"","ISI","","html-keyboard-response","539","597413","0.0-1.0-759.0","0","0","48657","","null","","","null","84","NaN","","","","","","","","","","","","","","",""
"","S2","","html-keyboard-response","540","597668","0.0-1.0-760.0","0","0","48657","","null","","","null","84","","NaN","","","","","","","","","","","","","",""
"","response","","html-keyboard-response","541","598013","0.0-1.0-761.0-0.0","0","0","48657","","343","","","75","84","","","2","84","training","adjacent","EF","5","6","P.jpg","L.jpg","1","1","1","",""
"","feedback","","html-keyboard-response","542","599017","0.0-1.0-762.0-0.0","0","0","48657","","null","","","null","84","","","","","","","","","","","","","","","",""
"","ITI","","html-keyboard-response","543","600023","0.0-1.0-765.0","0","0","48657","","null","","","null","84","","","","","","","","","","","","","","","NaN",""
"","S1","","html-keyboard-response","544","600276","0.0-1.0-767.0","0","0","48657","","null","","","null","85","","","","","","","","","","","","","","","",""
"","ISI","","html-keyboard-response","545","602277","0.0-1.0-768.0","0","0","48657","","null","","","null","85","NaN","","","","","","","","","","","","","","",""
"","S2","","html-keyboard-response","546","602529","0.0-1.0-769.0","0","0","48657","","null","","","null","85","","NaN","","","","","","","","","","","","","",""
"","response","","html-keyboard-response","547","603009","0.0-1.0-770.0-0.0","0","0","48657","","477","","","68","85","","","2","85","training","adjacent","BC","2","3","O.jpg","R.jpg","0","1","0","",""
"","feedback","","html-keyboard-response","548","604013","0.0-1.0-771.0-0.0","0","0","48657","","null","","","null","85","","","","","","","","","","","","","","","",""
"","time_out","","html-keyboard-response","549","606017","0.0-1.0-773.0-0.0","0","0","48657","","null","","","null","85","","","","","","","","","","","","","","","",""
"","ITI","","html-keyboard-response","550","607022","0.0-1.0-774.0","0","0","48657","","null","","","null","85","","","","","","","","","","","","","","","NaN",""
"","S1","","html-keyboard-response","551","607278","0.0-1.0-776.0","0","0","48657","","null","","","null","86","","","","","","","","","","","","","","","",""
"","ISI","","html-keyboard-response","552","609283","0.0-1.0-777.0","0","0","48657","","null","","","null","86","NaN","","","","","","","","","","","","","","",""
"","S2","","html-keyboard-response","553","609536","0.0-1.0-778.0","0","0","48657","","null","","","null","86","","NaN","","","","","","","","","","","","","",""
"","response","","html-keyboard-response","554","610013","0.0-1.0-779.0-0.0","0","0","48657","","475","","","75","86","","","2","86","training","adjacent","AB","1","2","N.jpg","O.jpg","1","1","1","",""
"","feedback","","html-keyboard-response","555","611018","0.0-1.0-780.0-0.0","0","0","48657","","null","","","null","86","","","","","","","","","","","","","","","",""
"","ITI","","html-keyboard-response","556","612023","0.0-1.0-783.0","0","0","48657","","null","","","null","86","","","","","","","","","","","","","","","NaN",""
"","S1","","html-keyboard-response","557","612278","0.0-1.0-785.0","0","0","48657","","null","","","null","87","","","","","","","","","","","","","","","",""
"","ISI","","html-keyboard-response","558","614281","0.0-1.0-786.0","0","0","48657","","null","","","null","87","NaN","","","","","","","","","","","","","","",""
"","S2","","html-keyboard-response","559","614536","0.0-1.0-787.0","0","0","48657","","null","","","null","87","","NaN","","","","","","","","","","","","","",""
"","response","","html-keyboard-response","560","615009","0.0-1.0-788.0-0.0","0","0","48657","","470","","","75","87","","","2","87","training","adjacent","BC","2","3","O.jpg","R.jpg","1","1","1","",""
"","feedback","","html-keyboard-response","561","616013","0.0-1.0-789.0-0.0","0","0","48657","","null","","","null","87","","","","","","","","","","","","","","","",""
"","ITI","","html-keyboard-response","562","617017","0.0-1.0-792.0","0","0","48657","","null","","","null","87","","","","","","","","","","","","","","","NaN",""
"","S1","","html-keyboard-response","563","617271","0.0-1.0-794.0","0","0","48657","","null","","","null","88","","","","","","","","","","","","","","","",""
"","ISI","","html-keyboard-response","564","619275","0.0-1.0-795.0","0","0","48657","","null","","","null","88","NaN","","","","","","","","","","","","","","",""
"","S2","","html-keyboard-response","565","619531","0.0-1.0-796.0","0","0","48657","","null","","","null","88","","NaN","","","","","","","","","","","","","",""
"","response","","html-keyboard-response","566","619962","0.0-1.0-797.0-0.0","0","0","48657","","426","","","68","88","","","2","88","training","adjacent","GF","7","6","M.jpg","L.jpg","0","0","1","",""
"","feedback","","html-keyboard-response","567","620965","0.0-1.0-798.0-0.0","0","0","48657","","null","","","null","88","","","","","","","","","","","","","","","",""
"","ITI","","html-keyboard-response","568","621969","0.0-1.0-801.0","0","0","48657","","null","","","null","88","","","","","","","","","","","","","","","NaN",""
"","S1","","html-keyboard-response","569","622227","0.0-1.0-803.0","0","0","48657","","null","","","null","89","","","","","","","","","","","","","","","",""
"","ISI","","html-keyboard-response","570","624231","0.0-1.0-804.0","0","0","48657","","null","","","null","89","NaN","","","","","","","","","","","","","","",""
"","S2","","html-keyboard-response","571","624486","0.0-1.0-805.0","0","0","48657","","null","","","null","89","","NaN","","","","","","","","","","","","","",""
"","response","","html-keyboard-response","572","624914","0.0-1.0-806.0-0.0","0","0","48657","","424","","","75","89","","","2","89","training","adjacent","CD","3","4","R.jpg","Q.jpg","1","1","1","",""
"","feedback","","html-keyboard-response","573","625921","0.0-1.0-807.0-0.0","0","0","48657","","null","","","null","89","","","","","","","","","","","","","","","",""
"","ITI","","html-keyboard-response","574","626925","0.0-1.0-810.0","0","0","48657","","null","","","null","89","","","","","","","","","","","","","","","NaN",""
"","S1","","html-keyboard-response","575","627178","0.0-1.0-812.0","0","0","48657","","null","","","null","90","","","","","","","","","","","","","","","",""
"","ISI","","html-keyboard-response","576","629181","0.0-1.0-813.0","0","0","48657","","null","","","null","90","NaN","","","","","","","","","","","","","","",""
"","S2","","html-keyboard-response","577","629436","0.0-1.0-814.0","0","0","48657","","null","","","null","90","","NaN","","","","","","","","","","","","","",""
"","response","","html-keyboard-response","578","629853","0.0-1.0-815.0-0.0","0","0","48657","","414","","","68","90","","","2","90","training","adjacent","BA","2","1","O.jpg","N.jpg","0","0","1","",""
"","feedback","","html-keyboard-response","579","630855","0.0-1.0-816.0-0.0","0","0","48657","","null","","","null","90","","","","","","","","","","","","","","","",""
"","ITI","","html-keyboard-response","580","631859","0.0-1.0-819.0","0","0","48657","","null","","","null","90","","","","","","","","","","","","","","","NaN",""
