"success","ttype","start_time","trial_type","trial_index","time_elapsed","internal_node_id","warning","missed_checkup","PID","view_history","rt","responses","repeat_instructions","key_press","index","keypress_isi","keypress_S2","block","trial_num","phase","group_type","pair_type","S1_stim","S2_stim","S1_img","S2_img","S1_chosen","S1_higher","accuracy","keypress_iti","total_bonus_tally"
"true","full_screen","d08052022hr1247","fullscreen","0","24986","0.0-0.0","0","0","32878","","","","","","","","","","","","","","","","","","","","","",""
"","instructions","","instructions","1","55967","0.0-1.0-0.0-0.0","0","0","32878","[{""page_index"":0,""viewing_time"":2675},{""page_index"":1,""viewing_time"":18922},{""page_index"":2,""viewing_time"":7976},{""page_index"":3,""viewing_time"":1406}]","30979","","","","","","","","","","","","","","","","","","","",""
"","comprehension_check","","survey-multi-choice","2","71129","0.0-1.0-0.0-1.0","0","0","32878","","15157","{""Q0"":""True"",""Q1"":""D"",""Q2"":""Only when the screen 'MAKE A CHOICE' is shown"",""Q3"":""Green mark"",""Q4"":""either D or K""}","1","","","","","","","","","","","","","","","","","",""
"","missed_instruction_checkup","","html-keyboard-response","3","73348","0.0-1.0-0.0-2.0-0.0","0","1","32878","","2217","","","32","","","","","","","","","","","","","","","","",""
"","instructions","","instructions","4","84981","0.0-1.0-0.1-0.1","0","0","32878","[{""page_index"":0,""viewing_time"":1763},{""page_index"":1,""viewing_time"":4551},{""page_index"":2,""viewing_time"":4451},{""page_index"":3,""viewing_time"":867}]","11632","","","","","","","","","","","","","","","","","","","",""
"","comprehension_check","","survey-multi-choice","5","101570","0.0-1.0-0.1-1.1","0","0","32878","","16584","{""Q0"":""False"",""Q1"":""D"",""Q2"":""Only when the screen 'MAKE A CHOICE' is shown"",""Q3"":""Green mark"",""Q4"":""either D or K""}","1","","","","","","","","","","","","","","","","","",""
"","missed_instruction_checkup","","html-keyboard-response","6","102767","0.0-1.0-0.1-2.1-0.1","0","1","32878","","1194","","","32","","","","","","","","","","","","","","","","",""
"","instructions","","instructions","7","107871","0.0-1.0-0.2-0.2","0","0","32878","[{""page_index"":0,""viewing_time"":1135},{""page_index"":1,""viewing_time"":2818},{""page_index"":2,""viewing_time"":683},{""page_index"":3,""viewing_time"":467}]","5103","","","","","","","","","","","","","","","","","","","",""
"","comprehension_check","","survey-multi-choice","8","120391","0.0-1.0-0.2-1.2","0","0","32878","","12516","{""Q0"":""True"",""Q1"":""D"",""Q2"":""Once the second image appears and while the screen 'MAKE A CHOICE' is shown"",""Q3"":""Green mark"",""Q4"":""either D or K""}","0","","","","","","","","","","","","","","","","","",""
"","start_exp","","html-keyboard-response","9","121295","0.0-1.0-1.0","0","0","32878","","903","","","32","","","","","","","","","","","","","","","","",""
"","S1","","html-keyboard-response","10","121552","0.0-1.0-2.0","0","0","32878","","null","","","null","0","","","","","","","","","","","","","","","",""
"","ISI","","html-keyboard-response","11","123558","0.0-1.0-3.0","0","0","32878","","null","","","null","0","NaN","","","","","","","","","","","","","","",""
"","S2","","html-keyboard-response","12","123814","0.0-1.0-4.0","0","0","32878","","null","","","null","0","","NaN","","","","","","","","","","","","","",""
"","response","","html-keyboard-response","13","125131","0.0-1.0-5.0-0.0","0","0","32878","","1315","","","75","0","","","1","0","training","adjacent","GF","7","6","P.jpg","O.jpg","0","0","1","",""
"","feedback","","html-keyboard-response","14","126137","0.0-1.0-6.0-0.0","0","0","32878","","null","","","null","0","","","","","","","","","","","","","","","",""
"","ITI","","html-keyboard-response","15","127144","0.0-1.0-9.0","0","0","32878","","null","","","null","0","","","","","","","","","","","","","","","NaN",""
"","S1","","html-keyboard-response","16","127400","0.0-1.0-11.0","0","0","32878","","null","","","null","1","","","","","","","","","","","","","","","",""
"","ISI","","html-keyboard-response","17","129405","0.0-1.0-12.0","0","0","32878","","null","","","null","1","NaN","","","","","","","","","","","","","","",""
"","S2","","html-keyboard-response","18","129661","0.0-1.0-13.0","0","0","32878","","null","","","null","1","","NaN","","","","","","","","","","","","","",""
"","response","","html-keyboard-response","19","130170","0.0-1.0-14.0-0.0","0","0","32878","","508","","","68","1","","","1","1","training","adjacent","DC","4","3","M.jpg","L.jpg","1","0","0","",""
"","feedback","","html-keyboard-response","20","131176","0.0-1.0-15.0-0.0","0","0","32878","","null","","","null","1","","","","","","","","","","","","","","","",""
"","time_out","","html-keyboard-response","21","133182","0.0-1.0-17.0-0.0","0","0","32878","","null","","","null","1","","","","","","","","","","","","","","","",""
"","ITI","","html-keyboard-response","22","134188","0.0-1.0-18.0","0","0","32878","","null","","","null","1","","","","","","","","","","","","","","","NaN",""
"","S1","","html-keyboard-response","23","134444","0.0-1.0-20.0","0","0","32878","","null","","","null","2","","","","","","","","","","","","","","","",""
"","ISI","","html-keyboard-response","24","136449","0.0-1.0-21.0","0","0","32878","","null","","","null","2","NaN","","","","","","","","","","","","","","",""
"","S2","","html-keyboard-response","25","136705","0.0-1.0-22.0","0","0","32878","","null","","","null","2","","NaN","","","","","","","","","","","","","",""
"","response","","html-keyboard-response","26","137370","0.0-1.0-23.0-0.0","0","0","32878","","664","","","75","2","","","1","2","training","adjacent","GF","7","6","P.jpg","O.jpg","0","0","1","",""
"","feedback","","html-keyboard-response","27","138377","0.0-1.0-24.0-0.0","0","0","32878","","null","","","null","2","","","","","","","","","","","","","","","",""
"","ITI","","html-keyboard-response","28","139381","0.0-1.0-27.0","0","0","32878","","null","","","null","2","","","","","","","","","","","","","","","NaN",""
"","S1","","html-keyboard-response","29","139636","0.0-1.0-29.0","0","0","32878","","null","","","null","3","","","","","","","","","","","","","","","",""
"","ISI","","html-keyboard-response","30","141641","0.0-1.0-30.0","0","0","32878","","null","","","null","3","NaN","","","","","","","","","","","","","","",""
"","S2","","html-keyboard-response","31","141897","0.0-1.0-31.0","0","0","32878","","null","","","null","3","","NaN","","","","","","","","","","","","","",""
"","response","","html-keyboard-response","32","143654","0.0-1.0-32.0-0.0","0","0","32878","","null","","","null","3","","","1","3","training","adjacent","FE","6","5","O.jpg","R.jpg","NaN","0","0","",""
"","too_slow_prompt","","html-keyboard-response","33","144660","0.0-1.0-34.0-0.0","1","0","32878","","null","","","null","","","","","","","","","","","","","","","","",""
"","time_out","","html-keyboard-response","34","146666","0.0-1.0-35.0-0.0","0","0","32878","","null","","","null","3","","","","","","","","","","","","","","","",""
"","ITI","","html-keyboard-response","35","147670","0.0-1.0-36.0","0","0","32878","","null","","","null","3","","","","","","","","","","","","","","","NaN",""
"","S1","","html-keyboard-response","36","147925","0.0-1.0-38.0","0","0","32878","","null","","","null","4","","","","","","","","","","","","","","","",""
"","ISI","","html-keyboard-response","37","149931","0.0-1.0-39.0","0","0","32878","","null","","","null","4","NaN","","","","","","","","","","","","","","",""
"","S2","","html-keyboard-response","38","150186","0.0-1.0-40.0","0","0","32878","","null","","","null","4","","NaN","","","","","","","","","","","","","",""
"","response","","html-keyboard-response","39","150577","0.0-1.0-41.0-0.0","0","0","32878","","389","","","75","4","","","1","4","training","adjacent","BA","2","1","Q.jpg","N.jpg","0","0","1","",""
"","feedback","","html-keyboard-response","40","151583","0.0-1.0-42.0-0.0","0","0","32878","","null","","","null","4","","","","","","","","","","","","","","","",""
"","ITI","","html-keyboard-response","41","152588","0.0-1.0-45.0","0","0","32878","","null","","","null","4","","","","","","","","","","","","","","","NaN",""
"","S1","","html-keyboard-response","42","152845","0.0-1.0-47.0","0","0","32878","","null","","","null","5","","","","","","","","","","","","","","","",""
"","ISI","","html-keyboard-response","43","154851","0.0-1.0-48.0","0","0","32878","","null","","","null","5","NaN","","","","","","","","","","","","","","",""
"","S2","","html-keyboard-response","44","155106","0.0-1.0-49.0","0","0","32878","","null","","","null","5","","NaN","","","","","","","","","","","","","",""
"","response","","html-keyboard-response","45","155741","0.0-1.0-50.0-0.0","0","0","32878","","633","","","75","5","","","1","5","training","adjacent","EF","5","6","R.jpg","O.jpg","0","1","0","",""
"","feedback","","html-keyboard-response","46","156746","0.0-1.0-51.0-0.0","0","0","32878","","null","","","null","5","","","","","","","","","","","","","","","",""
"","time_out","","html-keyboard-response","47","158752","0.0-1.0-53.0-0.0","0","0","32878","","null","","","null","5","","","","","","","","","","","","","","","",""
"","ITI","","html-keyboard-response","48","159758","0.0-1.0-54.0","0","0","32878","","null","","","null","5","","","","","","","","","","","","","","","NaN",""
"","S1","","html-keyboard-response","49","160013","0.0-1.0-56.0","0","0","32878","","null","","","null","6","","","","","","","","","","","","","","","",""
"","ISI","","html-keyboard-response","50","162020","0.0-1.0-57.0","0","0","32878","","null","","","null","6","NaN","","","","","","","","","","","","","","",""
"","S2","","html-keyboard-response","51","162275","0.0-1.0-58.0","0","0","32878","","null","","","null","6","","NaN","","","","","","","","","","","","","",""
"","response","","html-keyboard-response","52","162783","0.0-1.0-59.0-0.0","0","0","32878","","507","","","68","6","","","1","6","training","adjacent","BC","2","3","Q.jpg","L.jpg","1","1","1","",""
"","feedback","","html-keyboard-response","53","163787","0.0-1.0-60.0-0.0","0","0","32878","","null","","","null","6","","","","","","","","","","","","","","","",""
"","ITI","","html-keyboard-response","54","164791","0.0-1.0-63.0","0","0","32878","","null","","","null","6","","","","","","","","","","","","","","","NaN",""
"","S1","","html-keyboard-response","55","165043","0.0-1.0-65.0","0","0","32878","","null","","","null","7","","","","","","","","","","","","","","","",""
"","ISI","","html-keyboard-response","56","167045","0.0-1.0-66.0","0","0","32878","","null","","","null","7","NaN","","","","","","","","","","","","","","",""
"","S2","","html-keyboard-response","57","167302","0.0-1.0-67.0","0","0","32878","","null","","","null","7","","NaN","","","","","","","","","","","","","",""
"","response","","html-keyboard-response","58","167620","0.0-1.0-68.0-0.0","0","0","32878","","317","","","75","7","","","1","7","training","adjacent","BA","2","1","Q.jpg","N.jpg","0","0","1","",""
"","feedback","","html-keyboard-response","59","168627","0.0-1.0-69.0-0.0","0","0","32878","","null","","","null","7","","","","","","","","","","","","","","","",""
"","ITI","","html-keyboard-response","60","169631","0.0-1.0-72.0","0","0","32878","","null","","","null","7","","","","","","","","","","","","","","","NaN",""
"","S1","","html-keyboard-response","61","169888","0.0-1.0-74.0","0","0","32878","","null","","","null","8","","","","","","","","","","","","","","","",""
"","ISI","","html-keyboard-response","62","171893","0.0-1.0-75.0","0","0","32878","","null","","","null","8","NaN","","","","","","","","","","","","","","",""
"","S2","","html-keyboard-response","63","172148","0.0-1.0-76.0","0","0","32878","","null","","","null","8","","NaN","","","","","","","","","","","","","",""
"","response","","html-keyboard-response","64","172683","0.0-1.0-77.0-0.0","0","0","32878","","532","","","68","8","","","1","8","training","adjacent","ED","5","4","R.jpg","M.jpg","1","0","0","",""
"","feedback","","html-keyboard-response","65","173687","0.0-1.0-78.0-0.0","0","0","32878","","null","","","null","8","","","","","","","","","","","","","","","",""
"","time_out","","html-keyboard-response","66","175692","0.0-1.0-80.0-0.0","0","0","32878","","null","","","null","8","","","","","","","","","","","","","","","",""
"","ITI","","html-keyboard-response","67","176697","0.0-1.0-81.0","0","0","32878","","null","","","null","8","","","","","","","","","","","","","","","NaN",""
"","S1","","html-keyboard-response","68","176953","0.0-1.0-83.0","0","0","32878","","null","","","null","9","","","","","","","","","","","","","","","",""
"","ISI","","html-keyboard-response","69","178957","0.0-1.0-84.0","0","0","32878","","null","","","null","9","NaN","","","","","","","","","","","","","","",""
"","S2","","html-keyboard-response","70","179214","0.0-1.0-85.0","0","0","32878","","null","","","null","9","","NaN","","","","","","","","","","","","","",""
"","response","","html-keyboard-response","71","179793","0.0-1.0-86.0-0.0","0","0","32878","","577","","","75","9","","","1","9","training","adjacent","CB","3","2","L.jpg","Q.jpg","0","0","1","",""
"","feedback","","html-keyboard-response","72","180798","0.0-1.0-87.0-0.0","0","0","32878","","null","","","null","9","","","","","","","","","","","","","","","",""
"","ITI","","html-keyboard-response","73","181802","0.0-1.0-90.0","0","0","32878","","null","","","null","9","","","","","","","","","","","","","","","NaN",""
"","S1","","html-keyboard-response","74","182057","0.0-1.0-92.0","0","0","32878","","null","","","null","10","","","","","","","","","","","","","","","",""
"","ISI","","html-keyboard-response","75","184064","0.0-1.0-93.0","0","0","32878","","null","","","null","10","NaN","","","","","","","","","","","","","","",""
"","S2","","html-keyboard-response","76","184318","0.0-1.0-94.0","0","0","32878","","null","","","null","10","","NaN","","","","","","","","","","","","","",""
"","response","","html-keyboard-response","77","185035","0.0-1.0-95.0-0.0","0","0","32878","","715","","","68","10","","","1","10","training","adjacent","ED","5","4","R.jpg","M.jpg","1","0","0","",""
"","feedback","","html-keyboard-response","78","186041","0.0-1.0-96.0-0.0","0","0","32878","","null","","","null","10","","","","","","","","","","","","","","","",""
"","time_out","","html-keyboard-response","79","188045","0.0-1.0-98.0-0.0","0","0","32878","","null","","","null","10","","","","","","","","","","","","","","","",""
"","ITI","","html-keyboard-response","80","189049","0.0-1.0-99.0","0","0","32878","","null","","","null","10","","","","","","","","","","","","","","","NaN",""
"","S1","","html-keyboard-response","81","189304","0.0-1.0-101.0","0","0","32878","","null","","","null","11","","","","","","","","","","","","","","","",""
"","ISI","","html-keyboard-response","82","191310","0.0-1.0-102.0","0","0","32878","","null","","","null","11","NaN","","","","","","","","","","","","","","",""
"","S2","","html-keyboard-response","83","191566","0.0-1.0-103.0","0","0","32878","","null","","","null","11","","NaN","","","","","","","","","","","","","",""
"","response","","html-keyboard-response","84","192066","0.0-1.0-104.0-0.0","0","0","32878","","499","","","75","11","","","1","11","training","adjacent","EF","5","6","R.jpg","O.jpg","0","1","0","",""
"","feedback","","html-keyboard-response","85","193073","0.0-1.0-105.0-0.0","0","0","32878","","null","","","null","11","","","","","","","","","","","","","","","",""
"","time_out","","html-keyboard-response","86","195078","0.0-1.0-107.0-0.0","0","0","32878","","null","","","null","11","","","","","","","","","","","","","","","",""
"","ITI","","html-keyboard-response","87","196084","0.0-1.0-108.0","0","0","32878","","null","","","null","11","","","","","","","","","","","","","","","NaN",""
"","S1","","html-keyboard-response","88","196340","0.0-1.0-110.0","0","0","32878","","null","","","null","12","","","","","","","","","","","","","","","",""
"","ISI","","html-keyboard-response","89","198346","0.0-1.0-111.0","0","0","32878","","null","","","null","12","NaN","","","","","","","","","","","","","","",""
"","S2","","html-keyboard-response","90","198602","0.0-1.0-112.0","0","0","32878","","null","","","null","12","","NaN","","","","","","","","","","","","","",""
"","response","","html-keyboard-response","91","199130","0.0-1.0-113.0-0.0","0","0","32878","","526","","","75","12","","","1","12","training","adjacent","FG","6","7","O.jpg","P.jpg","0","1","0","",""
"","feedback","","html-keyboard-response","92","200135","0.0-1.0-114.0-0.0","0","0","32878","","null","","","null","12","","","","","","","","","","","","","","","",""
"","time_out","","html-keyboard-response","93","202141","0.0-1.0-116.0-0.0","0","0","32878","","null","","","null","12","","","","","","","","","","","","","","","",""
"","ITI","","html-keyboard-response","94","203146","0.0-1.0-117.0","0","0","32878","","null","","","null","12","","","","","","","","","","","","","","","NaN",""
"","S1","","html-keyboard-response","95","203402","0.0-1.0-119.0","0","0","32878","","null","","","null","13","","","","","","","","","","","","","","","",""
"","ISI","","html-keyboard-response","96","205406","0.0-1.0-120.0","0","0","32878","","null","","","null","13","NaN","","","","","","","","","","","","","","",""
"","S2","","html-keyboard-response","97","205662","0.0-1.0-121.0","0","0","32878","","null","","","null","13","","NaN","","","","","","","","","","","","","",""
"","response","","html-keyboard-response","98","206072","0.0-1.0-122.0-0.0","0","0","32878","","408","","","68","13","","","1","13","training","adjacent","DC","4","3","M.jpg","L.jpg","1","0","0","",""
"","feedback","","html-keyboard-response","99","207078","0.0-1.0-123.0-0.0","0","0","32878","","null","","","null","13","","","","","","","","","","","","","","","",""
"","time_out","","html-keyboard-response","100","209084","0.0-1.0-125.0-0.0","0","0","32878","","null","","","null","13","","","","","","","","","","","","","","","",""
"","ITI","","html-keyboard-response","101","210089","0.0-1.0-126.0","0","0","32878","","null","","","null","13","","","","","","","","","","","","","","","NaN",""
"","S1","","html-keyboard-response","102","210344","0.0-1.0-128.0","0","0","32878","","null","","","null","14","","","","","","","","","","","","","","","",""
"","ISI","","html-keyboard-response","103","212350","0.0-1.0-129.0","0","0","32878","","null","","","null","14","NaN","","","","","","","","","","","","","","",""
"","S2","","html-keyboard-response","104","212607","0.0-1.0-130.0","0","0","32878","","null","","","null","14","","NaN","","","","","","","","","","","","","",""
"","response","","html-keyboard-response","105","213058","0.0-1.0-131.0-0.0","0","0","32878","","450","","","68","14","","","1","14","training","adjacent","FG","6","7","O.jpg","P.jpg","1","1","1","",""
"","feedback","","html-keyboard-response","106","214065","0.0-1.0-132.0-0.0","0","0","32878","","null","","","null","14","","","","","","","","","","","","","","","",""
"","ITI","","html-keyboard-response","107","215069","0.0-1.0-135.0","0","0","32878","","null","","","null","14","","","","","","","","","","","","","","","NaN",""
"","S1","","html-keyboard-response","108","215324","0.0-1.0-137.0","0","0","32878","","null","","","null","15","","","","","","","","","","","","","","","",""
"","ISI","","html-keyboard-response","109","217329","0.0-1.0-138.0","0","0","32878","","null","","","null","15","NaN","","","","","","","","","","","","","","",""
"","S2","","html-keyboard-response","110","217584","0.0-1.0-139.0","0","0","32878","","null","","","null","15","","NaN","","","","","","","","","","","","","",""
"","response","","html-keyboard-response","111","218131","0.0-1.0-140.0-0.0","0","0","32878","","545","","","68","15","","","1","15","training","adjacent","FE","6","5","O.jpg","R.jpg","1","0","0","",""
"","feedback","","html-keyboard-response","112","219134","0.0-1.0-141.0-0.0","0","0","32878","","null","","","null","15","","","","","","","","","","","","","","","",""
"","time_out","","html-keyboard-response","113","221141","0.0-1.0-143.0-0.0","0","0","32878","","null","","","null","15","","","","","","","","","","","","","","","",""
"","ITI","","html-keyboard-response","114","222146","0.0-1.0-144.0","0","0","32878","","null","","","null","15","","","","","","","","","","","","","","","NaN",""
"","S1","","html-keyboard-response","115","222403","0.0-1.0-146.0","0","0","32878","","null","","","null","16","","","","","","","","","","","","","","","",""
"","ISI","","html-keyboard-response","116","224409","0.0-1.0-147.0","0","0","32878","","null","","","null","16","NaN","","","","","","","","","","","","","","",""
"","S2","","html-keyboard-response","117","224664","0.0-1.0-148.0","0","0","32878","","null","","","null","16","","NaN","","","","","","","","","","","","","",""
"","response","","html-keyboard-response","118","225151","0.0-1.0-149.0-0.0","0","0","32878","","485","","","75","16","","","1","16","training","adjacent","ED","5","4","R.jpg","M.jpg","0","0","1","",""
"","feedback","","html-keyboard-response","119","226157","0.0-1.0-150.0-0.0","0","0","32878","","null","","","null","16","","","","","","","","","","","","","","","",""
"","ITI","","html-keyboard-response","120","227162","0.0-1.0-153.0","0","0","32878","","null","","","null","16","","","","","","","","","","","","","","","NaN",""
"","S1","","html-keyboard-response","121","227419","0.0-1.0-155.0","0","0","32878","","null","","","null","17","","","","","","","","","","","","","","","",""
"","ISI","","html-keyboard-response","122","229425","0.0-1.0-156.0","0","0","32878","","null","","","null","17","NaN","","","","","","","","","","","","","","",""
"","S2","","html-keyboard-response","123","229679","0.0-1.0-157.0","0","0","32878","","null","","","null","17","","NaN","","","","","","","","","","","","","",""
"","response","","html-keyboard-response","124","230225","0.0-1.0-158.0-0.0","0","0","32878","","543","","","68","17","","","1","17","training","adjacent","EF","5","6","R.jpg","O.jpg","1","1","1","",""
"","feedback","","html-keyboard-response","125","231229","0.0-1.0-159.0-0.0","0","0","32878","","null","","","null","17","","","","","","","","","","","","","","","",""
"","ITI","","html-keyboard-response","126","232235","0.0-1.0-162.0","0","0","32878","","null","","","null","17","","","","","","","","","","","","","","","NaN",""
"","S1","","html-keyboard-response","127","232491","0.0-1.0-164.0","0","0","32878","","null","","","null","18","","","","","","","","","","","","","","","",""
"","ISI","","html-keyboard-response","128","234497","0.0-1.0-165.0","0","0","32878","","null","","","null","18","NaN","","","","","","","","","","","","","","",""
"","S2","","html-keyboard-response","129","234753","0.0-1.0-166.0","0","0","32878","","null","","","null","18","","NaN","","","","","","","","","","","","","",""
"","response","","html-keyboard-response","130","235073","0.0-1.0-167.0-0.0","0","0","32878","","319","","","75","18","","","1","18","training","adjacent","AB","1","2","N.jpg","Q.jpg","0","1","0","",""
"","feedback","","html-keyboard-response","131","236078","0.0-1.0-168.0-0.0","0","0","32878","","null","","","null","18","","","","","","","","","","","","","","","",""
"","time_out","","html-keyboard-response","132","238085","0.0-1.0-170.0-0.0","0","0","32878","","null","","","null","18","","","","","","","","","","","","","","","",""
"","ITI","","html-keyboard-response","133","239091","0.0-1.0-171.0","0","0","32878","","null","","","null","18","","","","","","","","","","","","","","","NaN",""
"","S1","","html-keyboard-response","134","239347","0.0-1.0-173.0","0","0","32878","","null","","","null","19","","","","","","","","","","","","","","","",""
"","ISI","","html-keyboard-response","135","241352","0.0-1.0-174.0","0","0","32878","","null","","","null","19","NaN","","","","","","","","","","","","","","",""
"","S2","","html-keyboard-response","136","241608","0.0-1.0-175.0","0","0","32878","","null","","","null","19","","NaN","","","","","","","","","","","","","",""
"","response","","html-keyboard-response","137","242059","0.0-1.0-176.0-0.0","0","0","32878","","450","","","68","19","","","1","19","training","adjacent","CD","3","4","L.jpg","M.jpg","1","1","1","",""
"","feedback","","html-keyboard-response","138","243065","0.0-1.0-177.0-0.0","0","0","32878","","null","","","null","19","","","","","","","","","","","","","","","",""
"","ITI","","html-keyboard-response","139","244070","0.0-1.0-180.0","0","0","32878","","null","","","null","19","","","","","","","","","","","","","","","NaN",""
"","S1","","html-keyboard-response","140","244324","0.0-1.0-182.0","0","0","32878","","null","","","null","20","","","","","","","","","","","","","","","",""
"","ISI","","html-keyboard-response","141","246330","0.0-1.0-183.0","0","0","32878","","null","","","null","20","NaN","","","","","","","","","","","","","","",""
"","S2","","html-keyboard-response","142","246586","0.0-1.0-184.0","0","0","32878","","null","","","null","20","","NaN","","","","","","","","","","","","","",""
"","response","","html-keyboard-response","143","247009","0.0-1.0-185.0-0.0","0","0","32878","","422","","","68","20","","","1","20","training","adjacent","ED","5","4","R.jpg","M.jpg","1","0","0","",""
"","feedback","","html-keyboard-response","144","248013","0.0-1.0-186.0-0.0","0","0","32878","","null","","","null","20","","","","","","","","","","","","","","","",""
"","time_out","","html-keyboard-response","145","250019","0.0-1.0-188.0-0.0","0","0","32878","","null","","","null","20","","","","","","","","","","","","","","","",""
"","ITI","","html-keyboard-response","146","251023","0.0-1.0-189.0","0","0","32878","","null","","","null","20","","","","","","","","","","","","","","","NaN",""
"","S1","","html-keyboard-response","147","251279","0.0-1.0-191.0","0","0","32878","","null","","","null","21","","","","","","","","","","","","","","","",""
"","ISI","","html-keyboard-response","148","253284","0.0-1.0-192.0","0","0","32878","","null","","","null","21","NaN","","","","","","","","","","","","","","",""
"","S2","","html-keyboard-response","149","253539","0.0-1.0-193.0","0","0","32878","","null","","","null","21","","NaN","","","","","","","","","","","","","",""
"","response","","html-keyboard-response","150","254006","0.0-1.0-194.0-0.0","0","0","32878","","466","","","75","21","","","1","21","training","adjacent","AB","1","2","N.jpg","Q.jpg","0","1","0","",""
"","feedback","","html-keyboard-response","151","255011","0.0-1.0-195.0-0.0","0","0","32878","","null","","","null","21","","","","","","","","","","","","","","","",""
"","time_out","","html-keyboard-response","152","257016","0.0-1.0-197.0-0.0","0","0","32878","","null","","","null","21","","","","","","","","","","","","","","","",""
"","ITI","","html-keyboard-response","153","258020","0.0-1.0-198.0","0","0","32878","","null","","","null","21","","","","","","","","","","","","","","","NaN",""
"","S1","","html-keyboard-response","154","258276","0.0-1.0-200.0","0","0","32878","","null","","","null","22","","","","","","","","","","","","","","","",""
"","ISI","","html-keyboard-response","155","260282","0.0-1.0-201.0","0","0","32878","","null","","","null","22","NaN","","","","","","","","","","","","","","",""
"","S2","","html-keyboard-response","156","260537","0.0-1.0-202.0","0","0","32878","","null","","","null","22","","NaN","","","","","","","","","","","","","",""
"","response","","html-keyboard-response","157","261015","0.0-1.0-203.0-0.0","0","0","32878","","476","","","75","22","","","1","22","training","adjacent","FE","6","5","O.jpg","R.jpg","0","0","1","",""
"","feedback","","html-keyboard-response","158","262020","0.0-1.0-204.0-0.0","0","0","32878","","null","","","null","22","","","","","","","","","","","","","","","",""
"","ITI","","html-keyboard-response","159","263023","0.0-1.0-207.0","0","0","32878","","null","","","null","22","","","","","","","","","","","","","","","NaN",""
"","S1","","html-keyboard-response","160","263280","0.0-1.0-209.0","0","0","32878","","null","","","null","23","","","","","","","","","","","","","","","",""
"","ISI","","html-keyboard-response","161","265285","0.0-1.0-210.0","0","0","32878","","null","","","null","23","NaN","","","","","","","","","","","","","","",""
"","S2","","html-keyboard-response","162","265541","0.0-1.0-211.0","0","0","32878","","null","","","null","23","","NaN","","","","","","","","","","","","","",""
"","response","","html-keyboard-response","163","266111","0.0-1.0-212.0-0.0","0","0","32878","","569","","","68","23","","","1","23","training","adjacent","CB","3","2","L.jpg","Q.jpg","1","0","0","",""
"","feedback","","html-keyboard-response","164","267117","0.0-1.0-213.0-0.0","0","0","32878","","null","","","null","23","","","","","","","","","","","","","","","",""
"","time_out","","html-keyboard-response","165","269122","0.0-1.0-215.0-0.0","0","0","32878","","null","","","null","23","","","","","","","","","","","","","","","",""
"","ITI","","html-keyboard-response","166","270126","0.0-1.0-216.0","0","0","32878","","null","","","null","23","","","","","","","","","","","","","","","NaN",""
"","S1","","html-keyboard-response","167","270382","0.0-1.0-218.0","0","0","32878","","null","","","null","24","","","","","","","","","","","","","","","",""
"","ISI","","html-keyboard-response","168","272388","0.0-1.0-219.0","0","0","32878","","null","","","null","24","NaN","","","","","","","","","","","","","","",""
"","S2","","html-keyboard-response","169","272643","0.0-1.0-220.0","0","0","32878","","null","","","null","24","","NaN","","","","","","","","","","","","","",""
"","response","","html-keyboard-response","170","272804","0.0-1.0-221.0-0.0","0","0","32878","","160","","","75","24","","","1","24","training","adjacent","DC","4","3","M.jpg","L.jpg","0","0","1","",""
"","feedback","","html-keyboard-response","171","273809","0.0-1.0-222.0-0.0","0","0","32878","","null","","","null","24","","","","","","","","","","","","","","","",""
"","ITI","","html-keyboard-response","172","274814","0.0-1.0-225.0","0","0","32878","","null","","","null","24","","","","","","","","","","","","","","","NaN",""
"","S1","","html-keyboard-response","173","275069","0.0-1.0-227.0","0","0","32878","","null","","","null","25","","","","","","","","","","","","","","","",""
"","ISI","","html-keyboard-response","174","277075","0.0-1.0-228.0","0","0","32878","","null","","","null","25","NaN","","","","","","","","","","","","","","",""
"","S2","","html-keyboard-response","175","277330","0.0-1.0-229.0","0","0","32878","","null","","","null","25","","NaN","","","","","","","","","","","","","",""
"","response","","html-keyboard-response","176","277788","0.0-1.0-230.0-0.0","0","0","32878","","455","","","75","25","","","1","25","training","adjacent","CD","3","4","L.jpg","M.jpg","0","1","0","",""
"","feedback","","html-keyboard-response","177","278793","0.0-1.0-231.0-0.0","0","0","32878","","null","","","null","25","","","","","","","","","","","","","","","",""
"","time_out","","html-keyboard-response","178","280798","0.0-1.0-233.0-0.0","0","0","32878","","null","","","null","25","","","","","","","","","","","","","","","",""
"","ITI","","html-keyboard-response","179","281802","0.0-1.0-234.0","0","0","32878","","null","","","null","25","","","","","","","","","","","","","","","NaN",""
"","S1","","html-keyboard-response","180","282058","0.0-1.0-236.0","0","0","32878","","null","","","null","26","","","","","","","","","","","","","","","",""
"","ISI","","html-keyboard-response","181","284064","0.0-1.0-237.0","0","0","32878","","null","","","null","26","NaN","","","","","","","","","","","","","","",""
"","S2","","html-keyboard-response","182","284319","0.0-1.0-238.0","0","0","32878","","null","","","null","26","","NaN","","","","","","","","","","","","","",""
"","response","","html-keyboard-response","183","284785","0.0-1.0-239.0-0.0","0","0","32878","","465","","","68","26","","","1","26","training","adjacent","FG","6","7","O.jpg","P.jpg","1","1","1","",""
"","feedback","","html-keyboard-response","184","285791","0.0-1.0-240.0-0.0","0","0","32878","","null","","","null","26","","","","","","","","","","","","","","","",""
"","ITI","","html-keyboard-response","185","286797","0.0-1.0-243.0","0","0","32878","","null","","","null","26","","","","","","","","","","","","","","","NaN",""
"","S1","","html-keyboard-response","186","287053","0.0-1.0-245.0","0","0","32878","","null","","","null","27","","","","","","","","","","","","","","","",""
"","ISI","","html-keyboard-response","187","289058","0.0-1.0-246.0","0","0","32878","","null","","","null","27","NaN","","","","","","","","","","","","","","",""
"","S2","","html-keyboard-response","188","289313","0.0-1.0-247.0","0","0","32878","","null","","","null","27","","NaN","","","","","","","","","","","","","",""
"","response","","html-keyboard-response","189","289791","0.0-1.0-248.0-0.0","0","0","32878","","476","","","75","27","","","1","27","training","adjacent","FE","6","5","O.jpg","R.jpg","0","0","1","",""
"","feedback","","html-keyboard-response","190","290797","0.0-1.0-249.0-0.0","0","0","32878","","null","","","null","27","","","","","","","","","","","","","","","",""
"","ITI","","html-keyboard-response","191","291804","0.0-1.0-252.0","0","0","32878","","null","","","null","27","","","","","","","","","","","","","","","NaN",""
"","S1","","html-keyboard-response","192","292059","0.0-1.0-254.0","0","0","32878","","null","","","null","28","","","","","","","","","","","","","","","",""
"","ISI","","html-keyboard-response","193","294065","0.0-1.0-255.0","0","0","32878","","null","","","null","28","NaN","","","","","","","","","","","","","","",""
"","S2","","html-keyboard-response","194","294321","0.0-1.0-256.0","0","0","32878","","null","","","null","28","","NaN","","","","","","","","","","","","","",""
"","response","","html-keyboard-response","195","294797","0.0-1.0-257.0-0.0","0","0","32878","","475","","","75","28","","","1","28","training","adjacent","DE","4","5","M.jpg","R.jpg","0","1","0","",""
"","feedback","","html-keyboard-response","196","295804","0.0-1.0-258.0-0.0","0","0","32878","","null","","","null","28","","","","","","","","","","","","","","","",""
"","time_out","","html-keyboard-response","197","297809","0.0-1.0-260.0-0.0","0","0","32878","","null","","","null","28","","","","","","","","","","","","","","","",""
"","ITI","","html-keyboard-response","198","298816","0.0-1.0-261.0","0","0","32878","","null","","","null","28","","","","","","","","","","","","","","","NaN",""
"","S1","","html-keyboard-response","199","299072","0.0-1.0-263.0","0","0","32878","","null","","","null","29","","","","","","","","","","","","","","","",""
"","ISI","","html-keyboard-response","200","301077","0.0-1.0-264.0","0","0","32878","","null","","","null","29","NaN","","","","","","","","","","","","","","",""
"","S2","","html-keyboard-response","201","301333","0.0-1.0-265.0","0","0","32878","","null","","","null","29","","NaN","","","","","","","","","","","","","",""
"","response","","html-keyboard-response","202","301715","0.0-1.0-266.0-0.0","0","0","32878","","381","","","75","29","","","1","29","training","adjacent","AB","1","2","N.jpg","Q.jpg","0","1","0","",""
"","feedback","","html-keyboard-response","203","302720","0.0-1.0-267.0-0.0","0","0","32878","","null","","","null","29","","","","","","","","","","","","","","","",""
"","time_out","","html-keyboard-response","204","304725","0.0-1.0-269.0-0.0","0","0","32878","","null","","","null","29","","","","","","","","","","","","","","","",""
"","ITI","","html-keyboard-response","205","305730","0.0-1.0-270.0","0","0","32878","","null","","","null","29","","","","","","","","","","","","","","","NaN",""
"","S1","","html-keyboard-response","206","305985","0.0-1.0-272.0","0","0","32878","","null","","","null","30","","","","","","","","","","","","","","","",""
"","ISI","","html-keyboard-response","207","307990","0.0-1.0-273.0","0","0","32878","","null","","","null","30","NaN","","","","","","","","","","","","","","",""
"","S2","","html-keyboard-response","208","308246","0.0-1.0-274.0","0","0","32878","","null","","","null","30","","NaN","","","","","","","","","","","","","",""
"","response","","html-keyboard-response","209","308691","0.0-1.0-275.0-0.0","0","0","32878","","442","","","68","30","","","1","30","training","adjacent","BC","2","3","Q.jpg","L.jpg","1","1","1","",""
"","feedback","","html-keyboard-response","210","309698","0.0-1.0-276.0-0.0","0","0","32878","","null","","","null","30","","","","","","","","","","","","","","","",""
"","ITI","","html-keyboard-response","211","310704","0.0-1.0-279.0","0","0","32878","","null","","","null","30","","","","","","","","","","","","","","","NaN",""
"","S1","","html-keyboard-response","212","310959","0.0-1.0-281.0","0","0","32878","","null","","","null","31","","","","","","","","","","","","","","","",""
"","ISI","","html-keyboard-response","213","312962","0.0-1.0-282.0","0","0","32878","","null","","","null","31","NaN","","","","","","","","","","","","","","",""
"","S2","","html-keyboard-response","214","313218","0.0-1.0-283.0","0","0","32878","","null","","","null","31","","NaN","","","","","","","","","","","","","",""
"","response","","html-keyboard-response","215","313809","0.0-1.0-284.0-0.0","0","0","32878","","590","","","68","31","","","1","31","training","adjacent","CD","3","4","L.jpg","M.jpg","1","1","1","",""
"","feedback","","html-keyboard-response","216","314813","0.0-1.0-285.0-0.0","0","0","32878","","null","","","null","31","","","","","","","","","","","","","","","",""
"","ITI","","html-keyboard-response","217","315818","0.0-1.0-288.0","0","0","32878","","null","","","null","31","","","","","","","","","","","","","","","NaN",""
"","S1","","html-keyboard-response","218","316074","0.0-1.0-290.0","0","0","32878","","null","","","null","32","","","","","","","","","","","","","","","",""
"","ISI","","html-keyboard-response","219","318079","0.0-1.0-291.0","0","0","32878","","null","","","null","32","NaN","","","","","","","","","","","","","","",""
"","S2","","html-keyboard-response","220","318335","0.0-1.0-292.0","0","0","32878","","null","","","null","32","","NaN","","","","","","","","","","","","","",""
"","response","","html-keyboard-response","221","319714","0.0-1.0-293.0-0.0","0","0","32878","","1378","","","68","32","","","1","32","training","adjacent","DE","4","5","M.jpg","R.jpg","1","1","1","",""
"","feedback","","html-keyboard-response","222","320720","0.0-1.0-294.0-0.0","0","0","32878","","null","","","null","32","","","","","","","","","","","","","","","",""
"","ITI","","html-keyboard-response","223","321724","0.0-1.0-297.0","0","0","32878","","null","","","null","32","","","","","","","","","","","","","","","NaN",""
"","S1","","html-keyboard-response","224","321980","0.0-1.0-299.0","0","0","32878","","null","","","null","33","","","","","","","","","","","","","","","",""
"","ISI","","html-keyboard-response","225","323985","0.0-1.0-300.0","0","0","32878","","null","","","null","33","NaN","","","","","","","","","","","","","","",""
"","S2","","html-keyboard-response","226","324241","0.0-1.0-301.0","0","0","32878","","null","","","null","33","","NaN","","","","","","","","","","","","","",""
"","response","","html-keyboard-response","227","324744","0.0-1.0-302.0-0.0","0","0","32878","","500","","","75","33","","","1","33","training","adjacent","CB","3","2","L.jpg","Q.jpg","0","0","1","",""
"","feedback","","html-keyboard-response","228","325750","0.0-1.0-303.0-0.0","0","0","32878","","null","","","null","33","","","","","","","","","","","","","","","",""
"","ITI","","html-keyboard-response","229","326754","0.0-1.0-306.0","0","0","32878","","null","","","null","33","","","","","","","","","","","","","","","NaN",""
"","S1","","html-keyboard-response","230","327006","0.0-1.0-308.0","0","0","32878","","null","","","null","34","","","","","","","","","","","","","","","",""
"","ISI","","html-keyboard-response","231","329010","0.0-1.0-309.0","0","0","32878","","null","","","null","34","NaN","","","","","","","","","","","","","","",""
"","S2","","html-keyboard-response","232","329264","0.0-1.0-310.0","0","0","32878","","null","","","null","34","","NaN","","","","","","","","","","","","","",""
"","response","","html-keyboard-response","233","329727","0.0-1.0-311.0-0.0","0","0","32878","","461","","","68","34","","","1","34","training","adjacent","DC","4","3","M.jpg","L.jpg","1","0","0","",""
"","feedback","","html-keyboard-response","234","330734","0.0-1.0-312.0-0.0","0","0","32878","","null","","","null","34","","","","","","","","","","","","","","","",""
"","time_out","","html-keyboard-response","235","332739","0.0-1.0-314.0-0.0","0","0","32878","","null","","","null","34","","","","","","","","","","","","","","","",""
"","ITI","","html-keyboard-response","236","333743","0.0-1.0-315.0","0","0","32878","","null","","","null","34","","","","","","","","","","","","","","","NaN",""
"","S1","","html-keyboard-response","237","333998","0.0-1.0-317.0","0","0","32878","","null","","","null","35","","","","","","","","","","","","","","","",""
"","ISI","","html-keyboard-response","238","336001","0.0-1.0-318.0","0","0","32878","","null","","","null","35","NaN","","","","","","","","","","","","","","",""
"","S2","","html-keyboard-response","239","336257","0.0-1.0-319.0","0","0","32878","","null","","","null","35","","NaN","","","","","","","","","","","","","",""
"","response","","html-keyboard-response","240","336714","0.0-1.0-320.0-0.0","0","0","32878","","456","","","75","35","","","1","35","training","adjacent","AB","1","2","N.jpg","Q.jpg","0","1","0","",""
"","feedback","","html-keyboard-response","241","337719","0.0-1.0-321.0-0.0","0","0","32878","","null","","","null","35","","","","","","","","","","","","","","","",""
"","time_out","","html-keyboard-response","242","339726","0.0-1.0-323.0-0.0","0","0","32878","","null","","","null","35","","","","","","","","","","","","","","","",""
"","ITI","","html-keyboard-response","243","340732","0.0-1.0-324.0","0","0","32878","","null","","","null","35","","","","","","","","","","","","","","","NaN",""
"","S1","","html-keyboard-response","244","340987","0.0-1.0-326.0","0","0","32878","","null","","","null","36","","","","","","","","","","","","","","","",""
"","ISI","","html-keyboard-response","245","342993","0.0-1.0-327.0","0","0","32878","","null","","","null","36","NaN","","","","","","","","","","","","","","",""
"","S2","","html-keyboard-response","246","343249","0.0-1.0-328.0","0","0","32878","","null","","","null","36","","NaN","","","","","","","","","","","","","",""
"","response","","html-keyboard-response","247","343609","0.0-1.0-329.0-0.0","0","0","32878","","359","","","68","36","","","1","36","training","adjacent","BA","2","1","Q.jpg","N.jpg","1","0","0","",""
"","feedback","","html-keyboard-response","248","344615","0.0-1.0-330.0-0.0","0","0","32878","","null","","","null","36","","","","","","","","","","","","","","","",""
"","time_out","","html-keyboard-response","249","346621","0.0-1.0-332.0-0.0","0","0","32878","","null","","","null","36","","","","","","","","","","","","","","","",""
"","ITI","","html-keyboard-response","250","347626","0.0-1.0-333.0","0","0","32878","","null","","","null","36","","","","","","","","","","","","","","","NaN",""
"","S1","","html-keyboard-response","251","347881","0.0-1.0-335.0","0","0","32878","","null","","","null","37","","","","","","","","","","","","","","","",""
"","ISI","","html-keyboard-response","252","349886","0.0-1.0-336.0","0","0","32878","","null","","","null","37","NaN","","","","","","","","","","","","","","",""
"","S2","","html-keyboard-response","253","350141","0.0-1.0-337.0","0","0","32878","","null","","","null","37","","NaN","","","","","","","","","","","","","",""
"","response","","html-keyboard-response","254","350573","0.0-1.0-338.0-0.0","0","0","32878","","430","","","75","37","","","1","37","training","adjacent","DE","4","5","M.jpg","R.jpg","0","1","0","",""
"","feedback","","html-keyboard-response","255","351579","0.0-1.0-339.0-0.0","0","0","32878","","null","","","null","37","","","","","","","","","","","","","","","",""
"","time_out","","html-keyboard-response","256","353584","0.0-1.0-341.0-0.0","0","0","32878","","null","","","null","37","","","","","","","","","","","","","","","",""
"","ITI","","html-keyboard-response","257","354590","0.0-1.0-342.0","0","0","32878","","null","","","null","37","","","","","","","","","","","","","","","NaN",""
"","S1","","html-keyboard-response","258","354847","0.0-1.0-344.0","0","0","32878","","null","","","null","38","","","","","","","","","","","","","","","",""
"","ISI","","html-keyboard-response","259","356852","0.0-1.0-345.0","0","0","32878","","null","","","null","38","NaN","","","","","","","","","","","","","","",""
"","S2","","html-keyboard-response","260","357107","0.0-1.0-346.0","0","0","32878","","null","","","null","38","","NaN","","","","","","","","","","","","","",""
"","response","","html-keyboard-response","261","357413","0.0-1.0-347.0-0.0","0","0","32878","","305","","","68","38","","","1","38","training","adjacent","GF","7","6","P.jpg","O.jpg","1","0","0","",""
"","feedback","","html-keyboard-response","262","358419","0.0-1.0-348.0-0.0","0","0","32878","","null","","","null","38","","","","","","","","","","","","","","","",""
"","time_out","","html-keyboard-response","263","360425","0.0-1.0-350.0-0.0","0","0","32878","","null","","","null","38","","","","","","","","","","","","","","","",""
"","ITI","","html-keyboard-response","264","361431","0.0-1.0-351.0","0","0","32878","","null","","","null","38","","","","","","","","","","","","","","","NaN",""
"","S1","","html-keyboard-response","265","361687","0.0-1.0-353.0","0","0","32878","","null","","","null","39","","","","","","","","","","","","","","","",""
"","ISI","","html-keyboard-response","266","363692","0.0-1.0-354.0","0","0","32878","","null","","","null","39","NaN","","","","","","","","","","","","","","",""
"","S2","","html-keyboard-response","267","363948","0.0-1.0-355.0","0","0","32878","","null","","","null","39","","NaN","","","","","","","","","","","","","",""
"","response","","html-keyboard-response","268","364342","0.0-1.0-356.0-0.0","0","0","32878","","392","","","75","39","","","1","39","training","adjacent","BA","2","1","Q.jpg","N.jpg","0","0","1","",""
"","feedback","","html-keyboard-response","269","365347","0.0-1.0-357.0-0.0","0","0","32878","","null","","","null","39","","","","","","","","","","","","","","","",""
"","ITI","","html-keyboard-response","270","366352","0.0-1.0-360.0","0","0","32878","","null","","","null","39","","","","","","","","","","","","","","","NaN",""
"","S1","","html-keyboard-response","271","366609","0.0-1.0-362.0","0","0","32878","","null","","","null","40","","","","","","","","","","","","","","","",""
"","ISI","","html-keyboard-response","272","368615","0.0-1.0-363.0","0","0","32878","","null","","","null","40","NaN","","","","","","","","","","","","","","",""
"","S2","","html-keyboard-response","273","368870","0.0-1.0-364.0","0","0","32878","","null","","","null","40","","NaN","","","","","","","","","","","","","",""
"","response","","html-keyboard-response","274","369371","0.0-1.0-365.0-0.0","0","0","32878","","499","","","68","40","","","1","40","training","adjacent","GF","7","6","P.jpg","O.jpg","1","0","0","",""
"","feedback","","html-keyboard-response","275","370377","0.0-1.0-366.0-0.0","0","0","32878","","null","","","null","40","","","","","","","","","","","","","","","",""
"","time_out","","html-keyboard-response","276","372383","0.0-1.0-368.0-0.0","0","0","32878","","null","","","null","40","","","","","","","","","","","","","","","",""
"","ITI","","html-keyboard-response","277","373389","0.0-1.0-369.0","0","0","32878","","null","","","null","40","","","","","","","","","","","","","","","NaN",""
"","S1","","html-keyboard-response","278","373645","0.0-1.0-371.0","0","0","32878","","null","","","null","41","","","","","","","","","","","","","","","",""
"","ISI","","html-keyboard-response","279","375651","0.0-1.0-372.0","0","0","32878","","null","","","null","41","NaN","","","","","","","","","","","","","","",""
"","S2","","html-keyboard-response","280","375906","0.0-1.0-373.0","0","0","32878","","null","","","null","41","","NaN","","","","","","","","","","","","","",""
"","response","","html-keyboard-response","281","376255","0.0-1.0-374.0-0.0","0","0","32878","","348","","","75","41","","","1","41","training","adjacent","BC","2","3","Q.jpg","L.jpg","0","1","0","",""
"","feedback","","html-keyboard-response","282","377262","0.0-1.0-375.0-0.0","0","0","32878","","null","","","null","41","","","","","","","","","","","","","","","",""
"","time_out","","html-keyboard-response","283","379267","0.0-1.0-377.0-0.0","0","0","32878","","null","","","null","41","","","","","","","","","","","","","","","",""
"","ITI","","html-keyboard-response","284","380273","0.0-1.0-378.0","0","0","32878","","null","","","null","41","","","","","","","","","","","","","","","NaN",""
"","S1","","html-keyboard-response","285","380529","0.0-1.0-380.0","0","0","32878","","null","","","null","42","","","","","","","","","","","","","","","",""
"","ISI","","html-keyboard-response","286","382535","0.0-1.0-381.0","0","0","32878","","null","","","null","42","NaN","","","","","","","","","","","","","","",""
"","S2","","html-keyboard-response","287","382792","0.0-1.0-382.0","0","0","32878","","null","","","null","42","","NaN","","","","","","","","","","","","","",""
"","response","","html-keyboard-response","288","383151","0.0-1.0-383.0-0.0","0","0","32878","","358","","","68","42","","","1","42","training","adjacent","CD","3","4","L.jpg","M.jpg","1","1","1","",""
"","feedback","","html-keyboard-response","289","384156","0.0-1.0-384.0-0.0","0","0","32878","","null","","","null","42","","","","","","","","","","","","","","","",""
"","ITI","","html-keyboard-response","290","385162","0.0-1.0-387.0","0","0","32878","","null","","","null","42","","","","","","","","","","","","","","","NaN",""
"","S1","","html-keyboard-response","291","385417","0.0-1.0-389.0","0","0","32878","","null","","","null","43","","","","","","","","","","","","","","","",""
"","ISI","","html-keyboard-response","292","387422","0.0-1.0-390.0","0","0","32878","","715","","","75","43","k","","","","","","","","","","","","","","",""
"","S2","","html-keyboard-response","293","387678","0.0-1.0-391.0","0","0","32878","","null","","","null","43","","NaN","","","","","","","","","","","","","",""
"","response","","html-keyboard-response","294","388146","0.0-1.0-392.0-0.0","0","0","32878","","466","","","68","43","","","1","43","training","adjacent","FG","6","7","O.jpg","P.jpg","1","1","1","",""
"","feedback","","html-keyboard-response","295","389153","0.0-1.0-393.0-0.0","0","0","32878","","null","","","null","43","","","","","","","","","","","","","","","",""
"","ITI","","html-keyboard-response","296","390159","0.0-1.0-396.0","0","0","32878","","null","","","null","43","","","","","","","","","","","","","","","NaN",""
"","S1","","html-keyboard-response","297","390415","0.0-1.0-398.0","0","0","32878","","null","","","null","44","","","","","","","","","","","","","","","",""
"","ISI","","html-keyboard-response","298","392420","0.0-1.0-399.0","0","0","32878","","null","","","null","44","NaN","","","","","","","","","","","","","","",""
"","S2","","html-keyboard-response","299","392676","0.0-1.0-400.0","0","0","32878","","null","","","null","44","","NaN","","","","","","","","","","","","","",""
"","response","","html-keyboard-response","300","393287","0.0-1.0-401.0-0.0","0","0","32878","","610","","","75","44","","","1","44","training","adjacent","CB","3","2","L.jpg","Q.jpg","0","0","1","",""
"","feedback","","html-keyboard-response","301","394293","0.0-1.0-402.0-0.0","0","0","32878","","null","","","null","44","","","","","","","","","","","","","","","",""
"","ITI","","html-keyboard-response","302","395299","0.0-1.0-405.0","0","0","32878","","null","","","null","44","","","","","","","","","","","","","","","NaN",""
"","S1","","html-keyboard-response","303","395555","0.0-1.0-407.0","0","0","32878","","null","","","null","45","","","","","","","","","","","","","","","",""
"","ISI","","html-keyboard-response","304","397560","0.0-1.0-408.0","0","0","32878","","null","","","null","45","NaN","","","","","","","","","","","","","","",""
"","S2","","html-keyboard-response","305","397815","0.0-1.0-409.0","0","0","32878","","null","","","null","45","","NaN","","","","","","","","","","","","","",""
"","response","","html-keyboard-response","306","398091","0.0-1.0-410.0-0.0","0","0","32878","","274","","","68","45","","","1","45","training","adjacent","DE","4","5","M.jpg","R.jpg","1","1","1","",""
"","feedback","","html-keyboard-response","307","399097","0.0-1.0-411.0-0.0","0","0","32878","","null","","","null","45","","","","","","","","","","","","","","","",""
"","ITI","","html-keyboard-response","308","400103","0.0-1.0-414.0","0","0","32878","","null","","","null","45","","","","","","","","","","","","","","","NaN",""
"","S1","","html-keyboard-response","309","400358","0.0-1.0-416.0","0","0","32878","","null","","","null","46","","","","","","","","","","","","","","","",""
"","ISI","","html-keyboard-response","310","402364","0.0-1.0-417.0","0","0","32878","","null","","","null","46","NaN","","","","","","","","","","","","","","",""
"","S2","","html-keyboard-response","311","402619","0.0-1.0-418.0","0","0","32878","","null","","","null","46","","NaN","","","","","","","","","","","","","",""
"","response","","html-keyboard-response","312","403052","0.0-1.0-419.0-0.0","0","0","32878","","431","","","75","46","","","1","46","training","adjacent","EF","5","6","R.jpg","O.jpg","0","1","0","",""
"","feedback","","html-keyboard-response","313","404057","0.0-1.0-420.0-0.0","0","0","32878","","null","","","null","46","","","","","","","","","","","","","","","",""
"","time_out","","html-keyboard-response","314","406064","0.0-1.0-422.0-0.0","0","0","32878","","null","","","null","46","","","","","","","","","","","","","","","",""
"","ITI","","html-keyboard-response","315","407069","0.0-1.0-423.0","0","0","32878","","null","","","null","46","","","","","","","","","","","","","","","NaN",""
"","S1","","html-keyboard-response","316","407324","0.0-1.0-425.0","0","0","32878","","null","","","null","47","","","","","","","","","","","","","","","",""
"","ISI","","html-keyboard-response","317","409330","0.0-1.0-426.0","0","0","32878","","null","","","null","47","NaN","","","","","","","","","","","","","","",""
"","S2","","html-keyboard-response","318","409585","0.0-1.0-427.0","0","0","32878","","null","","","null","47","","NaN","","","","","","","","","","","","","",""
"","response","","html-keyboard-response","319","409790","0.0-1.0-428.0-0.0","0","0","32878","","203","","","68","47","","","1","47","training","adjacent","BC","2","3","Q.jpg","L.jpg","1","1","1","",""
"","feedback","","html-keyboard-response","320","410795","0.0-1.0-429.0-0.0","0","0","32878","","null","","","null","47","","","","","","","","","","","","","","","",""
"","ITI","","html-keyboard-response","321","411799","0.0-1.0-432.0","0","0","32878","","null","","","null","47","","","","","","","","","","","","","","","NaN",""
"","block_over","","html-keyboard-response","322","601203","0.0-1.0-433.0-0.0","0","0","32878","","189402","","","32","47","","","","","","","","","","","","","","","",""
"","S1","","html-keyboard-response","323","601460","0.0-1.0-434.0","0","0","32878","","null","","","null","48","","","","","","","","","","","","","","","",""
"","ISI","","html-keyboard-response","324","603465","0.0-1.0-435.0","0","0","32878","","null","","","null","48","NaN","","","","","","","","","","","","","","",""
"","S2","","html-keyboard-response","325","603721","0.0-1.0-436.0","0","0","32878","","null","","","null","48","","NaN","","","","","","","","","","","","","",""
"","response","","html-keyboard-response","326","604139","0.0-1.0-437.0-0.0","0","0","32878","","416","","","75","48","","","2","48","training","adjacent","FE","6","5","O.jpg","R.jpg","0","0","1","",""
"","feedback","","html-keyboard-response","327","605145","0.0-1.0-438.0-0.0","0","0","32878","","null","","","null","48","","","","","","","","","","","","","","","",""
"","ITI","","html-keyboard-response","328","606151","0.0-1.0-441.0","0","0","32878","","null","","","null","48","","","","","","","","","","","","","","","NaN",""
"","S1","","html-keyboard-response","329","606406","0.0-1.0-443.0","0","0","32878","","null","","","null","49","","","","","","","","","","","","","","","",""
"","ISI","","html-keyboard-response","330","608412","0.0-1.0-444.0","0","0","32878","","null","","","null","49","NaN","","","","","","","","","","","","","","",""
"","S2","","html-keyboard-response","331","608666","0.0-1.0-445.0","0","0","32878","","null","","","null","49","","NaN","","","","","","","","","","","","","",""
"","response","","html-keyboard-response","332","609043","0.0-1.0-446.0-0.0","0","0","32878","","375","","","68","49","","","2","49","training","adjacent","BC","2","3","Q.jpg","L.jpg","1","1","1","",""
"","feedback","","html-keyboard-response","333","610048","0.0-1.0-447.0-0.0","0","0","32878","","null","","","null","49","","","","","","","","","","","","","","","",""
"","ITI","","html-keyboard-response","334","611052","0.0-1.0-450.0","0","0","32878","","null","","","null","49","","","","","","","","","","","","","","","NaN",""
"","S1","","html-keyboard-response","335","611308","0.0-1.0-452.0","0","0","32878","","null","","","null","50","","","","","","","","","","","","","","","",""
"","ISI","","html-keyboard-response","336","613313","0.0-1.0-453.0","0","0","32878","","null","","","null","50","NaN","","","","","","","","","","","","","","",""
"","S2","","html-keyboard-response","337","613569","0.0-1.0-454.0","0","0","32878","","null","","","null","50","","NaN","","","","","","","","","","","","","",""
"","response","","html-keyboard-response","338","614613","0.0-1.0-455.0-0.0","0","0","32878","","1042","","","75","50","","","2","50","training","adjacent","ED","5","4","R.jpg","M.jpg","0","0","1","",""
"","feedback","","html-keyboard-response","339","615618","0.0-1.0-456.0-0.0","0","0","32878","","null","","","null","50","","","","","","","","","","","","","","","",""
"","ITI","","html-keyboard-response","340","616622","0.0-1.0-459.0","0","0","32878","","null","","","null","50","","","","","","","","","","","","","","","NaN",""
"","S1","","html-keyboard-response","341","616877","0.0-1.0-461.0","0","0","32878","","null","","","null","51","","","","","","","","","","","","","","","",""
"","ISI","","html-keyboard-response","342","618883","0.0-1.0-462.0","0","0","32878","","null","","","null","51","NaN","","","","","","","","","","","","","","",""
"","S2","","html-keyboard-response","343","619138","0.0-1.0-463.0","0","0","32878","","null","","","null","51","","NaN","","","","","","","","","","","","","",""
"","response","","html-keyboard-response","344","620046","0.0-1.0-464.0-0.0","0","0","32878","","906","","","75","51","","","2","51","training","adjacent","CB","3","2","L.jpg","Q.jpg","0","0","1","",""
"","feedback","","html-keyboard-response","345","621051","0.0-1.0-465.0-0.0","0","0","32878","","null","","","null","51","","","","","","","","","","","","","","","",""
"","ITI","","html-keyboard-response","346","622055","0.0-1.0-468.0","0","0","32878","","null","","","null","51","","","","","","","","","","","","","","","NaN",""
"","S1","","html-keyboard-response","347","622310","0.0-1.0-470.0","0","0","32878","","null","","","null","52","","","","","","","","","","","","","","","",""
"","ISI","","html-keyboard-response","348","624316","0.0-1.0-471.0","0","0","32878","","null","","","null","52","NaN","","","","","","","","","","","","","","",""
"","S2","","html-keyboard-response","349","624571","0.0-1.0-472.0","0","0","32878","","null","","","null","52","","NaN","","","","","","","","","","","","","",""
"","response","","html-keyboard-response","350","624984","0.0-1.0-473.0-0.0","0","0","32878","","411","","","68","52","","","2","52","training","adjacent","CB","3","2","L.jpg","Q.jpg","1","0","0","",""
"","feedback","","html-keyboard-response","351","625990","0.0-1.0-474.0-0.0","0","0","32878","","null","","","null","52","","","","","","","","","","","","","","","",""
"","time_out","","html-keyboard-response","352","627997","0.0-1.0-476.0-0.0","0","0","32878","","null","","","null","52","","","","","","","","","","","","","","","",""
"","ITI","","html-keyboard-response","353","629004","0.0-1.0-477.0","0","0","32878","","null","","","null","52","","","","","","","","","","","","","","","NaN",""
"","S1","","html-keyboard-response","354","629256","0.0-1.0-479.0","0","0","32878","","null","","","null","53","","","","","","","","","","","","","","","",""
"","ISI","","html-keyboard-response","355","631257","0.0-1.0-480.0","0","0","32878","","null","","","null","53","NaN","","","","","","","","","","","","","","",""
"","S2","","html-keyboard-response","356","631514","0.0-1.0-481.0","0","0","32878","","null","","","null","53","","NaN","","","","","","","","","","","","","",""
"","response","","html-keyboard-response","357","632105","0.0-1.0-482.0-0.0","0","0","32878","","590","","","75","53","","","2","53","training","adjacent","BC","2","3","Q.jpg","L.jpg","0","1","0","",""
"","feedback","","html-keyboard-response","358","633110","0.0-1.0-483.0-0.0","0","0","32878","","null","","","null","53","","","","","","","","","","","","","","","",""
"","time_out","","html-keyboard-response","359","635116","0.0-1.0-485.0-0.0","0","0","32878","","null","","","null","53","","","","","","","","","","","","","","","",""
"","ITI","","html-keyboard-response","360","636123","0.0-1.0-486.0","0","0","32878","","null","","","null","53","","","","","","","","","","","","","","","NaN",""
"","S1","","html-keyboard-response","361","636376","0.0-1.0-488.0","0","0","32878","","null","","","null","54","","","","","","","","","","","","","","","",""
"","ISI","","html-keyboard-response","362","638381","0.0-1.0-489.0","0","0","32878","","null","","","null","54","NaN","","","","","","","","","","","","","","",""
"","S2","","html-keyboard-response","363","638636","0.0-1.0-490.0","0","0","32878","","null","","","null","54","","NaN","","","","","","","","","","","","","",""
"","response","","html-keyboard-response","364","638923","0.0-1.0-491.0-0.0","0","0","32878","","285","","","75","54","","","2","54","training","adjacent","DE","4","5","M.jpg","R.jpg","0","1","0","",""
"","feedback","","html-keyboard-response","365","639928","0.0-1.0-492.0-0.0","0","0","32878","","null","","","null","54","","","","","","","","","","","","","","","",""
"","time_out","","html-keyboard-response","366","641933","0.0-1.0-494.0-0.0","0","0","32878","","null","","","null","54","","","","","","","","","","","","","","","",""
"","ITI","","html-keyboard-response","367","642937","0.0-1.0-495.0","0","0","32878","","null","","","null","54","","","","","","","","","","","","","","","NaN",""
"","S1","","html-keyboard-response","368","643192","0.0-1.0-497.0","0","0","32878","","null","","","null","55","","","","","","","","","","","","","","","",""
"","ISI","","html-keyboard-response","369","645198","0.0-1.0-498.0","0","0","32878","","null","","","null","55","NaN","","","","","","","","","","","","","","",""
"","S2","","html-keyboard-response","370","645454","0.0-1.0-499.0","0","0","32878","","null","","","null","55","","NaN","","","","","","","","","","","","","",""
"","response","","html-keyboard-response","371","645886","0.0-1.0-500.0-0.0","0","0","32878","","431","","","68","55","","","2","55","training","adjacent","FE","6","5","O.jpg","R.jpg","1","0","0","",""
"","feedback","","html-keyboard-response","372","646891","0.0-1.0-501.0-0.0","0","0","32878","","null","","","null","55","","","","","","","","","","","","","","","",""
"","time_out","","html-keyboard-response","373","648896","0.0-1.0-503.0-0.0","0","0","32878","","null","","","null","55","","","","","","","","","","","","","","","",""
"","ITI","","html-keyboard-response","374","649901","0.0-1.0-504.0","0","0","32878","","null","","","null","55","","","","","","","","","","","","","","","NaN",""
"","S1","","html-keyboard-response","375","650157","0.0-1.0-506.0","0","0","32878","","null","","","null","56","","","","","","","","","","","","","","","",""
"","ISI","","html-keyboard-response","376","652161","0.0-1.0-507.0","0","0","32878","","null","","","null","56","NaN","","","","","","","","","","","","","","",""
"","S2","","html-keyboard-response","377","652416","0.0-1.0-508.0","0","0","32878","","null","","","null","56","","NaN","","","","","","","","","","","","","",""
"","response","","html-keyboard-response","378","652726","0.0-1.0-509.0-0.0","0","0","32878","","309","","","68","56","","","2","56","training","adjacent","BA","2","1","Q.jpg","N.jpg","1","0","0","",""
"","feedback","","html-keyboard-response","379","653732","0.0-1.0-510.0-0.0","0","0","32878","","null","","","null","56","","","","","","","","","","","","","","","",""
"","time_out","","html-keyboard-response","380","655737","0.0-1.0-512.0-0.0","0","0","32878","","null","","","null","56","","","","","","","","","","","","","","","",""
"","ITI","","html-keyboard-response","381","656741","0.0-1.0-513.0","0","0","32878","","null","","","null","56","","","","","","","","","","","","","","","NaN",""
"","S1","","html-keyboard-response","382","656998","0.0-1.0-515.0","0","0","32878","","null","","","null","57","","","","","","","","","","","","","","","",""
"","ISI","","html-keyboard-response","383","659002","0.0-1.0-516.0","0","0","32878","","null","","","null","57","NaN","","","","","","","","","","","","","","",""
"","S2","","html-keyboard-response","384","659258","0.0-1.0-517.0","0","0","32878","","null","","","null","57","","NaN","","","","","","","","","","","","","",""
"","response","","html-keyboard-response","385","659565","0.0-1.0-518.0-0.0","0","0","32878","","306","","","68","57","","","2","57","training","adjacent","FG","6","7","O.jpg","P.jpg","1","1","1","",""
"","feedback","","html-keyboard-response","386","660572","0.0-1.0-519.0-0.0","0","0","32878","","null","","","null","57","","","","","","","","","","","","","","","",""
"","ITI","","html-keyboard-response","387","661576","0.0-1.0-522.0","0","0","32878","","null","","","null","57","","","","","","","","","","","","","","","NaN",""
"","S1","","html-keyboard-response","388","661833","0.0-1.0-524.0","0","0","32878","","null","","","null","58","","","","","","","","","","","","","","","",""
"","ISI","","html-keyboard-response","389","663838","0.0-1.0-525.0","0","0","32878","","null","","","null","58","NaN","","","","","","","","","","","","","","",""
"","S2","","html-keyboard-response","390","664093","0.0-1.0-526.0","0","0","32878","","null","","","null","58","","NaN","","","","","","","","","","","","","",""
"","response","","html-keyboard-response","391","664527","0.0-1.0-527.0-0.0","0","0","32878","","432","","","68","58","","","2","58","training","adjacent","GF","7","6","P.jpg","O.jpg","1","0","0","",""
"","feedback","","html-keyboard-response","392","665533","0.0-1.0-528.0-0.0","0","0","32878","","null","","","null","58","","","","","","","","","","","","","","","",""
"","time_out","","html-keyboard-response","393","667538","0.0-1.0-530.0-0.0","0","0","32878","","null","","","null","58","","","","","","","","","","","","","","","",""
"","ITI","","html-keyboard-response","394","668545","0.0-1.0-531.0","0","0","32878","","null","","","null","58","","","","","","","","","","","","","","","NaN",""
"","S1","","html-keyboard-response","395","668801","0.0-1.0-533.0","0","0","32878","","null","","","null","59","","","","","","","","","","","","","","","",""
"","ISI","","html-keyboard-response","396","670806","0.0-1.0-534.0","0","0","32878","","null","","","null","59","NaN","","","","","","","","","","","","","","",""
"","S2","","html-keyboard-response","397","671061","0.0-1.0-535.0","0","0","32878","","null","","","null","59","","NaN","","","","","","","","","","","","","",""
"","response","","html-keyboard-response","398","671378","0.0-1.0-536.0-0.0","0","0","32878","","315","","","75","59","","","2","59","training","adjacent","DE","4","5","M.jpg","R.jpg","0","1","0","",""
"","feedback","","html-keyboard-response","399","672383","0.0-1.0-537.0-0.0","0","0","32878","","null","","","null","59","","","","","","","","","","","","","","","",""
"","time_out","","html-keyboard-response","400","674387","0.0-1.0-539.0-0.0","0","0","32878","","null","","","null","59","","","","","","","","","","","","","","","",""
"","ITI","","html-keyboard-response","401","675392","0.0-1.0-540.0","0","0","32878","","null","","","null","59","","","","","","","","","","","","","","","NaN",""
"","S1","","html-keyboard-response","402","675647","0.0-1.0-542.0","0","0","32878","","null","","","null","60","","","","","","","","","","","","","","","",""
"","ISI","","html-keyboard-response","403","677653","0.0-1.0-543.0","0","0","32878","","null","","","null","60","NaN","","","","","","","","","","","","","","",""
"","S2","","html-keyboard-response","404","677908","0.0-1.0-544.0","0","0","32878","","null","","","null","60","","NaN","","","","","","","","","","","","","",""
"","response","","html-keyboard-response","405","678319","0.0-1.0-545.0-0.0","0","0","32878","","409","","","68","60","","","2","60","training","adjacent","CD","3","4","L.jpg","M.jpg","1","1","1","",""
"","feedback","","html-keyboard-response","406","679325","0.0-1.0-546.0-0.0","0","0","32878","","null","","","null","60","","","","","","","","","","","","","","","",""
"","ITI","","html-keyboard-response","407","680331","0.0-1.0-549.0","0","0","32878","","null","","","null","60","","","","","","","","","","","","","","","NaN",""
"","S1","","html-keyboard-response","408","680587","0.0-1.0-551.0","0","0","32878","","null","","","null","61","","","","","","","","","","","","","","","",""
"","ISI","","html-keyboard-response","409","682593","0.0-1.0-552.0","0","0","32878","","null","","","null","61","NaN","","","","","","","","","","","","","","",""
"","S2","","html-keyboard-response","410","682848","0.0-1.0-553.0","0","0","32878","","null","","","null","61","","NaN","","","","","","","","","","","","","",""
"","response","","html-keyboard-response","411","683257","0.0-1.0-554.0-0.0","0","0","32878","","407","","","75","61","","","2","61","training","adjacent","ED","5","4","R.jpg","M.jpg","0","0","1","",""
"","feedback","","html-keyboard-response","412","684264","0.0-1.0-555.0-0.0","0","0","32878","","null","","","null","61","","","","","","","","","","","","","","","",""
"","ITI","","html-keyboard-response","413","685270","0.0-1.0-558.0","0","0","32878","","null","","","null","61","","","","","","","","","","","","","","","NaN",""
"","S1","","html-keyboard-response","414","685527","0.0-1.0-560.0","0","0","32878","","null","","","null","62","","","","","","","","","","","","","","","",""
"","ISI","","html-keyboard-response","415","687533","0.0-1.0-561.0","0","0","32878","","null","","","null","62","NaN","","","","","","","","","","","","","","",""
"","S2","","html-keyboard-response","416","687788","0.0-1.0-562.0","0","0","32878","","null","","","null","62","","NaN","","","","","","","","","","","","","",""
"","response","","html-keyboard-response","417","688297","0.0-1.0-563.0-0.0","0","0","32878","","508","","","68","62","","","2","62","training","adjacent","CD","3","4","L.jpg","M.jpg","1","1","1","",""
"","feedback","","html-keyboard-response","418","689303","0.0-1.0-564.0-0.0","0","0","32878","","null","","","null","62","","","","","","","","","","","","","","","",""
"","ITI","","html-keyboard-response","419","690310","0.0-1.0-567.0","0","0","32878","","null","","","null","62","","","","","","","","","","","","","","","NaN",""
"","S1","","html-keyboard-response","420","690563","0.0-1.0-569.0","0","0","32878","","null","","","null","63","","","","","","","","","","","","","","","",""
"","ISI","","html-keyboard-response","421","692565","0.0-1.0-570.0","0","0","32878","","null","","","null","63","NaN","","","","","","","","","","","","","","",""
"","S2","","html-keyboard-response","422","692821","0.0-1.0-571.0","0","0","32878","","null","","","null","63","","NaN","","","","","","","","","","","","","",""
"","response","","html-keyboard-response","423","693191","0.0-1.0-572.0-0.0","0","0","32878","","368","","","75","63","","","2","63","training","adjacent","AB","1","2","N.jpg","Q.jpg","0","1","0","",""
"","feedback","","html-keyboard-response","424","694196","0.0-1.0-573.0-0.0","0","0","32878","","null","","","null","63","","","","","","","","","","","","","","","",""
"","time_out","","html-keyboard-response","425","696202","0.0-1.0-575.0-0.0","0","0","32878","","null","","","null","63","","","","","","","","","","","","","","","",""
"","ITI","","html-keyboard-response","426","697206","0.0-1.0-576.0","0","0","32878","","null","","","null","63","","","","","","","","","","","","","","","NaN",""
"","S1","","html-keyboard-response","427","697461","0.0-1.0-578.0","0","0","32878","","null","","","null","64","","","","","","","","","","","","","","","",""
"","ISI","","html-keyboard-response","428","699467","0.0-1.0-579.0","0","0","32878","","null","","","null","64","NaN","","","","","","","","","","","","","","",""
"","S2","","html-keyboard-response","429","699722","0.0-1.0-580.0","0","0","32878","","null","","","null","64","","NaN","","","","","","","","","","","","","",""
"","response","","html-keyboard-response","430","700041","0.0-1.0-581.0-0.0","0","0","32878","","317","","","68","64","","","2","64","training","adjacent","EF","5","6","R.jpg","O.jpg","1","1","1","",""
"","feedback","","html-keyboard-response","431","701046","0.0-1.0-582.0-0.0","0","0","32878","","null","","","null","64","","","","","","","","","","","","","","","",""
"","ITI","","html-keyboard-response","432","702052","0.0-1.0-585.0","0","0","32878","","null","","","null","64","","","","","","","","","","","","","","","NaN",""
"","S1","","html-keyboard-response","433","702308","0.0-1.0-587.0","0","0","32878","","null","","","null","65","","","","","","","","","","","","","","","",""
"","ISI","","html-keyboard-response","434","704314","0.0-1.0-588.0","0","0","32878","","null","","","null","65","NaN","","","","","","","","","","","","","","",""
"","S2","","html-keyboard-response","435","704569","0.0-1.0-589.0","0","0","32878","","null","","","null","65","","NaN","","","","","","","","","","","","","",""
"","response","","html-keyboard-response","436","704980","0.0-1.0-590.0-0.0","0","0","32878","","410","","","68","65","","","2","65","training","adjacent","DC","4","3","M.jpg","L.jpg","1","0","0","",""
"","feedback","","html-keyboard-response","437","705987","0.0-1.0-591.0-0.0","0","0","32878","","null","","","null","65","","","","","","","","","","","","","","","",""
"","time_out","","html-keyboard-response","438","707991","0.0-1.0-593.0-0.0","0","0","32878","","null","","","null","65","","","","","","","","","","","","","","","",""
"","ITI","","html-keyboard-response","439","708995","0.0-1.0-594.0","0","0","32878","","null","","","null","65","","","","","","","","","","","","","","","NaN",""
"","S1","","html-keyboard-response","440","709251","0.0-1.0-596.0","0","0","32878","","null","","","null","66","","","","","","","","","","","","","","","",""
"","ISI","","html-keyboard-response","441","711256","0.0-1.0-597.0","0","0","32878","","null","","","null","66","NaN","","","","","","","","","","","","","","",""
"","S2","","html-keyboard-response","442","711511","0.0-1.0-598.0","0","0","32878","","null","","","null","66","","NaN","","","","","","","","","","","","","",""
"","response","","html-keyboard-response","443","711786","0.0-1.0-599.0-0.0","0","0","32878","","273","","","75","66","","","2","66","training","adjacent","BA","2","1","Q.jpg","N.jpg","0","0","1","",""
"","feedback","","html-keyboard-response","444","712791","0.0-1.0-600.0-0.0","0","0","32878","","null","","","null","66","","","","","","","","","","","","","","","",""
"","ITI","","html-keyboard-response","445","713795","0.0-1.0-603.0","0","0","32878","","null","","","null","66","","","","","","","","","","","","","","","NaN",""
"","S1","","html-keyboard-response","446","714051","0.0-1.0-605.0","0","0","32878","","null","","","null","67","","","","","","","","","","","","","","","",""
"","ISI","","html-keyboard-response","447","716057","0.0-1.0-606.0","0","0","32878","","null","","","null","67","NaN","","","","","","","","","","","","","","",""
"","S2","","html-keyboard-response","448","716312","0.0-1.0-607.0","0","0","32878","","null","","","null","67","","NaN","","","","","","","","","","","","","",""
"","response","","html-keyboard-response","449","716747","0.0-1.0-608.0-0.0","0","0","32878","","434","","","68","67","","","2","67","training","adjacent","BC","2","3","Q.jpg","L.jpg","1","1","1","",""
"","feedback","","html-keyboard-response","450","717754","0.0-1.0-609.0-0.0","0","0","32878","","null","","","null","67","","","","","","","","","","","","","","","",""
"","ITI","","html-keyboard-response","451","718760","0.0-1.0-612.0","0","0","32878","","null","","","null","67","","","","","","","","","","","","","","","NaN",""
"","S1","","html-keyboard-response","452","719014","0.0-1.0-614.0","0","0","32878","","null","","","null","68","","","","","","","","","","","","","","","",""
"","ISI","","html-keyboard-response","453","721020","0.0-1.0-615.0","0","0","32878","","null","","","null","68","NaN","","","","","","","","","","","","","","",""
"","S2","","html-keyboard-response","454","721275","0.0-1.0-616.0","0","0","32878","","null","","","null","68","","NaN","","","","","","","","","","","","","",""
"","response","","html-keyboard-response","455","721574","0.0-1.0-617.0-0.0","0","0","32878","","296","","","75","68","","","2","68","training","adjacent","DE","4","5","M.jpg","R.jpg","0","1","0","",""
"","feedback","","html-keyboard-response","456","722578","0.0-1.0-618.0-0.0","0","0","32878","","null","","","null","68","","","","","","","","","","","","","","","",""
"","time_out","","html-keyboard-response","457","724584","0.0-1.0-620.0-0.0","0","0","32878","","null","","","null","68","","","","","","","","","","","","","","","",""
"","ITI","","html-keyboard-response","458","725591","0.0-1.0-621.0","0","0","32878","","null","","","null","68","","","","","","","","","","","","","","","NaN",""
"","S1","","html-keyboard-response","459","725846","0.0-1.0-623.0","0","0","32878","","null","","","null","69","","","","","","","","","","","","","","","",""
"","ISI","","html-keyboard-response","460","727852","0.0-1.0-624.0","0","0","32878","","null","","","null","69","NaN","","","","","","","","","","","","","","",""
"","S2","","html-keyboard-response","461","728108","0.0-1.0-625.0","0","0","32878","","null","","","null","69","","NaN","","","","","","","","","","","","","",""
"","response","","html-keyboard-response","462","728402","0.0-1.0-626.0-0.0","0","0","32878","","293","","","68","69","","","2","69","training","adjacent","DE","4","5","M.jpg","R.jpg","1","1","1","",""
"","feedback","","html-keyboard-response","463","729408","0.0-1.0-627.0-0.0","0","0","32878","","null","","","null","69","","","","","","","","","","","","","","","",""
"","ITI","","html-keyboard-response","464","730415","0.0-1.0-630.0","0","0","32878","","null","","","null","69","","","","","","","","","","","","","","","NaN",""
"","S1","","html-keyboard-response","465","730671","0.0-1.0-632.0","0","0","32878","","null","","","null","70","","","","","","","","","","","","","","","",""
"","ISI","","html-keyboard-response","466","732676","0.0-1.0-633.0","0","0","32878","","null","","","null","70","NaN","","","","","","","","","","","","","","",""
"","S2","","html-keyboard-response","467","732931","0.0-1.0-634.0","0","0","32878","","null","","","null","70","","NaN","","","","","","","","","","","","","",""
"","response","","html-keyboard-response","468","733205","0.0-1.0-635.0-0.0","0","0","32878","","272","","","75","70","","","2","70","training","adjacent","BA","2","1","Q.jpg","N.jpg","0","0","1","",""
"","feedback","","html-keyboard-response","469","734211","0.0-1.0-636.0-0.0","0","0","32878","","null","","","null","70","","","","","","","","","","","","","","","",""
"","ITI","","html-keyboard-response","470","735215","0.0-1.0-639.0","0","0","32878","","null","","","null","70","","","","","","","","","","","","","","","NaN",""
"","S1","","html-keyboard-response","471","735471","0.0-1.0-641.0","0","0","32878","","null","","","null","71","","","","","","","","","","","","","","","",""
"","ISI","","html-keyboard-response","472","737477","0.0-1.0-642.0","0","0","32878","","null","","","null","71","NaN","","","","","","","","","","","","","","",""
"","S2","","html-keyboard-response","473","737732","0.0-1.0-643.0","0","0","32878","","null","","","null","71","","NaN","","","","","","","","","","","","","",""
"","response","","html-keyboard-response","474","738222","0.0-1.0-644.0-0.0","0","0","32878","","489","","","68","71","","","2","71","training","adjacent","FG","6","7","O.jpg","P.jpg","1","1","1","",""
"","feedback","","html-keyboard-response","475","739229","0.0-1.0-645.0-0.0","0","0","32878","","null","","","null","71","","","","","","","","","","","","","","","",""
"","ITI","","html-keyboard-response","476","740234","0.0-1.0-648.0","0","0","32878","","null","","","null","71","","","","","","","","","","","","","","","NaN",""
"","S1","","html-keyboard-response","477","740488","0.0-1.0-650.0","0","0","32878","","null","","","null","72","","","","","","","","","","","","","","","",""
"","ISI","","html-keyboard-response","478","742494","0.0-1.0-651.0","0","0","32878","","null","","","null","72","NaN","","","","","","","","","","","","","","",""
"","S2","","html-keyboard-response","479","742749","0.0-1.0-652.0","0","0","32878","","null","","","null","72","","NaN","","","","","","","","","","","","","",""
"","response","","html-keyboard-response","480","743049","0.0-1.0-653.0-0.0","0","0","32878","","298","","","75","72","","","2","72","training","adjacent","CD","3","4","L.jpg","M.jpg","0","1","0","",""
"","feedback","","html-keyboard-response","481","744055","0.0-1.0-654.0-0.0","0","0","32878","","null","","","null","72","","","","","","","","","","","","","","","",""
"","time_out","","html-keyboard-response","482","746061","0.0-1.0-656.0-0.0","0","0","32878","","null","","","null","72","","","","","","","","","","","","","","","",""
"","ITI","","html-keyboard-response","483","747066","0.0-1.0-657.0","0","0","32878","","null","","","null","72","","","","","","","","","","","","","","","NaN",""
"","S1","","html-keyboard-response","484","747322","0.0-1.0-659.0","0","0","32878","","null","","","null","73","","","","","","","","","","","","","","","",""
"","ISI","","html-keyboard-response","485","749326","0.0-1.0-660.0","0","0","32878","","null","","","null","73","NaN","","","","","","","","","","","","","","",""
"","S2","","html-keyboard-response","486","749582","0.0-1.0-661.0","0","0","32878","","null","","","null","73","","NaN","","","","","","","","","","","","","",""
"","response","","html-keyboard-response","487","749990","0.0-1.0-662.0-0.0","0","0","32878","","407","","","68","73","","","2","73","training","adjacent","CB","3","2","L.jpg","Q.jpg","1","0","0","",""
"","feedback","","html-keyboard-response","488","750996","0.0-1.0-663.0-0.0","0","0","32878","","null","","","null","73","","","","","","","","","","","","","","","",""
"","time_out","","html-keyboard-response","489","753001","0.0-1.0-665.0-0.0","0","0","32878","","null","","","null","73","","","","","","","","","","","","","","","",""
"","ITI","","html-keyboard-response","490","754007","0.0-1.0-666.0","0","0","32878","","null","","","null","73","","","","","","","","","","","","","","","NaN",""
"","S1","","html-keyboard-response","491","754264","0.0-1.0-668.0","0","0","32878","","null","","","null","74","","","","","","","","","","","","","","","",""
"","ISI","","html-keyboard-response","492","756269","0.0-1.0-669.0","0","0","32878","","null","","","null","74","NaN","","","","","","","","","","","","","","",""
"","S2","","html-keyboard-response","493","756524","0.0-1.0-670.0","0","0","32878","","null","","","null","74","","NaN","","","","","","","","","","","","","",""
"","response","","html-keyboard-response","494","756830","0.0-1.0-671.0-0.0","0","0","32878","","304","","","75","74","","","2","74","training","adjacent","EF","5","6","R.jpg","O.jpg","0","1","0","",""
"","feedback","","html-keyboard-response","495","757835","0.0-1.0-672.0-0.0","0","0","32878","","null","","","null","74","","","","","","","","","","","","","","","",""
"","time_out","","html-keyboard-response","496","759842","0.0-1.0-674.0-0.0","0","0","32878","","null","","","null","74","","","","","","","","","","","","","","","",""
"","ITI","","html-keyboard-response","497","760846","0.0-1.0-675.0","0","0","32878","","null","","","null","74","","","","","","","","","","","","","","","NaN",""
"","S1","","html-keyboard-response","498","761102","0.0-1.0-677.0","0","0","32878","","null","","","null","75","","","","","","","","","","","","","","","",""
"","ISI","","html-keyboard-response","499","763107","0.0-1.0-678.0","0","0","32878","","null","","","null","75","NaN","","","","","","","","","","","","","","",""
"","S2","","html-keyboard-response","500","763362","0.0-1.0-679.0","0","0","32878","","null","","","null","75","","NaN","","","","","","","","","","","","","",""
"","response","","html-keyboard-response","501","763692","0.0-1.0-680.0-0.0","0","0","32878","","329","","","68","75","","","2","75","training","adjacent","DC","4","3","M.jpg","L.jpg","1","0","0","",""
"","feedback","","html-keyboard-response","502","764697","0.0-1.0-681.0-0.0","0","0","32878","","null","","","null","75","","","","","","","","","","","","","","","",""
"","time_out","","html-keyboard-response","503","766703","0.0-1.0-683.0-0.0","0","0","32878","","null","","","null","75","","","","","","","","","","","","","","","",""
"","ITI","","html-keyboard-response","504","767710","0.0-1.0-684.0","0","0","32878","","null","","","null","75","","","","","","","","","","","","","","","NaN",""
"","S1","","html-keyboard-response","505","767965","0.0-1.0-686.0","0","0","32878","","null","","","null","76","","","","","","","","","","","","","","","",""
"","ISI","","html-keyboard-response","506","769971","0.0-1.0-687.0","0","0","32878","","null","","","null","76","NaN","","","","","","","","","","","","","","",""
"","S2","","html-keyboard-response","507","770227","0.0-1.0-688.0","0","0","32878","","null","","","null","76","","NaN","","","","","","","","","","","","","",""
"","response","","html-keyboard-response","508","770588","0.0-1.0-689.0-0.0","0","0","32878","","360","","","75","76","","","2","76","training","adjacent","CD","3","4","L.jpg","M.jpg","0","1","0","",""
"","feedback","","html-keyboard-response","509","771593","0.0-1.0-690.0-0.0","0","0","32878","","null","","","null","76","","","","","","","","","","","","","","","",""
"","time_out","","html-keyboard-response","510","773599","0.0-1.0-692.0-0.0","0","0","32878","","null","","","null","76","","","","","","","","","","","","","","","",""
"","ITI","","html-keyboard-response","511","774606","0.0-1.0-693.0","0","0","32878","","null","","","null","76","","","","","","","","","","","","","","","NaN",""
"","S1","","html-keyboard-response","512","774861","0.0-1.0-695.0","0","0","32878","","null","","","null","77","","","","","","","","","","","","","","","",""
"","ISI","","html-keyboard-response","513","776867","0.0-1.0-696.0","0","0","32878","","null","","","null","77","NaN","","","","","","","","","","","","","","",""
"","S2","","html-keyboard-response","514","777123","0.0-1.0-697.0","0","0","32878","","null","","","null","77","","NaN","","","","","","","","","","","","","",""
"","response","","html-keyboard-response","515","777540","0.0-1.0-698.0-0.0","0","0","32878","","416","","","68","77","","","2","77","training","adjacent","GF","7","6","P.jpg","O.jpg","1","0","0","",""
"","feedback","","html-keyboard-response","516","778545","0.0-1.0-699.0-0.0","0","0","32878","","null","","","null","77","","","","","","","","","","","","","","","",""
"","time_out","","html-keyboard-response","517","780550","0.0-1.0-701.0-0.0","0","0","32878","","null","","","null","77","","","","","","","","","","","","","","","",""
"","ITI","","html-keyboard-response","518","781554","0.0-1.0-702.0","0","0","32878","","null","","","null","77","","","","","","","","","","","","","","","NaN",""
"","S1","","html-keyboard-response","519","781809","0.0-1.0-704.0","0","0","32878","","null","","","null","78","","","","","","","","","","","","","","","",""
"","ISI","","html-keyboard-response","520","783816","0.0-1.0-705.0","0","0","32878","","null","","","null","78","NaN","","","","","","","","","","","","","","",""
"","S2","","html-keyboard-response","521","784071","0.0-1.0-706.0","0","0","32878","","null","","","null","78","","NaN","","","","","","","","","","","","","",""
"","response","","html-keyboard-response","522","784414","0.0-1.0-707.0-0.0","0","0","32878","","342","","","75","78","","","2","78","training","adjacent","EF","5","6","R.jpg","O.jpg","0","1","0","",""
"","feedback","","html-keyboard-response","523","785420","0.0-1.0-708.0-0.0","0","0","32878","","null","","","null","78","","","","","","","","","","","","","","","",""
"","time_out","","html-keyboard-response","524","787426","0.0-1.0-710.0-0.0","0","0","32878","","null","","","null","78","","","","","","","","","","","","","","","",""
"","ITI","","html-keyboard-response","525","788430","0.0-1.0-711.0","0","0","32878","","null","","","null","78","","","","","","","","","","","","","","","NaN",""
"","S1","","html-keyboard-response","526","788686","0.0-1.0-713.0","0","0","32878","","null","","","null","79","","","","","","","","","","","","","","","",""
"","ISI","","html-keyboard-response","527","790692","0.0-1.0-714.0","0","0","32878","","null","","","null","79","NaN","","","","","","","","","","","","","","",""
"","S2","","html-keyboard-response","528","790946","0.0-1.0-715.0","0","0","32878","","null","","","null","79","","NaN","","","","","","","","","","","","","",""
"","response","","html-keyboard-response","529","791276","0.0-1.0-716.0-0.0","0","0","32878","","328","","","75","79","","","2","79","training","adjacent","ED","5","4","R.jpg","M.jpg","0","0","1","",""
"","feedback","","html-keyboard-response","530","792281","0.0-1.0-717.0-0.0","0","0","32878","","null","","","null","79","","","","","","","","","","","","","","","",""
"","ITI","","html-keyboard-response","531","793285","0.0-1.0-720.0","0","0","32878","","null","","","null","79","","","","","","","","","","","","","","","NaN",""
"","S1","","html-keyboard-response","532","793542","0.0-1.0-722.0","0","0","32878","","null","","","null","80","","","","","","","","","","","","","","","",""
"","ISI","","html-keyboard-response","533","795547","0.0-1.0-723.0","0","0","32878","","null","","","null","80","NaN","","","","","","","","","","","","","","",""
"","S2","","html-keyboard-response","534","795802","0.0-1.0-724.0","0","0","32878","","null","","","null","80","","NaN","","","","","","","","","","","","","",""
"","response","","html-keyboard-response","535","796237","0.0-1.0-725.0-0.0","0","0","32878","","433","","","75","80","","","2","80","training","adjacent","EF","5","6","R.jpg","O.jpg","0","1","0","",""
"","feedback","","html-keyboard-response","536","797242","0.0-1.0-726.0-0.0","0","0","32878","","null","","","null","80","","","","","","","","","","","","","","","",""
"","time_out","","html-keyboard-response","537","799247","0.0-1.0-728.0-0.0","0","0","32878","","null","","","null","80","","","","","","","","","","","","","","","",""
"","ITI","","html-keyboard-response","538","800251","0.0-1.0-729.0","0","0","32878","","null","","","null","80","","","","","","","","","","","","","","","NaN",""
"","S1","","html-keyboard-response","539","800508","0.0-1.0-731.0","0","0","32878","","null","","","null","81","","","","","","","","","","","","","","","",""
"","ISI","","html-keyboard-response","540","802512","0.0-1.0-732.0","0","0","32878","","null","","","null","81","NaN","","","","","","","","","","","","","","",""
"","S2","","html-keyboard-response","541","802768","0.0-1.0-733.0","0","0","32878","","null","","","null","81","","NaN","","","","","","","","","","","","","",""
"","response","","html-keyboard-response","542","803088","0.0-1.0-734.0-0.0","0","0","32878","","319","","","68","81","","","2","81","training","adjacent","FE","6","5","O.jpg","R.jpg","1","0","0","",""
"","feedback","","html-keyboard-response","543","804094","0.0-1.0-735.0-0.0","0","0","32878","","null","","","null","81","","","","","","","","","","","","","","","",""
"","time_out","","html-keyboard-response","544","806100","0.0-1.0-737.0-0.0","0","0","32878","","null","","","null","81","","","","","","","","","","","","","","","",""
"","ITI","","html-keyboard-response","545","807106","0.0-1.0-738.0","0","0","32878","","null","","","null","81","","","","","","","","","","","","","","","NaN",""
"","S1","","html-keyboard-response","546","807362","0.0-1.0-740.0","0","0","32878","","null","","","null","82","","","","","","","","","","","","","","","",""
"","ISI","","html-keyboard-response","547","809368","0.0-1.0-741.0","0","0","32878","","null","","","null","82","NaN","","","","","","","","","","","","","","",""
"","S2","","html-keyboard-response","548","809624","0.0-1.0-742.0","0","0","32878","","null","","","null","82","","NaN","","","","","","","","","","","","","",""
"","response","","html-keyboard-response","549","810029","0.0-1.0-743.0-0.0","0","0","32878","","403","","","75","82","","","2","82","training","adjacent","BC","2","3","Q.jpg","L.jpg","0","1","0","",""
"","feedback","","html-keyboard-response","550","811036","0.0-1.0-744.0-0.0","0","0","32878","","null","","","null","82","","","","","","","","","","","","","","","",""
"","time_out","","html-keyboard-response","551","813042","0.0-1.0-746.0-0.0","0","0","32878","","null","","","null","82","","","","","","","","","","","","","","","",""
"","ITI","","html-keyboard-response","552","814046","0.0-1.0-747.0","0","0","32878","","null","","","null","82","","","","","","","","","","","","","","","NaN",""
"","S1","","html-keyboard-response","553","814302","0.0-1.0-749.0","0","0","32878","","null","","","null","83","","","","","","","","","","","","","","","",""
"","ISI","","html-keyboard-response","554","816307","0.0-1.0-750.0","0","0","32878","","null","","","null","83","NaN","","","","","","","","","","","","","","",""
"","S2","","html-keyboard-response","555","816562","0.0-1.0-751.0","0","0","32878","","null","","","null","83","","NaN","","","","","","","","","","","","","",""
"","response","","html-keyboard-response","556","816835","0.0-1.0-752.0-0.0","0","0","32878","","271","","","68","83","","","2","83","training","adjacent","AB","1","2","N.jpg","Q.jpg","1","1","1","",""
"","feedback","","html-keyboard-response","557","817839","0.0-1.0-753.0-0.0","0","0","32878","","null","","","null","83","","","","","","","","","","","","","","","",""
"","ITI","","html-keyboard-response","558","818844","0.0-1.0-756.0","0","0","32878","","null","","","null","83","","","","","","","","","","","","","","","NaN",""
"","S1","","html-keyboard-response","559","819099","0.0-1.0-758.0","0","0","32878","","null","","","null","84","","","","","","","","","","","","","","","",""
"","ISI","","html-keyboard-response","560","821105","0.0-1.0-759.0","0","0","32878","","null","","","null","84","NaN","","","","","","","","","","","","","","",""
"","S2","","html-keyboard-response","561","821361","0.0-1.0-760.0","0","0","32878","","null","","","null","84","","NaN","","","","","","","","","","","","","",""
"","response","","html-keyboard-response","562","821976","0.0-1.0-761.0-0.0","0","0","32878","","614","","","75","84","","","2","84","training","adjacent","DC","4","3","M.jpg","L.jpg","0","0","1","",""
"","feedback","","html-keyboard-response","563","822983","0.0-1.0-762.0-0.0","0","0","32878","","null","","","null","84","","","","","","","","","","","","","","","",""
"","ITI","","html-keyboard-response","564","823989","0.0-1.0-765.0","0","0","32878","","null","","","null","84","","","","","","","","","","","","","","","NaN",""
"","S1","","html-keyboard-response","565","824245","0.0-1.0-767.0","0","0","32878","","null","","","null","85","","","","","","","","","","","","","","","",""
"","ISI","","html-keyboard-response","566","826250","0.0-1.0-768.0","0","0","32878","","null","","","null","85","NaN","","","","","","","","","","","","","","",""
"","S2","","html-keyboard-response","567","826505","0.0-1.0-769.0","0","0","32878","","null","","","null","85","","NaN","","","","","","","","","","","","","",""
"","response","","html-keyboard-response","568","826892","0.0-1.0-770.0-0.0","0","0","32878","","385","","","68","85","","","2","85","training","adjacent","AB","1","2","N.jpg","Q.jpg","1","1","1","",""
"","feedback","","html-keyboard-response","569","827899","0.0-1.0-771.0-0.0","0","0","32878","","null","","","null","85","","","","","","","","","","","","","","","",""
"","ITI","","html-keyboard-response","570","828903","0.0-1.0-774.0","0","0","32878","","null","","","null","85","","","","","","","","","","","","","","","NaN",""
"","S1","","html-keyboard-response","571","829159","0.0-1.0-776.0","0","0","32878","","null","","","null","86","","","","","","","","","","","","","","","",""
"","ISI","","html-keyboard-response","572","831165","0.0-1.0-777.0","0","0","32878","","null","","","null","86","NaN","","","","","","","","","","","","","","",""
"","S2","","html-keyboard-response","573","831420","0.0-1.0-778.0","0","0","32878","","null","","","null","86","","NaN","","","","","","","","","","","","","",""
"","response","","html-keyboard-response","574","831808","0.0-1.0-779.0-0.0","0","0","32878","","387","","","75","86","","","2","86","training","adjacent","AB","1","2","N.jpg","Q.jpg","0","1","0","",""
"","feedback","","html-keyboard-response","575","832813","0.0-1.0-780.0-0.0","0","0","32878","","null","","","null","86","","","","","","","","","","","","","","","",""
"","time_out","","html-keyboard-response","576","834818","0.0-1.0-782.0-0.0","0","0","32878","","null","","","null","86","","","","","","","","","","","","","","","",""
"","ITI","","html-keyboard-response","577","835822","0.0-1.0-783.0","0","0","32878","","null","","","null","86","","","","","","","","","","","","","","","NaN",""
"","S1","","html-keyboard-response","578","836079","0.0-1.0-785.0","0","0","32878","","null","","","null","87","","","","","","","","","","","","","","","",""
"","ISI","","html-keyboard-response","579","838084","0.0-1.0-786.0","0","0","32878","","null","","","null","87","NaN","","","","","","","","","","","","","","",""
