"success","ttype","start_time","trial_type","trial_index","time_elapsed","internal_node_id","warning","missed_checkup","PID","view_history","rt","responses","repeat_instructions","key_press","index","keypress_isi","keypress_S2","block","trial_num","phase","group_type","pair_type","S1_stim","S2_stim","S1_img","S2_img","S1_chosen","S1_higher","accuracy","keypress_iti","total_bonus_tally"
"true","full_screen","d03082023hr1537","fullscreen","0","8675","0.0-0.0","0","0","45645","","","","","","","","","","","","","","","","","","","","","",""
"","instructions","","instructions","1","39830","0.0-1.0-0.0-0.0","0","0","45645","[{""page_index"":0,""viewing_time"":3229},{""page_index"":1,""viewing_time"":17066},{""page_index"":2,""viewing_time"":9301},{""page_index"":3,""viewing_time"":1549}]","31148","","","","","","","","","","","","","","","","","","","",""
"","comprehension_check","","survey-multi-choice","2","65494","0.0-1.0-0.0-1.0","0","0","45645","","25658","{""Q0"":""True"",""Q1"":""K"",""Q2"":""Only when the screen 'MAKE A CHOICE' is shown"",""Q3"":""Green mark"",""Q4"":""either D or K""}","1","","","","","","","","","","","","","","","","","",""
"","missed_instruction_checkup","","html-keyboard-response","3","67198","0.0-1.0-0.0-2.0-0.0","0","1","45645","","1700","","","32","","","","","","","","","","","","","","","","",""
"","instructions","","instructions","4","79911","0.0-1.0-0.1-0.1","0","0","45645","[{""page_index"":0,""viewing_time"":2026},{""page_index"":1,""viewing_time"":7932},{""page_index"":2,""viewing_time"":1833},{""page_index"":3,""viewing_time"":918}]","12710","","","","","","","","","","","","","","","","","","","",""
"","comprehension_check","","survey-multi-choice","5","92862","0.0-1.0-0.1-1.1","0","0","45645","","12943","{""Q0"":""True"",""Q1"":""K"",""Q2"":""Once the second image appears and while the screen 'MAKE A CHOICE' is shown"",""Q3"":""Green mark"",""Q4"":""either D or K""}","0","","","","","","","","","","","","","","","","","",""
"","start_exp","","html-keyboard-response","6","94156","0.0-1.0-1.0","0","0","45645","","1289","","","32","","","","","","","","","","","","","","","","",""
"","S1","","html-keyboard-response","7","94415","0.0-1.0-2.0","0","0","45645","","null","","","null","0","","","","","","","","","","","","","","","",""
"","ISI","","html-keyboard-response","8","94575","0.0-1.0-3.0","0","0","45645","","null","","","null","0","NaN","","","","","","","","","","","","","","",""
"","S2","","html-keyboard-response","9","94829","0.0-1.0-4.0","0","0","45645","","null","","","null","0","","NaN","","","","","","","","","","","","","",""
"","response","","html-keyboard-response","10","96119","0.0-1.0-5.0-0.0","0","0","45645","","1285","","","75","0","","","1","0","training","adjacent","CB","3","2","R.jpg","P.jpg","1","0","0","",""
"","feedback","","html-keyboard-response","11","97129","0.0-1.0-6.0-0.0","0","0","45645","","null","","","null","0","","","","","","","","","","","","","","","",""
"","time_out","","html-keyboard-response","12","99135","0.0-1.0-8.0-0.0","0","0","45645","","null","","","null","0","","","","","","","","","","","","","","","",""
"","ITI","","html-keyboard-response","13","100143","0.0-1.0-9.0","0","0","45645","","null","","","null","0","","","","","","","","","","","","","","","NaN",""
"","S1","","html-keyboard-response","14","100401","0.0-1.0-11.0","0","0","45645","","null","","","null","1","","","","","","","","","","","","","","","",""
"","ISI","","html-keyboard-response","15","100559","0.0-1.0-12.0","0","0","45645","","null","","","null","1","NaN","","","","","","","","","","","","","","",""
"","S2","","html-keyboard-response","16","100815","0.0-1.0-13.0","0","0","45645","","null","","","null","1","","NaN","","","","","","","","","","","","","",""
"","response","","html-keyboard-response","17","102574","0.0-1.0-14.0-0.0","0","0","45645","","null","","","null","1","","","1","1","training","adjacent","AB","1","2","O.jpg","P.jpg","NaN","1","0","",""
"","too_slow_prompt","","html-keyboard-response","18","103583","0.0-1.0-16.0-0.0","1","0","45645","","null","","","null","","","","","","","","","","","","","","","","",""
"","time_out","","html-keyboard-response","19","105588","0.0-1.0-17.0-0.0","0","0","45645","","null","","","null","1","","","","","","","","","","","","","","","",""
"","ITI","","html-keyboard-response","20","106593","0.0-1.0-18.0","0","0","45645","","null","","","null","1","","","","","","","","","","","","","","","NaN",""
"","S1","","html-keyboard-response","21","106852","0.0-1.0-20.0","0","0","45645","","null","","","null","2","","","","","","","","","","","","","","","",""
"","ISI","","html-keyboard-response","22","107011","0.0-1.0-21.0","0","0","45645","","null","","","null","2","NaN","","","","","","","","","","","","","","",""
"","S2","","html-keyboard-response","23","107270","0.0-1.0-22.0","0","0","45645","","null","","","null","2","","NaN","","","","","","","","","","","","","",""
"","response","","html-keyboard-response","24","107859","0.0-1.0-23.0-0.0","0","0","45645","","585","","","68","2","","","1","2","training","adjacent","BC","2","3","P.jpg","R.jpg","0","1","0","",""
"","feedback","","html-keyboard-response","25","108868","0.0-1.0-24.0-0.0","0","0","45645","","null","","","null","2","","","","","","","","","","","","","","","",""
"","time_out","","html-keyboard-response","26","110870","0.0-1.0-26.0-0.0","0","0","45645","","null","","","null","2","","","","","","","","","","","","","","","",""
"","ITI","","html-keyboard-response","27","111875","0.0-1.0-27.0","0","0","45645","","null","","","null","2","","","","","","","","","","","","","","","NaN",""
"","S1","","html-keyboard-response","28","112132","0.0-1.0-29.0","0","0","45645","","null","","","null","3","","","","","","","","","","","","","","","",""
"","ISI","","html-keyboard-response","29","112292","0.0-1.0-30.0","0","0","45645","","null","","","null","3","NaN","","","","","","","","","","","","","","",""
"","S2","","html-keyboard-response","30","112550","0.0-1.0-31.0","0","0","45645","","null","","","null","3","","NaN","","","","","","","","","","","","","",""
"","response","","html-keyboard-response","31","112993","0.0-1.0-32.0-0.0","0","0","45645","","438","","","75","3","","","1","3","training","adjacent","EF","5","6","M.jpg","N.jpg","1","1","1","",""
"","feedback","","html-keyboard-response","32","113999","0.0-1.0-33.0-0.0","0","0","45645","","null","","","null","3","","","","","","","","","","","","","","","",""
"","ITI","","html-keyboard-response","33","115007","0.0-1.0-36.0","0","0","45645","","null","","","null","3","","","","","","","","","","","","","","","NaN",""
"","S1","","html-keyboard-response","34","115264","0.0-1.0-38.0","0","0","45645","","null","","","null","4","","","","","","","","","","","","","","","",""
"","ISI","","html-keyboard-response","35","115423","0.0-1.0-39.0","0","0","45645","","null","","","null","4","NaN","","","","","","","","","","","","","","",""
"","S2","","html-keyboard-response","36","115680","0.0-1.0-40.0","0","0","45645","","null","","","null","4","","NaN","","","","","","","","","","","","","",""
"","response","","html-keyboard-response","37","115900","0.0-1.0-41.0-0.0","0","0","45645","","216","","","75","4","","","1","4","training","adjacent","DC","4","3","L.jpg","R.jpg","1","0","0","",""
"","feedback","","html-keyboard-response","38","116909","0.0-1.0-42.0-0.0","0","0","45645","","null","","","null","4","","","","","","","","","","","","","","","",""
"","time_out","","html-keyboard-response","39","118915","0.0-1.0-44.0-0.0","0","0","45645","","null","","","null","4","","","","","","","","","","","","","","","",""
"","ITI","","html-keyboard-response","40","119924","0.0-1.0-45.0","0","0","45645","","null","","","null","4","","","","","","","","","","","","","","","NaN",""
"","S1","","html-keyboard-response","41","120180","0.0-1.0-47.0","0","0","45645","","null","","","null","5","","","","","","","","","","","","","","","",""
"","ISI","","html-keyboard-response","42","120338","0.0-1.0-48.0","0","0","45645","","null","","","null","5","NaN","","","","","","","","","","","","","","",""
"","S2","","html-keyboard-response","43","120596","0.0-1.0-49.0","0","0","45645","","null","","","null","5","","NaN","","","","","","","","","","","","","",""
"","response","","html-keyboard-response","44","120813","0.0-1.0-50.0-0.0","0","0","45645","","215","","","68","5","","","1","5","training","adjacent","ED","5","4","M.jpg","L.jpg","0","0","1","",""
"","feedback","","html-keyboard-response","45","121819","0.0-1.0-51.0-0.0","0","0","45645","","null","","","null","5","","","","","","","","","","","","","","","",""
"","ITI","","html-keyboard-response","46","122822","0.0-1.0-54.0","0","0","45645","","null","","","null","5","","","","","","","","","","","","","","","NaN",""
"","S1","","html-keyboard-response","47","123076","0.0-1.0-56.0","0","0","45645","","null","","","null","6","","","","","","","","","","","","","","","",""
"","ISI","","html-keyboard-response","48","123236","0.0-1.0-57.0","0","0","45645","","null","","","null","6","NaN","","","","","","","","","","","","","","",""
"","S2","","html-keyboard-response","49","123494","0.0-1.0-58.0","0","0","45645","","null","","","null","6","","NaN","","","","","","","","","","","","","",""
"","response","","html-keyboard-response","50","124617","0.0-1.0-59.0-0.0","0","0","45645","","1122","","","68","6","","","1","6","training","adjacent","EF","5","6","M.jpg","N.jpg","0","1","0","",""
"","feedback","","html-keyboard-response","51","125622","0.0-1.0-60.0-0.0","0","0","45645","","null","","","null","6","","","","","","","","","","","","","","","",""
"","time_out","","html-keyboard-response","52","127627","0.0-1.0-62.0-0.0","0","0","45645","","null","","","null","6","","","","","","","","","","","","","","","",""
"","ITI","","html-keyboard-response","53","128632","0.0-1.0-63.0","0","0","45645","","null","","","null","6","","","","","","","","","","","","","","","NaN",""
"","S1","","html-keyboard-response","54","128889","0.0-1.0-65.0","0","0","45645","","null","","","null","7","","","","","","","","","","","","","","","",""
"","ISI","","html-keyboard-response","55","129044","0.0-1.0-66.0","0","0","45645","","null","","","null","7","NaN","","","","","","","","","","","","","","",""
"","S2","","html-keyboard-response","56","129302","0.0-1.0-67.0","0","0","45645","","null","","","null","7","","NaN","","","","","","","","","","","","","",""
"","response","","html-keyboard-response","57","129337","0.0-1.0-68.0-0.0","0","0","45645","","29","","","75","7","","","1","7","training","adjacent","CB","3","2","R.jpg","P.jpg","1","0","0","",""
"","feedback","","html-keyboard-response","58","130345","0.0-1.0-69.0-0.0","0","0","45645","","null","","","null","7","","","","","","","","","","","","","","","",""
"","time_out","","html-keyboard-response","59","132350","0.0-1.0-71.0-0.0","0","0","45645","","null","","","null","7","","","","","","","","","","","","","","","",""
"","ITI","","html-keyboard-response","60","133359","0.0-1.0-72.0","0","0","45645","","null","","","null","7","","","","","","","","","","","","","","","NaN",""
"","S1","","html-keyboard-response","61","133616","0.0-1.0-74.0","0","0","45645","","null","","","null","8","","","","","","","","","","","","","","","",""
"","ISI","","html-keyboard-response","62","133774","0.0-1.0-75.0","0","0","45645","","null","","","null","8","NaN","","","","","","","","","","","","","","",""
"","S2","","html-keyboard-response","63","134031","0.0-1.0-76.0","0","0","45645","","null","","","null","8","","NaN","","","","","","","","","","","","","",""
"","response","","html-keyboard-response","64","134034","0.0-1.0-77.0-0.0","0","0","45645","","0","","","68","8","","","1","8","training","adjacent","AB","1","2","O.jpg","P.jpg","0","1","0","",""
"","feedback","","html-keyboard-response","65","135035","0.0-1.0-78.0-0.0","0","0","45645","","null","","","null","8","","","","","","","","","","","","","","","",""
"","time_out","","html-keyboard-response","66","137044","0.0-1.0-80.0-0.0","0","0","45645","","null","","","null","8","","","","","","","","","","","","","","","",""
"","ITI","","html-keyboard-response","67","138052","0.0-1.0-81.0","0","0","45645","","null","","","null","8","","","","","","","","","","","","","","","NaN",""
"","S1","","html-keyboard-response","68","138311","0.0-1.0-83.0","0","0","45645","","null","","","null","9","","","","","","","","","","","","","","","",""
"","ISI","","html-keyboard-response","69","138468","0.0-1.0-84.0","0","0","45645","","null","","","null","9","NaN","","","","","","","","","","","","","","",""
"","S2","","html-keyboard-response","70","138723","0.0-1.0-85.0","0","0","45645","","null","","","null","9","","NaN","","","","","","","","","","","","","",""
"","response","","html-keyboard-response","71","138853","0.0-1.0-86.0-0.0","0","0","45645","","127","","","68","9","","","1","9","training","adjacent","FG","6","7","N.jpg","Q.jpg","0","1","0","",""
"","feedback","","html-keyboard-response","72","139860","0.0-1.0-87.0-0.0","0","0","45645","","null","","","null","9","","","","","","","","","","","","","","","",""
"","time_out","","html-keyboard-response","73","141865","0.0-1.0-89.0-0.0","0","0","45645","","null","","","null","9","","","","","","","","","","","","","","","",""
"","ITI","","html-keyboard-response","74","142873","0.0-1.0-90.0","0","0","45645","","null","","","null","9","","","","","","","","","","","","","","","NaN",""
"","S1","","html-keyboard-response","75","143129","0.0-1.0-92.0","0","0","45645","","null","","","null","10","","","","","","","","","","","","","","","",""
"","ISI","","html-keyboard-response","76","143288","0.0-1.0-93.0","0","0","45645","","null","","","null","10","NaN","","","","","","","","","","","","","","",""
"","S2","","html-keyboard-response","77","143544","0.0-1.0-94.0","0","0","45645","","null","","","null","10","","NaN","","","","","","","","","","","","","",""
"","response","","html-keyboard-response","78","143547","0.0-1.0-95.0-0.0","0","0","45645","","1","","","75","10","","","1","10","training","adjacent","AB","1","2","O.jpg","P.jpg","1","1","1","",""
"","feedback","","html-keyboard-response","79","144554","0.0-1.0-96.0-0.0","0","0","45645","","null","","","null","10","","","","","","","","","","","","","","","",""
"","ITI","","html-keyboard-response","80","145559","0.0-1.0-99.0","0","0","45645","","null","","","null","10","","","","","","","","","","","","","","","NaN",""
"","S1","","html-keyboard-response","81","145817","0.0-1.0-101.0","0","0","45645","","null","","","null","11","","","","","","","","","","","","","","","",""
"","ISI","","html-keyboard-response","82","145972","0.0-1.0-102.0","0","0","45645","","null","","","null","11","NaN","","","","","","","","","","","","","","",""
"","S2","","html-keyboard-response","83","146229","0.0-1.0-103.0","0","0","45645","","null","","","null","11","","NaN","","","","","","","","","","","","","",""
"","response","","html-keyboard-response","84","146341","0.0-1.0-104.0-0.0","0","0","45645","","107","","","75","11","","","1","11","training","adjacent","BA","2","1","P.jpg","O.jpg","1","0","0","",""
"","feedback","","html-keyboard-response","85","147348","0.0-1.0-105.0-0.0","0","0","45645","","null","","","null","11","","","","","","","","","","","","","","","",""
"","time_out","","html-keyboard-response","86","149357","0.0-1.0-107.0-0.0","0","0","45645","","null","","","null","11","","","","","","","","","","","","","","","",""
"","ITI","","html-keyboard-response","87","150367","0.0-1.0-108.0","0","0","45645","","null","","","null","11","","","","","","","","","","","","","","","NaN",""
"","S1","","html-keyboard-response","88","150621","0.0-1.0-110.0","0","0","45645","","null","","","null","12","","","","","","","","","","","","","","","",""
"","ISI","","html-keyboard-response","89","150777","0.0-1.0-111.0","0","0","45645","","null","","","null","12","NaN","","","","","","","","","","","","","","",""
"","S2","","html-keyboard-response","90","151035","0.0-1.0-112.0","0","0","45645","","null","","","null","12","","NaN","","","","","","","","","","","","","",""
"","response","","html-keyboard-response","91","151266","0.0-1.0-113.0-0.0","0","0","45645","","226","","","75","12","","","1","12","training","adjacent","CD","3","4","R.jpg","L.jpg","1","1","1","",""
"","feedback","","html-keyboard-response","92","152272","0.0-1.0-114.0-0.0","0","0","45645","","null","","","null","12","","","","","","","","","","","","","","","",""
"","ITI","","html-keyboard-response","93","153279","0.0-1.0-117.0","0","0","45645","","null","","","null","12","","","","","","","","","","","","","","","NaN",""
"","S1","","html-keyboard-response","94","153535","0.0-1.0-119.0","0","0","45645","","null","","","null","13","","","","","","","","","","","","","","","",""
"","ISI","","html-keyboard-response","95","153689","0.0-1.0-120.0","0","0","45645","","null","","","null","13","NaN","","","","","","","","","","","","","","",""
"","S2","","html-keyboard-response","96","153951","0.0-1.0-121.0","0","0","45645","","null","","","null","13","","NaN","","","","","","","","","","","","","",""
"","response","","html-keyboard-response","97","154138","0.0-1.0-122.0-0.0","0","0","45645","","182","","","75","13","","","1","13","training","adjacent","ED","5","4","M.jpg","L.jpg","1","0","0","",""
"","feedback","","html-keyboard-response","98","155144","0.0-1.0-123.0-0.0","0","0","45645","","null","","","null","13","","","","","","","","","","","","","","","",""
"","time_out","","html-keyboard-response","99","157150","0.0-1.0-125.0-0.0","0","0","45645","","null","","","null","13","","","","","","","","","","","","","","","",""
"","ITI","","html-keyboard-response","100","158156","0.0-1.0-126.0","0","0","45645","","null","","","null","13","","","","","","","","","","","","","","","NaN",""
"","S1","","html-keyboard-response","101","158413","0.0-1.0-128.0","0","0","45645","","null","","","null","14","","","","","","","","","","","","","","","",""
"","ISI","","html-keyboard-response","102","158569","0.0-1.0-129.0","0","0","45645","","null","","","null","14","NaN","","","","","","","","","","","","","","",""
"","S2","","html-keyboard-response","103","158825","0.0-1.0-130.0","0","0","45645","","null","","","null","14","","NaN","","","","","","","","","","","","","",""
"","response","","html-keyboard-response","104","159022","0.0-1.0-131.0-0.0","0","0","45645","","191","","","68","14","","","1","14","training","adjacent","ED","5","4","M.jpg","L.jpg","0","0","1","",""
"","feedback","","html-keyboard-response","105","160031","0.0-1.0-132.0-0.0","0","0","45645","","null","","","null","14","","","","","","","","","","","","","","","",""
"","ITI","","html-keyboard-response","106","161039","0.0-1.0-135.0","0","0","45645","","null","","","null","14","","","","","","","","","","","","","","","NaN",""
"","S1","","html-keyboard-response","107","161295","0.0-1.0-137.0","0","0","45645","","null","","","null","15","","","","","","","","","","","","","","","",""
"","ISI","","html-keyboard-response","108","161449","0.0-1.0-138.0","0","0","45645","","null","","","null","15","NaN","","","","","","","","","","","","","","",""
"","S2","","html-keyboard-response","109","161706","0.0-1.0-139.0","0","0","45645","","null","","","null","15","","NaN","","","","","","","","","","","","","",""
"","response","","html-keyboard-response","110","161963","0.0-1.0-140.0-0.0","0","0","45645","","252","","","68","15","","","1","15","training","adjacent","DE","4","5","L.jpg","M.jpg","0","1","0","",""
"","feedback","","html-keyboard-response","111","162970","0.0-1.0-141.0-0.0","0","0","45645","","null","","","null","15","","","","","","","","","","","","","","","",""
"","time_out","","html-keyboard-response","112","164977","0.0-1.0-143.0-0.0","0","0","45645","","null","","","null","15","","","","","","","","","","","","","","","",""
"","ITI","","html-keyboard-response","113","165983","0.0-1.0-144.0","0","0","45645","","null","","","null","15","","","","","","","","","","","","","","","NaN",""
"","S1","","html-keyboard-response","114","166239","0.0-1.0-146.0","0","0","45645","","null","","","null","16","","","","","","","","","","","","","","","",""
"","ISI","","html-keyboard-response","115","166393","0.0-1.0-147.0","0","0","45645","","null","","","null","16","NaN","","","","","","","","","","","","","","",""
"","S2","","html-keyboard-response","116","166652","0.0-1.0-148.0","0","0","45645","","null","","","null","16","","NaN","","","","","","","","","","","","","",""
"","response","","html-keyboard-response","117","166799","0.0-1.0-149.0-0.0","0","0","45645","","143","","","68","16","","","1","16","training","adjacent","EF","5","6","M.jpg","N.jpg","0","1","0","",""
"","feedback","","html-keyboard-response","118","167807","0.0-1.0-150.0-0.0","0","0","45645","","null","","","null","16","","","","","","","","","","","","","","","",""
"","time_out","","html-keyboard-response","119","169812","0.0-1.0-152.0-0.0","0","0","45645","","null","","","null","16","","","","","","","","","","","","","","","",""
"","ITI","","html-keyboard-response","120","170820","0.0-1.0-153.0","0","0","45645","","null","","","null","16","","","","","","","","","","","","","","","NaN",""
"","S1","","html-keyboard-response","121","171073","0.0-1.0-155.0","0","0","45645","","null","","","null","17","","","","","","","","","","","","","","","",""
"","ISI","","html-keyboard-response","122","171230","0.0-1.0-156.0","0","0","45645","","null","","","null","17","NaN","","","","","","","","","","","","","","",""
"","S2","","html-keyboard-response","123","171486","0.0-1.0-157.0","0","0","45645","","null","","","null","17","","NaN","","","","","","","","","","","","","",""
"","response","","html-keyboard-response","124","171576","0.0-1.0-158.0-0.0","0","0","45645","","85","","","68","17","","","1","17","training","adjacent","FE","6","5","N.jpg","M.jpg","0","0","1","",""
"","feedback","","html-keyboard-response","125","172585","0.0-1.0-159.0-0.0","0","0","45645","","null","","","null","17","","","","","","","","","","","","","","","",""
"","ITI","","html-keyboard-response","126","173593","0.0-1.0-162.0","0","0","45645","","null","","","null","17","","","","","","","","","","","","","","","NaN",""
"","S1","","html-keyboard-response","127","173850","0.0-1.0-164.0","0","0","45645","","null","","","null","18","","","","","","","","","","","","","","","",""
"","ISI","","html-keyboard-response","128","174004","0.0-1.0-165.0","0","0","45645","","null","","","null","18","NaN","","","","","","","","","","","","","","",""
"","S2","","html-keyboard-response","129","174265","0.0-1.0-166.0","0","0","45645","","null","","","null","18","","NaN","","","","","","","","","","","","","",""
"","response","","html-keyboard-response","130","176020","0.0-1.0-167.0-0.0","0","0","45645","","null","","","null","18","","","1","18","training","adjacent","FE","6","5","N.jpg","M.jpg","NaN","0","0","",""
"","too_slow_prompt","","html-keyboard-response","131","177028","0.0-1.0-169.0-0.0","1","0","45645","","null","","","null","","","","","","","","","","","","","","","","",""
"","time_out","","html-keyboard-response","132","179034","0.0-1.0-170.0-0.0","0","0","45645","","null","","","null","18","","","","","","","","","","","","","","","",""
"","ITI","","html-keyboard-response","133","180042","0.0-1.0-171.0","0","0","45645","","null","","","null","18","","","","","","","","","","","","","","","NaN",""
"","S1","","html-keyboard-response","134","180297","0.0-1.0-173.0","0","0","45645","","null","","","null","19","","","","","","","","","","","","","","","",""
"","ISI","","html-keyboard-response","135","180457","0.0-1.0-174.0","0","0","45645","","null","","","null","19","NaN","","","","","","","","","","","","","","",""
"","S2","","html-keyboard-response","136","180695","0.0-1.0-175.0","0","0","45645","","233","","","75","19","","k","1","19","training","adjacent","GF","7","6","Q.jpg","N.jpg","1","0","0","",""
"","feedback","","html-keyboard-response","137","181706","0.0-1.0-177.0-0.0","0","0","45645","","null","","","null","19","","","","","","","","","","","","","","","",""
"","time_out","","html-keyboard-response","138","183711","0.0-1.0-179.0-0.0","0","0","45645","","null","","","null","19","","","","","","","","","","","","","","","",""
"","ITI","","html-keyboard-response","139","184719","0.0-1.0-180.0","0","0","45645","","null","","","null","19","","","","","","","","","","","","","","","NaN",""
"","S1","","html-keyboard-response","140","184975","0.0-1.0-182.0","0","0","45645","","null","","","null","20","","","","","","","","","","","","","","","",""
"","ISI","","html-keyboard-response","141","185135","0.0-1.0-183.0","0","0","45645","","null","","","null","20","NaN","","","","","","","","","","","","","","",""
"","S2","","html-keyboard-response","142","185391","0.0-1.0-184.0","0","0","45645","","null","","","null","20","","NaN","","","","","","","","","","","","","",""
"","response","","html-keyboard-response","143","185679","0.0-1.0-185.0-0.0","0","0","45645","","285","","","68","20","","","1","20","training","adjacent","CD","3","4","R.jpg","L.jpg","0","1","0","",""
"","feedback","","html-keyboard-response","144","186687","0.0-1.0-186.0-0.0","0","0","45645","","null","","","null","20","","","","","","","","","","","","","","","",""
"","time_out","","html-keyboard-response","145","188694","0.0-1.0-188.0-0.0","0","0","45645","","null","","","null","20","","","","","","","","","","","","","","","",""
"","ITI","","html-keyboard-response","146","189701","0.0-1.0-189.0","0","0","45645","","null","","","null","20","","","","","","","","","","","","","","","NaN",""
"","S1","","html-keyboard-response","147","189956","0.0-1.0-191.0","0","0","45645","","null","","","null","21","","","","","","","","","","","","","","","",""
"","ISI","","html-keyboard-response","148","190111","0.0-1.0-192.0","0","0","45645","","null","","","null","21","NaN","","","","","","","","","","","","","","",""
"","S2","","html-keyboard-response","149","190367","0.0-1.0-193.0","0","0","45645","","null","","","null","21","","NaN","","","","","","","","","","","","","",""
"","response","","html-keyboard-response","150","190485","0.0-1.0-194.0-0.0","0","0","45645","","114","","","68","21","","","1","21","training","adjacent","BA","2","1","P.jpg","O.jpg","0","0","1","",""
"","feedback","","html-keyboard-response","151","191493","0.0-1.0-195.0-0.0","0","0","45645","","null","","","null","21","","","","","","","","","","","","","","","",""
"","ITI","","html-keyboard-response","152","192500","0.0-1.0-198.0","0","0","45645","","null","","","null","21","","","","","","","","","","","","","","","NaN",""
"","S1","","html-keyboard-response","153","192756","0.0-1.0-200.0","0","0","45645","","null","","","null","22","","","","","","","","","","","","","","","",""
"","ISI","","html-keyboard-response","154","192912","0.0-1.0-201.0","0","0","45645","","null","","","null","22","NaN","","","","","","","","","","","","","","",""
"","S2","","html-keyboard-response","155","193172","0.0-1.0-202.0","0","0","45645","","null","","","null","22","","NaN","","","","","","","","","","","","","",""
"","response","","html-keyboard-response","156","193341","0.0-1.0-203.0-0.0","0","0","45645","","164","","","68","22","","","1","22","training","adjacent","GF","7","6","Q.jpg","N.jpg","0","0","1","",""
"","feedback","","html-keyboard-response","157","194351","0.0-1.0-204.0-0.0","0","0","45645","","null","","","null","22","","","","","","","","","","","","","","","",""
"","ITI","","html-keyboard-response","158","195359","0.0-1.0-207.0","0","0","45645","","null","","","null","22","","","","","","","","","","","","","","","NaN",""
"","S1","","html-keyboard-response","159","195612","0.0-1.0-209.0","0","0","45645","","null","","","null","23","","","","","","","","","","","","","","","",""
"","ISI","","html-keyboard-response","160","195769","0.0-1.0-210.0","0","0","45645","","null","","","null","23","NaN","","","","","","","","","","","","","","",""
"","S2","","html-keyboard-response","161","196025","0.0-1.0-211.0","0","0","45645","","null","","","null","23","","NaN","","","","","","","","","","","","","",""
"","response","","html-keyboard-response","162","196219","0.0-1.0-212.0-0.0","0","0","45645","","189","","","68","23","","","1","23","training","adjacent","BA","2","1","P.jpg","O.jpg","0","0","1","",""
"","feedback","","html-keyboard-response","163","197225","0.0-1.0-213.0-0.0","0","0","45645","","null","","","null","23","","","","","","","","","","","","","","","",""
"","ITI","","html-keyboard-response","164","198234","0.0-1.0-216.0","0","0","45645","","567","","","75","23","","","","","","","","","","","","","","","k",""
"","S1","","html-keyboard-response","165","198490","0.0-1.0-218.0","0","0","45645","","null","","","null","24","","","","","","","","","","","","","","","",""
"","ISI","","html-keyboard-response","166","198644","0.0-1.0-219.0","0","0","45645","","null","","","null","24","NaN","","","","","","","","","","","","","","",""
"","S2","","html-keyboard-response","167","198901","0.0-1.0-220.0","0","0","45645","","null","","","null","24","","NaN","","","","","","","","","","","","","",""
"","response","","html-keyboard-response","168","199130","0.0-1.0-221.0-0.0","0","0","45645","","225","","","75","24","","","1","24","training","adjacent","CB","3","2","R.jpg","P.jpg","1","0","0","",""
"","feedback","","html-keyboard-response","169","200138","0.0-1.0-222.0-0.0","0","0","45645","","null","","","null","24","","","","","","","","","","","","","","","",""
"","time_out","","html-keyboard-response","170","202143","0.0-1.0-224.0-0.0","0","0","45645","","null","","","null","24","","","","","","","","","","","","","","","",""
"","ITI","","html-keyboard-response","171","203151","0.0-1.0-225.0","0","0","45645","","null","","","null","24","","","","","","","","","","","","","","","NaN",""
"","S1","","html-keyboard-response","172","203407","0.0-1.0-227.0","0","0","45645","","null","","","null","25","","","","","","","","","","","","","","","",""
"","ISI","","html-keyboard-response","173","203564","0.0-1.0-228.0","0","0","45645","","null","","","null","25","NaN","","","","","","","","","","","","","","",""
"","S2","","html-keyboard-response","174","203823","0.0-1.0-229.0","0","0","45645","","null","","","null","25","","NaN","","","","","","","","","","","","","",""
"","response","","html-keyboard-response","175","203953","0.0-1.0-230.0-0.0","0","0","45645","","126","","","75","25","","","1","25","training","adjacent","DC","4","3","L.jpg","R.jpg","1","0","0","",""
"","feedback","","html-keyboard-response","176","204958","0.0-1.0-231.0-0.0","0","0","45645","","null","","","null","25","","","","","","","","","","","","","","","",""
"","time_out","","html-keyboard-response","177","206964","0.0-1.0-233.0-0.0","0","0","45645","","null","","","null","25","","","","","","","","","","","","","","","",""
"","ITI","","html-keyboard-response","178","207972","0.0-1.0-234.0","0","0","45645","","null","","","null","25","","","","","","","","","","","","","","","NaN",""
"","S1","","html-keyboard-response","179","208229","0.0-1.0-236.0","0","0","45645","","null","","","null","26","","","","","","","","","","","","","","","",""
"","ISI","","html-keyboard-response","180","208386","0.0-1.0-237.0","0","0","45645","","null","","","null","26","NaN","","","","","","","","","","","","","","",""
"","S2","","html-keyboard-response","181","208643","0.0-1.0-238.0","0","0","45645","","null","","","null","26","","NaN","","","","","","","","","","","","","",""
"","response","","html-keyboard-response","182","208793","0.0-1.0-239.0-0.0","0","0","45645","","147","","","75","26","","","1","26","training","adjacent","EF","5","6","M.jpg","N.jpg","1","1","1","",""
"","feedback","","html-keyboard-response","183","209802","0.0-1.0-240.0-0.0","0","0","45645","","null","","","null","26","","","","","","","","","","","","","","","",""
"","ITI","","html-keyboard-response","184","210811","0.0-1.0-243.0","0","0","45645","","null","","","null","26","","","","","","","","","","","","","","","NaN",""
"","S1","","html-keyboard-response","185","211071","0.0-1.0-245.0","0","0","45645","","null","","","null","27","","","","","","","","","","","","","","","",""
"","ISI","","html-keyboard-response","186","211225","0.0-1.0-246.0","0","0","45645","","null","","","null","27","NaN","","","","","","","","","","","","","","",""
"","S2","","html-keyboard-response","187","211479","0.0-1.0-247.0","0","0","45645","","null","","","null","27","","NaN","","","","","","","","","","","","","",""
"","response","","html-keyboard-response","188","211661","0.0-1.0-248.0-0.0","0","0","45645","","180","","","75","27","","","1","27","training","adjacent","CD","3","4","R.jpg","L.jpg","1","1","1","",""
"","feedback","","html-keyboard-response","189","212671","0.0-1.0-249.0-0.0","0","0","45645","","null","","","null","27","","","","","","","","","","","","","","","",""
"","ITI","","html-keyboard-response","190","213679","0.0-1.0-252.0","0","0","45645","","null","","","null","27","","","","","","","","","","","","","","","NaN",""
"","S1","","html-keyboard-response","191","213935","0.0-1.0-254.0","0","0","45645","","null","","","null","28","","","","","","","","","","","","","","","",""
"","ISI","","html-keyboard-response","192","214095","0.0-1.0-255.0","0","0","45645","","null","","","null","28","NaN","","","","","","","","","","","","","","",""
"","S2","","html-keyboard-response","193","214351","0.0-1.0-256.0","0","0","45645","","null","","","null","28","","NaN","","","","","","","","","","","","","",""
"","response","","html-keyboard-response","194","214525","0.0-1.0-257.0-0.0","0","0","45645","","169","","","68","28","","","1","28","training","adjacent","FG","6","7","N.jpg","Q.jpg","0","1","0","",""
"","feedback","","html-keyboard-response","195","215535","0.0-1.0-258.0-0.0","0","0","45645","","null","","","null","28","","","","","","","","","","","","","","","",""
"","time_out","","html-keyboard-response","196","217541","0.0-1.0-260.0-0.0","0","0","45645","","null","","","null","28","","","","","","","","","","","","","","","",""
"","ITI","","html-keyboard-response","197","218548","0.0-1.0-261.0","0","0","45645","","null","","","null","28","","","","","","","","","","","","","","","NaN",""
"","S1","","html-keyboard-response","198","218801","0.0-1.0-263.0","0","0","45645","","null","","","null","29","","","","","","","","","","","","","","","",""
"","ISI","","html-keyboard-response","199","218956","0.0-1.0-264.0","0","0","45645","","null","","","null","29","NaN","","","","","","","","","","","","","","",""
"","S2","","html-keyboard-response","200","219215","0.0-1.0-265.0","0","0","45645","","null","","","null","29","","NaN","","","","","","","","","","","","","",""
"","response","","html-keyboard-response","201","219317","0.0-1.0-266.0-0.0","0","0","45645","","97","","","68","29","","","1","29","training","adjacent","ED","5","4","M.jpg","L.jpg","0","0","1","",""
"","feedback","","html-keyboard-response","202","220324","0.0-1.0-267.0-0.0","0","0","45645","","null","","","null","29","","","","","","","","","","","","","","","",""
"","ITI","","html-keyboard-response","203","221333","0.0-1.0-270.0","0","0","45645","","null","","","null","29","","","","","","","","","","","","","","","NaN",""
"","S1","","html-keyboard-response","204","221589","0.0-1.0-272.0","0","0","45645","","null","","","null","30","","","","","","","","","","","","","","","",""
"","ISI","","html-keyboard-response","205","221748","0.0-1.0-273.0","0","0","45645","","null","","","null","30","NaN","","","","","","","","","","","","","","",""
"","S2","","html-keyboard-response","206","222004","0.0-1.0-274.0","0","0","45645","","null","","","null","30","","NaN","","","","","","","","","","","","","",""
"","response","","html-keyboard-response","207","222163","0.0-1.0-275.0-0.0","0","0","45645","","155","","","75","30","","","1","30","training","adjacent","AB","1","2","O.jpg","P.jpg","1","1","1","",""
"","feedback","","html-keyboard-response","208","223173","0.0-1.0-276.0-0.0","0","0","45645","","null","","","null","30","","","","","","","","","","","","","","","",""
"","ITI","","html-keyboard-response","209","224181","0.0-1.0-279.0","0","0","45645","","null","","","null","30","","","","","","","","","","","","","","","NaN",""
"","S1","","html-keyboard-response","210","224436","0.0-1.0-281.0","0","0","45645","","null","","","null","31","","","","","","","","","","","","","","","",""
"","ISI","","html-keyboard-response","211","224588","0.0-1.0-282.0","0","0","45645","","null","","","null","31","NaN","","","","","","","","","","","","","","",""
"","S2","","html-keyboard-response","212","224847","0.0-1.0-283.0","0","0","45645","","null","","","null","31","","NaN","","","","","","","","","","","","","",""
"","response","","html-keyboard-response","213","224954","0.0-1.0-284.0-0.0","0","0","45645","","103","","","75","31","","","1","31","training","adjacent","BA","2","1","P.jpg","O.jpg","1","0","0","",""
"","feedback","","html-keyboard-response","214","225962","0.0-1.0-285.0-0.0","0","0","45645","","null","","","null","31","","","","","","","","","","","","","","","",""
"","time_out","","html-keyboard-response","215","227967","0.0-1.0-287.0-0.0","0","0","45645","","null","","","null","31","","","","","","","","","","","","","","","",""
"","ITI","","html-keyboard-response","216","228976","0.0-1.0-288.0","0","0","45645","","null","","","null","31","","","","","","","","","","","","","","","NaN",""
"","S1","","html-keyboard-response","217","229231","0.0-1.0-290.0","0","0","45645","","null","","","null","32","","","","","","","","","","","","","","","",""
"","ISI","","html-keyboard-response","218","229391","0.0-1.0-291.0","0","0","45645","","null","","","null","32","NaN","","","","","","","","","","","","","","",""
"","S2","","html-keyboard-response","219","229647","0.0-1.0-292.0","0","0","45645","","null","","","null","32","","NaN","","","","","","","","","","","","","",""
"","response","","html-keyboard-response","220","229781","0.0-1.0-293.0-0.0","0","0","45645","","130","","","75","32","","","1","32","training","adjacent","BC","2","3","P.jpg","R.jpg","1","1","1","",""
"","feedback","","html-keyboard-response","221","230789","0.0-1.0-294.0-0.0","0","0","45645","","null","","","null","32","","","","","","","","","","","","","","","",""
"","ITI","","html-keyboard-response","222","231797","0.0-1.0-297.0","0","0","45645","","null","","","null","32","","","","","","","","","","","","","","","NaN",""
"","S1","","html-keyboard-response","223","232053","0.0-1.0-299.0","0","0","45645","","null","","","null","33","","","","","","","","","","","","","","","",""
"","ISI","","html-keyboard-response","224","232211","0.0-1.0-300.0","0","0","45645","","null","","","null","33","NaN","","","","","","","","","","","","","","",""
"","S2","","html-keyboard-response","225","232469","0.0-1.0-301.0","0","0","45645","","null","","","null","33","","NaN","","","","","","","","","","","","","",""
"","response","","html-keyboard-response","226","232656","0.0-1.0-302.0-0.0","0","0","45645","","185","","","75","33","","","1","33","training","adjacent","DE","4","5","L.jpg","M.jpg","1","1","1","",""
"","feedback","","html-keyboard-response","227","233663","0.0-1.0-303.0-0.0","0","0","45645","","null","","","null","33","","","","","","","","","","","","","","","",""
"","ITI","","html-keyboard-response","228","234671","0.0-1.0-306.0","0","0","45645","","null","","","null","33","","","","","","","","","","","","","","","NaN",""
"","S1","","html-keyboard-response","229","234924","0.0-1.0-308.0","0","0","45645","","null","","","null","34","","","","","","","","","","","","","","","",""
"","ISI","","html-keyboard-response","230","235079","0.0-1.0-309.0","0","0","45645","","null","","","null","34","NaN","","","","","","","","","","","","","","",""
"","S2","","html-keyboard-response","231","235338","0.0-1.0-310.0","0","0","45645","","null","","","null","34","","NaN","","","","","","","","","","","","","",""
"","response","","html-keyboard-response","232","235517","0.0-1.0-311.0-0.0","0","0","45645","","175","","","68","34","","","1","34","training","adjacent","GF","7","6","Q.jpg","N.jpg","0","0","1","",""
"","feedback","","html-keyboard-response","233","236527","0.0-1.0-312.0-0.0","0","0","45645","","null","","","null","34","","","","","","","","","","","","","","","",""
"","ITI","","html-keyboard-response","234","237536","0.0-1.0-315.0","0","0","45645","","null","","","null","34","","","","","","","","","","","","","","","NaN",""
"","S1","","html-keyboard-response","235","237792","0.0-1.0-317.0","0","0","45645","","null","","","null","35","","","","","","","","","","","","","","","",""
"","ISI","","html-keyboard-response","236","237951","0.0-1.0-318.0","0","0","45645","","null","","","null","35","NaN","","","","","","","","","","","","","","",""
"","S2","","html-keyboard-response","237","238211","0.0-1.0-319.0","0","0","45645","","null","","","null","35","","NaN","","","","","","","","","","","","","",""
"","response","","html-keyboard-response","238","238365","0.0-1.0-320.0-0.0","0","0","45645","","148","","","75","35","","","1","35","training","adjacent","CB","3","2","R.jpg","P.jpg","1","0","0","",""
"","feedback","","html-keyboard-response","239","239371","0.0-1.0-321.0-0.0","0","0","45645","","null","","","null","35","","","","","","","","","","","","","","","",""
"","time_out","","html-keyboard-response","240","241381","0.0-1.0-323.0-0.0","0","0","45645","","null","","","null","35","","","","","","","","","","","","","","","",""
"","ITI","","html-keyboard-response","241","242389","0.0-1.0-324.0","0","0","45645","","null","","","null","35","","","","","","","","","","","","","","","NaN",""
"","S1","","html-keyboard-response","242","242646","0.0-1.0-326.0","0","0","45645","","null","","","null","36","","","","","","","","","","","","","","","",""
"","ISI","","html-keyboard-response","243","242804","0.0-1.0-327.0","0","0","45645","","null","","","null","36","NaN","","","","","","","","","","","","","","",""
"","S2","","html-keyboard-response","244","243057","0.0-1.0-328.0","0","0","45645","","null","","","null","36","","NaN","","","","","","","","","","","","","",""
"","response","","html-keyboard-response","245","243194","0.0-1.0-329.0-0.0","0","0","45645","","133","","","75","36","","","1","36","training","adjacent","GF","7","6","Q.jpg","N.jpg","1","0","0","",""
"","feedback","","html-keyboard-response","246","244202","0.0-1.0-330.0-0.0","0","0","45645","","null","","","null","36","","","","","","","","","","","","","","","",""
"","time_out","","html-keyboard-response","247","246207","0.0-1.0-332.0-0.0","0","0","45645","","null","","","null","36","","","","","","","","","","","","","","","",""
"","ITI","","html-keyboard-response","248","247216","0.0-1.0-333.0","0","0","45645","","null","","","null","36","","","","","","","","","","","","","","","NaN",""
"","S1","","html-keyboard-response","249","247471","0.0-1.0-335.0","0","0","45645","","null","","","null","37","","","","","","","","","","","","","","","",""
"","ISI","","html-keyboard-response","250","247626","0.0-1.0-336.0","0","0","45645","","null","","","null","37","NaN","","","","","","","","","","","","","","",""
"","S2","","html-keyboard-response","251","247888","0.0-1.0-337.0","0","0","45645","","null","","","null","37","","NaN","","","","","","","","","","","","","",""
"","response","","html-keyboard-response","252","248028","0.0-1.0-338.0-0.0","0","0","45645","","136","","","75","37","","","1","37","training","adjacent","DE","4","5","L.jpg","M.jpg","1","1","1","",""
"","feedback","","html-keyboard-response","253","249034","0.0-1.0-339.0-0.0","0","0","45645","","null","","","null","37","","","","","","","","","","","","","","","",""
"","ITI","","html-keyboard-response","254","250042","0.0-1.0-342.0","0","0","45645","","null","","","null","37","","","","","","","","","","","","","","","NaN",""
"","S1","","html-keyboard-response","255","250302","0.0-1.0-344.0","0","0","45645","","null","","","null","38","","","","","","","","","","","","","","","",""
"","ISI","","html-keyboard-response","256","250458","0.0-1.0-345.0","0","0","45645","","null","","","null","38","NaN","","","","","","","","","","","","","","",""
"","S2","","html-keyboard-response","257","250714","0.0-1.0-346.0","0","0","45645","","null","","","null","38","","NaN","","","","","","","","","","","","","",""
"","response","","html-keyboard-response","258","250930","0.0-1.0-347.0-0.0","0","0","45645","","211","","","75","38","","","1","38","training","adjacent","DE","4","5","L.jpg","M.jpg","1","1","1","",""
"","feedback","","html-keyboard-response","259","251935","0.0-1.0-348.0-0.0","0","0","45645","","null","","","null","38","","","","","","","","","","","","","","","",""
"","ITI","","html-keyboard-response","260","252944","0.0-1.0-351.0","0","0","45645","","null","","","null","38","","","","","","","","","","","","","","","NaN",""
"","S1","","html-keyboard-response","261","253199","0.0-1.0-353.0","0","0","45645","","null","","","null","39","","","","","","","","","","","","","","","",""
"","ISI","","html-keyboard-response","262","253354","0.0-1.0-354.0","0","0","45645","","null","","","null","39","NaN","","","","","","","","","","","","","","",""
"","S2","","html-keyboard-response","263","253612","0.0-1.0-355.0","0","0","45645","","null","","","null","39","","NaN","","","","","","","","","","","","","",""
"","response","","html-keyboard-response","264","253866","0.0-1.0-356.0-0.0","0","0","45645","","249","","","75","39","","","1","39","training","adjacent","BC","2","3","P.jpg","R.jpg","1","1","1","",""
"","feedback","","html-keyboard-response","265","254874","0.0-1.0-357.0-0.0","0","0","45645","","null","","","null","39","","","","","","","","","","","","","","","",""
"","ITI","","html-keyboard-response","266","255882","0.0-1.0-360.0","0","0","45645","","null","","","null","39","","","","","","","","","","","","","","","NaN",""
"","S1","","html-keyboard-response","267","256137","0.0-1.0-362.0","0","0","45645","","null","","","null","40","","","","","","","","","","","","","","","",""
"","ISI","","html-keyboard-response","268","256293","0.0-1.0-363.0","0","0","45645","","null","","","null","40","NaN","","","","","","","","","","","","","","",""
"","S2","","html-keyboard-response","269","256549","0.0-1.0-364.0","0","0","45645","","null","","","null","40","","NaN","","","","","","","","","","","","","",""
"","response","","html-keyboard-response","270","256805","0.0-1.0-365.0-0.0","0","0","45645","","251","","","68","40","","","1","40","training","adjacent","FE","6","5","N.jpg","M.jpg","0","0","1","",""
"","feedback","","html-keyboard-response","271","257813","0.0-1.0-366.0-0.0","0","0","45645","","null","","","null","40","","","","","","","","","","","","","","","",""
"","ITI","","html-keyboard-response","272","258819","0.0-1.0-369.0","0","0","45645","","null","","","null","40","","","","","","","","","","","","","","","NaN",""
"","S1","","html-keyboard-response","273","259074","0.0-1.0-371.0","0","0","45645","","null","","","null","41","","","","","","","","","","","","","","","",""
"","ISI","","html-keyboard-response","274","259231","0.0-1.0-372.0","0","0","45645","","null","","","null","41","NaN","","","","","","","","","","","","","","",""
"","S2","","html-keyboard-response","275","259487","0.0-1.0-373.0","0","0","45645","","null","","","null","41","","NaN","","","","","","","","","","","","","",""
"","response","","html-keyboard-response","276","259726","0.0-1.0-374.0-0.0","0","0","45645","","235","","","75","41","","","1","41","training","adjacent","FG","6","7","N.jpg","Q.jpg","1","1","1","",""
"","feedback","","html-keyboard-response","277","260732","0.0-1.0-375.0-0.0","0","0","45645","","null","","","null","41","","","","","","","","","","","","","","","",""
"","ITI","","html-keyboard-response","278","261741","0.0-1.0-378.0","0","0","45645","","null","","","null","41","","","","","","","","","","","","","","","NaN",""
"","S1","","html-keyboard-response","279","262000","0.0-1.0-380.0","0","0","45645","","null","","","null","42","","","","","","","","","","","","","","","",""
"","ISI","","html-keyboard-response","280","262159","0.0-1.0-381.0","0","0","45645","","null","","","null","42","NaN","","","","","","","","","","","","","","",""
"","S2","","html-keyboard-response","281","262419","0.0-1.0-382.0","0","0","45645","","null","","","null","42","","NaN","","","","","","","","","","","","","",""
"","response","","html-keyboard-response","282","262552","0.0-1.0-383.0-0.0","0","0","45645","","130","","","75","42","","","1","42","training","adjacent","FG","6","7","N.jpg","Q.jpg","1","1","1","",""
"","feedback","","html-keyboard-response","283","263557","0.0-1.0-384.0-0.0","0","0","45645","","null","","","null","42","","","","","","","","","","","","","","","",""
"","ITI","","html-keyboard-response","284","264562","0.0-1.0-387.0","0","0","45645","","null","","","null","42","","","","","","","","","","","","","","","NaN",""
"","S1","","html-keyboard-response","285","264818","0.0-1.0-389.0","0","0","45645","","null","","","null","43","","","","","","","","","","","","","","","",""
"","ISI","","html-keyboard-response","286","264975","0.0-1.0-390.0","0","0","45645","","null","","","null","43","NaN","","","","","","","","","","","","","","",""
"","S2","","html-keyboard-response","287","265231","0.0-1.0-391.0","0","0","45645","","null","","","null","43","","NaN","","","","","","","","","","","","","",""
"","response","","html-keyboard-response","288","265353","0.0-1.0-392.0-0.0","0","0","45645","","118","","","68","43","","","1","43","training","adjacent","DC","4","3","L.jpg","R.jpg","0","0","1","",""
"","feedback","","html-keyboard-response","289","266362","0.0-1.0-393.0-0.0","0","0","45645","","null","","","null","43","","","","","","","","","","","","","","","",""
"","ITI","","html-keyboard-response","290","267370","0.0-1.0-396.0","0","0","45645","","null","","","null","43","","","","","","","","","","","","","","","NaN",""
"","S1","","html-keyboard-response","291","267629","0.0-1.0-398.0","0","0","45645","","null","","","null","44","","","","","","","","","","","","","","","",""
"","ISI","","html-keyboard-response","292","267786","0.0-1.0-399.0","0","0","45645","","null","","","null","44","NaN","","","","","","","","","","","","","","",""
"","S2","","html-keyboard-response","293","268042","0.0-1.0-400.0","0","0","45645","","null","","","null","44","","NaN","","","","","","","","","","","","","",""
"","response","","html-keyboard-response","294","268192","0.0-1.0-401.0-0.0","0","0","45645","","144","","","75","44","","","1","44","training","adjacent","FE","6","5","N.jpg","M.jpg","1","0","0","",""
"","feedback","","html-keyboard-response","295","269200","0.0-1.0-402.0-0.0","0","0","45645","","null","","","null","44","","","","","","","","","","","","","","","",""
"","time_out","","html-keyboard-response","296","271205","0.0-1.0-404.0-0.0","0","0","45645","","null","","","null","44","","","","","","","","","","","","","","","",""
"","ITI","","html-keyboard-response","297","272211","0.0-1.0-405.0","0","0","45645","","null","","","null","44","","","","","","","","","","","","","","","NaN",""
"","S1","","html-keyboard-response","298","272467","0.0-1.0-407.0","0","0","45645","","null","","","null","45","","","","","","","","","","","","","","","",""
"","ISI","","html-keyboard-response","299","272620","0.0-1.0-408.0","0","0","45645","","null","","","null","45","NaN","","","","","","","","","","","","","","",""
"","S2","","html-keyboard-response","300","272878","0.0-1.0-409.0","0","0","45645","","null","","","null","45","","NaN","","","","","","","","","","","","","",""
"","response","","html-keyboard-response","301","273015","0.0-1.0-410.0-0.0","0","0","45645","","133","","","75","45","","","1","45","training","adjacent","BC","2","3","P.jpg","R.jpg","1","1","1","",""
"","feedback","","html-keyboard-response","302","274019","0.0-1.0-411.0-0.0","0","0","45645","","null","","","null","45","","","","","","","","","","","","","","","",""
"","ITI","","html-keyboard-response","303","275027","0.0-1.0-414.0","0","0","45645","","null","","","null","45","","","","","","","","","","","","","","","NaN",""
"","S1","","html-keyboard-response","304","275283","0.0-1.0-416.0","0","0","45645","","null","","","null","46","","","","","","","","","","","","","","","",""
"","ISI","","html-keyboard-response","305","275438","0.0-1.0-417.0","0","0","45645","","null","","","null","46","NaN","","","","","","","","","","","","","","",""
"","S2","","html-keyboard-response","306","275692","0.0-1.0-418.0","0","0","45645","","null","","","null","46","","NaN","","","","","","","","","","","","","",""
"","response","","html-keyboard-response","307","275847","0.0-1.0-419.0-0.0","0","0","45645","","153","","","75","46","","","1","46","training","adjacent","DC","4","3","L.jpg","R.jpg","1","0","0","",""
"","feedback","","html-keyboard-response","308","276854","0.0-1.0-420.0-0.0","0","0","45645","","null","","","null","46","","","","","","","","","","","","","","","",""
"","time_out","","html-keyboard-response","309","278862","0.0-1.0-422.0-0.0","0","0","45645","","null","","","null","46","","","","","","","","","","","","","","","",""
"","ITI","","html-keyboard-response","310","279872","0.0-1.0-423.0","0","0","45645","","null","","","null","46","","","","","","","","","","","","","","","NaN",""
"","S1","","html-keyboard-response","311","280128","0.0-1.0-425.0","0","0","45645","","null","","","null","47","","","","","","","","","","","","","","","",""
"","ISI","","html-keyboard-response","312","280283","0.0-1.0-426.0","0","0","45645","","null","","","null","47","NaN","","","","","","","","","","","","","","",""
"","S2","","html-keyboard-response","313","280535","0.0-1.0-427.0","0","0","45645","","null","","","null","47","","NaN","","","","","","","","","","","","","",""
"","response","","html-keyboard-response","314","280667","0.0-1.0-428.0-0.0","0","0","45645","","131","","","75","47","","","1","47","training","adjacent","CD","3","4","R.jpg","L.jpg","1","1","1","",""
"","feedback","","html-keyboard-response","315","281674","0.0-1.0-429.0-0.0","0","0","45645","","null","","","null","47","","","","","","","","","","","","","","","",""
"","ITI","","html-keyboard-response","316","282679","0.0-1.0-432.0","0","0","45645","","null","","","null","47","","","","","","","","","","","","","","","NaN",""
"","block_over","","html-keyboard-response","317","290272","0.0-1.0-433.0-0.0","0","0","45645","","7588","","","32","47","","","","","","","","","","","","","","","",""
"","S1","","html-keyboard-response","318","290527","0.0-1.0-434.0","0","0","45645","","null","","","null","48","","","","","","","","","","","","","","","",""
"","ISI","","html-keyboard-response","319","290682","0.0-1.0-435.0","0","0","45645","","null","","","null","48","NaN","","","","","","","","","","","","","","",""
"","S2","","html-keyboard-response","320","290938","0.0-1.0-436.0","0","0","45645","","null","","","null","48","","NaN","","","","","","","","","","","","","",""
"","response","","html-keyboard-response","321","291310","0.0-1.0-437.0-0.0","0","0","45645","","366","","","75","48","","","2","48","training","adjacent","DE","4","5","L.jpg","M.jpg","1","1","1","",""
"","feedback","","html-keyboard-response","322","292320","0.0-1.0-438.0-0.0","0","0","45645","","null","","","null","48","","","","","","","","","","","","","","","",""
"","ITI","","html-keyboard-response","323","293328","0.0-1.0-441.0","0","0","45645","","null","","","null","48","","","","","","","","","","","","","","","NaN",""
"","S1","","html-keyboard-response","324","293583","0.0-1.0-443.0","0","0","45645","","null","","","null","49","","","","","","","","","","","","","","","",""
"","ISI","","html-keyboard-response","325","293738","0.0-1.0-444.0","0","0","45645","","null","","","null","49","NaN","","","","","","","","","","","","","","",""
"","S2","","html-keyboard-response","326","293996","0.0-1.0-445.0","0","0","45645","","null","","","null","49","","NaN","","","","","","","","","","","","","",""
"","response","","html-keyboard-response","327","295570","0.0-1.0-446.0-0.0","0","0","45645","","1569","","","68","49","","","2","49","training","adjacent","EF","5","6","M.jpg","N.jpg","0","1","0","",""
"","feedback","","html-keyboard-response","328","296572","0.0-1.0-447.0-0.0","0","0","45645","","null","","","null","49","","","","","","","","","","","","","","","",""
"","time_out","","html-keyboard-response","329","298581","0.0-1.0-449.0-0.0","0","0","45645","","null","","","null","49","","","","","","","","","","","","","","","",""
"","ITI","","html-keyboard-response","330","299589","0.0-1.0-450.0","0","0","45645","","null","","","null","49","","","","","","","","","","","","","","","NaN",""
"","S1","","html-keyboard-response","331","299845","0.0-1.0-452.0","0","0","45645","","null","","","null","50","","","","","","","","","","","","","","","",""
"","ISI","","html-keyboard-response","332","300002","0.0-1.0-453.0","0","0","45645","","null","","","null","50","NaN","","","","","","","","","","","","","","",""
"","S2","","html-keyboard-response","333","300261","0.0-1.0-454.0","0","0","45645","","null","","","null","50","","NaN","","","","","","","","","","","","","",""
"","response","","html-keyboard-response","334","300370","0.0-1.0-455.0-0.0","0","0","45645","","105","","","68","50","","","2","50","training","adjacent","FG","6","7","N.jpg","Q.jpg","0","1","0","",""
"","feedback","","html-keyboard-response","335","301373","0.0-1.0-456.0-0.0","0","0","45645","","null","","","null","50","","","","","","","","","","","","","","","",""
"","time_out","","html-keyboard-response","336","303381","0.0-1.0-458.0-0.0","0","0","45645","","null","","","null","50","","","","","","","","","","","","","","","",""
"","ITI","","html-keyboard-response","337","304389","0.0-1.0-459.0","0","0","45645","","null","","","null","50","","","","","","","","","","","","","","","NaN",""
"","S1","","html-keyboard-response","338","304642","0.0-1.0-461.0","0","0","45645","","null","","","null","51","","","","","","","","","","","","","","","",""
"","ISI","","html-keyboard-response","339","304799","0.0-1.0-462.0","0","0","45645","","null","","","null","51","NaN","","","","","","","","","","","","","","",""
"","S2","","html-keyboard-response","340","305055","0.0-1.0-463.0","0","0","45645","","null","","","null","51","","NaN","","","","","","","","","","","","","",""
"","response","","html-keyboard-response","341","305253","0.0-1.0-464.0-0.0","0","0","45645","","192","","","68","51","","","2","51","training","adjacent","CB","3","2","R.jpg","P.jpg","0","0","1","",""
"","feedback","","html-keyboard-response","342","306261","0.0-1.0-465.0-0.0","0","0","45645","","null","","","null","51","","","","","","","","","","","","","","","",""
"","ITI","","html-keyboard-response","343","307269","0.0-1.0-468.0","0","0","45645","","null","","","null","51","","","","","","","","","","","","","","","NaN",""
"","S1","","html-keyboard-response","344","307522","0.0-1.0-470.0","0","0","45645","","null","","","null","52","","","","","","","","","","","","","","","",""
"","ISI","","html-keyboard-response","345","307679","0.0-1.0-471.0","0","0","45645","","null","","","null","52","NaN","","","","","","","","","","","","","","",""
"","S2","","html-keyboard-response","346","307935","0.0-1.0-472.0","0","0","45645","","null","","","null","52","","NaN","","","","","","","","","","","","","",""
"","response","","html-keyboard-response","347","308095","0.0-1.0-473.0-0.0","0","0","45645","","156","","","68","52","","","2","52","training","adjacent","DE","4","5","L.jpg","M.jpg","0","1","0","",""
"","feedback","","html-keyboard-response","348","309103","0.0-1.0-474.0-0.0","0","0","45645","","null","","","null","52","","","","","","","","","","","","","","","",""
"","time_out","","html-keyboard-response","349","311111","0.0-1.0-476.0-0.0","0","0","45645","","null","","","null","52","","","","","","","","","","","","","","","",""
"","ITI","","html-keyboard-response","350","312117","0.0-1.0-477.0","0","0","45645","","null","","","null","52","","","","","","","","","","","","","","","NaN",""
"","S1","","html-keyboard-response","351","312370","0.0-1.0-479.0","0","0","45645","","null","","","null","53","","","","","","","","","","","","","","","",""
"","ISI","","html-keyboard-response","352","312525","0.0-1.0-480.0","0","0","45645","","null","","","null","53","NaN","","","","","","","","","","","","","","",""
"","S2","","html-keyboard-response","353","312783","0.0-1.0-481.0","0","0","45645","","null","","","null","53","","NaN","","","","","","","","","","","","","",""
"","response","","html-keyboard-response","354","312926","0.0-1.0-482.0-0.0","0","0","45645","","137","","","68","53","","","2","53","training","adjacent","ED","5","4","M.jpg","L.jpg","0","0","1","",""
"","feedback","","html-keyboard-response","355","313936","0.0-1.0-483.0-0.0","0","0","45645","","null","","","null","53","","","","","","","","","","","","","","","",""
"","ITI","","html-keyboard-response","356","314944","0.0-1.0-486.0","0","0","45645","","null","","","null","53","","","","","","","","","","","","","","","NaN",""
"","S1","","html-keyboard-response","357","315200","0.0-1.0-488.0","0","0","45645","","null","","","null","54","","","","","","","","","","","","","","","",""
"","ISI","","html-keyboard-response","358","315355","0.0-1.0-489.0","0","0","45645","","null","","","null","54","NaN","","","","","","","","","","","","","","",""
"","S2","","html-keyboard-response","359","315612","0.0-1.0-490.0","0","0","45645","","null","","","null","54","","NaN","","","","","","","","","","","","","",""
"","response","","html-keyboard-response","360","315755","0.0-1.0-491.0-0.0","0","0","45645","","138","","","68","54","","","2","54","training","adjacent","FE","6","5","N.jpg","M.jpg","0","0","1","",""
"","feedback","","html-keyboard-response","361","316766","0.0-1.0-492.0-0.0","0","0","45645","","null","","","null","54","","","","","","","","","","","","","","","",""
"","ITI","","html-keyboard-response","362","317776","0.0-1.0-495.0","0","0","45645","","null","","","null","54","","","","","","","","","","","","","","","NaN",""
"","S1","","html-keyboard-response","363","318032","0.0-1.0-497.0","0","0","45645","","null","","","null","55","","","","","","","","","","","","","","","",""
"","ISI","","html-keyboard-response","364","318192","0.0-1.0-498.0","0","0","45645","","null","","","null","55","NaN","","","","","","","","","","","","","","",""
"","S2","","html-keyboard-response","365","318445","0.0-1.0-499.0","0","0","45645","","null","","","null","55","","NaN","","","","","","","","","","","","","",""
"","response","","html-keyboard-response","366","318713","0.0-1.0-500.0-0.0","0","0","45645","","265","","","75","55","","","2","55","training","adjacent","GF","7","6","Q.jpg","N.jpg","1","0","0","",""
"","feedback","","html-keyboard-response","367","319723","0.0-1.0-501.0-0.0","0","0","45645","","null","","","null","55","","","","","","","","","","","","","","","",""
"","time_out","","html-keyboard-response","368","321728","0.0-1.0-503.0-0.0","0","0","45645","","null","","","null","55","","","","","","","","","","","","","","","",""
"","ITI","","html-keyboard-response","369","322736","0.0-1.0-504.0","0","0","45645","","null","","","null","55","","","","","","","","","","","","","","","NaN",""
"","S1","","html-keyboard-response","370","322992","0.0-1.0-506.0","0","0","45645","","null","","","null","56","","","","","","","","","","","","","","","",""
"","ISI","","html-keyboard-response","371","323152","0.0-1.0-507.0","0","0","45645","","null","","","null","56","NaN","","","","","","","","","","","","","","",""
"","S2","","html-keyboard-response","372","323409","0.0-1.0-508.0","0","0","45645","","null","","","null","56","","NaN","","","","","","","","","","","","","",""
"","response","","html-keyboard-response","373","323514","0.0-1.0-509.0-0.0","0","0","45645","","104","","","75","56","","","2","56","training","adjacent","FE","6","5","N.jpg","M.jpg","1","0","0","",""
"","feedback","","html-keyboard-response","374","324520","0.0-1.0-510.0-0.0","0","0","45645","","null","","","null","56","","","","","","","","","","","","","","","",""
"","time_out","","html-keyboard-response","375","326528","0.0-1.0-512.0-0.0","0","0","45645","","null","","","null","56","","","","","","","","","","","","","","","",""
"","ITI","","html-keyboard-response","376","327536","0.0-1.0-513.0","0","0","45645","","null","","","null","56","","","","","","","","","","","","","","","NaN",""
"","S1","","html-keyboard-response","377","327791","0.0-1.0-515.0","0","0","45645","","null","","","null","57","","","","","","","","","","","","","","","",""
"","ISI","","html-keyboard-response","378","327946","0.0-1.0-516.0","0","0","45645","","null","","","null","57","NaN","","","","","","","","","","","","","","",""
"","S2","","html-keyboard-response","379","328206","0.0-1.0-517.0","0","0","45645","","null","","","null","57","","NaN","","","","","","","","","","","","","",""
"","response","","html-keyboard-response","380","328664","0.0-1.0-518.0-0.0","0","0","45645","","452","","","68","57","","","2","57","training","adjacent","DC","4","3","L.jpg","R.jpg","0","0","1","",""
"","feedback","","html-keyboard-response","381","329671","0.0-1.0-519.0-0.0","0","0","45645","","null","","","null","57","","","","","","","","","","","","","","","",""
"","ITI","","html-keyboard-response","382","330677","0.0-1.0-522.0","0","0","45645","","null","","","null","57","","","","","","","","","","","","","","","NaN",""
"","S1","","html-keyboard-response","383","330933","0.0-1.0-524.0","0","0","45645","","null","","","null","58","","","","","","","","","","","","","","","",""
"","ISI","","html-keyboard-response","384","331088","0.0-1.0-525.0","0","0","45645","","null","","","null","58","NaN","","","","","","","","","","","","","","",""
"","S2","","html-keyboard-response","385","331343","0.0-1.0-526.0","0","0","45645","","null","","","null","58","","NaN","","","","","","","","","","","","","",""
"","response","","html-keyboard-response","386","331620","0.0-1.0-527.0-0.0","0","0","45645","","272","","","75","58","","","2","58","training","adjacent","DE","4","5","L.jpg","M.jpg","1","1","1","",""
"","feedback","","html-keyboard-response","387","332629","0.0-1.0-528.0-0.0","0","0","45645","","null","","","null","58","","","","","","","","","","","","","","","",""
"","ITI","","html-keyboard-response","388","333637","0.0-1.0-531.0","0","0","45645","","null","","","null","58","","","","","","","","","","","","","","","NaN",""
"","S1","","html-keyboard-response","389","333890","0.0-1.0-533.0","0","0","45645","","null","","","null","59","","","","","","","","","","","","","","","",""
"","ISI","","html-keyboard-response","390","334047","0.0-1.0-534.0","0","0","45645","","null","","","null","59","NaN","","","","","","","","","","","","","","",""
"","S2","","html-keyboard-response","391","334304","0.0-1.0-535.0","0","0","45645","","null","","","null","59","","NaN","","","","","","","","","","","","","",""
"","response","","html-keyboard-response","392","334872","0.0-1.0-536.0-0.0","0","0","45645","","564","","","68","59","","","2","59","training","adjacent","BA","2","1","P.jpg","O.jpg","0","0","1","",""
"","feedback","","html-keyboard-response","393","335881","0.0-1.0-537.0-0.0","0","0","45645","","null","","","null","59","","","","","","","","","","","","","","","",""
"","ITI","","html-keyboard-response","394","336885","0.0-1.0-540.0","0","0","45645","","null","","","null","59","","","","","","","","","","","","","","","NaN",""
"","S1","","html-keyboard-response","395","337141","0.0-1.0-542.0","0","0","45645","","null","","","null","60","","","","","","","","","","","","","","","",""
"","ISI","","html-keyboard-response","396","337296","0.0-1.0-543.0","0","0","45645","","null","","","null","60","NaN","","","","","","","","","","","","","","",""
"","S2","","html-keyboard-response","397","337557","0.0-1.0-544.0","0","0","45645","","null","","","null","60","","NaN","","","","","","","","","","","","","",""
"","response","","html-keyboard-response","398","338313","0.0-1.0-545.0-0.0","0","0","45645","","750","","","75","60","","","2","60","training","adjacent","EF","5","6","M.jpg","N.jpg","1","1","1","",""
"","feedback","","html-keyboard-response","399","339319","0.0-1.0-546.0-0.0","0","0","45645","","null","","","null","60","","","","","","","","","","","","","","","",""
"","ITI","","html-keyboard-response","400","340325","0.0-1.0-549.0","0","0","45645","","null","","","null","60","","","","","","","","","","","","","","","NaN",""
"","S1","","html-keyboard-response","401","340578","0.0-1.0-551.0","0","0","45645","","null","","","null","61","","","","","","","","","","","","","","","",""
"","ISI","","html-keyboard-response","402","340735","0.0-1.0-552.0","0","0","45645","","null","","","null","61","NaN","","","","","","","","","","","","","","",""
"","S2","","html-keyboard-response","403","340991","0.0-1.0-553.0","0","0","45645","","null","","","null","61","","NaN","","","","","","","","","","","","","",""
"","response","","html-keyboard-response","404","341494","0.0-1.0-554.0-0.0","0","0","45645","","500","","","68","61","","","2","61","training","adjacent","DC","4","3","L.jpg","R.jpg","0","0","1","",""
"","feedback","","html-keyboard-response","405","342501","0.0-1.0-555.0-0.0","0","0","45645","","null","","","null","61","","","","","","","","","","","","","","","",""
"","ITI","","html-keyboard-response","406","343509","0.0-1.0-558.0","0","0","45645","","null","","","null","61","","","","","","","","","","","","","","","NaN",""
"","S1","","html-keyboard-response","407","343765","0.0-1.0-560.0","0","0","45645","","null","","","null","62","","","","","","","","","","","","","","","",""
"","ISI","","html-keyboard-response","408","343920","0.0-1.0-561.0","0","0","45645","","null","","","null","62","NaN","","","","","","","","","","","","","","",""
"","S2","","html-keyboard-response","409","344181","0.0-1.0-562.0","0","0","45645","","null","","","null","62","","NaN","","","","","","","","","","","","","",""
"","response","","html-keyboard-response","410","344543","0.0-1.0-563.0-0.0","0","0","45645","","356","","","75","62","","","2","62","training","adjacent","FG","6","7","N.jpg","Q.jpg","1","1","1","",""
"","feedback","","html-keyboard-response","411","345549","0.0-1.0-564.0-0.0","0","0","45645","","null","","","null","62","","","","","","","","","","","","","","","",""
"","ITI","","html-keyboard-response","412","346554","0.0-1.0-567.0","0","0","45645","","null","","","null","62","","","","","","","","","","","","","","","NaN",""
"","S1","","html-keyboard-response","413","346811","0.0-1.0-569.0","0","0","45645","","null","","","null","63","","","","","","","","","","","","","","","",""
"","ISI","","html-keyboard-response","414","346971","0.0-1.0-570.0","0","0","45645","","null","","","null","63","NaN","","","","","","","","","","","","","","",""
"","S2","","html-keyboard-response","415","347227","0.0-1.0-571.0","0","0","45645","","null","","","null","63","","NaN","","","","","","","","","","","","","",""
"","response","","html-keyboard-response","416","347897","0.0-1.0-572.0-0.0","0","0","45645","","665","","","68","63","","","2","63","training","adjacent","CD","3","4","R.jpg","L.jpg","0","1","0","",""
"","feedback","","html-keyboard-response","417","348907","0.0-1.0-573.0-0.0","0","0","45645","","null","","","null","63","","","","","","","","","","","","","","","",""
"","time_out","","html-keyboard-response","418","350912","0.0-1.0-575.0-0.0","0","0","45645","","null","","","null","63","","","","","","","","","","","","","","","",""
"","ITI","","html-keyboard-response","419","351920","0.0-1.0-576.0","0","0","45645","","null","","","null","63","","","","","","","","","","","","","","","NaN",""
"","S1","","html-keyboard-response","420","352176","0.0-1.0-578.0","0","0","45645","","null","","","null","64","","","","","","","","","","","","","","","",""
"","ISI","","html-keyboard-response","421","352336","0.0-1.0-579.0","0","0","45645","","null","","","null","64","NaN","","","","","","","","","","","","","","",""
"","S2","","html-keyboard-response","422","352589","0.0-1.0-580.0","0","0","45645","","null","","","null","64","","NaN","","","","","","","","","","","","","",""
"","response","","html-keyboard-response","423","353500","0.0-1.0-581.0-0.0","0","0","45645","","909","","","68","64","","","2","64","training","adjacent","AB","1","2","O.jpg","P.jpg","0","1","0","",""
"","feedback","","html-keyboard-response","424","354507","0.0-1.0-582.0-0.0","0","0","45645","","null","","","null","64","","","","","","","","","","","","","","","",""
"","time_out","","html-keyboard-response","425","356512","0.0-1.0-584.0-0.0","0","0","45645","","null","","","null","64","","","","","","","","","","","","","","","",""
"","ITI","","html-keyboard-response","426","357517","0.0-1.0-585.0","0","0","45645","","null","","","null","64","","","","","","","","","","","","","","","NaN",""
"","S1","","html-keyboard-response","427","357776","0.0-1.0-587.0","0","0","45645","","null","","","null","65","","","","","","","","","","","","","","","",""
"","ISI","","html-keyboard-response","428","357931","0.0-1.0-588.0","0","0","45645","","null","","","null","65","NaN","","","","","","","","","","","","","","",""
"","S2","","html-keyboard-response","429","358186","0.0-1.0-589.0","0","0","45645","","null","","","null","65","","NaN","","","","","","","","","","","","","",""
"","response","","html-keyboard-response","430","358824","0.0-1.0-590.0-0.0","0","0","45645","","633","","","68","65","","","2","65","training","adjacent","CD","3","4","R.jpg","L.jpg","0","1","0","",""
"","feedback","","html-keyboard-response","431","359835","0.0-1.0-591.0-0.0","0","0","45645","","null","","","null","65","","","","","","","","","","","","","","","",""
"","time_out","","html-keyboard-response","432","361840","0.0-1.0-593.0-0.0","0","0","45645","","null","","","null","65","","","","","","","","","","","","","","","",""
"","ITI","","html-keyboard-response","433","362848","0.0-1.0-594.0","0","0","45645","","null","","","null","65","","","","","","","","","","","","","","","NaN",""
"","S1","","html-keyboard-response","434","363104","0.0-1.0-596.0","0","0","45645","","null","","","null","66","","","","","","","","","","","","","","","",""
"","ISI","","html-keyboard-response","435","363264","0.0-1.0-597.0","0","0","45645","","null","","","null","66","NaN","","","","","","","","","","","","","","",""
"","S2","","html-keyboard-response","436","363525","0.0-1.0-598.0","0","0","45645","","null","","","null","66","","NaN","","","","","","","","","","","","","",""
"","response","","html-keyboard-response","437","363839","0.0-1.0-599.0-0.0","0","0","45645","","308","","","75","66","","","2","66","training","adjacent","EF","5","6","M.jpg","N.jpg","1","1","1","",""
"","feedback","","html-keyboard-response","438","364844","0.0-1.0-600.0-0.0","0","0","45645","","null","","","null","66","","","","","","","","","","","","","","","",""
"","ITI","","html-keyboard-response","439","365850","0.0-1.0-603.0","0","0","45645","","null","","","null","66","","","","","","","","","","","","","","","NaN",""
"","S1","","html-keyboard-response","440","366109","0.0-1.0-605.0","0","0","45645","","null","","","null","67","","","","","","","","","","","","","","","",""
"","ISI","","html-keyboard-response","441","366267","0.0-1.0-606.0","0","0","45645","","null","","","null","67","NaN","","","","","","","","","","","","","","",""
"","S2","","html-keyboard-response","442","366520","0.0-1.0-607.0","0","0","45645","","null","","","null","67","","NaN","","","","","","","","","","","","","",""
"","response","","html-keyboard-response","443","366894","0.0-1.0-608.0-0.0","0","0","45645","","371","","","68","67","","","2","67","training","adjacent","CB","3","2","R.jpg","P.jpg","0","0","1","",""
"","feedback","","html-keyboard-response","444","367904","0.0-1.0-609.0-0.0","0","0","45645","","null","","","null","67","","","","","","","","","","","","","","","",""
"","ITI","","html-keyboard-response","445","368912","0.0-1.0-612.0","0","0","45645","","null","","","null","67","","","","","","","","","","","","","","","NaN",""
"","S1","","html-keyboard-response","446","369168","0.0-1.0-614.0","0","0","45645","","null","","","null","68","","","","","","","","","","","","","","","",""
"","ISI","","html-keyboard-response","447","369328","0.0-1.0-615.0","0","0","45645","","null","","","null","68","NaN","","","","","","","","","","","","","","",""
"","S2","","html-keyboard-response","448","369584","0.0-1.0-616.0","0","0","45645","","null","","","null","68","","NaN","","","","","","","","","","","","","",""
"","response","","html-keyboard-response","449","370035","0.0-1.0-617.0-0.0","0","0","45645","","445","","","68","68","","","2","68","training","adjacent","BA","2","1","P.jpg","O.jpg","0","0","1","",""
"","feedback","","html-keyboard-response","450","371044","0.0-1.0-618.0-0.0","0","0","45645","","null","","","null","68","","","","","","","","","","","","","","","",""
"","ITI","","html-keyboard-response","451","372053","0.0-1.0-621.0","0","0","45645","","null","","","null","68","","","","","","","","","","","","","","","NaN",""
"","S1","","html-keyboard-response","452","372313","0.0-1.0-623.0","0","0","45645","","null","","","null","69","","","","","","","","","","","","","","","",""
"","ISI","","html-keyboard-response","453","372470","0.0-1.0-624.0","0","0","45645","","null","","","null","69","NaN","","","","","","","","","","","","","","",""
"","S2","","html-keyboard-response","454","372730","0.0-1.0-625.0","0","0","45645","","null","","","null","69","","NaN","","","","","","","","","","","","","",""
"","response","","html-keyboard-response","455","372943","0.0-1.0-626.0-0.0","0","0","45645","","207","","","75","69","","","2","69","training","adjacent","FG","6","7","N.jpg","Q.jpg","1","1","1","",""
"","feedback","","html-keyboard-response","456","373952","0.0-1.0-627.0-0.0","0","0","45645","","null","","","null","69","","","","","","","","","","","","","","","",""
"","ITI","","html-keyboard-response","457","374960","0.0-1.0-630.0","0","0","45645","","null","","","null","69","","","","","","","","","","","","","","","NaN",""
"","S1","","html-keyboard-response","458","375216","0.0-1.0-632.0","0","0","45645","","null","","","null","70","","","","","","","","","","","","","","","",""
"","ISI","","html-keyboard-response","459","375376","0.0-1.0-633.0","0","0","45645","","null","","","null","70","NaN","","","","","","","","","","","","","","",""
"","S2","","html-keyboard-response","460","375632","0.0-1.0-634.0","0","0","45645","","null","","","null","70","","NaN","","","","","","","","","","","","","",""
"","response","","html-keyboard-response","461","376284","0.0-1.0-635.0-0.0","0","0","45645","","647","","","75","70","","","2","70","training","adjacent","CB","3","2","R.jpg","P.jpg","1","0","0","",""
"","feedback","","html-keyboard-response","462","377291","0.0-1.0-636.0-0.0","0","0","45645","","null","","","null","70","","","","","","","","","","","","","","","",""
"","time_out","","html-keyboard-response","463","379297","0.0-1.0-638.0-0.0","0","0","45645","","null","","","null","70","","","","","","","","","","","","","","","",""
"","ITI","","html-keyboard-response","464","380304","0.0-1.0-639.0","0","0","45645","","null","","","null","70","","","","","","","","","","","","","","","NaN",""
"","S1","","html-keyboard-response","465","380557","0.0-1.0-641.0","0","0","45645","","null","","","null","71","","","","","","","","","","","","","","","",""
"","ISI","","html-keyboard-response","466","380714","0.0-1.0-642.0","0","0","45645","","null","","","null","71","NaN","","","","","","","","","","","","","","",""
"","S2","","html-keyboard-response","467","380971","0.0-1.0-643.0","0","0","45645","","null","","","null","71","","NaN","","","","","","","","","","","","","",""
"","response","","html-keyboard-response","468","381587","0.0-1.0-644.0-0.0","0","0","45645","","612","","","75","71","","","2","71","training","adjacent","GF","7","6","Q.jpg","N.jpg","1","0","0","",""
"","feedback","","html-keyboard-response","469","382594","0.0-1.0-645.0-0.0","0","0","45645","","null","","","null","71","","","","","","","","","","","","","","","",""
"","time_out","","html-keyboard-response","470","384600","0.0-1.0-647.0-0.0","0","0","45645","","null","","","null","71","","","","","","","","","","","","","","","",""
"","ITI","","html-keyboard-response","471","385608","0.0-1.0-648.0","0","0","45645","","null","","","null","71","","","","","","","","","","","","","","","NaN",""
"","S1","","html-keyboard-response","472","385867","0.0-1.0-650.0","0","0","45645","","null","","","null","72","","","","","","","","","","","","","","","",""
"","ISI","","html-keyboard-response","473","386027","0.0-1.0-651.0","0","0","45645","","null","","","null","72","NaN","","","","","","","","","","","","","","",""
"","S2","","html-keyboard-response","474","386283","0.0-1.0-652.0","0","0","45645","","null","","","null","72","","NaN","","","","","","","","","","","","","",""
"","response","","html-keyboard-response","475","386500","0.0-1.0-653.0-0.0","0","0","45645","","216","","","75","72","","","2","72","training","adjacent","BA","2","1","P.jpg","O.jpg","1","0","0","",""
"","feedback","","html-keyboard-response","476","387510","0.0-1.0-654.0-0.0","0","0","45645","","null","","","null","72","","","","","","","","","","","","","","","",""
"","time_out","","html-keyboard-response","477","389515","0.0-1.0-656.0-0.0","0","0","45645","","null","","","null","72","","","","","","","","","","","","","","","",""
"","ITI","","html-keyboard-response","478","390520","0.0-1.0-657.0","0","0","45645","","null","","","null","72","","","","","","","","","","","","","","","NaN",""
"","S1","","html-keyboard-response","479","390779","0.0-1.0-659.0","0","0","45645","","null","","","null","73","","","","","","","","","","","","","","","",""
"","ISI","","html-keyboard-response","480","390939","0.0-1.0-660.0","0","0","45645","","null","","","null","73","NaN","","","","","","","","","","","","","","",""
"","S2","","html-keyboard-response","481","391195","0.0-1.0-661.0","0","0","45645","","null","","","null","73","","NaN","","","","","","","","","","","","","",""
"","response","","html-keyboard-response","482","391217","0.0-1.0-662.0-0.0","0","0","45645","","17","","","75","73","","","2","73","training","adjacent","ED","5","4","M.jpg","L.jpg","1","0","0","",""
"","feedback","","html-keyboard-response","483","392224","0.0-1.0-663.0-0.0","0","0","45645","","null","","","null","73","","","","","","","","","","","","","","","",""
"","time_out","","html-keyboard-response","484","394230","0.0-1.0-665.0-0.0","0","0","45645","","null","","","null","73","","","","","","","","","","","","","","","",""
"","ITI","","html-keyboard-response","485","395238","0.0-1.0-666.0","0","0","45645","","null","","","null","73","","","","","","","","","","","","","","","NaN",""
"","S1","","html-keyboard-response","486","395497","0.0-1.0-668.0","0","0","45645","","null","","","null","74","","","","","","","","","","","","","","","",""
"","ISI","","html-keyboard-response","487","395651","0.0-1.0-669.0","0","0","45645","","null","","","null","74","NaN","","","","","","","","","","","","","","",""
"","S2","","html-keyboard-response","488","395910","0.0-1.0-670.0","0","0","45645","","null","","","null","74","","NaN","","","","","","","","","","","","","",""
"","response","","html-keyboard-response","489","396103","0.0-1.0-671.0-0.0","0","0","45645","","189","","","75","74","","","2","74","training","adjacent","DC","4","3","L.jpg","R.jpg","1","0","0","",""
"","feedback","","html-keyboard-response","490","397112","0.0-1.0-672.0-0.0","0","0","45645","","null","","","null","74","","","","","","","","","","","","","","","",""
"","time_out","","html-keyboard-response","491","399120","0.0-1.0-674.0-0.0","0","0","45645","","null","","","null","74","","","","","","","","","","","","","","","",""
"","ITI","","html-keyboard-response","492","400128","0.0-1.0-675.0","0","0","45645","","null","","","null","74","","","","","","","","","","","","","","","NaN",""
"","S1","","html-keyboard-response","493","400386","0.0-1.0-677.0","0","0","45645","","null","","","null","75","","","","","","","","","","","","","","","",""
"","ISI","","html-keyboard-response","494","400541","0.0-1.0-678.0","0","0","45645","","null","","","null","75","NaN","","","","","","","","","","","","","","",""
"","S2","","html-keyboard-response","495","400800","0.0-1.0-679.0","0","0","45645","","null","","","null","75","","NaN","","","","","","","","","","","","","",""
"","response","","html-keyboard-response","496","400893","0.0-1.0-680.0-0.0","0","0","45645","","88","","","75","75","","","2","75","training","adjacent","AB","1","2","O.jpg","P.jpg","1","1","1","",""
"","feedback","","html-keyboard-response","497","401899","0.0-1.0-681.0-0.0","0","0","45645","","null","","","null","75","","","","","","","","","","","","","","","",""
"","ITI","","html-keyboard-response","498","402907","0.0-1.0-684.0","0","0","45645","","null","","","null","75","","","","","","","","","","","","","","","NaN",""
"","S1","","html-keyboard-response","499","403163","0.0-1.0-686.0","0","0","45645","","null","","","null","76","","","","","","","","","","","","","","","",""
"","ISI","","html-keyboard-response","500","403323","0.0-1.0-687.0","0","0","45645","","null","","","null","76","NaN","","","","","","","","","","","","","","",""
"","S2","","html-keyboard-response","501","403580","0.0-1.0-688.0","0","0","45645","","null","","","null","76","","NaN","","","","","","","","","","","","","",""
"","response","","html-keyboard-response","502","403761","0.0-1.0-689.0-0.0","0","0","45645","","177","","","75","76","","","2","76","training","adjacent","BC","2","3","P.jpg","R.jpg","1","1","1","",""
"","feedback","","html-keyboard-response","503","404768","0.0-1.0-690.0-0.0","0","0","45645","","null","","","null","76","","","","","","","","","","","","","","","",""
"","ITI","","html-keyboard-response","504","405776","0.0-1.0-693.0","0","0","45645","","null","","","null","76","","","","","","","","","","","","","","","NaN",""
"","S1","","html-keyboard-response","505","406033","0.0-1.0-695.0","0","0","45645","","null","","","null","77","","","","","","","","","","","","","","","",""
"","ISI","","html-keyboard-response","506","406192","0.0-1.0-696.0","0","0","45645","","null","","","null","77","NaN","","","","","","","","","","","","","","",""
"","S2","","html-keyboard-response","507","406448","0.0-1.0-697.0","0","0","45645","","null","","","null","77","","NaN","","","","","","","","","","","","","",""
"","response","","html-keyboard-response","508","406982","0.0-1.0-698.0-0.0","0","0","45645","","529","","","75","77","","","2","77","training","adjacent","CB","3","2","R.jpg","P.jpg","1","0","0","",""
"","feedback","","html-keyboard-response","509","407989","0.0-1.0-699.0-0.0","0","0","45645","","null","","","null","77","","","","","","","","","","","","","","","",""
"","time_out","","html-keyboard-response","510","409995","0.0-1.0-701.0-0.0","0","0","45645","","null","","","null","77","","","","","","","","","","","","","","","",""
"","ITI","","html-keyboard-response","511","411003","0.0-1.0-702.0","0","0","45645","","null","","","null","77","","","","","","","","","","","","","","","NaN",""
"","S1","","html-keyboard-response","512","411259","0.0-1.0-704.0","0","0","45645","","null","","","null","78","","","","","","","","","","","","","","","",""
"","ISI","","html-keyboard-response","513","411414","0.0-1.0-705.0","0","0","45645","","null","","","null","78","NaN","","","","","","","","","","","","","","",""
"","S2","","html-keyboard-response","514","411670","0.0-1.0-706.0","0","0","45645","","null","","","null","78","","NaN","","","","","","","","","","","","","",""
"","response","","html-keyboard-response","515","411842","0.0-1.0-707.0-0.0","0","0","45645","","167","","","75","78","","","2","78","training","adjacent","BA","2","1","P.jpg","O.jpg","1","0","0","",""
"","feedback","","html-keyboard-response","516","412848","0.0-1.0-708.0-0.0","0","0","45645","","null","","","null","78","","","","","","","","","","","","","","","",""
"","time_out","","html-keyboard-response","517","414854","0.0-1.0-710.0-0.0","0","0","45645","","null","","","null","78","","","","","","","","","","","","","","","",""
"","ITI","","html-keyboard-response","518","415863","0.0-1.0-711.0","0","0","45645","","null","","","null","78","","","","","","","","","","","","","","","NaN",""
"","S1","","html-keyboard-response","519","416123","0.0-1.0-713.0","0","0","45645","","null","","","null","79","","","","","","","","","","","","","","","",""
"","ISI","","html-keyboard-response","520","416279","0.0-1.0-714.0","0","0","45645","","null","","","null","79","NaN","","","","","","","","","","","","","","",""
"","S2","","html-keyboard-response","521","416539","0.0-1.0-715.0","0","0","45645","","null","","","null","79","","NaN","","","","","","","","","","","","","",""
"","response","","html-keyboard-response","522","416716","0.0-1.0-716.0-0.0","0","0","45645","","171","","","75","79","","","2","79","training","adjacent","ED","5","4","M.jpg","L.jpg","1","0","0","",""
"","feedback","","html-keyboard-response","523","417725","0.0-1.0-717.0-0.0","0","0","45645","","null","","","null","79","","","","","","","","","","","","","","","",""
"","time_out","","html-keyboard-response","524","419734","0.0-1.0-719.0-0.0","0","0","45645","","null","","","null","79","","","","","","","","","","","","","","","",""
"","ITI","","html-keyboard-response","525","420742","0.0-1.0-720.0","0","0","45645","","null","","","null","79","","","","","","","","","","","","","","","NaN",""
"","S1","","html-keyboard-response","526","420998","0.0-1.0-722.0","0","0","45645","","null","","","null","80","","","","","","","","","","","","","","","",""
"","ISI","","html-keyboard-response","527","421158","0.0-1.0-723.0","0","0","45645","","null","","","null","80","NaN","","","","","","","","","","","","","","",""
"","S2","","html-keyboard-response","528","421414","0.0-1.0-724.0","0","0","45645","","null","","","null","80","","NaN","","","","","","","","","","","","","",""
"","response","","html-keyboard-response","529","421481","0.0-1.0-725.0-0.0","0","0","45645","","62","","","68","80","","","2","80","training","adjacent","BC","2","3","P.jpg","R.jpg","0","1","0","",""
"","feedback","","html-keyboard-response","530","422491","0.0-1.0-726.0-0.0","0","0","45645","","null","","","null","80","","","","","","","","","","","","","","","",""
"","time_out","","html-keyboard-response","531","424493","0.0-1.0-728.0-0.0","0","0","45645","","null","","","null","80","","","","","","","","","","","","","","","",""
"","ITI","","html-keyboard-response","532","425496","0.0-1.0-729.0","0","0","45645","","null","","","null","80","","","","","","","","","","","","","","","NaN",""
"","S1","","html-keyboard-response","533","425752","0.0-1.0-731.0","0","0","45645","","null","","","null","81","","","","","","","","","","","","","","","",""
"","ISI","","html-keyboard-response","534","425909","0.0-1.0-732.0","0","0","45645","","null","","","null","81","NaN","","","","","","","","","","","","","","",""
"","S2","","html-keyboard-response","535","426166","0.0-1.0-733.0","0","0","45645","","null","","","null","81","","NaN","","","","","","","","","","","","","",""
"","response","","html-keyboard-response","536","426416","0.0-1.0-734.0-0.0","0","0","45645","","245","","","68","81","","","2","81","training","adjacent","CD","3","4","R.jpg","L.jpg","0","1","0","",""
"","feedback","","html-keyboard-response","537","427425","0.0-1.0-735.0-0.0","0","0","45645","","null","","","null","81","","","","","","","","","","","","","","","",""
"","time_out","","html-keyboard-response","538","429432","0.0-1.0-737.0-0.0","0","0","45645","","null","","","null","81","","","","","","","","","","","","","","","",""
"","ITI","","html-keyboard-response","539","430438","0.0-1.0-738.0","0","0","45645","","null","","","null","81","","","","","","","","","","","","","","","NaN",""
"","S1","","html-keyboard-response","540","430691","0.0-1.0-740.0","0","0","45645","","null","","","null","82","","","","","","","","","","","","","","","",""
"","ISI","","html-keyboard-response","541","430848","0.0-1.0-741.0","0","0","45645","","null","","","null","82","NaN","","","","","","","","","","","","","","",""
"","S2","","html-keyboard-response","542","431104","0.0-1.0-742.0","0","0","45645","","null","","","null","82","","NaN","","","","","","","","","","","","","",""
"","response","","html-keyboard-response","543","431328","0.0-1.0-743.0-0.0","0","0","45645","","219","","","68","82","","","2","82","training","adjacent","BC","2","3","P.jpg","R.jpg","0","1","0","",""
"","feedback","","html-keyboard-response","544","432337","0.0-1.0-744.0-0.0","0","0","45645","","null","","","null","82","","","","","","","","","","","","","","","",""
"","time_out","","html-keyboard-response","545","434347","0.0-1.0-746.0-0.0","0","0","45645","","null","","","null","82","","","","","","","","","","","","","","","",""
"","ITI","","html-keyboard-response","546","435355","0.0-1.0-747.0","0","0","45645","","null","","","null","82","","","","","","","","","","","","","","","NaN",""
"","S1","","html-keyboard-response","547","435610","0.0-1.0-749.0","0","0","45645","","null","","","null","83","","","","","","","","","","","","","","","",""
"","ISI","","html-keyboard-response","548","435766","0.0-1.0-750.0","0","0","45645","","null","","","null","83","NaN","","","","","","","","","","","","","","",""
"","S2","","html-keyboard-response","549","436025","0.0-1.0-751.0","0","0","45645","","null","","","null","83","","NaN","","","","","","","","","","","","","",""
"","response","","html-keyboard-response","550","436176","0.0-1.0-752.0-0.0","0","0","45645","","147","","","68","83","","","2","83","training","adjacent","FE","6","5","N.jpg","M.jpg","0","0","1","",""
"","feedback","","html-keyboard-response","551","437184","0.0-1.0-753.0-0.0","0","0","45645","","null","","","null","83","","","","","","","","","","","","","","","",""
"","ITI","","html-keyboard-response","552","438193","0.0-1.0-756.0","0","0","45645","","null","","","null","83","","","","","","","","","","","","","","","NaN",""
"","S1","","html-keyboard-response","553","438448","0.0-1.0-758.0","0","0","45645","","null","","","null","84","","","","","","","","","","","","","","","",""
"","ISI","","html-keyboard-response","554","438603","0.0-1.0-759.0","0","0","45645","","null","","","null","84","NaN","","","","","","","","","","","","","","",""
"","S2","","html-keyboard-response","555","438863","0.0-1.0-760.0","0","0","45645","","null","","","null","84","","NaN","","","","","","","","","","","","","",""
"","response","","html-keyboard-response","556","439056","0.0-1.0-761.0-0.0","0","0","45645","","187","","","68","84","","","2","84","training","adjacent","DE","4","5","L.jpg","M.jpg","0","1","0","",""
"","feedback","","html-keyboard-response","557","440065","0.0-1.0-762.0-0.0","0","0","45645","","null","","","null","84","","","","","","","","","","","","","","","",""
"","time_out","","html-keyboard-response","558","442072","0.0-1.0-764.0-0.0","0","0","45645","","null","","","null","84","","","","","","","","","","","","","","","",""
"","ITI","","html-keyboard-response","559","443078","0.0-1.0-765.0","0","0","45645","","null","","","null","84","","","","","","","","","","","","","","","NaN",""
"","S1","","html-keyboard-response","560","443333","0.0-1.0-767.0","0","0","45645","","null","","","null","85","","","","","","","","","","","","","","","",""
"","ISI","","html-keyboard-response","561","443489","0.0-1.0-768.0","0","0","45645","","null","","","null","85","NaN","","","","","","","","","","","","","","",""
"","S2","","html-keyboard-response","562","443747","0.0-1.0-769.0","0","0","45645","","null","","","null","85","","NaN","","","","","","","","","","","","","",""
"","response","","html-keyboard-response","563","443923","0.0-1.0-770.0-0.0","0","0","45645","","172","","","68","85","","","2","85","training","adjacent","FE","6","5","N.jpg","M.jpg","0","0","1","",""
"","feedback","","html-keyboard-response","564","444934","0.0-1.0-771.0-0.0","0","0","45645","","null","","","null","85","","","","","","","","","","","","","","","",""
"","ITI","","html-keyboard-response","565","445942","0.0-1.0-774.0","0","0","45645","","null","","","null","85","","","","","","","","","","","","","","","NaN",""
"","S1","","html-keyboard-response","566","446198","0.0-1.0-776.0","0","0","45645","","null","","","null","86","","","","","","","","","","","","","","","",""
"","ISI","","html-keyboard-response","567","446358","0.0-1.0-777.0","0","0","45645","","null","","","null","86","NaN","","","","","","","","","","","","","","",""
"","S2","","html-keyboard-response","568","446619","0.0-1.0-778.0","0","0","45645","","null","","","null","86","","NaN","","","","","","","","","","","","","",""
"","response","","html-keyboard-response","569","446766","0.0-1.0-779.0-0.0","0","0","45645","","142","","","68","86","","","2","86","training","adjacent","AB","1","2","O.jpg","P.jpg","0","1","0","",""
"","feedback","","html-keyboard-response","570","447777","0.0-1.0-780.0-0.0","0","0","45645","","null","","","null","86","","","","","","","","","","","","","","","",""
"","time_out","","html-keyboard-response","571","449786","0.0-1.0-782.0-0.0","0","0","45645","","null","","","null","86","","","","","","","","","","","","","","","",""
"","ITI","","html-keyboard-response","572","450796","0.0-1.0-783.0","0","0","45645","","null","","","null","86","","","","","","","","","","","","","","","NaN",""
"","S1","","html-keyboard-response","573","451052","0.0-1.0-785.0","0","0","45645","","null","","","null","87","","","","","","","","","","","","","","","",""
"","ISI","","html-keyboard-response","574","451211","0.0-1.0-786.0","0","0","45645","","null","","","null","87","NaN","","","","","","","","","","","","","","",""
"","S2","","html-keyboard-response","575","451467","0.0-1.0-787.0","0","0","45645","","null","","","null","87","","NaN","","","","","","","","","","","","","",""
"","response","","html-keyboard-response","576","451685","0.0-1.0-788.0-0.0","0","0","45645","","215","","","68","87","","","2","87","training","adjacent","EF","5","6","M.jpg","N.jpg","0","1","0","",""
"","feedback","","html-keyboard-response","577","452691","0.0-1.0-789.0-0.0","0","0","45645","","null","","","null","87","","","","","","","","","","","","","","","",""
"","time_out","","html-keyboard-response","578","454699","0.0-1.0-791.0-0.0","0","0","45645","","null","","","null","87","","","","","","","","","","","","","","","",""
"","ITI","","html-keyboard-response","579","455704","0.0-1.0-792.0","0","0","45645","","null","","","null","87","","","","","","","","","","","","","","","NaN",""
"","S1","","html-keyboard-response","580","455963","0.0-1.0-794.0","0","0","45645","","null","","","null","88","","","","","","","","","","","","","","","",""
"","ISI","","html-keyboard-response","581","456123","0.0-1.0-795.0","0","0","45645","","null","","","null","88","NaN","","","","","","","","","","","","","","",""
