"success","ttype","start_time","trial_type","trial_index","time_elapsed","internal_node_id","warning","missed_checkup","PID","view_history","rt","responses","repeat_instructions","key_press","index","keypress_isi","keypress_S2","block","trial_num","phase","group_type","pair_type","S1_stim","S2_stim","S1_img","S2_img","S1_chosen","S1_higher","accuracy","keypress_iti","total_bonus_tally"
"true","full_screen","d04132023hr1604","fullscreen","0","3333","0.0-0.0","0","0","57277","","","","","","","","","","","","","","","","","","","","","",""
"","instructions","","instructions","1","27112","0.0-1.0-0.0-0.0","0","0","57277","[{""page_index"":0,""viewing_time"":2270},{""page_index"":1,""viewing_time"":14247},{""page_index"":2,""viewing_time"":6247},{""page_index"":3,""viewing_time"":1009}]","23774","","","","","","","","","","","","","","","","","","","",""
"","comprehension_check","","survey-multi-choice","2","48230","0.0-1.0-0.0-1.0","0","0","57277","","21095","{""Q0"":""True"",""Q1"":""K"",""Q2"":""Once the second image appears and while the screen 'MAKE A CHOICE' is shown"",""Q3"":""Green mark"",""Q4"":""either D or K""}","0","","","","","","","","","","","","","","","","","",""
"","start_exp","","html-keyboard-response","3","49586","0.0-1.0-1.0","0","0","57277","","1349","","","32","","","","","","","","","","","","","","","","",""
"","S1","","html-keyboard-response","4","49844","0.0-1.0-2.0","0","0","57277","","null","","","null","0","","","","","","","","","","","","","","","",""
"","ISI","","html-keyboard-response","5","50852","0.0-1.0-3.0","0","0","57277","","null","","","null","0","NaN","","","","","","","","","","","","","","",""
"","S2","","html-keyboard-response","6","51113","0.0-1.0-4.0","0","0","57277","","null","","","null","0","","NaN","","","","","","","","","","","","","",""
"","response","","html-keyboard-response","7","52870","0.0-1.0-5.0-0.0","0","0","57277","","null","","","null","0","","","1","0","training","adjacent","CD","3","4","Q.jpg","L.jpg","NaN","1","0","",""
"","too_slow_prompt","","html-keyboard-response","8","53879","0.0-1.0-7.0-0.0","1","0","57277","","null","","","null","","","","","","","","","","","","","","","","",""
"","time_out","","html-keyboard-response","9","55886","0.0-1.0-8.0-0.0","0","0","57277","","null","","","null","0","","","","","","","","","","","","","","","",""
"","ITI","","html-keyboard-response","10","56890","0.0-1.0-9.0","0","0","57277","","626","","","75","0","","","","","","","","","","","","","","","k",""
"","S1","","html-keyboard-response","11","57146","0.0-1.0-11.0","0","0","57277","","null","","","null","1","","","","","","","","","","","","","","","",""
"","ISI","","html-keyboard-response","12","58151","0.0-1.0-12.0","0","0","57277","","735","","","75","1","k","","","","","","","","","","","","","","",""
"","S2","","html-keyboard-response","13","58411","0.0-1.0-13.0","0","0","57277","","null","","","null","1","","NaN","","","","","","","","","","","","","",""
"","response","","html-keyboard-response","14","58883","0.0-1.0-14.0-0.0","0","0","57277","","466","","","75","1","","","1","1","training","adjacent","FE","6","5","M.jpg","P.jpg","1","0","0","",""
"","feedback","","html-keyboard-response","15","59891","0.0-1.0-15.0-0.0","0","0","57277","","null","","","null","1","","","","","","","","","","","","","","","",""
"","time_out","","html-keyboard-response","16","61900","0.0-1.0-17.0-0.0","0","0","57277","","null","","","null","1","","","","","","","","","","","","","","","",""
"","ITI","","html-keyboard-response","17","62907","0.0-1.0-18.0","0","0","57277","","null","","","null","1","","","","","","","","","","","","","","","NaN",""
"","S1","","html-keyboard-response","18","63165","0.0-1.0-20.0","0","0","57277","","null","","","null","2","","","","","","","","","","","","","","","",""
"","ISI","","html-keyboard-response","19","64172","0.0-1.0-21.0","0","0","57277","","null","","","null","2","NaN","","","","","","","","","","","","","","",""
"","S2","","html-keyboard-response","20","64431","0.0-1.0-22.0","0","0","57277","","null","","","null","2","","NaN","","","","","","","","","","","","","",""
"","response","","html-keyboard-response","21","65240","0.0-1.0-23.0-0.0","0","0","57277","","803","","","75","2","","","1","2","training","adjacent","BA","2","1","R.jpg","N.jpg","1","0","0","",""
"","feedback","","html-keyboard-response","22","66247","0.0-1.0-24.0-0.0","0","0","57277","","null","","","null","2","","","","","","","","","","","","","","","",""
"","time_out","","html-keyboard-response","23","68257","0.0-1.0-26.0-0.0","0","0","57277","","null","","","null","2","","","","","","","","","","","","","","","",""
"","ITI","","html-keyboard-response","24","69264","0.0-1.0-27.0","0","0","57277","","null","","","null","2","","","","","","","","","","","","","","","NaN",""
"","S1","","html-keyboard-response","25","69526","0.0-1.0-29.0","0","0","57277","","null","","","null","3","","","","","","","","","","","","","","","",""
"","ISI","","html-keyboard-response","26","70537","0.0-1.0-30.0","0","0","57277","","null","","","null","3","NaN","","","","","","","","","","","","","","",""
"","S2","","html-keyboard-response","27","70796","0.0-1.0-31.0","0","0","57277","","null","","","null","3","","NaN","","","","","","","","","","","","","",""
"","response","","html-keyboard-response","28","72433","0.0-1.0-32.0-0.0","0","0","57277","","1631","","","75","3","","","1","3","training","adjacent","CB","3","2","Q.jpg","R.jpg","1","0","0","",""
"","feedback","","html-keyboard-response","29","73440","0.0-1.0-33.0-0.0","0","0","57277","","null","","","null","3","","","","","","","","","","","","","","","",""
"","time_out","","html-keyboard-response","30","75447","0.0-1.0-35.0-0.0","0","0","57277","","null","","","null","3","","","","","","","","","","","","","","","",""
"","ITI","","html-keyboard-response","31","76454","0.0-1.0-36.0","0","0","57277","","null","","","null","3","","","","","","","","","","","","","","","NaN",""
"","S1","","html-keyboard-response","32","76712","0.0-1.0-38.0","0","0","57277","","null","","","null","4","","","","","","","","","","","","","","","",""
"","ISI","","html-keyboard-response","33","77719","0.0-1.0-39.0","0","0","57277","","826","","","75","4","k","","","","","","","","","","","","","","",""
"","S2","","html-keyboard-response","34","77978","0.0-1.0-40.0","0","0","57277","","null","","","null","4","","NaN","","","","","","","","","","","","","",""
"","response","","html-keyboard-response","35","79735","0.0-1.0-41.0-0.0","0","0","57277","","null","","","null","4","","","1","4","training","adjacent","EF","5","6","P.jpg","M.jpg","NaN","1","0","",""
"","too_slow_prompt","","html-keyboard-response","36","80742","0.0-1.0-43.0-0.0","1","0","57277","","null","","","null","","","","","","","","","","","","","","","","",""
"","time_out","","html-keyboard-response","37","82749","0.0-1.0-44.0-0.0","0","0","57277","","null","","","null","4","","","","","","","","","","","","","","","",""
"","ITI","","html-keyboard-response","38","83756","0.0-1.0-45.0","0","0","57277","","208","","","68","4","","","","","","","","","","","","","","","d",""
"","S1","","html-keyboard-response","39","84013","0.0-1.0-47.0","0","0","57277","","null","","","null","5","","","","","","","","","","","","","","","",""
"","ISI","","html-keyboard-response","40","85019","0.0-1.0-48.0","0","0","57277","","193","","","68","5","d","","","","","","","","","","","","","","",""
"","S2","","html-keyboard-response","41","85204","0.0-1.0-49.0","0","0","57277","","178","","","68","5","","d","1","5","training","adjacent","EF","5","6","P.jpg","M.jpg","0","1","0","",""
"","feedback","","html-keyboard-response","42","86212","0.0-1.0-51.0-0.0","0","0","57277","","null","","","null","5","","","","","","","","","","","","","","","",""
"","time_out","","html-keyboard-response","43","88218","0.0-1.0-53.0-0.0","0","0","57277","","null","","","null","5","","","","","","","","","","","","","","","",""
"","ITI","","html-keyboard-response","44","89226","0.0-1.0-54.0","0","0","57277","","316","","","75","5","","","","","","","","","","","","","","","k",""
"","S1","","html-keyboard-response","45","89483","0.0-1.0-56.0","0","0","57277","","null","","","null","6","","","","","","","","","","","","","","","",""
"","ISI","","html-keyboard-response","46","90489","0.0-1.0-57.0","0","0","57277","","533","","","68","6","d","","","","","","","","","","","","","","",""
"","S2","","html-keyboard-response","47","90752","0.0-1.0-58.0","0","0","57277","","null","","","null","6","","NaN","","","","","","","","","","","","","",""
"","response","","html-keyboard-response","48","91258","0.0-1.0-59.0-0.0","0","0","57277","","500","","","75","6","","","1","6","training","adjacent","DC","4","3","L.jpg","Q.jpg","1","0","0","",""
"","feedback","","html-keyboard-response","49","92265","0.0-1.0-60.0-0.0","0","0","57277","","null","","","null","6","","","","","","","","","","","","","","","",""
"","time_out","","html-keyboard-response","50","94271","0.0-1.0-62.0-0.0","0","0","57277","","null","","","null","6","","","","","","","","","","","","","","","",""
"","ITI","","html-keyboard-response","51","95278","0.0-1.0-63.0","0","0","57277","","402","","","75","6","","","","","","","","","","","","","","","k",""
"","S1","","html-keyboard-response","52","95537","0.0-1.0-65.0","0","0","57277","","null","","","null","7","","","","","","","","","","","","","","","",""
"","ISI","","html-keyboard-response","53","96543","0.0-1.0-66.0","0","0","57277","","243","","","68","7","d","","","","","","","","","","","","","","",""
"","S2","","html-keyboard-response","54","96613","0.0-1.0-67.0","0","0","57277","","66","","","75","7","","k","1","7","training","adjacent","FG","6","7","M.jpg","O.jpg","1","1","1","",""
"","feedback","","html-keyboard-response","55","97620","0.0-1.0-69.0-0.0","0","0","57277","","null","","","null","7","","","","","","","","","","","","","","","",""
"","ITI","","html-keyboard-response","56","98626","0.0-1.0-72.0","0","0","57277","","62","","","68","7","","","","","","","","","","","","","","","d",""
"","S1","","html-keyboard-response","57","98885","0.0-1.0-74.0","0","0","57277","","null","","","null","8","","","","","","","","","","","","","","","",""
"","ISI","","html-keyboard-response","58","99897","0.0-1.0-75.0","0","0","57277","","147","","","75","8","k","","","","","","","","","","","","","","",""
"","S2","","html-keyboard-response","59","100129","0.0-1.0-76.0","0","0","57277","","225","","","68","8","","d","1","8","training","adjacent","GF","7","6","O.jpg","M.jpg","0","0","1","",""
"","feedback","","html-keyboard-response","60","101137","0.0-1.0-78.0-0.0","0","0","57277","","null","","","null","8","","","","","","","","","","","","","","","",""
"","ITI","","html-keyboard-response","61","102144","0.0-1.0-81.0","0","0","57277","","247","","","75","8","","","","","","","","","","","","","","","k",""
"","S1","","html-keyboard-response","62","102401","0.0-1.0-83.0","0","0","57277","","null","","","null","9","","","","","","","","","","","","","","","",""
"","ISI","","html-keyboard-response","63","103408","0.0-1.0-84.0","0","0","57277","","null","","","null","9","NaN","","","","","","","","","","","","","","",""
"","S2","","html-keyboard-response","64","103666","0.0-1.0-85.0","0","0","57277","","null","","","null","9","","NaN","","","","","","","","","","","","","",""
"","response","","html-keyboard-response","65","104151","0.0-1.0-86.0-0.0","0","0","57277","","480","","","75","9","","","1","9","training","adjacent","ED","5","4","P.jpg","L.jpg","1","0","0","",""
"","feedback","","html-keyboard-response","66","105158","0.0-1.0-87.0-0.0","0","0","57277","","null","","","null","9","","","","","","","","","","","","","","","",""
"","time_out","","html-keyboard-response","67","107169","0.0-1.0-89.0-0.0","0","0","57277","","null","","","null","9","","","","","","","","","","","","","","","",""
"","ITI","","html-keyboard-response","68","108175","0.0-1.0-90.0","0","0","57277","","null","","","null","9","","","","","","","","","","","","","","","NaN",""
"","S1","","html-keyboard-response","69","108432","0.0-1.0-92.0","0","0","57277","","null","","","null","10","","","","","","","","","","","","","","","",""
"","ISI","","html-keyboard-response","70","109439","0.0-1.0-93.0","0","0","57277","","30","","","75","10","k","","","","","","","","","","","","","","",""
"","S2","","html-keyboard-response","71","109698","0.0-1.0-94.0","0","0","57277","","null","","","null","10","","NaN","","","","","","","","","","","","","",""
"","response","","html-keyboard-response","72","110220","0.0-1.0-95.0-0.0","0","0","57277","","516","","","75","10","","","1","10","training","adjacent","BA","2","1","R.jpg","N.jpg","1","0","0","",""
"","feedback","","html-keyboard-response","73","111228","0.0-1.0-96.0-0.0","0","0","57277","","null","","","null","10","","","","","","","","","","","","","","","",""
"","time_out","","html-keyboard-response","74","113235","0.0-1.0-98.0-0.0","0","0","57277","","null","","","null","10","","","","","","","","","","","","","","","",""
"","ITI","","html-keyboard-response","75","114241","0.0-1.0-99.0","0","0","57277","","894","","","68","10","","","","","","","","","","","","","","","d",""
"","S1","","html-keyboard-response","76","114498","0.0-1.0-101.0","0","0","57277","","null","","","null","11","","","","","","","","","","","","","","","",""
"","ISI","","html-keyboard-response","77","115506","0.0-1.0-102.0","0","0","57277","","196","","","68","11","d","","","","","","","","","","","","","","",""
"","S2","","html-keyboard-response","78","115767","0.0-1.0-103.0","0","0","57277","","null","","","null","11","","NaN","","","","","","","","","","","","","",""
"","response","","html-keyboard-response","79","115984","0.0-1.0-104.0-0.0","0","0","57277","","211","","","68","11","","","1","11","training","adjacent","BC","2","3","R.jpg","Q.jpg","0","1","0","",""
"","feedback","","html-keyboard-response","80","116992","0.0-1.0-105.0-0.0","0","0","57277","","null","","","null","11","","","","","","","","","","","","","","","",""
"","time_out","","html-keyboard-response","81","118998","0.0-1.0-107.0-0.0","0","0","57277","","null","","","null","11","","","","","","","","","","","","","","","",""
"","ITI","","html-keyboard-response","82","120005","0.0-1.0-108.0","0","0","57277","","null","","","null","11","","","","","","","","","","","","","","","NaN",""
"","S1","","html-keyboard-response","83","120262","0.0-1.0-110.0","0","0","57277","","null","","","null","12","","","","","","","","","","","","","","","",""
"","ISI","","html-keyboard-response","84","121269","0.0-1.0-111.0","0","0","57277","","null","","","null","12","NaN","","","","","","","","","","","","","","",""
"","S2","","html-keyboard-response","85","121527","0.0-1.0-112.0","0","0","57277","","null","","","null","12","","NaN","","","","","","","","","","","","","",""
"","response","","html-keyboard-response","86","122154","0.0-1.0-113.0-0.0","0","0","57277","","621","","","68","12","","","1","12","training","adjacent","DE","4","5","L.jpg","P.jpg","0","1","0","",""
"","feedback","","html-keyboard-response","87","123161","0.0-1.0-114.0-0.0","0","0","57277","","null","","","null","12","","","","","","","","","","","","","","","",""
"","time_out","","html-keyboard-response","88","125171","0.0-1.0-116.0-0.0","0","0","57277","","null","","","null","12","","","","","","","","","","","","","","","",""
"","ITI","","html-keyboard-response","89","126187","0.0-1.0-117.0","0","0","57277","","null","","","null","12","","","","","","","","","","","","","","","NaN",""
"","S1","","html-keyboard-response","90","126443","0.0-1.0-119.0","0","0","57277","","null","","","null","13","","","","","","","","","","","","","","","",""
"","ISI","","html-keyboard-response","91","127449","0.0-1.0-120.0","0","0","57277","","null","","","null","13","NaN","","","","","","","","","","","","","","",""
"","S2","","html-keyboard-response","92","127707","0.0-1.0-121.0","0","0","57277","","null","","","null","13","","NaN","","","","","","","","","","","","","",""
"","response","","html-keyboard-response","93","128348","0.0-1.0-122.0-0.0","0","0","57277","","635","","","68","13","","","1","13","training","adjacent","DC","4","3","L.jpg","Q.jpg","0","0","1","",""
"","feedback","","html-keyboard-response","94","129356","0.0-1.0-123.0-0.0","0","0","57277","","null","","","null","13","","","","","","","","","","","","","","","",""
"","ITI","","html-keyboard-response","95","130362","0.0-1.0-126.0","0","0","57277","","null","","","null","13","","","","","","","","","","","","","","","NaN",""
"","S1","","html-keyboard-response","96","130620","0.0-1.0-128.0","0","0","57277","","null","","","null","14","","","","","","","","","","","","","","","",""
"","ISI","","html-keyboard-response","97","131626","0.0-1.0-129.0","0","0","57277","","null","","","null","14","NaN","","","","","","","","","","","","","","",""
"","S2","","html-keyboard-response","98","131884","0.0-1.0-130.0","0","0","57277","","null","","","null","14","","NaN","","","","","","","","","","","","","",""
"","response","","html-keyboard-response","99","133641","0.0-1.0-131.0-0.0","0","0","57277","","null","","","null","14","","","1","14","training","adjacent","CB","3","2","Q.jpg","R.jpg","NaN","0","0","",""
"","too_slow_prompt","","html-keyboard-response","100","134650","0.0-1.0-133.0-0.0","1","0","57277","","null","","","null","","","","","","","","","","","","","","","","",""
"","time_out","","html-keyboard-response","101","136657","0.0-1.0-134.0-0.0","0","0","57277","","null","","","null","14","","","","","","","","","","","","","","","",""
"","ITI","","html-keyboard-response","102","137665","0.0-1.0-135.0","0","0","57277","","null","","","null","14","","","","","","","","","","","","","","","NaN",""
"","S1","","html-keyboard-response","103","137922","0.0-1.0-137.0","0","0","57277","","null","","","null","15","","","","","","","","","","","","","","","",""
"","ISI","","html-keyboard-response","104","138928","0.0-1.0-138.0","0","0","57277","","null","","","null","15","NaN","","","","","","","","","","","","","","",""
"","S2","","html-keyboard-response","105","139184","0.0-1.0-139.0","0","0","57277","","null","","","null","15","","NaN","","","","","","","","","","","","","",""
"","response","","html-keyboard-response","106","139446","0.0-1.0-140.0-0.0","0","0","57277","","257","","","68","15","","","1","15","training","adjacent","CD","3","4","Q.jpg","L.jpg","0","1","0","",""
"","feedback","","html-keyboard-response","107","140456","0.0-1.0-141.0-0.0","0","0","57277","","null","","","null","15","","","","","","","","","","","","","","","",""
"","time_out","","html-keyboard-response","108","142461","0.0-1.0-143.0-0.0","0","0","57277","","null","","","null","15","","","","","","","","","","","","","","","",""
"","ITI","","html-keyboard-response","109","143466","0.0-1.0-144.0","0","0","57277","","null","","","null","15","","","","","","","","","","","","","","","NaN",""
"","S1","","html-keyboard-response","110","143722","0.0-1.0-146.0","0","0","57277","","null","","","null","16","","","","","","","","","","","","","","","",""
"","ISI","","html-keyboard-response","111","144728","0.0-1.0-147.0","0","0","57277","","976","","","68","16","d","","","","","","","","","","","","","","",""
"","S2","","html-keyboard-response","112","144985","0.0-1.0-148.0","0","0","57277","","null","","","null","16","","NaN","","","","","","","","","","","","","",""
"","response","","html-keyboard-response","113","146741","0.0-1.0-149.0-0.0","0","0","57277","","null","","","null","16","","","1","16","training","adjacent","DC","4","3","L.jpg","Q.jpg","NaN","0","0","",""
"","too_slow_prompt","","html-keyboard-response","114","147748","0.0-1.0-151.0-0.0","1","0","57277","","null","","","null","","","","","","","","","","","","","","","","",""
"","time_out","","html-keyboard-response","115","149755","0.0-1.0-152.0-0.0","0","0","57277","","null","","","null","16","","","","","","","","","","","","","","","",""
"","ITI","","html-keyboard-response","116","150761","0.0-1.0-153.0","0","0","57277","","null","","","null","16","","","","","","","","","","","","","","","NaN",""
"","S1","","html-keyboard-response","117","151020","0.0-1.0-155.0","0","0","57277","","null","","","null","17","","","","","","","","","","","","","","","",""
"","ISI","","html-keyboard-response","118","152026","0.0-1.0-156.0","0","0","57277","","1","","","68","17","d","","","","","","","","","","","","","","",""
"","S2","","html-keyboard-response","119","152282","0.0-1.0-157.0","0","0","57277","","null","","","null","17","","NaN","","","","","","","","","","","","","",""
"","response","","html-keyboard-response","120","153189","0.0-1.0-158.0-0.0","0","0","57277","","902","","","68","17","","","1","17","training","adjacent","AB","1","2","N.jpg","R.jpg","0","1","0","",""
"","feedback","","html-keyboard-response","121","154357","0.0-1.0-159.0-0.0","0","0","57277","","null","","","null","17","","","","","","","","","","","","","","","",""
"","time_out","","html-keyboard-response","122","156364","0.0-1.0-161.0-0.0","0","0","57277","","null","","","null","17","","","","","","","","","","","","","","","",""
"","ITI","","html-keyboard-response","123","157371","0.0-1.0-162.0","0","0","57277","","null","","","null","17","","","","","","","","","","","","","","","NaN",""
"","S1","","html-keyboard-response","124","157629","0.0-1.0-164.0","0","0","57277","","null","","","null","18","","","","","","","","","","","","","","","",""
"","ISI","","html-keyboard-response","125","158636","0.0-1.0-165.0","0","0","57277","","null","","","null","18","NaN","","","","","","","","","","","","","","",""
"","S2","","html-keyboard-response","126","158843","0.0-1.0-166.0","0","0","57277","","200","","","68","18","","d","1","18","training","adjacent","AB","1","2","N.jpg","R.jpg","0","1","0","",""
"","feedback","","html-keyboard-response","127","159850","0.0-1.0-168.0-0.0","0","0","57277","","null","","","null","18","","","","","","","","","","","","","","","",""
"","time_out","","html-keyboard-response","128","161857","0.0-1.0-170.0-0.0","0","0","57277","","null","","","null","18","","","","","","","","","","","","","","","",""
"","ITI","","html-keyboard-response","129","162863","0.0-1.0-171.0","0","0","57277","","815","","","68","18","","","","","","","","","","","","","","","d",""
"","S1","","html-keyboard-response","130","163123","0.0-1.0-173.0","0","0","57277","","null","","","null","19","","","","","","","","","","","","","","","",""
"","ISI","","html-keyboard-response","131","164130","0.0-1.0-174.0","0","0","57277","","null","","","null","19","NaN","","","","","","","","","","","","","","",""
"","S2","","html-keyboard-response","132","164387","0.0-1.0-175.0","0","0","57277","","null","","","null","19","","NaN","","","","","","","","","","","","","",""
"","response","","html-keyboard-response","133","165886","0.0-1.0-176.0-0.0","0","0","57277","","1493","","","68","19","","","1","19","training","adjacent","FG","6","7","M.jpg","O.jpg","0","1","0","",""
"","feedback","","html-keyboard-response","134","166893","0.0-1.0-177.0-0.0","0","0","57277","","null","","","null","19","","","","","","","","","","","","","","","",""
"","time_out","","html-keyboard-response","135","168900","0.0-1.0-179.0-0.0","0","0","57277","","null","","","null","19","","","","","","","","","","","","","","","",""
"","ITI","","html-keyboard-response","136","169909","0.0-1.0-180.0","0","0","57277","","null","","","null","19","","","","","","","","","","","","","","","NaN",""
"","S1","","html-keyboard-response","137","170166","0.0-1.0-182.0","0","0","57277","","null","","","null","20","","","","","","","","","","","","","","","",""
"","ISI","","html-keyboard-response","138","171172","0.0-1.0-183.0","0","0","57277","","163","","","68","20","d","","","","","","","","","","","","","","",""
"","S2","","html-keyboard-response","139","171429","0.0-1.0-184.0","0","0","57277","","null","","","null","20","","NaN","","","","","","","","","","","","","",""
"","response","","html-keyboard-response","140","173186","0.0-1.0-185.0-0.0","0","0","57277","","null","","","null","20","","","1","20","training","adjacent","EF","5","6","P.jpg","M.jpg","NaN","1","0","",""
"","too_slow_prompt","","html-keyboard-response","141","174194","0.0-1.0-187.0-0.0","1","0","57277","","null","","","null","","","","","","","","","","","","","","","","",""
"","time_out","","html-keyboard-response","142","176200","0.0-1.0-188.0-0.0","0","0","57277","","null","","","null","20","","","","","","","","","","","","","","","",""
"","ITI","","html-keyboard-response","143","177208","0.0-1.0-189.0","0","0","57277","","null","","","null","20","","","","","","","","","","","","","","","NaN",""
"","S1","","html-keyboard-response","144","177465","0.0-1.0-191.0","0","0","57277","","null","","","null","21","","","","","","","","","","","","","","","",""
"","ISI","","html-keyboard-response","145","178471","0.0-1.0-192.0","0","0","57277","","145","","","68","21","d","","","","","","","","","","","","","","",""
"","S2","","html-keyboard-response","146","178728","0.0-1.0-193.0","0","0","57277","","null","","","null","21","","NaN","","","","","","","","","","","","","",""
"","response","","html-keyboard-response","147","180367","0.0-1.0-194.0-0.0","0","0","57277","","1633","","","68","21","","","1","21","training","adjacent","DC","4","3","L.jpg","Q.jpg","0","0","1","",""
"","feedback","","html-keyboard-response","148","181383","0.0-1.0-195.0-0.0","0","0","57277","","null","","","null","21","","","","","","","","","","","","","","","",""
"","ITI","","html-keyboard-response","149","182390","0.0-1.0-198.0","0","0","57277","","null","","","null","21","","","","","","","","","","","","","","","NaN",""
"","S1","","html-keyboard-response","150","182648","0.0-1.0-200.0","0","0","57277","","null","","","null","22","","","","","","","","","","","","","","","",""
"","ISI","","html-keyboard-response","151","183657","0.0-1.0-201.0","0","0","57277","","506","","","68","22","d","","","","","","","","","","","","","","",""
"","S2","","html-keyboard-response","152","183915","0.0-1.0-202.0","0","0","57277","","null","","","null","22","","NaN","","","","","","","","","","","","","",""
"","response","","html-keyboard-response","153","184812","0.0-1.0-203.0-0.0","0","0","57277","","892","","","68","22","","","1","22","training","adjacent","ED","5","4","P.jpg","L.jpg","0","0","1","",""
"","feedback","","html-keyboard-response","154","185818","0.0-1.0-204.0-0.0","0","0","57277","","null","","","null","22","","","","","","","","","","","","","","","",""
"","ITI","","html-keyboard-response","155","186826","0.0-1.0-207.0","0","0","57277","","null","","","null","22","","","","","","","","","","","","","","","NaN",""
"","S1","","html-keyboard-response","156","187083","0.0-1.0-209.0","0","0","57277","","null","","","null","23","","","","","","","","","","","","","","","",""
"","ISI","","html-keyboard-response","157","188091","0.0-1.0-210.0","0","0","57277","","null","","","null","23","NaN","","","","","","","","","","","","","","",""
"","S2","","html-keyboard-response","158","188348","0.0-1.0-211.0","0","0","57277","","null","","","null","23","","NaN","","","","","","","","","","","","","",""
"","response","","html-keyboard-response","159","188733","0.0-1.0-212.0-0.0","0","0","57277","","380","","","68","23","","","1","23","training","adjacent","GF","7","6","O.jpg","M.jpg","0","0","1","",""
"","feedback","","html-keyboard-response","160","189742","0.0-1.0-213.0-0.0","0","0","57277","","null","","","null","23","","","","","","","","","","","","","","","",""
"","ITI","","html-keyboard-response","161","190748","0.0-1.0-216.0","0","0","57277","","832","","","68","23","","","","","","","","","","","","","","","d",""
"","S1","","html-keyboard-response","162","191006","0.0-1.0-218.0","0","0","57277","","null","","","null","24","","","","","","","","","","","","","","","",""
"","ISI","","html-keyboard-response","163","192012","0.0-1.0-219.0","0","0","57277","","524","","","68","24","d","","","","","","","","","","","","","","",""
"","S2","","html-keyboard-response","164","192268","0.0-1.0-220.0","0","0","57277","","null","","","null","24","","NaN","","","","","","","","","","","","","",""
"","response","","html-keyboard-response","165","192789","0.0-1.0-221.0-0.0","0","0","57277","","514","","","68","24","","","1","24","training","adjacent","CB","3","2","Q.jpg","R.jpg","0","0","1","",""
"","feedback","","html-keyboard-response","166","193799","0.0-1.0-222.0-0.0","0","0","57277","","null","","","null","24","","","","","","","","","","","","","","","",""
"","ITI","","html-keyboard-response","167","194806","0.0-1.0-225.0","0","0","57277","","null","","","null","24","","","","","","","","","","","","","","","NaN",""
"","S1","","html-keyboard-response","168","195064","0.0-1.0-227.0","0","0","57277","","null","","","null","25","","","","","","","","","","","","","","","",""
"","ISI","","html-keyboard-response","169","196071","0.0-1.0-228.0","0","0","57277","","151","","","68","25","d","","","","","","","","","","","","","","",""
"","S2","","html-keyboard-response","170","196328","0.0-1.0-229.0","0","0","57277","","null","","","null","25","","NaN","","","","","","","","","","","","","",""
"","response","","html-keyboard-response","171","196551","0.0-1.0-230.0-0.0","0","0","57277","","216","","","68","25","","","1","25","training","adjacent","DE","4","5","L.jpg","P.jpg","0","1","0","",""
"","feedback","","html-keyboard-response","172","197558","0.0-1.0-231.0-0.0","0","0","57277","","null","","","null","25","","","","","","","","","","","","","","","",""
"","time_out","","html-keyboard-response","173","199565","0.0-1.0-233.0-0.0","0","0","57277","","null","","","null","25","","","","","","","","","","","","","","","",""
"","ITI","","html-keyboard-response","174","200573","0.0-1.0-234.0","0","0","57277","","null","","","null","25","","","","","","","","","","","","","","","NaN",""
"","S1","","html-keyboard-response","175","200829","0.0-1.0-236.0","0","0","57277","","null","","","null","26","","","","","","","","","","","","","","","",""
"","ISI","","html-keyboard-response","176","201836","0.0-1.0-237.0","0","0","57277","","113","","","68","26","d","","","","","","","","","","","","","","",""
"","S2","","html-keyboard-response","177","202094","0.0-1.0-238.0","0","0","57277","","null","","","null","26","","NaN","","","","","","","","","","","","","",""
"","response","","html-keyboard-response","178","202910","0.0-1.0-239.0-0.0","0","0","57277","","810","","","68","26","","","1","26","training","adjacent","ED","5","4","P.jpg","L.jpg","0","0","1","",""
"","feedback","","html-keyboard-response","179","203919","0.0-1.0-240.0-0.0","0","0","57277","","null","","","null","26","","","","","","","","","","","","","","","",""
"","ITI","","html-keyboard-response","180","204926","0.0-1.0-243.0","0","0","57277","","null","","","null","26","","","","","","","","","","","","","","","NaN",""
"","S1","","html-keyboard-response","181","205184","0.0-1.0-245.0","0","0","57277","","null","","","null","27","","","","","","","","","","","","","","","",""
"","ISI","","html-keyboard-response","182","206190","0.0-1.0-246.0","0","0","57277","","null","","","null","27","NaN","","","","","","","","","","","","","","",""
"","S2","","html-keyboard-response","183","206448","0.0-1.0-247.0","0","0","57277","","null","","","null","27","","NaN","","","","","","","","","","","","","",""
"","response","","html-keyboard-response","184","208205","0.0-1.0-248.0-0.0","0","0","57277","","null","","","null","27","","","1","27","training","adjacent","BA","2","1","R.jpg","N.jpg","NaN","0","0","",""
"","too_slow_prompt","","html-keyboard-response","185","209211","0.0-1.0-250.0-0.0","1","0","57277","","null","","","null","","","","","","","","","","","","","","","","",""
"","time_out","","html-keyboard-response","186","211219","0.0-1.0-251.0-0.0","0","0","57277","","null","","","null","27","","","","","","","","","","","","","","","",""
"","ITI","","html-keyboard-response","187","212225","0.0-1.0-252.0","0","0","57277","","null","","","null","27","","","","","","","","","","","","","","","NaN",""
"","S1","","html-keyboard-response","188","212482","0.0-1.0-254.0","0","0","57277","","null","","","null","28","","","","","","","","","","","","","","","",""
"","ISI","","html-keyboard-response","189","213488","0.0-1.0-255.0","0","0","57277","","127","","","68","28","d","","","","","","","","","","","","","","",""
"","S2","","html-keyboard-response","190","213746","0.0-1.0-256.0","0","0","57277","","null","","","null","28","","NaN","","","","","","","","","","","","","",""
"","response","","html-keyboard-response","191","215505","0.0-1.0-257.0-0.0","0","0","57277","","null","","","null","28","","","1","28","training","adjacent","GF","7","6","O.jpg","M.jpg","NaN","0","0","",""
"","too_slow_prompt","","html-keyboard-response","192","216512","0.0-1.0-259.0-0.0","1","0","57277","","null","","","null","","","","","","","","","","","","","","","","",""
"","time_out","","html-keyboard-response","193","218520","0.0-1.0-260.0-0.0","0","0","57277","","null","","","null","28","","","","","","","","","","","","","","","",""
"","ITI","","html-keyboard-response","194","219526","0.0-1.0-261.0","0","0","57277","","null","","","null","28","","","","","","","","","","","","","","","NaN",""
"","S1","","html-keyboard-response","195","219784","0.0-1.0-263.0","0","0","57277","","null","","","null","29","","","","","","","","","","","","","","","",""
"","ISI","","html-keyboard-response","196","220790","0.0-1.0-264.0","0","0","57277","","242","","","68","29","d","","","","","","","","","","","","","","",""
"","S2","","html-keyboard-response","197","221048","0.0-1.0-265.0","0","0","57277","","null","","","null","29","","NaN","","","","","","","","","","","","","",""
"","response","","html-keyboard-response","198","221861","0.0-1.0-266.0-0.0","0","0","57277","","807","","","68","29","","","1","29","training","adjacent","FE","6","5","M.jpg","P.jpg","0","0","1","",""
"","feedback","","html-keyboard-response","199","222869","0.0-1.0-267.0-0.0","0","0","57277","","null","","","null","29","","","","","","","","","","","","","","","",""
"","ITI","","html-keyboard-response","200","223875","0.0-1.0-270.0","0","0","57277","","null","","","null","29","","","","","","","","","","","","","","","NaN",""
"","S1","","html-keyboard-response","201","224133","0.0-1.0-272.0","0","0","57277","","null","","","null","30","","","","","","","","","","","","","","","",""
"","ISI","","html-keyboard-response","202","225139","0.0-1.0-273.0","0","0","57277","","null","","","null","30","NaN","","","","","","","","","","","","","","",""
"","S2","","html-keyboard-response","203","225396","0.0-1.0-274.0","0","0","57277","","null","","","null","30","","NaN","","","","","","","","","","","","","",""
"","response","","html-keyboard-response","204","226985","0.0-1.0-275.0-0.0","0","0","57277","","1582","","","68","30","","","1","30","training","adjacent","FE","6","5","M.jpg","P.jpg","0","0","1","",""
"","feedback","","html-keyboard-response","205","227993","0.0-1.0-276.0-0.0","0","0","57277","","null","","","null","30","","","","","","","","","","","","","","","",""
"","ITI","","html-keyboard-response","206","229001","0.0-1.0-279.0","0","0","57277","","null","","","null","30","","","","","","","","","","","","","","","NaN",""
"","S1","","html-keyboard-response","207","229260","0.0-1.0-281.0","0","0","57277","","null","","","null","31","","","","","","","","","","","","","","","",""
"","ISI","","html-keyboard-response","208","230267","0.0-1.0-282.0","0","0","57277","","null","","","null","31","NaN","","","","","","","","","","","","","","",""
"","S2","","html-keyboard-response","209","230525","0.0-1.0-283.0","0","0","57277","","null","","","null","31","","NaN","","","","","","","","","","","","","",""
"","response","","html-keyboard-response","210","231151","0.0-1.0-284.0-0.0","0","0","57277","","621","","","68","31","","","1","31","training","adjacent","CB","3","2","Q.jpg","R.jpg","0","0","1","",""
"","feedback","","html-keyboard-response","211","232159","0.0-1.0-285.0-0.0","0","0","57277","","null","","","null","31","","","","","","","","","","","","","","","",""
"","ITI","","html-keyboard-response","212","233166","0.0-1.0-288.0","0","0","57277","","null","","","null","31","","","","","","","","","","","","","","","NaN",""
"","S1","","html-keyboard-response","213","233423","0.0-1.0-290.0","0","0","57277","","null","","","null","32","","","","","","","","","","","","","","","",""
"","ISI","","html-keyboard-response","214","234429","0.0-1.0-291.0","0","0","57277","","null","","","null","32","NaN","","","","","","","","","","","","","","",""
"","S2","","html-keyboard-response","215","234687","0.0-1.0-292.0","0","0","57277","","null","","","null","32","","NaN","","","","","","","","","","","","","",""
"","response","","html-keyboard-response","216","235108","0.0-1.0-293.0-0.0","0","0","57277","","415","","","68","32","","","1","32","training","adjacent","CD","3","4","Q.jpg","L.jpg","0","1","0","",""
"","feedback","","html-keyboard-response","217","236116","0.0-1.0-294.0-0.0","0","0","57277","","null","","","null","32","","","","","","","","","","","","","","","",""
"","time_out","","html-keyboard-response","218","238122","0.0-1.0-296.0-0.0","0","0","57277","","null","","","null","32","","","","","","","","","","","","","","","",""
"","ITI","","html-keyboard-response","219","239131","0.0-1.0-297.0","0","0","57277","","null","","","null","32","","","","","","","","","","","","","","","NaN",""
"","S1","","html-keyboard-response","220","239388","0.0-1.0-299.0","0","0","57277","","null","","","null","33","","","","","","","","","","","","","","","",""
"","ISI","","html-keyboard-response","221","240396","0.0-1.0-300.0","0","0","57277","","481","","","68","33","d","","","","","","","","","","","","","","",""
"","S2","","html-keyboard-response","222","240653","0.0-1.0-301.0","0","0","57277","","null","","","null","33","","NaN","","","","","","","","","","","","","",""
"","response","","html-keyboard-response","223","241565","0.0-1.0-302.0-0.0","0","0","57277","","905","","","68","33","","","1","33","training","adjacent","BC","2","3","R.jpg","Q.jpg","0","1","0","",""
"","feedback","","html-keyboard-response","224","242572","0.0-1.0-303.0-0.0","0","0","57277","","null","","","null","33","","","","","","","","","","","","","","","",""
"","time_out","","html-keyboard-response","225","244579","0.0-1.0-305.0-0.0","0","0","57277","","null","","","null","33","","","","","","","","","","","","","","","",""
"","ITI","","html-keyboard-response","226","245588","0.0-1.0-306.0","0","0","57277","","null","","","null","33","","","","","","","","","","","","","","","NaN",""
"","S1","","html-keyboard-response","227","245846","0.0-1.0-308.0","0","0","57277","","null","","","null","34","","","","","","","","","","","","","","","",""
"","ISI","","html-keyboard-response","228","246852","0.0-1.0-309.0","0","0","57277","","null","","","null","34","NaN","","","","","","","","","","","","","","",""
"","S2","","html-keyboard-response","229","247112","0.0-1.0-310.0","0","0","57277","","null","","","null","34","","NaN","","","","","","","","","","","","","",""
"","response","","html-keyboard-response","230","247614","0.0-1.0-311.0-0.0","0","0","57277","","495","","","68","34","","","1","34","training","adjacent","FE","6","5","M.jpg","P.jpg","0","0","1","",""
"","feedback","","html-keyboard-response","231","248621","0.0-1.0-312.0-0.0","0","0","57277","","null","","","null","34","","","","","","","","","","","","","","","",""
"","ITI","","html-keyboard-response","232","249628","0.0-1.0-315.0","0","0","57277","","null","","","null","34","","","","","","","","","","","","","","","NaN",""
"","S1","","html-keyboard-response","233","249886","0.0-1.0-317.0","0","0","57277","","null","","","null","35","","","","","","","","","","","","","","","",""
"","ISI","","html-keyboard-response","234","250892","0.0-1.0-318.0","0","0","57277","","null","","","null","35","NaN","","","","","","","","","","","","","","",""
"","S2","","html-keyboard-response","235","251150","0.0-1.0-319.0","0","0","57277","","null","","","null","35","","NaN","","","","","","","","","","","","","",""
"","response","","html-keyboard-response","236","251250","0.0-1.0-320.0-0.0","0","0","57277","","95","","","68","35","","","1","35","training","adjacent","BA","2","1","R.jpg","N.jpg","0","0","1","",""
"","feedback","","html-keyboard-response","237","252258","0.0-1.0-321.0-0.0","0","0","57277","","null","","","null","35","","","","","","","","","","","","","","","",""
"","ITI","","html-keyboard-response","238","253266","0.0-1.0-324.0","0","0","57277","","null","","","null","35","","","","","","","","","","","","","","","NaN",""
"","S1","","html-keyboard-response","239","253529","0.0-1.0-326.0","0","0","57277","","null","","","null","36","","","","","","","","","","","","","","","",""
"","ISI","","html-keyboard-response","240","254541","0.0-1.0-327.0","0","0","57277","","null","","","null","36","NaN","","","","","","","","","","","","","","",""
"","S2","","html-keyboard-response","241","254800","0.0-1.0-328.0","0","0","57277","","null","","","null","36","","NaN","","","","","","","","","","","","","",""
"","response","","html-keyboard-response","242","254833","0.0-1.0-329.0-0.0","0","0","57277","","26","","","68","36","","","1","36","training","adjacent","EF","5","6","P.jpg","M.jpg","0","1","0","",""
"","feedback","","html-keyboard-response","243","255841","0.0-1.0-330.0-0.0","0","0","57277","","null","","","null","36","","","","","","","","","","","","","","","",""
"","time_out","","html-keyboard-response","244","257849","0.0-1.0-332.0-0.0","0","0","57277","","null","","","null","36","","","","","","","","","","","","","","","",""
"","ITI","","html-keyboard-response","245","258856","0.0-1.0-333.0","0","0","57277","","null","","","null","36","","","","","","","","","","","","","","","NaN",""
"","S1","","html-keyboard-response","246","259113","0.0-1.0-335.0","0","0","57277","","null","","","null","37","","","","","","","","","","","","","","","",""
"","ISI","","html-keyboard-response","247","260119","0.0-1.0-336.0","0","0","57277","","162","","","68","37","d","","","","","","","","","","","","","","",""
"","S2","","html-keyboard-response","248","260376","0.0-1.0-337.0","0","0","57277","","null","","","null","37","","NaN","","","","","","","","","","","","","",""
"","response","","html-keyboard-response","249","260466","0.0-1.0-338.0-0.0","0","0","57277","","85","","","68","37","","","1","37","training","adjacent","FG","6","7","M.jpg","O.jpg","0","1","0","",""
"","feedback","","html-keyboard-response","250","261474","0.0-1.0-339.0-0.0","0","0","57277","","null","","","null","37","","","","","","","","","","","","","","","",""
"","time_out","","html-keyboard-response","251","263481","0.0-1.0-341.0-0.0","0","0","57277","","null","","","null","37","","","","","","","","","","","","","","","",""
"","ITI","","html-keyboard-response","252","264488","0.0-1.0-342.0","0","0","57277","","null","","","null","37","","","","","","","","","","","","","","","NaN",""
"","S1","","html-keyboard-response","253","264746","0.0-1.0-344.0","0","0","57277","","null","","","null","38","","","","","","","","","","","","","","","",""
"","ISI","","html-keyboard-response","254","265751","0.0-1.0-345.0","0","0","57277","","336","","","68","38","d","","","","","","","","","","","","","","",""
"","S2","","html-keyboard-response","255","266009","0.0-1.0-346.0","0","0","57277","","null","","","null","38","","NaN","","","","","","","","","","","","","",""
"","response","","html-keyboard-response","256","267767","0.0-1.0-347.0-0.0","0","0","57277","","null","","","null","38","","","1","38","training","adjacent","DE","4","5","L.jpg","P.jpg","NaN","1","0","",""
"","too_slow_prompt","","html-keyboard-response","257","268775","0.0-1.0-349.0-0.0","1","0","57277","","null","","","null","","","","","","","","","","","","","","","","",""
"","time_out","","html-keyboard-response","258","270787","0.0-1.0-350.0-0.0","0","0","57277","","null","","","null","38","","","","","","","","","","","","","","","",""
"","ITI","","html-keyboard-response","259","271795","0.0-1.0-351.0","0","0","57277","","null","","","null","38","","","","","","","","","","","","","","","NaN",""
"","S1","","html-keyboard-response","260","272066","0.0-1.0-353.0","0","0","57277","","null","","","null","39","","","","","","","","","","","","","","","",""
"","ISI","","html-keyboard-response","261","273073","0.0-1.0-354.0","0","0","57277","","153","","","68","39","d","","","","","","","","","","","","","","",""
"","S2","","html-keyboard-response","262","273330","0.0-1.0-355.0","0","0","57277","","null","","","null","39","","NaN","","","","","","","","","","","","","",""
"","response","","html-keyboard-response","263","273464","0.0-1.0-356.0-0.0","0","0","57277","","128","","","68","39","","","1","39","training","adjacent","BC","2","3","R.jpg","Q.jpg","0","1","0","",""
"","feedback","","html-keyboard-response","264","274472","0.0-1.0-357.0-0.0","0","0","57277","","null","","","null","39","","","","","","","","","","","","","","","",""
"","time_out","","html-keyboard-response","265","276480","0.0-1.0-359.0-0.0","0","0","57277","","null","","","null","39","","","","","","","","","","","","","","","",""
"","ITI","","html-keyboard-response","266","277486","0.0-1.0-360.0","0","0","57277","","350","","","68","39","","","","","","","","","","","","","","","d",""
"","S1","","html-keyboard-response","267","277745","0.0-1.0-362.0","0","0","57277","","null","","","null","40","","","","","","","","","","","","","","","",""
"","ISI","","html-keyboard-response","268","278750","0.0-1.0-363.0","0","0","57277","","196","","","68","40","d","","","","","","","","","","","","","","",""
"","S2","","html-keyboard-response","269","278927","0.0-1.0-364.0","0","0","57277","","169","","","68","40","","d","1","40","training","adjacent","CD","3","4","Q.jpg","L.jpg","0","1","0","",""
"","feedback","","html-keyboard-response","270","279935","0.0-1.0-366.0-0.0","0","0","57277","","null","","","null","40","","","","","","","","","","","","","","","",""
"","time_out","","html-keyboard-response","271","281942","0.0-1.0-368.0-0.0","0","0","57277","","null","","","null","40","","","","","","","","","","","","","","","",""
"","ITI","","html-keyboard-response","272","282948","0.0-1.0-369.0","0","0","57277","","null","","","null","40","","","","","","","","","","","","","","","NaN",""
"","S1","","html-keyboard-response","273","283206","0.0-1.0-371.0","0","0","57277","","null","","","null","41","","","","","","","","","","","","","","","",""
"","ISI","","html-keyboard-response","274","284213","0.0-1.0-372.0","0","0","57277","","449","","","68","41","d","","","","","","","","","","","","","","",""
"","S2","","html-keyboard-response","275","284471","0.0-1.0-373.0","0","0","57277","","null","","","null","41","","NaN","","","","","","","","","","","","","",""
"","response","","html-keyboard-response","276","284535","0.0-1.0-374.0-0.0","0","0","57277","","57","","","68","41","","","1","41","training","adjacent","FG","6","7","M.jpg","O.jpg","0","1","0","",""
"","feedback","","html-keyboard-response","277","285543","0.0-1.0-375.0-0.0","0","0","57277","","null","","","null","41","","","","","","","","","","","","","","","",""
"","time_out","","html-keyboard-response","278","287550","0.0-1.0-377.0-0.0","0","0","57277","","null","","","null","41","","","","","","","","","","","","","","","",""
"","ITI","","html-keyboard-response","279","288556","0.0-1.0-378.0","0","0","57277","","null","","","null","41","","","","","","","","","","","","","","","NaN",""
"","S1","","html-keyboard-response","280","288814","0.0-1.0-380.0","0","0","57277","","null","","","null","42","","","","","","","","","","","","","","","",""
"","ISI","","html-keyboard-response","281","289821","0.0-1.0-381.0","0","0","57277","","173","","","68","42","d","","","","","","","","","","","","","","",""
"","S2","","html-keyboard-response","282","290079","0.0-1.0-382.0","0","0","57277","","null","","","null","42","","NaN","","","","","","","","","","","","","",""
"","response","","html-keyboard-response","283","290425","0.0-1.0-383.0-0.0","0","0","57277","","340","","","68","42","","","1","42","training","adjacent","AB","1","2","N.jpg","R.jpg","0","1","0","",""
"","feedback","","html-keyboard-response","284","291432","0.0-1.0-384.0-0.0","0","0","57277","","null","","","null","42","","","","","","","","","","","","","","","",""
"","time_out","","html-keyboard-response","285","293440","0.0-1.0-386.0-0.0","0","0","57277","","null","","","null","42","","","","","","","","","","","","","","","",""
"","ITI","","html-keyboard-response","286","294446","0.0-1.0-387.0","0","0","57277","","null","","","null","42","","","","","","","","","","","","","","","NaN",""
"","S1","","html-keyboard-response","287","294704","0.0-1.0-389.0","0","0","57277","","null","","","null","43","","","","","","","","","","","","","","","",""
"","ISI","","html-keyboard-response","288","295710","0.0-1.0-390.0","0","0","57277","","363","","","68","43","d","","","","","","","","","","","","","","",""
"","S2","","html-keyboard-response","289","295968","0.0-1.0-391.0","0","0","57277","","null","","","null","43","","NaN","","","","","","","","","","","","","",""
"","response","","html-keyboard-response","290","297340","0.0-1.0-392.0-0.0","0","0","57277","","1366","","","68","43","","","1","43","training","adjacent","BC","2","3","R.jpg","Q.jpg","0","1","0","",""
"","feedback","","html-keyboard-response","291","298347","0.0-1.0-393.0-0.0","0","0","57277","","null","","","null","43","","","","","","","","","","","","","","","",""
"","time_out","","html-keyboard-response","292","300356","0.0-1.0-395.0-0.0","0","0","57277","","null","","","null","43","","","","","","","","","","","","","","","",""
"","ITI","","html-keyboard-response","293","301363","0.0-1.0-396.0","0","0","57277","","null","","","null","43","","","","","","","","","","","","","","","NaN",""
"","S1","","html-keyboard-response","294","301620","0.0-1.0-398.0","0","0","57277","","null","","","null","44","","","","","","","","","","","","","","","",""
"","ISI","","html-keyboard-response","295","302626","0.0-1.0-399.0","0","0","57277","","255","","","68","44","d","","","","","","","","","","","","","","",""
"","S2","","html-keyboard-response","296","302884","0.0-1.0-400.0","0","0","57277","","null","","","null","44","","NaN","","","","","","","","","","","","","",""
"","response","","html-keyboard-response","297","304011","0.0-1.0-401.0-0.0","0","0","57277","","1121","","","68","44","","","1","44","training","adjacent","AB","1","2","N.jpg","R.jpg","0","1","0","",""
"","feedback","","html-keyboard-response","298","305019","0.0-1.0-402.0-0.0","0","0","57277","","null","","","null","44","","","","","","","","","","","","","","","",""
"","time_out","","html-keyboard-response","299","307026","0.0-1.0-404.0-0.0","0","0","57277","","null","","","null","44","","","","","","","","","","","","","","","",""
"","ITI","","html-keyboard-response","300","308035","0.0-1.0-405.0","0","0","57277","","null","","","null","44","","","","","","","","","","","","","","","NaN",""
"","S1","","html-keyboard-response","301","308296","0.0-1.0-407.0","0","0","57277","","null","","","null","45","","","","","","","","","","","","","","","",""
"","ISI","","html-keyboard-response","302","309303","0.0-1.0-408.0","0","0","57277","","0","","","68","45","d","","","","","","","","","","","","","","",""
"","S2","","html-keyboard-response","303","309560","0.0-1.0-409.0","0","0","57277","","null","","","null","45","","NaN","","","","","","","","","","","","","",""
"","response","","html-keyboard-response","304","309918","0.0-1.0-410.0-0.0","0","0","57277","","352","","","68","45","","","1","45","training","adjacent","GF","7","6","O.jpg","M.jpg","0","0","1","",""
"","feedback","","html-keyboard-response","305","310926","0.0-1.0-411.0-0.0","0","0","57277","","null","","","null","45","","","","","","","","","","","","","","","",""
"","ITI","","html-keyboard-response","306","311934","0.0-1.0-414.0","0","0","57277","","null","","","null","45","","","","","","","","","","","","","","","NaN",""
"","S1","","html-keyboard-response","307","312192","0.0-1.0-416.0","0","0","57277","","null","","","null","46","","","","","","","","","","","","","","","",""
"","ISI","","html-keyboard-response","308","313200","0.0-1.0-417.0","0","0","57277","","null","","","null","46","NaN","","","","","","","","","","","","","","",""
"","S2","","html-keyboard-response","309","313458","0.0-1.0-418.0","0","0","57277","","null","","","null","46","","NaN","","","","","","","","","","","","","",""
"","response","","html-keyboard-response","310","314025","0.0-1.0-419.0-0.0","0","0","57277","","562","","","68","46","","","1","46","training","adjacent","ED","5","4","P.jpg","L.jpg","0","0","1","",""
"","feedback","","html-keyboard-response","311","315034","0.0-1.0-420.0-0.0","0","0","57277","","null","","","null","46","","","","","","","","","","","","","","","",""
"","ITI","","html-keyboard-response","312","316041","0.0-1.0-423.0","0","0","57277","","null","","","null","46","","","","","","","","","","","","","","","NaN",""
"","S1","","html-keyboard-response","313","316298","0.0-1.0-425.0","0","0","57277","","null","","","null","47","","","","","","","","","","","","","","","",""
"","ISI","","html-keyboard-response","314","317304","0.0-1.0-426.0","0","0","57277","","null","","","null","47","NaN","","","","","","","","","","","","","","",""
"","S2","","html-keyboard-response","315","317557","0.0-1.0-427.0","0","0","57277","","246","","","68","47","","d","1","47","training","adjacent","DE","4","5","L.jpg","P.jpg","0","1","0","",""
"","feedback","","html-keyboard-response","316","318565","0.0-1.0-429.0-0.0","0","0","57277","","null","","","null","47","","","","","","","","","","","","","","","",""
"","time_out","","html-keyboard-response","317","320571","0.0-1.0-431.0-0.0","0","0","57277","","null","","","null","47","","","","","","","","","","","","","","","",""
"","ITI","","html-keyboard-response","318","321578","0.0-1.0-432.0","0","0","57277","","null","","","null","47","","","","","","","","","","","","","","","NaN",""
"","block_over","","html-keyboard-response","319","323685","0.0-1.0-433.0-0.0","0","0","57277","","2098","","","32","47","","","","","","","","","","","","","","","",""
"","S1","","html-keyboard-response","320","323942","0.0-1.0-434.0","0","0","57277","","null","","","null","48","","","","","","","","","","","","","","","",""
"","ISI","","html-keyboard-response","321","324949","0.0-1.0-435.0","0","0","57277","","null","","","null","48","NaN","","","","","","","","","","","","","","",""
"","S2","","html-keyboard-response","322","325206","0.0-1.0-436.0","0","0","57277","","null","","","null","48","","NaN","","","","","","","","","","","","","",""
"","response","","html-keyboard-response","323","326965","0.0-1.0-437.0-0.0","0","0","57277","","null","","","null","48","","","2","48","training","adjacent","ED","5","4","P.jpg","L.jpg","NaN","0","0","",""
"","too_slow_prompt","","html-keyboard-response","324","327972","0.0-1.0-439.0-0.0","1","0","57277","","null","","","null","","","","","","","","","","","","","","","","",""
"","time_out","","html-keyboard-response","325","329979","0.0-1.0-440.0-0.0","0","0","57277","","null","","","null","48","","","","","","","","","","","","","","","",""
"","ITI","","html-keyboard-response","326","330986","0.0-1.0-441.0","0","0","57277","","null","","","null","48","","","","","","","","","","","","","","","NaN",""
"","S1","","html-keyboard-response","327","331244","0.0-1.0-443.0","0","0","57277","","null","","","null","49","","","","","","","","","","","","","","","",""
"","ISI","","html-keyboard-response","328","332251","0.0-1.0-444.0","0","0","57277","","null","","","null","49","NaN","","","","","","","","","","","","","","",""
"","S2","","html-keyboard-response","329","332508","0.0-1.0-445.0","0","0","57277","","null","","","null","49","","NaN","","","","","","","","","","","","","",""
"","response","","html-keyboard-response","330","333076","0.0-1.0-446.0-0.0","0","0","57277","","561","","","68","49","","","2","49","training","adjacent","EF","5","6","P.jpg","M.jpg","0","1","0","",""
"","feedback","","html-keyboard-response","331","334084","0.0-1.0-447.0-0.0","0","0","57277","","null","","","null","49","","","","","","","","","","","","","","","",""
"","time_out","","html-keyboard-response","332","336091","0.0-1.0-449.0-0.0","0","0","57277","","null","","","null","49","","","","","","","","","","","","","","","",""
"","ITI","","html-keyboard-response","333","337097","0.0-1.0-450.0","0","0","57277","","null","","","null","49","","","","","","","","","","","","","","","NaN",""
"","S1","","html-keyboard-response","334","337355","0.0-1.0-452.0","0","0","57277","","null","","","null","50","","","","","","","","","","","","","","","",""
"","ISI","","html-keyboard-response","335","338362","0.0-1.0-453.0","0","0","57277","","null","","","null","50","NaN","","","","","","","","","","","","","","",""
"","S2","","html-keyboard-response","336","338620","0.0-1.0-454.0","0","0","57277","","null","","","null","50","","NaN","","","","","","","","","","","","","",""
"","response","","html-keyboard-response","337","338664","0.0-1.0-455.0-0.0","0","0","57277","","39","","","68","50","","","2","50","training","adjacent","DE","4","5","L.jpg","P.jpg","0","1","0","",""
"","feedback","","html-keyboard-response","338","339673","0.0-1.0-456.0-0.0","0","0","57277","","null","","","null","50","","","","","","","","","","","","","","","",""
"","time_out","","html-keyboard-response","339","341680","0.0-1.0-458.0-0.0","0","0","57277","","null","","","null","50","","","","","","","","","","","","","","","",""
"","ITI","","html-keyboard-response","340","342689","0.0-1.0-459.0","0","0","57277","","null","","","null","50","","","","","","","","","","","","","","","NaN",""
"","S1","","html-keyboard-response","341","342945","0.0-1.0-461.0","0","0","57277","","null","","","null","51","","","","","","","","","","","","","","","",""
"","ISI","","html-keyboard-response","342","343951","0.0-1.0-462.0","0","0","57277","","null","","","null","51","NaN","","","","","","","","","","","","","","",""
"","S2","","html-keyboard-response","343","344210","0.0-1.0-463.0","0","0","57277","","null","","","null","51","","NaN","","","","","","","","","","","","","",""
"","response","","html-keyboard-response","344","345966","0.0-1.0-464.0-0.0","0","0","57277","","1748","","","68","51","","","2","51","training","adjacent","AB","1","2","N.jpg","R.jpg","0","1","0","",""
"","feedback","","html-keyboard-response","345","346974","0.0-1.0-465.0-0.0","0","0","57277","","null","","","null","51","","","","","","","","","","","","","","","",""
"","time_out","","html-keyboard-response","346","348982","0.0-1.0-467.0-0.0","0","0","57277","","null","","","null","51","","","","","","","","","","","","","","","",""
"","ITI","","html-keyboard-response","347","349988","0.0-1.0-468.0","0","0","57277","","null","","","null","51","","","","","","","","","","","","","","","NaN",""
"","S1","","html-keyboard-response","348","350246","0.0-1.0-470.0","0","0","57277","","null","","","null","52","","","","","","","","","","","","","","","",""
"","ISI","","html-keyboard-response","349","351253","0.0-1.0-471.0","0","0","57277","","null","","","null","52","NaN","","","","","","","","","","","","","","",""
"","S2","","html-keyboard-response","350","351511","0.0-1.0-472.0","0","0","57277","","null","","","null","52","","NaN","","","","","","","","","","","","","",""
"","response","","html-keyboard-response","351","351849","0.0-1.0-473.0-0.0","0","0","57277","","331","","","68","52","","","2","52","training","adjacent","ED","5","4","P.jpg","L.jpg","0","0","1","",""
"","feedback","","html-keyboard-response","352","352858","0.0-1.0-474.0-0.0","0","0","57277","","null","","","null","52","","","","","","","","","","","","","","","",""
"","ITI","","html-keyboard-response","353","353866","0.0-1.0-477.0","0","0","57277","","null","","","null","52","","","","","","","","","","","","","","","NaN",""
"","S1","","html-keyboard-response","354","354124","0.0-1.0-479.0","0","0","57277","","null","","","null","53","","","","","","","","","","","","","","","",""
"","ISI","","html-keyboard-response","355","355130","0.0-1.0-480.0","0","0","57277","","null","","","null","53","NaN","","","","","","","","","","","","","","",""
"","S2","","html-keyboard-response","356","355388","0.0-1.0-481.0","0","0","57277","","null","","","null","53","","NaN","","","","","","","","","","","","","",""
"","response","","html-keyboard-response","357","356581","0.0-1.0-482.0-0.0","0","0","57277","","1187","","","68","53","","","2","53","training","adjacent","BC","2","3","R.jpg","Q.jpg","0","1","0","",""
"","feedback","","html-keyboard-response","358","357590","0.0-1.0-483.0-0.0","0","0","57277","","null","","","null","53","","","","","","","","","","","","","","","",""
"","time_out","","html-keyboard-response","359","359597","0.0-1.0-485.0-0.0","0","0","57277","","null","","","null","53","","","","","","","","","","","","","","","",""
"","ITI","","html-keyboard-response","360","360604","0.0-1.0-486.0","0","0","57277","","null","","","null","53","","","","","","","","","","","","","","","NaN",""
"","S1","","html-keyboard-response","361","360861","0.0-1.0-488.0","0","0","57277","","null","","","null","54","","","","","","","","","","","","","","","",""
"","ISI","","html-keyboard-response","362","361868","0.0-1.0-489.0","0","0","57277","","27","","","68","54","d","","","","","","","","","","","","","","",""
"","S2","","html-keyboard-response","363","362125","0.0-1.0-490.0","0","0","57277","","null","","","null","54","","NaN","","","","","","","","","","","","","",""
"","response","","html-keyboard-response","364","362341","0.0-1.0-491.0-0.0","0","0","57277","","211","","","68","54","","","2","54","training","adjacent","BA","2","1","R.jpg","N.jpg","0","0","1","",""
"","feedback","","html-keyboard-response","365","363349","0.0-1.0-492.0-0.0","0","0","57277","","null","","","null","54","","","","","","","","","","","","","","","",""
"","ITI","","html-keyboard-response","366","364357","0.0-1.0-495.0","0","0","57277","","null","","","null","54","","","","","","","","","","","","","","","NaN",""
"","S1","","html-keyboard-response","367","364614","0.0-1.0-497.0","0","0","57277","","null","","","null","55","","","","","","","","","","","","","","","",""
"","ISI","","html-keyboard-response","368","365621","0.0-1.0-498.0","0","0","57277","","355","","","68","55","d","","","","","","","","","","","","","","",""
"","S2","","html-keyboard-response","369","365880","0.0-1.0-499.0","0","0","57277","","null","","","null","55","","NaN","","","","","","","","","","","","","",""
"","response","","html-keyboard-response","370","367145","0.0-1.0-500.0-0.0","0","0","57277","","1259","","","68","55","","","2","55","training","adjacent","CD","3","4","Q.jpg","L.jpg","0","1","0","",""
"","feedback","","html-keyboard-response","371","368153","0.0-1.0-501.0-0.0","0","0","57277","","null","","","null","55","","","","","","","","","","","","","","","",""
"","time_out","","html-keyboard-response","372","370160","0.0-1.0-503.0-0.0","0","0","57277","","null","","","null","55","","","","","","","","","","","","","","","",""
"","ITI","","html-keyboard-response","373","371168","0.0-1.0-504.0","0","0","57277","","null","","","null","55","","","","","","","","","","","","","","","NaN",""
"","S1","","html-keyboard-response","374","371427","0.0-1.0-506.0","0","0","57277","","null","","","null","56","","","","","","","","","","","","","","","",""
"","ISI","","html-keyboard-response","375","372433","0.0-1.0-507.0","0","0","57277","","251","","","68","56","d","","","","","","","","","","","","","","",""
"","S2","","html-keyboard-response","376","372692","0.0-1.0-508.0","0","0","57277","","null","","","null","56","","NaN","","","","","","","","","","","","","",""
"","response","","html-keyboard-response","377","372713","0.0-1.0-509.0-0.0","0","0","57277","","16","","","68","56","","","2","56","training","adjacent","CB","3","2","Q.jpg","R.jpg","0","0","1","",""
"","feedback","","html-keyboard-response","378","373721","0.0-1.0-510.0-0.0","0","0","57277","","null","","","null","56","","","","","","","","","","","","","","","",""
"","ITI","","html-keyboard-response","379","374728","0.0-1.0-513.0","0","0","57277","","null","","","null","56","","","","","","","","","","","","","","","NaN",""
"","S1","","html-keyboard-response","380","374986","0.0-1.0-515.0","0","0","57277","","null","","","null","57","","","","","","","","","","","","","","","",""
"","ISI","","html-keyboard-response","381","375993","0.0-1.0-516.0","0","0","57277","","null","","","null","57","NaN","","","","","","","","","","","","","","",""
"","S2","","html-keyboard-response","382","376251","0.0-1.0-517.0","0","0","57277","","null","","","null","57","","NaN","","","","","","","","","","","","","",""
"","response","","html-keyboard-response","383","376309","0.0-1.0-518.0-0.0","0","0","57277","","52","","","68","57","","","2","57","training","adjacent","FG","6","7","M.jpg","O.jpg","0","1","0","",""
"","feedback","","html-keyboard-response","384","377316","0.0-1.0-519.0-0.0","0","0","57277","","null","","","null","57","","","","","","","","","","","","","","","",""
"","time_out","","html-keyboard-response","385","379325","0.0-1.0-521.0-0.0","0","0","57277","","null","","","null","57","","","","","","","","","","","","","","","",""
"","ITI","","html-keyboard-response","386","380331","0.0-1.0-522.0","0","0","57277","","null","","","null","57","","","","","","","","","","","","","","","NaN",""
"","S1","","html-keyboard-response","387","380588","0.0-1.0-524.0","0","0","57277","","null","","","null","58","","","","","","","","","","","","","","","",""
"","ISI","","html-keyboard-response","388","381595","0.0-1.0-525.0","0","0","57277","","409","","","68","58","d","","","","","","","","","","","","","","",""
"","S2","","html-keyboard-response","389","381855","0.0-1.0-526.0","0","0","57277","","null","","","null","58","","NaN","","","","","","","","","","","","","",""
"","response","","html-keyboard-response","390","382506","0.0-1.0-527.0-0.0","0","0","57277","","645","","","68","58","","","2","58","training","adjacent","AB","1","2","N.jpg","R.jpg","0","1","0","",""
"","feedback","","html-keyboard-response","391","383513","0.0-1.0-528.0-0.0","0","0","57277","","null","","","null","58","","","","","","","","","","","","","","","",""
"","time_out","","html-keyboard-response","392","385521","0.0-1.0-530.0-0.0","0","0","57277","","null","","","null","58","","","","","","","","","","","","","","","",""
"","ITI","","html-keyboard-response","393","386528","0.0-1.0-531.0","0","0","57277","","null","","","null","58","","","","","","","","","","","","","","","NaN",""
"","S1","","html-keyboard-response","394","386786","0.0-1.0-533.0","0","0","57277","","null","","","null","59","","","","","","","","","","","","","","","",""
"","ISI","","html-keyboard-response","395","387792","0.0-1.0-534.0","0","0","57277","","151","","","68","59","d","","","","","","","","","","","","","","",""
"","S2","","html-keyboard-response","396","388052","0.0-1.0-535.0","0","0","57277","","null","","","null","59","","NaN","","","","","","","","","","","","","",""
"","response","","html-keyboard-response","397","389809","0.0-1.0-536.0-0.0","0","0","57277","","null","","","null","59","","","2","59","training","adjacent","BC","2","3","R.jpg","Q.jpg","NaN","1","0","",""
"","too_slow_prompt","","html-keyboard-response","398","390818","0.0-1.0-538.0-0.0","1","0","57277","","null","","","null","","","","","","","","","","","","","","","","",""
"","time_out","","html-keyboard-response","399","392825","0.0-1.0-539.0-0.0","0","0","57277","","null","","","null","59","","","","","","","","","","","","","","","",""
"","ITI","","html-keyboard-response","400","393832","0.0-1.0-540.0","0","0","57277","","null","","","null","59","","","","","","","","","","","","","","","NaN",""
"","S1","","html-keyboard-response","401","394090","0.0-1.0-542.0","0","0","57277","","null","","","null","60","","","","","","","","","","","","","","","",""
"","ISI","","html-keyboard-response","402","395099","0.0-1.0-543.0","0","0","57277","","792","","","68","60","d","","","","","","","","","","","","","","",""
"","S2","","html-keyboard-response","403","395356","0.0-1.0-544.0","0","0","57277","","null","","","null","60","","NaN","","","","","","","","","","","","","",""
"","response","","html-keyboard-response","404","396982","0.0-1.0-545.0-0.0","0","0","57277","","1619","","","68","60","","","2","60","training","adjacent","ED","5","4","P.jpg","L.jpg","0","0","1","",""
"","feedback","","html-keyboard-response","405","397990","0.0-1.0-546.0-0.0","0","0","57277","","null","","","null","60","","","","","","","","","","","","","","","",""
"","ITI","","html-keyboard-response","406","398999","0.0-1.0-549.0","0","0","57277","","null","","","null","60","","","","","","","","","","","","","","","NaN",""
"","S1","","html-keyboard-response","407","399256","0.0-1.0-551.0","0","0","57277","","null","","","null","61","","","","","","","","","","","","","","","",""
"","ISI","","html-keyboard-response","408","400265","0.0-1.0-552.0","0","0","57277","","null","","","null","61","NaN","","","","","","","","","","","","","","",""
"","S2","","html-keyboard-response","409","400522","0.0-1.0-553.0","0","0","57277","","null","","","null","61","","NaN","","","","","","","","","","","","","",""
"","response","","html-keyboard-response","410","400617","0.0-1.0-554.0-0.0","0","0","57277","","88","","","68","61","","","2","61","training","adjacent","EF","5","6","P.jpg","M.jpg","0","1","0","",""
"","feedback","","html-keyboard-response","411","401625","0.0-1.0-555.0-0.0","0","0","57277","","null","","","null","61","","","","","","","","","","","","","","","",""
"","time_out","","html-keyboard-response","412","403632","0.0-1.0-557.0-0.0","0","0","57277","","null","","","null","61","","","","","","","","","","","","","","","",""
"","ITI","","html-keyboard-response","413","404639","0.0-1.0-558.0","0","0","57277","","null","","","null","61","","","","","","","","","","","","","","","NaN",""
"","S1","","html-keyboard-response","414","404897","0.0-1.0-560.0","0","0","57277","","null","","","null","62","","","","","","","","","","","","","","","",""
"","ISI","","html-keyboard-response","415","405903","0.0-1.0-561.0","0","0","57277","","null","","","null","62","NaN","","","","","","","","","","","","","","",""
"","S2","","html-keyboard-response","416","406161","0.0-1.0-562.0","0","0","57277","","null","","","null","62","","NaN","","","","","","","","","","","","","",""
"","response","","html-keyboard-response","417","407330","0.0-1.0-563.0-0.0","0","0","57277","","1162","","","68","62","","","2","62","training","adjacent","DE","4","5","L.jpg","P.jpg","0","1","0","",""
"","feedback","","html-keyboard-response","418","408339","0.0-1.0-564.0-0.0","0","0","57277","","null","","","null","62","","","","","","","","","","","","","","","",""
"","time_out","","html-keyboard-response","419","410347","0.0-1.0-566.0-0.0","0","0","57277","","null","","","null","62","","","","","","","","","","","","","","","",""
"","ITI","","html-keyboard-response","420","411355","0.0-1.0-567.0","0","0","57277","","null","","","null","62","","","","","","","","","","","","","","","NaN",""
"","S1","","html-keyboard-response","421","411613","0.0-1.0-569.0","0","0","57277","","null","","","null","63","","","","","","","","","","","","","","","",""
"","ISI","","html-keyboard-response","422","412620","0.0-1.0-570.0","0","0","57277","","null","","","null","63","NaN","","","","","","","","","","","","","","",""
"","S2","","html-keyboard-response","423","412879","0.0-1.0-571.0","0","0","57277","","null","","","null","63","","NaN","","","","","","","","","","","","","",""
"","response","","html-keyboard-response","424","413470","0.0-1.0-572.0-0.0","0","0","57277","","586","","","68","63","","","2","63","training","adjacent","DC","4","3","L.jpg","Q.jpg","0","0","1","",""
"","feedback","","html-keyboard-response","425","414479","0.0-1.0-573.0-0.0","0","0","57277","","null","","","null","63","","","","","","","","","","","","","","","",""
"","ITI","","html-keyboard-response","426","415487","0.0-1.0-576.0","0","0","57277","","null","","","null","63","","","","","","","","","","","","","","","NaN",""
"","S1","","html-keyboard-response","427","415746","0.0-1.0-578.0","0","0","57277","","null","","","null","64","","","","","","","","","","","","","","","",""
"","ISI","","html-keyboard-response","428","416752","0.0-1.0-579.0","0","0","57277","","null","","","null","64","NaN","","","","","","","","","","","","","","",""
"","S2","","html-keyboard-response","429","417009","0.0-1.0-580.0","0","0","57277","","null","","","null","64","","NaN","","","","","","","","","","","","","",""
"","response","","html-keyboard-response","430","418767","0.0-1.0-581.0-0.0","0","0","57277","","null","","","null","64","","","2","64","training","adjacent","DC","4","3","L.jpg","Q.jpg","NaN","0","0","",""
"","too_slow_prompt","","html-keyboard-response","431","419775","0.0-1.0-583.0-0.0","1","0","57277","","null","","","null","","","","","","","","","","","","","","","","",""
"","time_out","","html-keyboard-response","432","421781","0.0-1.0-584.0-0.0","0","0","57277","","null","","","null","64","","","","","","","","","","","","","","","",""
"","ITI","","html-keyboard-response","433","422789","0.0-1.0-585.0","0","0","57277","","282","","","68","64","","","","","","","","","","","","","","","d",""
"","S1","","html-keyboard-response","434","423046","0.0-1.0-587.0","0","0","57277","","null","","","null","65","","","","","","","","","","","","","","","",""
"","ISI","","html-keyboard-response","435","424052","0.0-1.0-588.0","0","0","57277","","73","","","68","65","d","","","","","","","","","","","","","","",""
"","S2","","html-keyboard-response","436","424311","0.0-1.0-589.0","0","0","57277","","null","","","null","65","","NaN","","","","","","","","","","","","","",""
"","response","","html-keyboard-response","437","426068","0.0-1.0-590.0-0.0","0","0","57277","","null","","","null","65","","","2","65","training","adjacent","BC","2","3","R.jpg","Q.jpg","NaN","1","0","",""
"","too_slow_prompt","","html-keyboard-response","438","427075","0.0-1.0-592.0-0.0","1","0","57277","","null","","","null","","","","","","","","","","","","","","","","",""
"","time_out","","html-keyboard-response","439","429083","0.0-1.0-593.0-0.0","0","0","57277","","null","","","null","65","","","","","","","","","","","","","","","",""
"","ITI","","html-keyboard-response","440","430089","0.0-1.0-594.0","0","0","57277","","null","","","null","65","","","","","","","","","","","","","","","NaN",""
"","S1","","html-keyboard-response","441","430348","0.0-1.0-596.0","0","0","57277","","null","","","null","66","","","","","","","","","","","","","","","",""
"","ISI","","html-keyboard-response","442","431354","0.0-1.0-597.0","0","0","57277","","null","","","null","66","NaN","","","","","","","","","","","","","","",""
"","S2","","html-keyboard-response","443","431612","0.0-1.0-598.0","0","0","57277","","null","","","null","66","","NaN","","","","","","","","","","","","","",""
"","response","","html-keyboard-response","444","433369","0.0-1.0-599.0-0.0","0","0","57277","","null","","","null","66","","","2","66","training","adjacent","CD","3","4","Q.jpg","L.jpg","NaN","1","0","",""
"","too_slow_prompt","","html-keyboard-response","445","434378","0.0-1.0-601.0-0.0","1","0","57277","","null","","","null","","","","","","","","","","","","","","","","",""
"","time_out","","html-keyboard-response","446","436384","0.0-1.0-602.0-0.0","0","0","57277","","null","","","null","66","","","","","","","","","","","","","","","",""
"","ITI","","html-keyboard-response","447","437392","0.0-1.0-603.0","0","0","57277","","845","","","68","66","","","","","","","","","","","","","","","d",""
"","S1","","html-keyboard-response","448","437648","0.0-1.0-605.0","0","0","57277","","null","","","null","67","","","","","","","","","","","","","","","",""
"","ISI","","html-keyboard-response","449","438660","0.0-1.0-606.0","0","0","57277","","467","","","68","67","d","","","","","","","","","","","","","","",""
"","S2","","html-keyboard-response","450","438916","0.0-1.0-607.0","0","0","57277","","null","","","null","67","","NaN","","","","","","","","","","","","","",""
"","response","","html-keyboard-response","451","440672","0.0-1.0-608.0-0.0","0","0","57277","","null","","","null","67","","","2","67","training","adjacent","FG","6","7","M.jpg","O.jpg","NaN","1","0","",""
"","too_slow_prompt","","html-keyboard-response","452","441679","0.0-1.0-610.0-0.0","1","0","57277","","null","","","null","","","","","","","","","","","","","","","","",""
"","time_out","","html-keyboard-response","453","443691","0.0-1.0-611.0-0.0","0","0","57277","","null","","","null","67","","","","","","","","","","","","","","","",""
"","ITI","","html-keyboard-response","454","444713","0.0-1.0-612.0","0","0","57277","","263","","","68","67","","","","","","","","","","","","","","","d",""
"","S1","","html-keyboard-response","455","444971","0.0-1.0-614.0","0","0","57277","","null","","","null","68","","","","","","","","","","","","","","","",""
"","ISI","","html-keyboard-response","456","445978","0.0-1.0-615.0","0","0","57277","","135","","","68","68","d","","","","","","","","","","","","","","",""
"","S2","","html-keyboard-response","457","446237","0.0-1.0-616.0","0","0","57277","","null","","","null","68","","NaN","","","","","","","","","","","","","",""
"","response","","html-keyboard-response","458","446398","0.0-1.0-617.0-0.0","0","0","57277","","155","","","68","68","","","2","68","training","adjacent","FE","6","5","M.jpg","P.jpg","0","0","1","",""
"","feedback","","html-keyboard-response","459","447409","0.0-1.0-618.0-0.0","0","0","57277","","null","","","null","68","","","","","","","","","","","","","","","",""
"","ITI","","html-keyboard-response","460","448417","0.0-1.0-621.0","0","0","57277","","null","","","null","68","","","","","","","","","","","","","","","NaN",""
"","S1","","html-keyboard-response","461","448675","0.0-1.0-623.0","0","0","57277","","null","","","null","69","","","","","","","","","","","","","","","",""
"","ISI","","html-keyboard-response","462","449682","0.0-1.0-624.0","0","0","57277","","null","","","null","69","NaN","","","","","","","","","","","","","","",""
"","S2","","html-keyboard-response","463","449709","0.0-1.0-625.0","0","0","57277","","20","","","68","69","","d","2","69","training","adjacent","AB","1","2","N.jpg","R.jpg","0","1","0","",""
"","feedback","","html-keyboard-response","464","450719","0.0-1.0-627.0-0.0","0","0","57277","","null","","","null","69","","","","","","","","","","","","","","","",""
"","time_out","","html-keyboard-response","465","452726","0.0-1.0-629.0-0.0","0","0","57277","","null","","","null","69","","","","","","","","","","","","","","","",""
"","ITI","","html-keyboard-response","466","453733","0.0-1.0-630.0","0","0","57277","","677","","","68","69","","","","","","","","","","","","","","","d",""
"","S1","","html-keyboard-response","467","453991","0.0-1.0-632.0","0","0","57277","","null","","","null","70","","","","","","","","","","","","","","","",""
"","ISI","","html-keyboard-response","468","454997","0.0-1.0-633.0","0","0","57277","","150","","","68","70","d","","","","","","","","","","","","","","",""
"","S2","","html-keyboard-response","469","455256","0.0-1.0-634.0","0","0","57277","","null","","","null","70","","NaN","","","","","","","","","","","","","",""
"","response","","html-keyboard-response","470","456017","0.0-1.0-635.0-0.0","0","0","57277","","756","","","68","70","","","2","70","training","adjacent","FE","6","5","M.jpg","P.jpg","0","0","1","",""
"","feedback","","html-keyboard-response","471","457024","0.0-1.0-636.0-0.0","0","0","57277","","null","","","null","70","","","","","","","","","","","","","","","",""
"","ITI","","html-keyboard-response","472","458031","0.0-1.0-639.0","0","0","57277","","null","","","null","70","","","","","","","","","","","","","","","NaN",""
"","S1","","html-keyboard-response","473","458289","0.0-1.0-641.0","0","0","57277","","null","","","null","71","","","","","","","","","","","","","","","",""
"","ISI","","html-keyboard-response","474","459296","0.0-1.0-642.0","0","0","57277","","null","","","null","71","NaN","","","","","","","","","","","","","","",""
"","S2","","html-keyboard-response","475","459554","0.0-1.0-643.0","0","0","57277","","null","","","null","71","","NaN","","","","","","","","","","","","","",""
"","response","","html-keyboard-response","476","460007","0.0-1.0-644.0-0.0","0","0","57277","","447","","","68","71","","","2","71","training","adjacent","DE","4","5","L.jpg","P.jpg","0","1","0","",""
"","feedback","","html-keyboard-response","477","461015","0.0-1.0-645.0-0.0","0","0","57277","","null","","","null","71","","","","","","","","","","","","","","","",""
"","time_out","","html-keyboard-response","478","463022","0.0-1.0-647.0-0.0","0","0","57277","","null","","","null","71","","","","","","","","","","","","","","","",""
"","ITI","","html-keyboard-response","479","464028","0.0-1.0-648.0","0","0","57277","","null","","","null","71","","","","","","","","","","","","","","","NaN",""
"","S1","","html-keyboard-response","480","464287","0.0-1.0-650.0","0","0","57277","","null","","","null","72","","","","","","","","","","","","","","","",""
"","ISI","","html-keyboard-response","481","465293","0.0-1.0-651.0","0","0","57277","","null","","","null","72","NaN","","","","","","","","","","","","","","",""
"","S2","","html-keyboard-response","482","465550","0.0-1.0-652.0","0","0","57277","","null","","","null","72","","NaN","","","","","","","","","","","","","",""
"","response","","html-keyboard-response","483","467308","0.0-1.0-653.0-0.0","0","0","57277","","null","","","null","72","","","2","72","training","adjacent","GF","7","6","O.jpg","M.jpg","NaN","0","0","",""
"","too_slow_prompt","","html-keyboard-response","484","468315","0.0-1.0-655.0-0.0","1","0","57277","","null","","","null","","","","","","","","","","","","","","","","",""
"","time_out","","html-keyboard-response","485","470320","0.0-1.0-656.0-0.0","0","0","57277","","null","","","null","72","","","","","","","","","","","","","","","",""
"","ITI","","html-keyboard-response","486","471325","0.0-1.0-657.0","0","0","57277","","3","","","68","72","","","","","","","","","","","","","","","d",""
"","S1","","html-keyboard-response","487","471581","0.0-1.0-659.0","0","0","57277","","null","","","null","73","","","","","","","","","","","","","","","",""
"","ISI","","html-keyboard-response","488","472587","0.0-1.0-660.0","0","0","57277","","null","","","null","73","NaN","","","","","","","","","","","","","","",""
"","S2","","html-keyboard-response","489","472843","0.0-1.0-661.0","0","0","57277","","null","","","null","73","","NaN","","","","","","","","","","","","","",""
"","response","","html-keyboard-response","490","473155","0.0-1.0-662.0-0.0","0","0","57277","","309","","","68","73","","","2","73","training","adjacent","DC","4","3","L.jpg","Q.jpg","0","0","1","",""
"","feedback","","html-keyboard-response","491","474166","0.0-1.0-663.0-0.0","0","0","57277","","null","","","null","73","","","","","","","","","","","","","","","",""
"","ITI","","html-keyboard-response","492","475173","0.0-1.0-666.0","0","0","57277","","null","","","null","73","","","","","","","","","","","","","","","NaN",""
"","S1","","html-keyboard-response","493","475431","0.0-1.0-668.0","0","0","57277","","null","","","null","74","","","","","","","","","","","","","","","",""
"","ISI","","html-keyboard-response","494","476438","0.0-1.0-669.0","0","0","57277","","null","","","null","74","NaN","","","","","","","","","","","","","","",""
"","S2","","html-keyboard-response","495","476696","0.0-1.0-670.0","0","0","57277","","null","","","null","74","","NaN","","","","","","","","","","","","","",""
"","response","","html-keyboard-response","496","476954","0.0-1.0-671.0-0.0","0","0","57277","","250","","","75","74","","","2","74","training","adjacent","DC","4","3","L.jpg","Q.jpg","1","0","0","",""
"","feedback","","html-keyboard-response","497","477962","0.0-1.0-672.0-0.0","0","0","57277","","null","","","null","74","","","","","","","","","","","","","","","",""
"","time_out","","html-keyboard-response","498","479969","0.0-1.0-674.0-0.0","0","0","57277","","null","","","null","74","","","","","","","","","","","","","","","",""
"","ITI","","html-keyboard-response","499","480975","0.0-1.0-675.0","0","0","57277","","null","","","null","74","","","","","","","","","","","","","","","NaN",""
"","S1","","html-keyboard-response","500","481233","0.0-1.0-677.0","0","0","57277","","null","","","null","75","","","","","","","","","","","","","","","",""
"","ISI","","html-keyboard-response","501","482240","0.0-1.0-678.0","0","0","57277","","345","","","68","75","d","","","","","","","","","","","","","","",""
"","S2","","html-keyboard-response","502","482498","0.0-1.0-679.0","0","0","57277","","null","","","null","75","","NaN","","","","","","","","","","","","","",""
"","response","","html-keyboard-response","503","482667","0.0-1.0-680.0-0.0","0","0","57277","","162","","","68","75","","","2","75","training","adjacent","CB","3","2","Q.jpg","R.jpg","0","0","1","",""
"","feedback","","html-keyboard-response","504","483675","0.0-1.0-681.0-0.0","0","0","57277","","null","","","null","75","","","","","","","","","","","","","","","",""
"","ITI","","html-keyboard-response","505","484683","0.0-1.0-684.0","0","0","57277","","null","","","null","75","","","","","","","","","","","","","","","NaN",""
"","S1","","html-keyboard-response","506","484940","0.0-1.0-686.0","0","0","57277","","null","","","null","76","","","","","","","","","","","","","","","",""
"","ISI","","html-keyboard-response","507","485946","0.0-1.0-687.0","0","0","57277","","53","","","68","76","d","","","","","","","","","","","","","","",""
"","S2","","html-keyboard-response","508","486207","0.0-1.0-688.0","0","0","57277","","null","","","null","76","","NaN","","","","","","","","","","","","","",""
"","response","","html-keyboard-response","509","487750","0.0-1.0-689.0-0.0","0","0","57277","","1537","","","68","76","","","2","76","training","adjacent","CD","3","4","Q.jpg","L.jpg","0","1","0","",""
"","feedback","","html-keyboard-response","510","488759","0.0-1.0-690.0-0.0","0","0","57277","","null","","","null","76","","","","","","","","","","","","","","","",""
"","time_out","","html-keyboard-response","511","490766","0.0-1.0-692.0-0.0","0","0","57277","","null","","","null","76","","","","","","","","","","","","","","","",""
"","ITI","","html-keyboard-response","512","491774","0.0-1.0-693.0","0","0","57277","","null","","","null","76","","","","","","","","","","","","","","","NaN",""
"","S1","","html-keyboard-response","513","492032","0.0-1.0-695.0","0","0","57277","","null","","","null","77","","","","","","","","","","","","","","","",""
"","ISI","","html-keyboard-response","514","493039","0.0-1.0-696.0","0","0","57277","","193","","","68","77","d","","","","","","","","","","","","","","",""
"","S2","","html-keyboard-response","515","493299","0.0-1.0-697.0","0","0","57277","","null","","","null","77","","NaN","","","","","","","","","","","","","",""
"","response","","html-keyboard-response","516","493379","0.0-1.0-698.0-0.0","0","0","57277","","73","","","68","77","","","2","77","training","adjacent","BA","2","1","R.jpg","N.jpg","0","0","1","",""
"","feedback","","html-keyboard-response","517","494387","0.0-1.0-699.0-0.0","0","0","57277","","null","","","null","77","","","","","","","","","","","","","","","",""
"","ITI","","html-keyboard-response","518","495396","0.0-1.0-702.0","0","0","57277","","null","","","null","77","","","","","","","","","","","","","","","NaN",""
"","S1","","html-keyboard-response","519","495653","0.0-1.0-704.0","0","0","57277","","null","","","null","78","","","","","","","","","","","","","","","",""
"","ISI","","html-keyboard-response","520","496660","0.0-1.0-705.0","0","0","57277","","239","","","68","78","d","","","","","","","","","","","","","","",""
"","S2","","html-keyboard-response","521","496784","0.0-1.0-706.0","0","0","57277","","116","","","68","78","","d","2","78","training","adjacent","FE","6","5","M.jpg","P.jpg","0","0","1","",""
"","feedback","","html-keyboard-response","522","497794","0.0-1.0-708.0-0.0","0","0","57277","","null","","","null","78","","","","","","","","","","","","","","","",""
"","ITI","","html-keyboard-response","523","498802","0.0-1.0-711.0","0","0","57277","","null","","","null","78","","","","","","","","","","","","","","","NaN",""
"","S1","","html-keyboard-response","524","499060","0.0-1.0-713.0","0","0","57277","","null","","","null","79","","","","","","","","","","","","","","","",""
"","ISI","","html-keyboard-response","525","500067","0.0-1.0-714.0","0","0","57277","","238","","","68","79","d","","","","","","","","","","","","","","",""
"","S2","","html-keyboard-response","526","500326","0.0-1.0-715.0","0","0","57277","","null","","","null","79","","NaN","","","","","","","","","","","","","",""
"","response","","html-keyboard-response","527","500358","0.0-1.0-716.0-0.0","0","0","57277","","27","","","68","79","","","2","79","training","adjacent","GF","7","6","O.jpg","M.jpg","0","0","1","",""
"","feedback","","html-keyboard-response","528","501365","0.0-1.0-717.0-0.0","0","0","57277","","null","","","null","79","","","","","","","","","","","","","","","",""
"","ITI","","html-keyboard-response","529","502373","0.0-1.0-720.0","0","0","57277","","null","","","null","79","","","","","","","","","","","","","","","NaN",""
"","S1","","html-keyboard-response","530","502630","0.0-1.0-722.0","0","0","57277","","null","","","null","80","","","","","","","","","","","","","","","",""
"","ISI","","html-keyboard-response","531","503637","0.0-1.0-723.0","0","0","57277","","336","","","68","80","d","","","","","","","","","","","","","","",""
"","S2","","html-keyboard-response","532","503896","0.0-1.0-724.0","0","0","57277","","null","","","null","80","","NaN","","","","","","","","","","","","","",""
"","response","","html-keyboard-response","533","505445","0.0-1.0-725.0-0.0","0","0","57277","","1543","","","68","80","","","2","80","training","adjacent","GF","7","6","O.jpg","M.jpg","0","0","1","",""
"","feedback","","html-keyboard-response","534","506455","0.0-1.0-726.0-0.0","0","0","57277","","null","","","null","80","","","","","","","","","","","","","","","",""
"","ITI","","html-keyboard-response","535","507464","0.0-1.0-729.0","0","0","57277","","null","","","null","80","","","","","","","","","","","","","","","NaN",""
"","S1","","html-keyboard-response","536","507720","0.0-1.0-731.0","0","0","57277","","null","","","null","81","","","","","","","","","","","","","","","",""
"","ISI","","html-keyboard-response","537","508728","0.0-1.0-732.0","0","0","57277","","null","","","null","81","NaN","","","","","","","","","","","","","","",""
"","S2","","html-keyboard-response","538","508774","0.0-1.0-733.0","0","0","57277","","39","","","68","81","","d","2","81","training","adjacent","BC","2","3","R.jpg","Q.jpg","0","1","0","",""
"","feedback","","html-keyboard-response","539","509785","0.0-1.0-735.0-0.0","0","0","57277","","null","","","null","81","","","","","","","","","","","","","","","",""
"","time_out","","html-keyboard-response","540","511793","0.0-1.0-737.0-0.0","0","0","57277","","null","","","null","81","","","","","","","","","","","","","","","",""
"","ITI","","html-keyboard-response","541","512800","0.0-1.0-738.0","0","0","57277","","389","","","68","81","","","","","","","","","","","","","","","d",""
"","S1","","html-keyboard-response","542","513057","0.0-1.0-740.0","0","0","57277","","null","","","null","82","","","","","","","","","","","","","","","",""
"","ISI","","html-keyboard-response","543","514064","0.0-1.0-741.0","0","0","57277","","null","","","null","82","NaN","","","","","","","","","","","","","","",""
"","S2","","html-keyboard-response","544","514321","0.0-1.0-742.0","0","0","57277","","null","","","null","82","","NaN","","","","","","","","","","","","","",""
"","response","","html-keyboard-response","545","514373","0.0-1.0-743.0-0.0","0","0","57277","","47","","","68","82","","","2","82","training","adjacent","BA","2","1","R.jpg","N.jpg","0","0","1","",""
"","feedback","","html-keyboard-response","546","515381","0.0-1.0-744.0-0.0","0","0","57277","","null","","","null","82","","","","","","","","","","","","","","","",""
"","ITI","","html-keyboard-response","547","516389","0.0-1.0-747.0","0","0","57277","","null","","","null","82","","","","","","","","","","","","","","","NaN",""
"","S1","","html-keyboard-response","548","516647","0.0-1.0-749.0","0","0","57277","","null","","","null","83","","","","","","","","","","","","","","","",""
"","ISI","","html-keyboard-response","549","517654","0.0-1.0-750.0","0","0","57277","","266","","","68","83","d","","","","","","","","","","","","","","",""
"","S2","","html-keyboard-response","550","517912","0.0-1.0-751.0","0","0","57277","","null","","","null","83","","NaN","","","","","","","","","","","","","",""
"","response","","html-keyboard-response","551","519670","0.0-1.0-752.0-0.0","0","0","57277","","null","","","null","83","","","2","83","training","adjacent","DE","4","5","L.jpg","P.jpg","NaN","1","0","",""
"","too_slow_prompt","","html-keyboard-response","552","520678","0.0-1.0-754.0-0.0","1","0","57277","","null","","","null","","","","","","","","","","","","","","","","",""
"","time_out","","html-keyboard-response","553","522685","0.0-1.0-755.0-0.0","0","0","57277","","null","","","null","83","","","","","","","","","","","","","","","",""
"","ITI","","html-keyboard-response","554","523693","0.0-1.0-756.0","0","0","57277","","null","","","null","83","","","","","","","","","","","","","","","NaN",""
"","S1","","html-keyboard-response","555","523950","0.0-1.0-758.0","0","0","57277","","null","","","null","84","","","","","","","","","","","","","","","",""
"","ISI","","html-keyboard-response","556","524958","0.0-1.0-759.0","0","0","57277","","null","","","null","84","NaN","","","","","","","","","","","","","","",""
"","S2","","html-keyboard-response","557","525214","0.0-1.0-760.0","0","0","57277","","null","","","null","84","","NaN","","","","","","","","","","","","","",""
"","response","","html-keyboard-response","558","525432","0.0-1.0-761.0-0.0","0","0","57277","","212","","","68","84","","","2","84","training","adjacent","FG","6","7","M.jpg","O.jpg","0","1","0","",""
"","feedback","","html-keyboard-response","559","526440","0.0-1.0-762.0-0.0","0","0","57277","","null","","","null","84","","","","","","","","","","","","","","","",""
"","time_out","","html-keyboard-response","560","528448","0.0-1.0-764.0-0.0","0","0","57277","","null","","","null","84","","","","","","","","","","","","","","","",""
"","ITI","","html-keyboard-response","561","529455","0.0-1.0-765.0","0","0","57277","","null","","","null","84","","","","","","","","","","","","","","","NaN",""
"","S1","","html-keyboard-response","562","529712","0.0-1.0-767.0","0","0","57277","","null","","","null","85","","","","","","","","","","","","","","","",""
"","ISI","","html-keyboard-response","563","530719","0.0-1.0-768.0","0","0","57277","","null","","","null","85","NaN","","","","","","","","","","","","","","",""
"","S2","","html-keyboard-response","564","530978","0.0-1.0-769.0","0","0","57277","","null","","","null","85","","NaN","","","","","","","","","","","","","",""
"","response","","html-keyboard-response","565","531339","0.0-1.0-770.0-0.0","0","0","57277","","354","","","68","85","","","2","85","training","adjacent","BA","2","1","R.jpg","N.jpg","0","0","1","",""
"","feedback","","html-keyboard-response","566","532347","0.0-1.0-771.0-0.0","0","0","57277","","null","","","null","85","","","","","","","","","","","","","","","",""
"","ITI","","html-keyboard-response","567","533360","0.0-1.0-774.0","0","0","57277","","null","","","null","85","","","","","","","","","","","","","","","NaN",""
"","S1","","html-keyboard-response","568","533618","0.0-1.0-776.0","0","0","57277","","null","","","null","86","","","","","","","","","","","","","","","",""
"","ISI","","html-keyboard-response","569","534625","0.0-1.0-777.0","0","0","57277","","null","","","null","86","NaN","","","","","","","","","","","","","","",""
"","S2","","html-keyboard-response","570","534883","0.0-1.0-778.0","0","0","57277","","null","","","null","86","","NaN","","","","","","","","","","","","","",""
"","response","","html-keyboard-response","571","536640","0.0-1.0-779.0-0.0","0","0","57277","","null","","","null","86","","","2","86","training","adjacent","GF","7","6","O.jpg","M.jpg","NaN","0","0","",""
"","too_slow_prompt","","html-keyboard-response","572","537648","0.0-1.0-781.0-0.0","1","0","57277","","null","","","null","","","","","","","","","","","","","","","","",""
"","time_out","","html-keyboard-response","573","539656","0.0-1.0-782.0-0.0","0","0","57277","","null","","","null","86","","","","","","","","","","","","","","","",""
"","ITI","","html-keyboard-response","574","540663","0.0-1.0-783.0","0","0","57277","","556","","","68","86","","","","","","","","","","","","","","","d",""
"","S1","","html-keyboard-response","575","540921","0.0-1.0-785.0","0","0","57277","","null","","","null","87","","","","","","","","","","","","","","","",""
"","ISI","","html-keyboard-response","576","541927","0.0-1.0-786.0","0","0","57277","","532","","","68","87","d","","","","","","","","","","","","","","",""
"","S2","","html-keyboard-response","577","542186","0.0-1.0-787.0","0","0","57277","","null","","","null","87","","NaN","","","","","","","","","","","","","",""
"","response","","html-keyboard-response","578","542517","0.0-1.0-788.0-0.0","0","0","57277","","324","","","68","87","","","2","87","training","adjacent","EF","5","6","P.jpg","M.jpg","0","1","0","",""
"","feedback","","html-keyboard-response","579","543526","0.0-1.0-789.0-0.0","0","0","57277","","null","","","null","87","","","","","","","","","","","","","","","",""
"","time_out","","html-keyboard-response","580","545536","0.0-1.0-791.0-0.0","0","0","57277","","null","","","null","87","","","","","","","","","","","","","","","",""
"","ITI","","html-keyboard-response","581","546542","0.0-1.0-792.0","0","0","57277","","null","","","null","87","","","","","","","","","","","","","","","NaN",""
"","S1","","html-keyboard-response","582","546800","0.0-1.0-794.0","0","0","57277","","null","","","null","88","","","","","","","","","","","","","","","",""
"","ISI","","html-keyboard-response","583","547808","0.0-1.0-795.0","0","0","57277","","null","","","null","88","NaN","","","","","","","","","","","","","","",""
"","S2","","html-keyboard-response","584","548065","0.0-1.0-796.0","0","0","57277","","null","","","null","88","","NaN","","","","","","","","","","","","","",""
