"success","ttype","start_time","trial_type","trial_index","time_elapsed","internal_node_id","warning","missed_checkup","PID","view_history","rt","responses","repeat_instructions","key_press","index","keypress_isi","keypress_S2","block","trial_num","phase","group_type","pair_type","S1_stim","S2_stim","S1_img","S2_img","S1_chosen","S1_higher","accuracy","keypress_iti","total_bonus_tally"
"true","full_screen","d08042022hr1712","fullscreen","0","7124","0.0-0.0","0","0","83730","","","","","","","","","","","","","","","","","","","","","",""
"","instructions","","instructions","1","25464","0.0-1.0-0.0-0.0","0","0","83730","[{""page_index"":0,""viewing_time"":3599},{""page_index"":1,""viewing_time"":6639},{""page_index"":2,""viewing_time"":6665},{""page_index"":3,""viewing_time"":1434}]","18338","","","","","","","","","","","","","","","","","","","",""
"","comprehension_check","","survey-multi-choice","2","45894","0.0-1.0-0.0-1.0","0","0","83730","","20426","{""Q0"":""True"",""Q1"":""D"",""Q2"":""Only when the screen 'MAKE A CHOICE' is shown"",""Q3"":""Green mark"",""Q4"":""either D or K""}","1","","","","","","","","","","","","","","","","","",""
"","missed_instruction_checkup","","html-keyboard-response","3","48778","0.0-1.0-0.0-2.0-0.0","0","1","83730","","2881","","","32","","","","","","","","","","","","","","","","",""
"","instructions","","instructions","4","59892","0.0-1.0-0.1-0.1","0","0","83730","[{""page_index"":0,""viewing_time"":3379},{""page_index"":1,""viewing_time"":4102},{""page_index"":2,""viewing_time"":2653},{""page_index"":3,""viewing_time"":977}]","11112","","","","","","","","","","","","","","","","","","","",""
"","comprehension_check","","survey-multi-choice","5","82769","0.0-1.0-0.1-1.1","0","0","83730","","22874","{""Q0"":""False"",""Q1"":""D"",""Q2"":""Only when the screen 'MAKE A CHOICE' is shown"",""Q3"":""Green mark"",""Q4"":""either D or K""}","1","","","","","","","","","","","","","","","","","",""
"","missed_instruction_checkup","","html-keyboard-response","6","85205","0.0-1.0-0.1-2.1-0.1","0","1","83730","","2434","","","32","","","","","","","","","","","","","","","","",""
"","instructions","","instructions","7","98152","0.0-1.0-0.2-0.2","0","0","83730","[{""page_index"":0,""viewing_time"":3699},{""page_index"":1,""viewing_time"":2960},{""page_index"":2,""viewing_time"":5173},{""page_index"":3,""viewing_time"":1114}]","12946","","","","","","","","","","","","","","","","","","","",""
"","comprehension_check","","survey-multi-choice","8","111785","0.0-1.0-0.2-1.2","0","0","83730","","13629","{""Q0"":""True"",""Q1"":""K"",""Q2"":""Only when the screen 'MAKE A CHOICE' is shown"",""Q3"":""Green mark"",""Q4"":""either D or K""}","1","","","","","","","","","","","","","","","","","",""
"","missed_instruction_checkup","","html-keyboard-response","9","113568","0.0-1.0-0.2-2.2-0.2","0","1","83730","","1781","","","32","","","","","","","","","","","","","","","","",""
"","instructions","","instructions","10","125779","0.0-1.0-0.3-0.3","0","0","83730","[{""page_index"":0,""viewing_time"":1927},{""page_index"":1,""viewing_time"":5628},{""page_index"":2,""viewing_time"":3783},{""page_index"":3,""viewing_time"":872}]","12210","","","","","","","","","","","","","","","","","","","",""
"","comprehension_check","","survey-multi-choice","11","146505","0.0-1.0-0.3-1.3","0","0","83730","","20721","{""Q0"":""True"",""Q1"":""D"",""Q2"":""Once the second image appears and while the screen 'MAKE A CHOICE' is shown"",""Q3"":""Green mark"",""Q4"":""either D or K""}","0","","","","","","","","","","","","","","","","","",""
"","start_exp","","html-keyboard-response","12","149004","0.0-1.0-1.0","0","0","83730","","2497","","","32","","","","","","","","","","","","","","","","",""
"","S1","","html-keyboard-response","13","149257","0.0-1.0-2.0","0","0","83730","","null","","","null","0","","","","","","","","","","","","","","","",""
"","ISI","","html-keyboard-response","14","151259","0.0-1.0-3.0","0","0","83730","","null","","","null","0","NaN","","","","","","","","","","","","","","",""
"","S2","","html-keyboard-response","15","151511","0.0-1.0-4.0","0","0","83730","","null","","","null","0","","NaN","","","","","","","","","","","","","",""
"","response","","html-keyboard-response","16","152303","0.0-1.0-5.0-0.0","0","0","83730","","790","","","68","0","","","1","0","training","adjacent","CD","3","4","Q.jpg","P.jpg","1","1","1","",""
"","feedback","","html-keyboard-response","17","153305","0.0-1.0-6.0-0.0","0","0","83730","","null","","","null","0","","","","","","","","","","","","","","","",""
"","ITI","","html-keyboard-response","18","154308","0.0-1.0-9.0","0","0","83730","","null","","","null","0","","","","","","","","","","","","","","","NaN",""
"","S1","","html-keyboard-response","19","154561","0.0-1.0-11.0","0","0","83730","","null","","","null","1","","","","","","","","","","","","","","","",""
"","ISI","","html-keyboard-response","20","156562","0.0-1.0-12.0","0","0","83730","","null","","","null","1","NaN","","","","","","","","","","","","","","",""
"","S2","","html-keyboard-response","21","156814","0.0-1.0-13.0","0","0","83730","","null","","","null","1","","NaN","","","","","","","","","","","","","",""
"","response","","html-keyboard-response","22","157314","0.0-1.0-14.0-0.0","0","0","83730","","498","","","68","1","","","1","1","training","adjacent","DC","4","3","P.jpg","Q.jpg","1","0","0","",""
"","feedback","","html-keyboard-response","23","158316","0.0-1.0-15.0-0.0","0","0","83730","","null","","","null","1","","","","","","","","","","","","","","","",""
"","time_out","","html-keyboard-response","24","160318","0.0-1.0-17.0-0.0","0","0","83730","","null","","","null","1","","","","","","","","","","","","","","","",""
"","ITI","","html-keyboard-response","25","161321","0.0-1.0-18.0","0","0","83730","","null","","","null","1","","","","","","","","","","","","","","","NaN",""
"","S1","","html-keyboard-response","26","161573","0.0-1.0-20.0","0","0","83730","","null","","","null","2","","","","","","","","","","","","","","","",""
"","ISI","","html-keyboard-response","27","163575","0.0-1.0-21.0","0","0","83730","","null","","","null","2","NaN","","","","","","","","","","","","","","",""
"","S2","","html-keyboard-response","28","163827","0.0-1.0-22.0","0","0","83730","","null","","","null","2","","NaN","","","","","","","","","","","","","",""
"","response","","html-keyboard-response","29","164318","0.0-1.0-23.0-0.0","0","0","83730","","489","","","75","2","","","1","2","training","adjacent","AB","1","2","M.jpg","L.jpg","0","1","0","",""
"","feedback","","html-keyboard-response","30","165321","0.0-1.0-24.0-0.0","0","0","83730","","null","","","null","2","","","","","","","","","","","","","","","",""
"","time_out","","html-keyboard-response","31","167323","0.0-1.0-26.0-0.0","0","0","83730","","null","","","null","2","","","","","","","","","","","","","","","",""
"","ITI","","html-keyboard-response","32","168325","0.0-1.0-27.0","0","0","83730","","null","","","null","2","","","","","","","","","","","","","","","NaN",""
"","S1","","html-keyboard-response","33","168577","0.0-1.0-29.0","0","0","83730","","null","","","null","3","","","","","","","","","","","","","","","",""
"","ISI","","html-keyboard-response","34","170579","0.0-1.0-30.0","0","0","83730","","null","","","null","3","NaN","","","","","","","","","","","","","","",""
"","S2","","html-keyboard-response","35","170831","0.0-1.0-31.0","0","0","83730","","null","","","null","3","","NaN","","","","","","","","","","","","","",""
"","response","","html-keyboard-response","36","171146","0.0-1.0-32.0-0.0","0","0","83730","","313","","","68","3","","","1","3","training","adjacent","FE","6","5","N.jpg","R.jpg","1","0","0","",""
"","feedback","","html-keyboard-response","37","172149","0.0-1.0-33.0-0.0","0","0","83730","","null","","","null","3","","","","","","","","","","","","","","","",""
"","time_out","","html-keyboard-response","38","174150","0.0-1.0-35.0-0.0","0","0","83730","","null","","","null","3","","","","","","","","","","","","","","","",""
"","ITI","","html-keyboard-response","39","175152","0.0-1.0-36.0","0","0","83730","","null","","","null","3","","","","","","","","","","","","","","","NaN",""
"","S1","","html-keyboard-response","40","175405","0.0-1.0-38.0","0","0","83730","","null","","","null","4","","","","","","","","","","","","","","","",""
"","ISI","","html-keyboard-response","41","177407","0.0-1.0-39.0","0","0","83730","","null","","","null","4","NaN","","","","","","","","","","","","","","",""
"","S2","","html-keyboard-response","42","177660","0.0-1.0-40.0","0","0","83730","","null","","","null","4","","NaN","","","","","","","","","","","","","",""
"","response","","html-keyboard-response","43","178476","0.0-1.0-41.0-0.0","0","0","83730","","815","","","68","4","","","1","4","training","adjacent","CB","3","2","Q.jpg","L.jpg","1","0","0","",""
"","feedback","","html-keyboard-response","44","179477","0.0-1.0-42.0-0.0","0","0","83730","","null","","","null","4","","","","","","","","","","","","","","","",""
"","time_out","","html-keyboard-response","45","181480","0.0-1.0-44.0-0.0","0","0","83730","","null","","","null","4","","","","","","","","","","","","","","","",""
"","ITI","","html-keyboard-response","46","182482","0.0-1.0-45.0","0","0","83730","","null","","","null","4","","","","","","","","","","","","","","","NaN",""
"","S1","","html-keyboard-response","47","182734","0.0-1.0-47.0","0","0","83730","","null","","","null","5","","","","","","","","","","","","","","","",""
"","ISI","","html-keyboard-response","48","184737","0.0-1.0-48.0","0","0","83730","","null","","","null","5","NaN","","","","","","","","","","","","","","",""
"","S2","","html-keyboard-response","49","185002","0.0-1.0-49.0","0","0","83730","","null","","","null","5","","NaN","","","","","","","","","","","","","",""
"","response","","html-keyboard-response","50","186126","0.0-1.0-50.0-0.0","0","0","83730","","1123","","","68","5","","","1","5","training","adjacent","EF","5","6","R.jpg","N.jpg","1","1","1","",""
"","feedback","","html-keyboard-response","51","187127","0.0-1.0-51.0-0.0","0","0","83730","","null","","","null","5","","","","","","","","","","","","","","","",""
"","ITI","","html-keyboard-response","52","188129","0.0-1.0-54.0","0","0","83730","","null","","","null","5","","","","","","","","","","","","","","","NaN",""
"","S1","","html-keyboard-response","53","188381","0.0-1.0-56.0","0","0","83730","","null","","","null","6","","","","","","","","","","","","","","","",""
"","ISI","","html-keyboard-response","54","190384","0.0-1.0-57.0","0","0","83730","","null","","","null","6","NaN","","","","","","","","","","","","","","",""
"","S2","","html-keyboard-response","55","190636","0.0-1.0-58.0","0","0","83730","","null","","","null","6","","NaN","","","","","","","","","","","","","",""
"","response","","html-keyboard-response","56","192388","0.0-1.0-59.0-0.0","0","0","83730","","null","","","null","6","","","1","6","training","adjacent","BA","2","1","L.jpg","M.jpg","NaN","0","0","",""
"","too_slow_prompt","","html-keyboard-response","57","193391","0.0-1.0-61.0-0.0","1","0","83730","","null","","","null","","","","","","","","","","","","","","","","",""
"","time_out","","html-keyboard-response","58","195394","0.0-1.0-62.0-0.0","0","0","83730","","null","","","null","6","","","","","","","","","","","","","","","",""
"","ITI","","html-keyboard-response","59","196395","0.0-1.0-63.0","0","0","83730","","null","","","null","6","","","","","","","","","","","","","","","NaN",""
"","S1","","html-keyboard-response","60","196648","0.0-1.0-65.0","0","0","83730","","null","","","null","7","","","","","","","","","","","","","","","",""
"","ISI","","html-keyboard-response","61","198650","0.0-1.0-66.0","0","0","83730","","null","","","null","7","NaN","","","","","","","","","","","","","","",""
"","S2","","html-keyboard-response","62","198903","0.0-1.0-67.0","0","0","83730","","null","","","null","7","","NaN","","","","","","","","","","","","","",""
"","response","","html-keyboard-response","63","200655","0.0-1.0-68.0-0.0","0","0","83730","","null","","","null","7","","","1","7","training","adjacent","AB","1","2","M.jpg","L.jpg","NaN","1","0","",""
"","too_slow_prompt","","html-keyboard-response","64","201658","0.0-1.0-70.0-0.0","1","0","83730","","null","","","null","","","","","","","","","","","","","","","","",""
"","time_out","","html-keyboard-response","65","203660","0.0-1.0-71.0-0.0","0","0","83730","","null","","","null","7","","","","","","","","","","","","","","","",""
"","ITI","","html-keyboard-response","66","204662","0.0-1.0-72.0","0","0","83730","","null","","","null","7","","","","","","","","","","","","","","","NaN",""
"","S1","","html-keyboard-response","67","204928","0.0-1.0-74.0","0","0","83730","","null","","","null","8","","","","","","","","","","","","","","","",""
"","ISI","","html-keyboard-response","68","206929","0.0-1.0-75.0","0","0","83730","","null","","","null","8","NaN","","","","","","","","","","","","","","",""
"","S2","","html-keyboard-response","69","207182","0.0-1.0-76.0","0","0","83730","","null","","","null","8","","NaN","","","","","","","","","","","","","",""
"","response","","html-keyboard-response","70","208006","0.0-1.0-77.0-0.0","0","0","83730","","822","","","68","8","","","1","8","training","adjacent","BC","2","3","L.jpg","Q.jpg","1","1","1","",""
"","feedback","","html-keyboard-response","71","209010","0.0-1.0-78.0-0.0","0","0","83730","","null","","","null","8","","","","","","","","","","","","","","","",""
"","ITI","","html-keyboard-response","72","210012","0.0-1.0-81.0","0","0","83730","","null","","","null","8","","","","","","","","","","","","","","","NaN",""
"","S1","","html-keyboard-response","73","210273","0.0-1.0-83.0","0","0","83730","","null","","","null","9","","","","","","","","","","","","","","","",""
"","ISI","","html-keyboard-response","74","212275","0.0-1.0-84.0","0","0","83730","","null","","","null","9","NaN","","","","","","","","","","","","","","",""
"","S2","","html-keyboard-response","75","212527","0.0-1.0-85.0","0","0","83730","","null","","","null","9","","NaN","","","","","","","","","","","","","",""
"","response","","html-keyboard-response","76","213008","0.0-1.0-86.0-0.0","0","0","83730","","480","","","68","9","","","1","9","training","adjacent","GF","7","6","O.jpg","N.jpg","1","0","0","",""
"","feedback","","html-keyboard-response","77","214011","0.0-1.0-87.0-0.0","0","0","83730","","null","","","null","9","","","","","","","","","","","","","","","",""
"","time_out","","html-keyboard-response","78","216026","0.0-1.0-89.0-0.0","0","0","83730","","null","","","null","9","","","","","","","","","","","","","","","",""
"","ITI","","html-keyboard-response","79","217028","0.0-1.0-90.0","0","0","83730","","null","","","null","9","","","","","","","","","","","","","","","NaN",""
"","S1","","html-keyboard-response","80","217281","0.0-1.0-92.0","0","0","83730","","null","","","null","10","","","","","","","","","","","","","","","",""
"","ISI","","html-keyboard-response","81","219283","0.0-1.0-93.0","0","0","83730","","null","","","null","10","NaN","","","","","","","","","","","","","","",""
"","S2","","html-keyboard-response","82","219544","0.0-1.0-94.0","0","0","83730","","null","","","null","10","","NaN","","","","","","","","","","","","","",""
"","response","","html-keyboard-response","83","219933","0.0-1.0-95.0-0.0","0","0","83730","","387","","","68","10","","","1","10","training","adjacent","DE","4","5","P.jpg","R.jpg","1","1","1","",""
"","feedback","","html-keyboard-response","84","220936","0.0-1.0-96.0-0.0","0","0","83730","","null","","","null","10","","","","","","","","","","","","","","","",""
"","ITI","","html-keyboard-response","85","221939","0.0-1.0-99.0","0","0","83730","","null","","","null","10","","","","","","","","","","","","","","","NaN",""
"","S1","","html-keyboard-response","86","222190","0.0-1.0-101.0","0","0","83730","","null","","","null","11","","","","","","","","","","","","","","","",""
"","ISI","","html-keyboard-response","87","224194","0.0-1.0-102.0","0","0","83730","","null","","","null","11","NaN","","","","","","","","","","","","","","",""
"","S2","","html-keyboard-response","88","224446","0.0-1.0-103.0","0","0","83730","","null","","","null","11","","NaN","","","","","","","","","","","","","",""
"","response","","html-keyboard-response","89","224914","0.0-1.0-104.0-0.0","0","0","83730","","467","","","68","11","","","1","11","training","adjacent","DE","4","5","P.jpg","R.jpg","1","1","1","",""
"","feedback","","html-keyboard-response","90","225918","0.0-1.0-105.0-0.0","0","0","83730","","null","","","null","11","","","","","","","","","","","","","","","",""
"","ITI","","html-keyboard-response","91","226920","0.0-1.0-108.0","0","0","83730","","null","","","null","11","","","","","","","","","","","","","","","NaN",""
"","S1","","html-keyboard-response","92","227173","0.0-1.0-110.0","0","0","83730","","null","","","null","12","","","","","","","","","","","","","","","",""
"","ISI","","html-keyboard-response","93","229181","0.0-1.0-111.0","0","0","83730","","null","","","null","12","NaN","","","","","","","","","","","","","","",""
"","S2","","html-keyboard-response","94","229433","0.0-1.0-112.0","0","0","83730","","null","","","null","12","","NaN","","","","","","","","","","","","","",""
"","response","","html-keyboard-response","95","229775","0.0-1.0-113.0-0.0","0","0","83730","","340","","","68","12","","","1","12","training","adjacent","GF","7","6","O.jpg","N.jpg","1","0","0","",""
"","feedback","","html-keyboard-response","96","230778","0.0-1.0-114.0-0.0","0","0","83730","","null","","","null","12","","","","","","","","","","","","","","","",""
"","time_out","","html-keyboard-response","97","232780","0.0-1.0-116.0-0.0","0","0","83730","","null","","","null","12","","","","","","","","","","","","","","","",""
"","ITI","","html-keyboard-response","98","233783","0.0-1.0-117.0","0","0","83730","","null","","","null","12","","","","","","","","","","","","","","","NaN",""
"","S1","","html-keyboard-response","99","234035","0.0-1.0-119.0","0","0","83730","","null","","","null","13","","","","","","","","","","","","","","","",""
"","ISI","","html-keyboard-response","100","236037","0.0-1.0-120.0","0","0","83730","","null","","","null","13","NaN","","","","","","","","","","","","","","",""
"","S2","","html-keyboard-response","101","236290","0.0-1.0-121.0","0","0","83730","","null","","","null","13","","NaN","","","","","","","","","","","","","",""
"","response","","html-keyboard-response","102","236720","0.0-1.0-122.0-0.0","0","0","83730","","429","","","68","13","","","1","13","training","adjacent","ED","5","4","R.jpg","P.jpg","1","0","0","",""
"","feedback","","html-keyboard-response","103","237723","0.0-1.0-123.0-0.0","0","0","83730","","null","","","null","13","","","","","","","","","","","","","","","",""
"","time_out","","html-keyboard-response","104","239725","0.0-1.0-125.0-0.0","0","0","83730","","null","","","null","13","","","","","","","","","","","","","","","",""
"","ITI","","html-keyboard-response","105","240727","0.0-1.0-126.0","0","0","83730","","null","","","null","13","","","","","","","","","","","","","","","NaN",""
"","S1","","html-keyboard-response","106","240980","0.0-1.0-128.0","0","0","83730","","null","","","null","14","","","","","","","","","","","","","","","",""
"","ISI","","html-keyboard-response","107","242983","0.0-1.0-129.0","0","0","83730","","null","","","null","14","NaN","","","","","","","","","","","","","","",""
"","S2","","html-keyboard-response","108","243234","0.0-1.0-130.0","0","0","83730","","null","","","null","14","","NaN","","","","","","","","","","","","","",""
"","response","","html-keyboard-response","109","243612","0.0-1.0-131.0-0.0","0","0","83730","","376","","","68","14","","","1","14","training","adjacent","FG","6","7","N.jpg","O.jpg","1","1","1","",""
"","feedback","","html-keyboard-response","110","244614","0.0-1.0-132.0-0.0","0","0","83730","","null","","","null","14","","","","","","","","","","","","","","","",""
"","ITI","","html-keyboard-response","111","245615","0.0-1.0-135.0","0","0","83730","","null","","","null","14","","","","","","","","","","","","","","","NaN",""
"","S1","","html-keyboard-response","112","245867","0.0-1.0-137.0","0","0","83730","","null","","","null","15","","","","","","","","","","","","","","","",""
"","ISI","","html-keyboard-response","113","247869","0.0-1.0-138.0","0","0","83730","","null","","","null","15","NaN","","","","","","","","","","","","","","",""
"","S2","","html-keyboard-response","114","248121","0.0-1.0-139.0","0","0","83730","","null","","","null","15","","NaN","","","","","","","","","","","","","",""
"","response","","html-keyboard-response","115","248412","0.0-1.0-140.0-0.0","0","0","83730","","290","","","68","15","","","1","15","training","adjacent","CB","3","2","Q.jpg","L.jpg","1","0","0","",""
"","feedback","","html-keyboard-response","116","249415","0.0-1.0-141.0-0.0","0","0","83730","","null","","","null","15","","","","","","","","","","","","","","","",""
"","time_out","","html-keyboard-response","117","251427","0.0-1.0-143.0-0.0","0","0","83730","","null","","","null","15","","","","","","","","","","","","","","","",""
"","ITI","","html-keyboard-response","118","252430","0.0-1.0-144.0","0","0","83730","","null","","","null","15","","","","","","","","","","","","","","","NaN",""
"","S1","","html-keyboard-response","119","252681","0.0-1.0-146.0","0","0","83730","","null","","","null","16","","","","","","","","","","","","","","","",""
"","ISI","","html-keyboard-response","120","254684","0.0-1.0-147.0","0","0","83730","","null","","","null","16","NaN","","","","","","","","","","","","","","",""
"","S2","","html-keyboard-response","121","254936","0.0-1.0-148.0","0","0","83730","","null","","","null","16","","NaN","","","","","","","","","","","","","",""
"","response","","html-keyboard-response","122","255059","0.0-1.0-149.0-0.0","0","0","83730","","121","","","75","16","","","1","16","training","adjacent","DC","4","3","P.jpg","Q.jpg","0","0","1","",""
"","feedback","","html-keyboard-response","123","256061","0.0-1.0-150.0-0.0","0","0","83730","","null","","","null","16","","","","","","","","","","","","","","","",""
"","ITI","","html-keyboard-response","124","257064","0.0-1.0-153.0","0","0","83730","","null","","","null","16","","","","","","","","","","","","","","","NaN",""
"","S1","","html-keyboard-response","125","257317","0.0-1.0-155.0","0","0","83730","","null","","","null","17","","","","","","","","","","","","","","","",""
"","ISI","","html-keyboard-response","126","259319","0.0-1.0-156.0","0","0","83730","","null","","","null","17","NaN","","","","","","","","","","","","","","",""
"","S2","","html-keyboard-response","127","259573","0.0-1.0-157.0","0","0","83730","","null","","","null","17","","NaN","","","","","","","","","","","","","",""
"","response","","html-keyboard-response","128","260009","0.0-1.0-158.0-0.0","0","0","83730","","435","","","68","17","","","1","17","training","adjacent","ED","5","4","R.jpg","P.jpg","1","0","0","",""
"","feedback","","html-keyboard-response","129","261012","0.0-1.0-159.0-0.0","0","0","83730","","null","","","null","17","","","","","","","","","","","","","","","",""
"","time_out","","html-keyboard-response","130","263014","0.0-1.0-161.0-0.0","0","0","83730","","null","","","null","17","","","","","","","","","","","","","","","",""
"","ITI","","html-keyboard-response","131","264016","0.0-1.0-162.0","0","0","83730","","null","","","null","17","","","","","","","","","","","","","","","NaN",""
"","S1","","html-keyboard-response","132","264269","0.0-1.0-164.0","0","0","83730","","null","","","null","18","","","","","","","","","","","","","","","",""
"","ISI","","html-keyboard-response","133","266272","0.0-1.0-165.0","0","0","83730","","553","","","68","18","d","","","","","","","","","","","","","","",""
"","S2","","html-keyboard-response","134","266525","0.0-1.0-166.0","0","0","83730","","null","","","null","18","","NaN","","","","","","","","","","","","","",""
"","response","","html-keyboard-response","135","267031","0.0-1.0-167.0-0.0","0","0","83730","","504","","","68","18","","","1","18","training","adjacent","FG","6","7","N.jpg","O.jpg","1","1","1","",""
"","feedback","","html-keyboard-response","136","268033","0.0-1.0-168.0-0.0","0","0","83730","","null","","","null","18","","","","","","","","","","","","","","","",""
"","ITI","","html-keyboard-response","137","269035","0.0-1.0-171.0","0","0","83730","","null","","","null","18","","","","","","","","","","","","","","","NaN",""
"","S1","","html-keyboard-response","138","269287","0.0-1.0-173.0","0","0","83730","","null","","","null","19","","","","","","","","","","","","","","","",""
"","ISI","","html-keyboard-response","139","271289","0.0-1.0-174.0","0","0","83730","","null","","","null","19","NaN","","","","","","","","","","","","","","",""
"","S2","","html-keyboard-response","140","271541","0.0-1.0-175.0","0","0","83730","","null","","","null","19","","NaN","","","","","","","","","","","","","",""
"","response","","html-keyboard-response","141","272004","0.0-1.0-176.0-0.0","0","0","83730","","461","","","75","19","","","1","19","training","adjacent","CB","3","2","Q.jpg","L.jpg","0","0","1","",""
"","feedback","","html-keyboard-response","142","273008","0.0-1.0-177.0-0.0","0","0","83730","","null","","","null","19","","","","","","","","","","","","","","","",""
"","ITI","","html-keyboard-response","143","274010","0.0-1.0-180.0","0","0","83730","","null","","","null","19","","","","","","","","","","","","","","","NaN",""
"","S1","","html-keyboard-response","144","274262","0.0-1.0-182.0","0","0","83730","","null","","","null","20","","","","","","","","","","","","","","","",""
"","ISI","","html-keyboard-response","145","276264","0.0-1.0-183.0","0","0","83730","","null","","","null","20","NaN","","","","","","","","","","","","","","",""
"","S2","","html-keyboard-response","146","276517","0.0-1.0-184.0","0","0","83730","","null","","","null","20","","NaN","","","","","","","","","","","","","",""
"","response","","html-keyboard-response","147","277020","0.0-1.0-185.0-0.0","0","0","83730","","502","","","68","20","","","1","20","training","adjacent","CD","3","4","Q.jpg","P.jpg","1","1","1","",""
"","feedback","","html-keyboard-response","148","278023","0.0-1.0-186.0-0.0","0","0","83730","","null","","","null","20","","","","","","","","","","","","","","","",""
"","ITI","","html-keyboard-response","149","279025","0.0-1.0-189.0","0","0","83730","","null","","","null","20","","","","","","","","","","","","","","","NaN",""
"","S1","","html-keyboard-response","150","279277","0.0-1.0-191.0","0","0","83730","","null","","","null","21","","","","","","","","","","","","","","","",""
"","ISI","","html-keyboard-response","151","281279","0.0-1.0-192.0","0","0","83730","","null","","","null","21","NaN","","","","","","","","","","","","","","",""
"","S2","","html-keyboard-response","152","281532","0.0-1.0-193.0","0","0","83730","","null","","","null","21","","NaN","","","","","","","","","","","","","",""
"","response","","html-keyboard-response","153","282056","0.0-1.0-194.0-0.0","0","0","83730","","522","","","75","21","","","1","21","training","adjacent","CD","3","4","Q.jpg","P.jpg","0","1","0","",""
"","feedback","","html-keyboard-response","154","283058","0.0-1.0-195.0-0.0","0","0","83730","","null","","","null","21","","","","","","","","","","","","","","","",""
"","time_out","","html-keyboard-response","155","285061","0.0-1.0-197.0-0.0","0","0","83730","","null","","","null","21","","","","","","","","","","","","","","","",""
"","ITI","","html-keyboard-response","156","286065","0.0-1.0-198.0","0","0","83730","","null","","","null","21","","","","","","","","","","","","","","","NaN",""
"","S1","","html-keyboard-response","157","286317","0.0-1.0-200.0","0","0","83730","","null","","","null","22","","","","","","","","","","","","","","","",""
"","ISI","","html-keyboard-response","158","288319","0.0-1.0-201.0","0","0","83730","","null","","","null","22","NaN","","","","","","","","","","","","","","",""
"","S2","","html-keyboard-response","159","288571","0.0-1.0-202.0","0","0","83730","","null","","","null","22","","NaN","","","","","","","","","","","","","",""
"","response","","html-keyboard-response","160","288923","0.0-1.0-203.0-0.0","0","0","83730","","351","","","68","22","","","1","22","training","adjacent","ED","5","4","R.jpg","P.jpg","1","0","0","",""
"","feedback","","html-keyboard-response","161","289926","0.0-1.0-204.0-0.0","0","0","83730","","null","","","null","22","","","","","","","","","","","","","","","",""
"","time_out","","html-keyboard-response","162","291928","0.0-1.0-206.0-0.0","0","0","83730","","null","","","null","22","","","","","","","","","","","","","","","",""
"","ITI","","html-keyboard-response","163","292931","0.0-1.0-207.0","0","0","83730","","null","","","null","22","","","","","","","","","","","","","","","NaN",""
"","S1","","html-keyboard-response","164","293183","0.0-1.0-209.0","0","0","83730","","null","","","null","23","","","","","","","","","","","","","","","",""
"","ISI","","html-keyboard-response","165","295186","0.0-1.0-210.0","0","0","83730","","null","","","null","23","NaN","","","","","","","","","","","","","","",""
"","S2","","html-keyboard-response","166","295438","0.0-1.0-211.0","0","0","83730","","null","","","null","23","","NaN","","","","","","","","","","","","","",""
"","response","","html-keyboard-response","167","295752","0.0-1.0-212.0-0.0","0","0","83730","","312","","","68","23","","","1","23","training","adjacent","FG","6","7","N.jpg","O.jpg","1","1","1","",""
"","feedback","","html-keyboard-response","168","296758","0.0-1.0-213.0-0.0","0","0","83730","","null","","","null","23","","","","","","","","","","","","","","","",""
"","ITI","","html-keyboard-response","169","297760","0.0-1.0-216.0","0","0","83730","","null","","","null","23","","","","","","","","","","","","","","","NaN",""
"","S1","","html-keyboard-response","170","298013","0.0-1.0-218.0","0","0","83730","","null","","","null","24","","","","","","","","","","","","","","","",""
"","ISI","","html-keyboard-response","171","300015","0.0-1.0-219.0","0","0","83730","","null","","","null","24","NaN","","","","","","","","","","","","","","",""
"","S2","","html-keyboard-response","172","300266","0.0-1.0-220.0","0","0","83730","","null","","","null","24","","NaN","","","","","","","","","","","","","",""
"","response","","html-keyboard-response","173","300891","0.0-1.0-221.0-0.0","0","0","83730","","623","","","68","24","","","1","24","training","adjacent","BC","2","3","L.jpg","Q.jpg","1","1","1","",""
"","feedback","","html-keyboard-response","174","301894","0.0-1.0-222.0-0.0","0","0","83730","","null","","","null","24","","","","","","","","","","","","","","","",""
"","ITI","","html-keyboard-response","175","302897","0.0-1.0-225.0","0","0","83730","","null","","","null","24","","","","","","","","","","","","","","","NaN",""
"","S1","","html-keyboard-response","176","303149","0.0-1.0-227.0","0","0","83730","","null","","","null","25","","","","","","","","","","","","","","","",""
"","ISI","","html-keyboard-response","177","305151","0.0-1.0-228.0","0","0","83730","","null","","","null","25","NaN","","","","","","","","","","","","","","",""
"","S2","","html-keyboard-response","178","305405","0.0-1.0-229.0","0","0","83730","","null","","","null","25","","NaN","","","","","","","","","","","","","",""
"","response","","html-keyboard-response","179","305861","0.0-1.0-230.0-0.0","0","0","83730","","454","","","75","25","","","1","25","training","adjacent","BA","2","1","L.jpg","M.jpg","0","0","1","",""
"","feedback","","html-keyboard-response","180","306864","0.0-1.0-231.0-0.0","0","0","83730","","null","","","null","25","","","","","","","","","","","","","","","",""
"","ITI","","html-keyboard-response","181","307866","0.0-1.0-234.0","0","0","83730","","null","","","null","25","","","","","","","","","","","","","","","NaN",""
"","S1","","html-keyboard-response","182","308118","0.0-1.0-236.0","0","0","83730","","null","","","null","26","","","","","","","","","","","","","","","",""
"","ISI","","html-keyboard-response","183","310120","0.0-1.0-237.0","0","0","83730","","null","","","null","26","NaN","","","","","","","","","","","","","","",""
"","S2","","html-keyboard-response","184","310374","0.0-1.0-238.0","0","0","83730","","null","","","null","26","","NaN","","","","","","","","","","","","","",""
"","response","","html-keyboard-response","185","310805","0.0-1.0-239.0-0.0","0","0","83730","","430","","","75","26","","","1","26","training","adjacent","BA","2","1","L.jpg","M.jpg","0","0","1","",""
"","feedback","","html-keyboard-response","186","311809","0.0-1.0-240.0-0.0","0","0","83730","","null","","","null","26","","","","","","","","","","","","","","","",""
"","ITI","","html-keyboard-response","187","312810","0.0-1.0-243.0","0","0","83730","","null","","","null","26","","","","","","","","","","","","","","","NaN",""
"","S1","","html-keyboard-response","188","313063","0.0-1.0-245.0","0","0","83730","","null","","","null","27","","","","","","","","","","","","","","","",""
"","ISI","","html-keyboard-response","189","315066","0.0-1.0-246.0","0","0","83730","","null","","","null","27","NaN","","","","","","","","","","","","","","",""
"","S2","","html-keyboard-response","190","315319","0.0-1.0-247.0","0","0","83730","","null","","","null","27","","NaN","","","","","","","","","","","","","",""
"","response","","html-keyboard-response","191","315709","0.0-1.0-248.0-0.0","0","0","83730","","388","","","68","27","","","1","27","training","adjacent","EF","5","6","R.jpg","N.jpg","1","1","1","",""
"","feedback","","html-keyboard-response","192","316711","0.0-1.0-249.0-0.0","0","0","83730","","null","","","null","27","","","","","","","","","","","","","","","",""
"","ITI","","html-keyboard-response","193","317714","0.0-1.0-252.0","0","0","83730","","null","","","null","27","","","","","","","","","","","","","","","NaN",""
"","S1","","html-keyboard-response","194","317966","0.0-1.0-254.0","0","0","83730","","null","","","null","28","","","","","","","","","","","","","","","",""
"","ISI","","html-keyboard-response","195","319970","0.0-1.0-255.0","0","0","83730","","null","","","null","28","NaN","","","","","","","","","","","","","","",""
"","S2","","html-keyboard-response","196","320221","0.0-1.0-256.0","0","0","83730","","null","","","null","28","","NaN","","","","","","","","","","","","","",""
"","response","","html-keyboard-response","197","320658","0.0-1.0-257.0-0.0","0","0","83730","","435","","","75","28","","","1","28","training","adjacent","CD","3","4","Q.jpg","P.jpg","0","1","0","",""
"","feedback","","html-keyboard-response","198","321661","0.0-1.0-258.0-0.0","0","0","83730","","null","","","null","28","","","","","","","","","","","","","","","",""
"","time_out","","html-keyboard-response","199","323664","0.0-1.0-260.0-0.0","0","0","83730","","null","","","null","28","","","","","","","","","","","","","","","",""
"","ITI","","html-keyboard-response","200","324666","0.0-1.0-261.0","0","0","83730","","null","","","null","28","","","","","","","","","","","","","","","NaN",""
"","S1","","html-keyboard-response","201","324919","0.0-1.0-263.0","0","0","83730","","null","","","null","29","","","","","","","","","","","","","","","",""
"","ISI","","html-keyboard-response","202","326921","0.0-1.0-264.0","0","0","83730","","312","","","68","29","d","","","","","","","","","","","","","","",""
"","S2","","html-keyboard-response","203","327173","0.0-1.0-265.0","0","0","83730","","null","","","null","29","","NaN","","","","","","","","","","","","","",""
"","response","","html-keyboard-response","204","327519","0.0-1.0-266.0-0.0","0","0","83730","","344","","","68","29","","","1","29","training","adjacent","FG","6","7","N.jpg","O.jpg","1","1","1","",""
"","feedback","","html-keyboard-response","205","328522","0.0-1.0-267.0-0.0","0","0","83730","","null","","","null","29","","","","","","","","","","","","","","","",""
"","ITI","","html-keyboard-response","206","329524","0.0-1.0-270.0","0","0","83730","","null","","","null","29","","","","","","","","","","","","","","","NaN",""
"","S1","","html-keyboard-response","207","329777","0.0-1.0-272.0","0","0","83730","","null","","","null","30","","","","","","","","","","","","","","","",""
"","ISI","","html-keyboard-response","208","331779","0.0-1.0-273.0","0","0","83730","","null","","","null","30","NaN","","","","","","","","","","","","","","",""
"","S2","","html-keyboard-response","209","332031","0.0-1.0-274.0","0","0","83730","","null","","","null","30","","NaN","","","","","","","","","","","","","",""
"","response","","html-keyboard-response","210","332453","0.0-1.0-275.0-0.0","0","0","83730","","420","","","75","30","","","1","30","training","adjacent","BA","2","1","L.jpg","M.jpg","0","0","1","",""
"","feedback","","html-keyboard-response","211","333456","0.0-1.0-276.0-0.0","0","0","83730","","null","","","null","30","","","","","","","","","","","","","","","",""
"","ITI","","html-keyboard-response","212","334459","0.0-1.0-279.0","0","0","83730","","null","","","null","30","","","","","","","","","","","","","","","NaN",""
"","S1","","html-keyboard-response","213","334711","0.0-1.0-281.0","0","0","83730","","null","","","null","31","","","","","","","","","","","","","","","",""
"","ISI","","html-keyboard-response","214","336714","0.0-1.0-282.0","0","0","83730","","null","","","null","31","NaN","","","","","","","","","","","","","","",""
"","S2","","html-keyboard-response","215","336966","0.0-1.0-283.0","0","0","83730","","null","","","null","31","","NaN","","","","","","","","","","","","","",""
"","response","","html-keyboard-response","216","337385","0.0-1.0-284.0-0.0","0","0","83730","","417","","","68","31","","","1","31","training","adjacent","BC","2","3","L.jpg","Q.jpg","1","1","1","",""
"","feedback","","html-keyboard-response","217","338388","0.0-1.0-285.0-0.0","0","0","83730","","null","","","null","31","","","","","","","","","","","","","","","",""
"","ITI","","html-keyboard-response","218","339392","0.0-1.0-288.0","0","0","83730","","null","","","null","31","","","","","","","","","","","","","","","NaN",""
"","S1","","html-keyboard-response","219","339645","0.0-1.0-290.0","0","0","83730","","null","","","null","32","","","","","","","","","","","","","","","",""
"","ISI","","html-keyboard-response","220","341648","0.0-1.0-291.0","0","0","83730","","null","","","null","32","NaN","","","","","","","","","","","","","","",""
"","S2","","html-keyboard-response","221","341900","0.0-1.0-292.0","0","0","83730","","null","","","null","32","","NaN","","","","","","","","","","","","","",""
"","response","","html-keyboard-response","222","342047","0.0-1.0-293.0-0.0","0","0","83730","","145","","","75","32","","","1","32","training","adjacent","DC","4","3","P.jpg","Q.jpg","0","0","1","",""
"","feedback","","html-keyboard-response","223","343050","0.0-1.0-294.0-0.0","0","0","83730","","null","","","null","32","","","","","","","","","","","","","","","",""
"","ITI","","html-keyboard-response","224","344053","0.0-1.0-297.0","0","0","83730","","null","","","null","32","","","","","","","","","","","","","","","NaN",""
"","S1","","html-keyboard-response","225","344305","0.0-1.0-299.0","0","0","83730","","null","","","null","33","","","","","","","","","","","","","","","",""
"","ISI","","html-keyboard-response","226","346308","0.0-1.0-300.0","0","0","83730","","null","","","null","33","NaN","","","","","","","","","","","","","","",""
"","S2","","html-keyboard-response","227","346560","0.0-1.0-301.0","0","0","83730","","null","","","null","33","","NaN","","","","","","","","","","","","","",""
"","response","","html-keyboard-response","228","346927","0.0-1.0-302.0-0.0","0","0","83730","","366","","","68","33","","","1","33","training","adjacent","FE","6","5","N.jpg","R.jpg","1","0","0","",""
"","feedback","","html-keyboard-response","229","347930","0.0-1.0-303.0-0.0","0","0","83730","","null","","","null","33","","","","","","","","","","","","","","","",""
"","time_out","","html-keyboard-response","230","349932","0.0-1.0-305.0-0.0","0","0","83730","","null","","","null","33","","","","","","","","","","","","","","","",""
"","ITI","","html-keyboard-response","231","350934","0.0-1.0-306.0","0","0","83730","","null","","","null","33","","","","","","","","","","","","","","","NaN",""
"","S1","","html-keyboard-response","232","351186","0.0-1.0-308.0","0","0","83730","","null","","","null","34","","","","","","","","","","","","","","","",""
"","ISI","","html-keyboard-response","233","353189","0.0-1.0-309.0","0","0","83730","","null","","","null","34","NaN","","","","","","","","","","","","","","",""
"","S2","","html-keyboard-response","234","353442","0.0-1.0-310.0","0","0","83730","","null","","","null","34","","NaN","","","","","","","","","","","","","",""
"","response","","html-keyboard-response","235","353771","0.0-1.0-311.0-0.0","0","0","83730","","328","","","75","34","","","1","34","training","adjacent","DC","4","3","P.jpg","Q.jpg","0","0","1","",""
"","feedback","","html-keyboard-response","236","354774","0.0-1.0-312.0-0.0","0","0","83730","","null","","","null","34","","","","","","","","","","","","","","","",""
"","ITI","","html-keyboard-response","237","355788","0.0-1.0-315.0","0","0","83730","","null","","","null","34","","","","","","","","","","","","","","","NaN",""
"","S1","","html-keyboard-response","238","356040","0.0-1.0-317.0","0","0","83730","","null","","","null","35","","","","","","","","","","","","","","","",""
"","ISI","","html-keyboard-response","239","358042","0.0-1.0-318.0","0","0","83730","","null","","","null","35","NaN","","","","","","","","","","","","","","",""
"","S2","","html-keyboard-response","240","358295","0.0-1.0-319.0","0","0","83730","","null","","","null","35","","NaN","","","","","","","","","","","","","",""
"","response","","html-keyboard-response","241","358888","0.0-1.0-320.0-0.0","0","0","83730","","591","","","68","35","","","1","35","training","adjacent","EF","5","6","R.jpg","N.jpg","1","1","1","",""
"","feedback","","html-keyboard-response","242","359890","0.0-1.0-321.0-0.0","0","0","83730","","null","","","null","35","","","","","","","","","","","","","","","",""
"","ITI","","html-keyboard-response","243","360893","0.0-1.0-324.0","0","0","83730","","null","","","null","35","","","","","","","","","","","","","","","NaN",""
"","S1","","html-keyboard-response","244","361145","0.0-1.0-326.0","0","0","83730","","null","","","null","36","","","","","","","","","","","","","","","",""
"","ISI","","html-keyboard-response","245","363148","0.0-1.0-327.0","0","0","83730","","null","","","null","36","NaN","","","","","","","","","","","","","","",""
"","S2","","html-keyboard-response","246","363400","0.0-1.0-328.0","0","0","83730","","null","","","null","36","","NaN","","","","","","","","","","","","","",""
"","response","","html-keyboard-response","247","363810","0.0-1.0-329.0-0.0","0","0","83730","","408","","","75","36","","","1","36","training","adjacent","AB","1","2","M.jpg","L.jpg","0","1","0","",""
"","feedback","","html-keyboard-response","248","364813","0.0-1.0-330.0-0.0","0","0","83730","","null","","","null","36","","","","","","","","","","","","","","","",""
"","time_out","","html-keyboard-response","249","366816","0.0-1.0-332.0-0.0","0","0","83730","","null","","","null","36","","","","","","","","","","","","","","","",""
"","ITI","","html-keyboard-response","250","367819","0.0-1.0-333.0","0","0","83730","","null","","","null","36","","","","","","","","","","","","","","","NaN",""
"","S1","","html-keyboard-response","251","368072","0.0-1.0-335.0","0","0","83730","","null","","","null","37","","","","","","","","","","","","","","","",""
"","ISI","","html-keyboard-response","252","370075","0.0-1.0-336.0","0","0","83730","","null","","","null","37","NaN","","","","","","","","","","","","","","",""
"","S2","","html-keyboard-response","253","370328","0.0-1.0-337.0","0","0","83730","","null","","","null","37","","NaN","","","","","","","","","","","","","",""
"","response","","html-keyboard-response","254","370767","0.0-1.0-338.0-0.0","0","0","83730","","438","","","68","37","","","1","37","training","adjacent","BC","2","3","L.jpg","Q.jpg","1","1","1","",""
"","feedback","","html-keyboard-response","255","371770","0.0-1.0-339.0-0.0","0","0","83730","","null","","","null","37","","","","","","","","","","","","","","","",""
"","ITI","","html-keyboard-response","256","372771","0.0-1.0-342.0","0","0","83730","","null","","","null","37","","","","","","","","","","","","","","","NaN",""
"","S1","","html-keyboard-response","257","373037","0.0-1.0-344.0","0","0","83730","","null","","","null","38","","","","","","","","","","","","","","","",""
"","ISI","","html-keyboard-response","258","375039","0.0-1.0-345.0","0","0","83730","","null","","","null","38","NaN","","","","","","","","","","","","","","",""
"","S2","","html-keyboard-response","259","375292","0.0-1.0-346.0","0","0","83730","","null","","","null","38","","NaN","","","","","","","","","","","","","",""
"","response","","html-keyboard-response","260","375747","0.0-1.0-347.0-0.0","0","0","83730","","454","","","68","38","","","1","38","training","adjacent","FE","6","5","N.jpg","R.jpg","1","0","0","",""
"","feedback","","html-keyboard-response","261","376750","0.0-1.0-348.0-0.0","0","0","83730","","null","","","null","38","","","","","","","","","","","","","","","",""
"","time_out","","html-keyboard-response","262","378757","0.0-1.0-350.0-0.0","0","0","83730","","null","","","null","38","","","","","","","","","","","","","","","",""
"","ITI","","html-keyboard-response","263","379759","0.0-1.0-351.0","0","0","83730","","null","","","null","38","","","","","","","","","","","","","","","NaN",""
"","S1","","html-keyboard-response","264","380013","0.0-1.0-353.0","0","0","83730","","null","","","null","39","","","","","","","","","","","","","","","",""
"","ISI","","html-keyboard-response","265","382015","0.0-1.0-354.0","0","0","83730","","null","","","null","39","NaN","","","","","","","","","","","","","","",""
"","S2","","html-keyboard-response","266","382268","0.0-1.0-355.0","0","0","83730","","null","","","null","39","","NaN","","","","","","","","","","","","","",""
"","response","","html-keyboard-response","267","382712","0.0-1.0-356.0-0.0","0","0","83730","","443","","","75","39","","","1","39","training","adjacent","EF","5","6","R.jpg","N.jpg","0","1","0","",""
"","feedback","","html-keyboard-response","268","383718","0.0-1.0-357.0-0.0","0","0","83730","","null","","","null","39","","","","","","","","","","","","","","","",""
"","time_out","","html-keyboard-response","269","385727","0.0-1.0-359.0-0.0","0","0","83730","","null","","","null","39","","","","","","","","","","","","","","","",""
"","ITI","","html-keyboard-response","270","386729","0.0-1.0-360.0","0","0","83730","","null","","","null","39","","","","","","","","","","","","","","","NaN",""
"","S1","","html-keyboard-response","271","386981","0.0-1.0-362.0","0","0","83730","","null","","","null","40","","","","","","","","","","","","","","","",""
"","ISI","","html-keyboard-response","272","388985","0.0-1.0-363.0","0","0","83730","","null","","","null","40","NaN","","","","","","","","","","","","","","",""
"","S2","","html-keyboard-response","273","389237","0.0-1.0-364.0","0","0","83730","","null","","","null","40","","NaN","","","","","","","","","","","","","",""
"","response","","html-keyboard-response","274","389693","0.0-1.0-365.0-0.0","0","0","83730","","454","","","68","40","","","1","40","training","adjacent","GF","7","6","O.jpg","N.jpg","1","0","0","",""
"","feedback","","html-keyboard-response","275","390696","0.0-1.0-366.0-0.0","0","0","83730","","null","","","null","40","","","","","","","","","","","","","","","",""
"","time_out","","html-keyboard-response","276","392698","0.0-1.0-368.0-0.0","0","0","83730","","null","","","null","40","","","","","","","","","","","","","","","",""
"","ITI","","html-keyboard-response","277","393700","0.0-1.0-369.0","0","0","83730","","null","","","null","40","","","","","","","","","","","","","","","NaN",""
"","S1","","html-keyboard-response","278","393952","0.0-1.0-371.0","0","0","83730","","null","","","null","41","","","","","","","","","","","","","","","",""
"","ISI","","html-keyboard-response","279","395954","0.0-1.0-372.0","0","0","83730","","null","","","null","41","NaN","","","","","","","","","","","","","","",""
"","S2","","html-keyboard-response","280","396207","0.0-1.0-373.0","0","0","83730","","null","","","null","41","","NaN","","","","","","","","","","","","","",""
"","response","","html-keyboard-response","281","396543","0.0-1.0-374.0-0.0","0","0","83730","","334","","","68","41","","","1","41","training","adjacent","DE","4","5","P.jpg","R.jpg","1","1","1","",""
"","feedback","","html-keyboard-response","282","397546","0.0-1.0-375.0-0.0","0","0","83730","","null","","","null","41","","","","","","","","","","","","","","","",""
"","ITI","","html-keyboard-response","283","398549","0.0-1.0-378.0","0","0","83730","","null","","","null","41","","","","","","","","","","","","","","","NaN",""
"","S1","","html-keyboard-response","284","398800","0.0-1.0-380.0","0","0","83730","","null","","","null","42","","","","","","","","","","","","","","","",""
"","ISI","","html-keyboard-response","285","400802","0.0-1.0-381.0","0","0","83730","","null","","","null","42","NaN","","","","","","","","","","","","","","",""
"","S2","","html-keyboard-response","286","401055","0.0-1.0-382.0","0","0","83730","","null","","","null","42","","NaN","","","","","","","","","","","","","",""
"","response","","html-keyboard-response","287","401407","0.0-1.0-383.0-0.0","0","0","83730","","350","","","68","42","","","1","42","training","adjacent","ED","5","4","R.jpg","P.jpg","1","0","0","",""
"","feedback","","html-keyboard-response","288","402410","0.0-1.0-384.0-0.0","0","0","83730","","null","","","null","42","","","","","","","","","","","","","","","",""
"","time_out","","html-keyboard-response","289","404412","0.0-1.0-386.0-0.0","0","0","83730","","null","","","null","42","","","","","","","","","","","","","","","",""
"","ITI","","html-keyboard-response","290","405415","0.0-1.0-387.0","0","0","83730","","null","","","null","42","","","","","","","","","","","","","","","NaN",""
"","S1","","html-keyboard-response","291","405668","0.0-1.0-389.0","0","0","83730","","null","","","null","43","","","","","","","","","","","","","","","",""
"","ISI","","html-keyboard-response","292","407670","0.0-1.0-390.0","0","0","83730","","null","","","null","43","NaN","","","","","","","","","","","","","","",""
"","S2","","html-keyboard-response","293","407922","0.0-1.0-391.0","0","0","83730","","null","","","null","43","","NaN","","","","","","","","","","","","","",""
"","response","","html-keyboard-response","294","408372","0.0-1.0-392.0-0.0","0","0","83730","","448","","","75","43","","","1","43","training","adjacent","FE","6","5","N.jpg","R.jpg","0","0","1","",""
"","feedback","","html-keyboard-response","295","409375","0.0-1.0-393.0-0.0","0","0","83730","","null","","","null","43","","","","","","","","","","","","","","","",""
"","ITI","","html-keyboard-response","296","410377","0.0-1.0-396.0","0","0","83730","","null","","","null","43","","","","","","","","","","","","","","","NaN",""
"","S1","","html-keyboard-response","297","410629","0.0-1.0-398.0","0","0","83730","","null","","","null","44","","","","","","","","","","","","","","","",""
"","ISI","","html-keyboard-response","298","412631","0.0-1.0-399.0","0","0","83730","","null","","","null","44","NaN","","","","","","","","","","","","","","",""
"","S2","","html-keyboard-response","299","412884","0.0-1.0-400.0","0","0","83730","","null","","","null","44","","NaN","","","","","","","","","","","","","",""
"","response","","html-keyboard-response","300","413767","0.0-1.0-401.0-0.0","0","0","83730","","882","","","68","44","","","1","44","training","adjacent","AB","1","2","M.jpg","L.jpg","1","1","1","",""
"","feedback","","html-keyboard-response","301","414769","0.0-1.0-402.0-0.0","0","0","83730","","null","","","null","44","","","","","","","","","","","","","","","",""
"","ITI","","html-keyboard-response","302","415771","0.0-1.0-405.0","0","0","83730","","null","","","null","44","","","","","","","","","","","","","","","NaN",""
"","S1","","html-keyboard-response","303","416023","0.0-1.0-407.0","0","0","83730","","null","","","null","45","","","","","","","","","","","","","","","",""
"","ISI","","html-keyboard-response","304","418025","0.0-1.0-408.0","0","0","83730","","null","","","null","45","NaN","","","","","","","","","","","","","","",""
"","S2","","html-keyboard-response","305","418277","0.0-1.0-409.0","0","0","83730","","null","","","null","45","","NaN","","","","","","","","","","","","","",""
"","response","","html-keyboard-response","306","418760","0.0-1.0-410.0-0.0","0","0","83730","","482","","","75","45","","","1","45","training","adjacent","CB","3","2","Q.jpg","L.jpg","0","0","1","",""
"","feedback","","html-keyboard-response","307","419762","0.0-1.0-411.0-0.0","0","0","83730","","null","","","null","45","","","","","","","","","","","","","","","",""
"","ITI","","html-keyboard-response","308","420764","0.0-1.0-414.0","0","0","83730","","null","","","null","45","","","","","","","","","","","","","","","NaN",""
"","S1","","html-keyboard-response","309","421017","0.0-1.0-416.0","0","0","83730","","null","","","null","46","","","","","","","","","","","","","","","",""
"","ISI","","html-keyboard-response","310","423020","0.0-1.0-417.0","0","0","83730","","null","","","null","46","NaN","","","","","","","","","","","","","","",""
"","S2","","html-keyboard-response","311","423272","0.0-1.0-418.0","0","0","83730","","null","","","null","46","","NaN","","","","","","","","","","","","","",""
"","response","","html-keyboard-response","312","423705","0.0-1.0-419.0-0.0","0","0","83730","","432","","","68","46","","","1","46","training","adjacent","GF","7","6","O.jpg","N.jpg","1","0","0","",""
"","feedback","","html-keyboard-response","313","424707","0.0-1.0-420.0-0.0","0","0","83730","","null","","","null","46","","","","","","","","","","","","","","","",""
"","time_out","","html-keyboard-response","314","426710","0.0-1.0-422.0-0.0","0","0","83730","","null","","","null","46","","","","","","","","","","","","","","","",""
"","ITI","","html-keyboard-response","315","427712","0.0-1.0-423.0","0","0","83730","","null","","","null","46","","","","","","","","","","","","","","","NaN",""
"","S1","","html-keyboard-response","316","427966","0.0-1.0-425.0","0","0","83730","","null","","","null","47","","","","","","","","","","","","","","","",""
"","ISI","","html-keyboard-response","317","429967","0.0-1.0-426.0","0","0","83730","","null","","","null","47","NaN","","","","","","","","","","","","","","",""
"","S2","","html-keyboard-response","318","430220","0.0-1.0-427.0","0","0","83730","","null","","","null","47","","NaN","","","","","","","","","","","","","",""
"","response","","html-keyboard-response","319","430428","0.0-1.0-428.0-0.0","0","0","83730","","207","","","75","47","","","1","47","training","adjacent","DE","4","5","P.jpg","R.jpg","0","1","0","",""
"","feedback","","html-keyboard-response","320","431430","0.0-1.0-429.0-0.0","0","0","83730","","null","","","null","47","","","","","","","","","","","","","","","",""
"","time_out","","html-keyboard-response","321","433432","0.0-1.0-431.0-0.0","0","0","83730","","null","","","null","47","","","","","","","","","","","","","","","",""
"","ITI","","html-keyboard-response","322","434434","0.0-1.0-432.0","0","0","83730","","null","","","null","47","","","","","","","","","","","","","","","NaN",""
"","block_over","","html-keyboard-response","323","439729","0.0-1.0-433.0-0.0","0","0","83730","","5293","","","32","47","","","","","","","","","","","","","","","",""
"","S1","","html-keyboard-response","324","439982","0.0-1.0-434.0","0","0","83730","","null","","","null","48","","","","","","","","","","","","","","","",""
"","ISI","","html-keyboard-response","325","441985","0.0-1.0-435.0","0","0","83730","","null","","","null","48","NaN","","","","","","","","","","","","","","",""
"","S2","","html-keyboard-response","326","442237","0.0-1.0-436.0","0","0","83730","","null","","","null","48","","NaN","","","","","","","","","","","","","",""
"","response","","html-keyboard-response","327","442539","0.0-1.0-437.0-0.0","0","0","83730","","299","","","68","48","","","2","48","training","adjacent","CB","3","2","Q.jpg","L.jpg","1","0","0","",""
"","feedback","","html-keyboard-response","328","443541","0.0-1.0-438.0-0.0","0","0","83730","","null","","","null","48","","","","","","","","","","","","","","","",""
"","time_out","","html-keyboard-response","329","445544","0.0-1.0-440.0-0.0","0","0","83730","","null","","","null","48","","","","","","","","","","","","","","","",""
"","ITI","","html-keyboard-response","330","446546","0.0-1.0-441.0","0","0","83730","","null","","","null","48","","","","","","","","","","","","","","","NaN",""
"","S1","","html-keyboard-response","331","446798","0.0-1.0-443.0","0","0","83730","","null","","","null","49","","","","","","","","","","","","","","","",""
"","ISI","","html-keyboard-response","332","448802","0.0-1.0-444.0","0","0","83730","","null","","","null","49","NaN","","","","","","","","","","","","","","",""
"","S2","","html-keyboard-response","333","449055","0.0-1.0-445.0","0","0","83730","","null","","","null","49","","NaN","","","","","","","","","","","","","",""
"","response","","html-keyboard-response","334","449410","0.0-1.0-446.0-0.0","0","0","83730","","354","","","75","49","","","2","49","training","adjacent","FG","6","7","N.jpg","O.jpg","0","1","0","",""
"","feedback","","html-keyboard-response","335","450412","0.0-1.0-447.0-0.0","0","0","83730","","null","","","null","49","","","","","","","","","","","","","","","",""
"","time_out","","html-keyboard-response","336","452414","0.0-1.0-449.0-0.0","0","0","83730","","null","","","null","49","","","","","","","","","","","","","","","",""
"","ITI","","html-keyboard-response","337","453416","0.0-1.0-450.0","0","0","83730","","null","","","null","49","","","","","","","","","","","","","","","NaN",""
"","S1","","html-keyboard-response","338","453668","0.0-1.0-452.0","0","0","83730","","null","","","null","50","","","","","","","","","","","","","","","",""
"","ISI","","html-keyboard-response","339","455671","0.0-1.0-453.0","0","0","83730","","null","","","null","50","NaN","","","","","","","","","","","","","","",""
"","S2","","html-keyboard-response","340","455938","0.0-1.0-454.0","0","0","83730","","null","","","null","50","","NaN","","","","","","","","","","","","","",""
"","response","","html-keyboard-response","341","456189","0.0-1.0-455.0-0.0","0","0","83730","","249","","","68","50","","","2","50","training","adjacent","DE","4","5","P.jpg","R.jpg","1","1","1","",""
"","feedback","","html-keyboard-response","342","457191","0.0-1.0-456.0-0.0","0","0","83730","","null","","","null","50","","","","","","","","","","","","","","","",""
"","ITI","","html-keyboard-response","343","458194","0.0-1.0-459.0","0","0","83730","","null","","","null","50","","","","","","","","","","","","","","","NaN",""
"","S1","","html-keyboard-response","344","458447","0.0-1.0-461.0","0","0","83730","","null","","","null","51","","","","","","","","","","","","","","","",""
"","ISI","","html-keyboard-response","345","460449","0.0-1.0-462.0","0","0","83730","","null","","","null","51","NaN","","","","","","","","","","","","","","",""
"","S2","","html-keyboard-response","346","460701","0.0-1.0-463.0","0","0","83730","","null","","","null","51","","NaN","","","","","","","","","","","","","",""
"","response","","html-keyboard-response","347","460994","0.0-1.0-464.0-0.0","0","0","83730","","291","","","68","51","","","2","51","training","adjacent","EF","5","6","R.jpg","N.jpg","1","1","1","",""
"","feedback","","html-keyboard-response","348","461997","0.0-1.0-465.0-0.0","0","0","83730","","null","","","null","51","","","","","","","","","","","","","","","",""
"","ITI","","html-keyboard-response","349","462999","0.0-1.0-468.0","0","0","83730","","null","","","null","51","","","","","","","","","","","","","","","NaN",""
"","S1","","html-keyboard-response","350","463260","0.0-1.0-470.0","0","0","83730","","null","","","null","52","","","","","","","","","","","","","","","",""
"","ISI","","html-keyboard-response","351","465263","0.0-1.0-471.0","0","0","83730","","null","","","null","52","NaN","","","","","","","","","","","","","","",""
"","S2","","html-keyboard-response","352","465515","0.0-1.0-472.0","0","0","83730","","null","","","null","52","","NaN","","","","","","","","","","","","","",""
"","response","","html-keyboard-response","353","465754","0.0-1.0-473.0-0.0","0","0","83730","","238","","","68","52","","","2","52","training","adjacent","FE","6","5","N.jpg","R.jpg","1","0","0","",""
"","feedback","","html-keyboard-response","354","466757","0.0-1.0-474.0-0.0","0","0","83730","","null","","","null","52","","","","","","","","","","","","","","","",""
"","time_out","","html-keyboard-response","355","468759","0.0-1.0-476.0-0.0","0","0","83730","","null","","","null","52","","","","","","","","","","","","","","","",""
"","ITI","","html-keyboard-response","356","469762","0.0-1.0-477.0","0","0","83730","","null","","","null","52","","","","","","","","","","","","","","","NaN",""
"","S1","","html-keyboard-response","357","470014","0.0-1.0-479.0","0","0","83730","","null","","","null","53","","","","","","","","","","","","","","","",""
"","ISI","","html-keyboard-response","358","472017","0.0-1.0-480.0","0","0","83730","","null","","","null","53","NaN","","","","","","","","","","","","","","",""
"","S2","","html-keyboard-response","359","472269","0.0-1.0-481.0","0","0","83730","","null","","","null","53","","NaN","","","","","","","","","","","","","",""
"","response","","html-keyboard-response","360","472538","0.0-1.0-482.0-0.0","0","0","83730","","268","","","68","53","","","2","53","training","adjacent","DE","4","5","P.jpg","R.jpg","1","1","1","",""
"","feedback","","html-keyboard-response","361","473541","0.0-1.0-483.0-0.0","0","0","83730","","null","","","null","53","","","","","","","","","","","","","","","",""
"","ITI","","html-keyboard-response","362","474543","0.0-1.0-486.0","0","0","83730","","null","","","null","53","","","","","","","","","","","","","","","NaN",""
"","S1","","html-keyboard-response","363","474796","0.0-1.0-488.0","0","0","83730","","null","","","null","54","","","","","","","","","","","","","","","",""
"","ISI","","html-keyboard-response","364","476799","0.0-1.0-489.0","0","0","83730","","null","","","null","54","NaN","","","","","","","","","","","","","","",""
"","S2","","html-keyboard-response","365","477050","0.0-1.0-490.0","0","0","83730","","null","","","null","54","","NaN","","","","","","","","","","","","","",""
"","response","","html-keyboard-response","366","477190","0.0-1.0-491.0-0.0","0","0","83730","","138","","","68","54","","","2","54","training","adjacent","CB","3","2","Q.jpg","L.jpg","1","0","0","",""
"","feedback","","html-keyboard-response","367","478192","0.0-1.0-492.0-0.0","0","0","83730","","null","","","null","54","","","","","","","","","","","","","","","",""
"","time_out","","html-keyboard-response","368","480195","0.0-1.0-494.0-0.0","0","0","83730","","null","","","null","54","","","","","","","","","","","","","","","",""
"","ITI","","html-keyboard-response","369","481197","0.0-1.0-495.0","0","0","83730","","null","","","null","54","","","","","","","","","","","","","","","NaN",""
"","S1","","html-keyboard-response","370","481451","0.0-1.0-497.0","0","0","83730","","null","","","null","55","","","","","","","","","","","","","","","",""
"","ISI","","html-keyboard-response","371","483452","0.0-1.0-498.0","0","0","83730","","null","","","null","55","NaN","","","","","","","","","","","","","","",""
"","S2","","html-keyboard-response","372","483705","0.0-1.0-499.0","0","0","83730","","null","","","null","55","","NaN","","","","","","","","","","","","","",""
"","response","","html-keyboard-response","373","484288","0.0-1.0-500.0-0.0","0","0","83730","","583","","","68","55","","","2","55","training","adjacent","CD","3","4","Q.jpg","P.jpg","1","1","1","",""
"","feedback","","html-keyboard-response","374","485292","0.0-1.0-501.0-0.0","0","0","83730","","null","","","null","55","","","","","","","","","","","","","","","",""
"","ITI","","html-keyboard-response","375","486294","0.0-1.0-504.0","0","0","83730","","null","","","null","55","","","","","","","","","","","","","","","NaN",""
"","S1","","html-keyboard-response","376","486546","0.0-1.0-506.0","0","0","83730","","null","","","null","56","","","","","","","","","","","","","","","",""
"","ISI","","html-keyboard-response","377","488548","0.0-1.0-507.0","0","0","83730","","null","","","null","56","NaN","","","","","","","","","","","","","","",""
"","S2","","html-keyboard-response","378","488801","0.0-1.0-508.0","0","0","83730","","null","","","null","56","","NaN","","","","","","","","","","","","","",""
"","response","","html-keyboard-response","379","488989","0.0-1.0-509.0-0.0","0","0","83730","","187","","","68","56","","","2","56","training","adjacent","GF","7","6","O.jpg","N.jpg","1","0","0","",""
"","feedback","","html-keyboard-response","380","489993","0.0-1.0-510.0-0.0","0","0","83730","","null","","","null","56","","","","","","","","","","","","","","","",""
"","time_out","","html-keyboard-response","381","491995","0.0-1.0-512.0-0.0","0","0","83730","","null","","","null","56","","","","","","","","","","","","","","","",""
"","ITI","","html-keyboard-response","382","492998","0.0-1.0-513.0","0","0","83730","","null","","","null","56","","","","","","","","","","","","","","","NaN",""
"","S1","","html-keyboard-response","383","493251","0.0-1.0-515.0","0","0","83730","","null","","","null","57","","","","","","","","","","","","","","","",""
"","ISI","","html-keyboard-response","384","495253","0.0-1.0-516.0","0","0","83730","","null","","","null","57","NaN","","","","","","","","","","","","","","",""
"","S2","","html-keyboard-response","385","495506","0.0-1.0-517.0","0","0","83730","","null","","","null","57","","NaN","","","","","","","","","","","","","",""
"","response","","html-keyboard-response","386","495834","0.0-1.0-518.0-0.0","0","0","83730","","326","","","75","57","","","2","57","training","adjacent","DC","4","3","P.jpg","Q.jpg","0","0","1","",""
"","feedback","","html-keyboard-response","387","496836","0.0-1.0-519.0-0.0","0","0","83730","","null","","","null","57","","","","","","","","","","","","","","","",""
"","ITI","","html-keyboard-response","388","497839","0.0-1.0-522.0","0","0","83730","","null","","","null","57","","","","","","","","","","","","","","","NaN",""
"","S1","","html-keyboard-response","389","498090","0.0-1.0-524.0","0","0","83730","","null","","","null","58","","","","","","","","","","","","","","","",""
"","ISI","","html-keyboard-response","390","500093","0.0-1.0-525.0","0","0","83730","","null","","","null","58","NaN","","","","","","","","","","","","","","",""
"","S2","","html-keyboard-response","391","500345","0.0-1.0-526.0","0","0","83730","","null","","","null","58","","NaN","","","","","","","","","","","","","",""
"","response","","html-keyboard-response","392","500690","0.0-1.0-527.0-0.0","0","0","83730","","344","","","75","58","","","2","58","training","adjacent","BC","2","3","L.jpg","Q.jpg","0","1","0","",""
"","feedback","","html-keyboard-response","393","501693","0.0-1.0-528.0-0.0","0","0","83730","","null","","","null","58","","","","","","","","","","","","","","","",""
"","time_out","","html-keyboard-response","394","503695","0.0-1.0-530.0-0.0","0","0","83730","","null","","","null","58","","","","","","","","","","","","","","","",""
"","ITI","","html-keyboard-response","395","504697","0.0-1.0-531.0","0","0","83730","","null","","","null","58","","","","","","","","","","","","","","","NaN",""
"","S1","","html-keyboard-response","396","504950","0.0-1.0-533.0","0","0","83730","","null","","","null","59","","","","","","","","","","","","","","","",""
"","ISI","","html-keyboard-response","397","506952","0.0-1.0-534.0","0","0","83730","","null","","","null","59","NaN","","","","","","","","","","","","","","",""
"","S2","","html-keyboard-response","398","507219","0.0-1.0-535.0","0","0","83730","","null","","","null","59","","NaN","","","","","","","","","","","","","",""
"","response","","html-keyboard-response","399","507470","0.0-1.0-536.0-0.0","0","0","83730","","250","","","75","59","","","2","59","training","adjacent","CD","3","4","Q.jpg","P.jpg","0","1","0","",""
"","feedback","","html-keyboard-response","400","508472","0.0-1.0-537.0-0.0","0","0","83730","","null","","","null","59","","","","","","","","","","","","","","","",""
"","time_out","","html-keyboard-response","401","510474","0.0-1.0-539.0-0.0","0","0","83730","","null","","","null","59","","","","","","","","","","","","","","","",""
"","ITI","","html-keyboard-response","402","511476","0.0-1.0-540.0","0","0","83730","","null","","","null","59","","","","","","","","","","","","","","","NaN",""
"","S1","","html-keyboard-response","403","511730","0.0-1.0-542.0","0","0","83730","","null","","","null","60","","","","","","","","","","","","","","","",""
"","ISI","","html-keyboard-response","404","513733","0.0-1.0-543.0","0","0","83730","","null","","","null","60","NaN","","","","","","","","","","","","","","",""
"","S2","","html-keyboard-response","405","513986","0.0-1.0-544.0","0","0","83730","","null","","","null","60","","NaN","","","","","","","","","","","","","",""
"","response","","html-keyboard-response","406","514271","0.0-1.0-545.0-0.0","0","0","83730","","285","","","68","60","","","2","60","training","adjacent","EF","5","6","R.jpg","N.jpg","1","1","1","",""
"","feedback","","html-keyboard-response","407","515275","0.0-1.0-546.0-0.0","0","0","83730","","null","","","null","60","","","","","","","","","","","","","","","",""
"","ITI","","html-keyboard-response","408","516278","0.0-1.0-549.0","0","0","83730","","null","","","null","60","","","","","","","","","","","","","","","NaN",""
"","S1","","html-keyboard-response","409","516530","0.0-1.0-551.0","0","0","83730","","null","","","null","61","","","","","","","","","","","","","","","",""
"","ISI","","html-keyboard-response","410","518532","0.0-1.0-552.0","0","0","83730","","null","","","null","61","NaN","","","","","","","","","","","","","","",""
"","S2","","html-keyboard-response","411","518784","0.0-1.0-553.0","0","0","83730","","null","","","null","61","","NaN","","","","","","","","","","","","","",""
"","response","","html-keyboard-response","412","519203","0.0-1.0-554.0-0.0","0","0","83730","","417","","","68","61","","","2","61","training","adjacent","BA","2","1","L.jpg","M.jpg","1","0","0","",""
"","feedback","","html-keyboard-response","413","520205","0.0-1.0-555.0-0.0","0","0","83730","","null","","","null","61","","","","","","","","","","","","","","","",""
"","time_out","","html-keyboard-response","414","522208","0.0-1.0-557.0-0.0","0","0","83730","","null","","","null","61","","","","","","","","","","","","","","","",""
"","ITI","","html-keyboard-response","415","523210","0.0-1.0-558.0","0","0","83730","","null","","","null","61","","","","","","","","","","","","","","","NaN",""
"","S1","","html-keyboard-response","416","523462","0.0-1.0-560.0","0","0","83730","","null","","","null","62","","","","","","","","","","","","","","","",""
"","ISI","","html-keyboard-response","417","525465","0.0-1.0-561.0","0","0","83730","","null","","","null","62","NaN","","","","","","","","","","","","","","",""
"","S2","","html-keyboard-response","418","525717","0.0-1.0-562.0","0","0","83730","","null","","","null","62","","NaN","","","","","","","","","","","","","",""
"","response","","html-keyboard-response","419","525981","0.0-1.0-563.0-0.0","0","0","83730","","263","","","68","62","","","2","62","training","adjacent","DC","4","3","P.jpg","Q.jpg","1","0","0","",""
"","feedback","","html-keyboard-response","420","526984","0.0-1.0-564.0-0.0","0","0","83730","","null","","","null","62","","","","","","","","","","","","","","","",""
"","time_out","","html-keyboard-response","421","528985","0.0-1.0-566.0-0.0","0","0","83730","","null","","","null","62","","","","","","","","","","","","","","","",""
"","ITI","","html-keyboard-response","422","529988","0.0-1.0-567.0","0","0","83730","","null","","","null","62","","","","","","","","","","","","","","","NaN",""
"","S1","","html-keyboard-response","423","530240","0.0-1.0-569.0","0","0","83730","","null","","","null","63","","","","","","","","","","","","","","","",""
"","ISI","","html-keyboard-response","424","532243","0.0-1.0-570.0","0","0","83730","","null","","","null","63","NaN","","","","","","","","","","","","","","",""
"","S2","","html-keyboard-response","425","532496","0.0-1.0-571.0","0","0","83730","","null","","","null","63","","NaN","","","","","","","","","","","","","",""
"","response","","html-keyboard-response","426","532851","0.0-1.0-572.0-0.0","0","0","83730","","354","","","68","63","","","2","63","training","adjacent","AB","1","2","M.jpg","L.jpg","1","1","1","",""
"","feedback","","html-keyboard-response","427","533854","0.0-1.0-573.0-0.0","0","0","83730","","null","","","null","63","","","","","","","","","","","","","","","",""
"","ITI","","html-keyboard-response","428","534857","0.0-1.0-576.0","0","0","83730","","null","","","null","63","","","","","","","","","","","","","","","NaN",""
"","S1","","html-keyboard-response","429","535109","0.0-1.0-578.0","0","0","83730","","null","","","null","64","","","","","","","","","","","","","","","",""
"","ISI","","html-keyboard-response","430","537111","0.0-1.0-579.0","0","0","83730","","null","","","null","64","NaN","","","","","","","","","","","","","","",""
"","S2","","html-keyboard-response","431","537364","0.0-1.0-580.0","0","0","83730","","null","","","null","64","","NaN","","","","","","","","","","","","","",""
"","response","","html-keyboard-response","432","537803","0.0-1.0-581.0-0.0","0","0","83730","","438","","","68","64","","","2","64","training","adjacent","DE","4","5","P.jpg","R.jpg","1","1","1","",""
"","feedback","","html-keyboard-response","433","538820","0.0-1.0-582.0-0.0","0","0","83730","","null","","","null","64","","","","","","","","","","","","","","","",""
"","ITI","","html-keyboard-response","434","539823","0.0-1.0-585.0","0","0","83730","","null","","","null","64","","","","","","","","","","","","","","","NaN",""
"","S1","","html-keyboard-response","435","540075","0.0-1.0-587.0","0","0","83730","","null","","","null","65","","","","","","","","","","","","","","","",""
"","ISI","","html-keyboard-response","436","542076","0.0-1.0-588.0","0","0","83730","","null","","","null","65","NaN","","","","","","","","","","","","","","",""
"","S2","","html-keyboard-response","437","542328","0.0-1.0-589.0","0","0","83730","","null","","","null","65","","NaN","","","","","","","","","","","","","",""
"","response","","html-keyboard-response","438","542649","0.0-1.0-590.0-0.0","0","0","83730","","319","","","68","65","","","2","65","training","adjacent","AB","1","2","M.jpg","L.jpg","1","1","1","",""
"","feedback","","html-keyboard-response","439","543651","0.0-1.0-591.0-0.0","0","0","83730","","null","","","null","65","","","","","","","","","","","","","","","",""
"","ITI","","html-keyboard-response","440","544654","0.0-1.0-594.0","0","0","83730","","null","","","null","65","","","","","","","","","","","","","","","NaN",""
"","S1","","html-keyboard-response","441","544906","0.0-1.0-596.0","0","0","83730","","null","","","null","66","","","","","","","","","","","","","","","",""
"","ISI","","html-keyboard-response","442","546908","0.0-1.0-597.0","0","0","83730","","null","","","null","66","NaN","","","","","","","","","","","","","","",""
"","S2","","html-keyboard-response","443","547161","0.0-1.0-598.0","0","0","83730","","null","","","null","66","","NaN","","","","","","","","","","","","","",""
"","response","","html-keyboard-response","444","547454","0.0-1.0-599.0-0.0","0","0","83730","","291","","","68","66","","","2","66","training","adjacent","FG","6","7","N.jpg","O.jpg","1","1","1","",""
"","feedback","","html-keyboard-response","445","548457","0.0-1.0-600.0-0.0","0","0","83730","","null","","","null","66","","","","","","","","","","","","","","","",""
"","ITI","","html-keyboard-response","446","549459","0.0-1.0-603.0","0","0","83730","","null","","","null","66","","","","","","","","","","","","","","","NaN",""
"","S1","","html-keyboard-response","447","549712","0.0-1.0-605.0","0","0","83730","","null","","","null","67","","","","","","","","","","","","","","","",""
"","ISI","","html-keyboard-response","448","551714","0.0-1.0-606.0","0","0","83730","","null","","","null","67","NaN","","","","","","","","","","","","","","",""
"","S2","","html-keyboard-response","449","551966","0.0-1.0-607.0","0","0","83730","","null","","","null","67","","NaN","","","","","","","","","","","","","",""
"","response","","html-keyboard-response","450","552338","0.0-1.0-608.0-0.0","0","0","83730","","370","","","68","67","","","2","67","training","adjacent","AB","1","2","M.jpg","L.jpg","1","1","1","",""
"","feedback","","html-keyboard-response","451","553340","0.0-1.0-609.0-0.0","0","0","83730","","null","","","null","67","","","","","","","","","","","","","","","",""
"","ITI","","html-keyboard-response","452","554343","0.0-1.0-612.0","0","0","83730","","null","","","null","67","","","","","","","","","","","","","","","NaN",""
"","S1","","html-keyboard-response","453","554599","0.0-1.0-614.0","0","0","83730","","null","","","null","68","","","","","","","","","","","","","","","",""
"","ISI","","html-keyboard-response","454","556601","0.0-1.0-615.0","0","0","83730","","null","","","null","68","NaN","","","","","","","","","","","","","","",""
"","S2","","html-keyboard-response","455","556856","0.0-1.0-616.0","0","0","83730","","null","","","null","68","","NaN","","","","","","","","","","","","","",""
"","response","","html-keyboard-response","456","557205","0.0-1.0-617.0-0.0","0","0","83730","","347","","","68","68","","","2","68","training","adjacent","BA","2","1","L.jpg","M.jpg","1","0","0","",""
"","feedback","","html-keyboard-response","457","558208","0.0-1.0-618.0-0.0","0","0","83730","","null","","","null","68","","","","","","","","","","","","","","","",""
"","time_out","","html-keyboard-response","458","560211","0.0-1.0-620.0-0.0","0","0","83730","","null","","","null","68","","","","","","","","","","","","","","","",""
"","ITI","","html-keyboard-response","459","561213","0.0-1.0-621.0","0","0","83730","","null","","","null","68","","","","","","","","","","","","","","","NaN",""
"","S1","","html-keyboard-response","460","561465","0.0-1.0-623.0","0","0","83730","","null","","","null","69","","","","","","","","","","","","","","","",""
"","ISI","","html-keyboard-response","461","563479","0.0-1.0-624.0","0","0","83730","","null","","","null","69","NaN","","","","","","","","","","","","","","",""
"","S2","","html-keyboard-response","462","563731","0.0-1.0-625.0","0","0","83730","","null","","","null","69","","NaN","","","","","","","","","","","","","",""
"","response","","html-keyboard-response","463","564057","0.0-1.0-626.0-0.0","0","0","83730","","325","","","68","69","","","2","69","training","adjacent","BC","2","3","L.jpg","Q.jpg","1","1","1","",""
"","feedback","","html-keyboard-response","464","565060","0.0-1.0-627.0-0.0","0","0","83730","","null","","","null","69","","","","","","","","","","","","","","","",""
"","ITI","","html-keyboard-response","465","566066","0.0-1.0-630.0","0","0","83730","","null","","","null","69","","","","","","","","","","","","","","","NaN",""
"","S1","","html-keyboard-response","466","566318","0.0-1.0-632.0","0","0","83730","","null","","","null","70","","","","","","","","","","","","","","","",""
"","ISI","","html-keyboard-response","467","568321","0.0-1.0-633.0","0","0","83730","","null","","","null","70","NaN","","","","","","","","","","","","","","",""
"","S2","","html-keyboard-response","468","568573","0.0-1.0-634.0","0","0","83730","","null","","","null","70","","NaN","","","","","","","","","","","","","",""
"","response","","html-keyboard-response","469","568953","0.0-1.0-635.0-0.0","0","0","83730","","380","","","68","70","","","2","70","training","adjacent","ED","5","4","R.jpg","P.jpg","1","0","0","",""
"","feedback","","html-keyboard-response","470","569969","0.0-1.0-636.0-0.0","0","0","83730","","null","","","null","70","","","","","","","","","","","","","","","",""
"","time_out","","html-keyboard-response","471","571972","0.0-1.0-638.0-0.0","0","0","83730","","null","","","null","70","","","","","","","","","","","","","","","",""
"","ITI","","html-keyboard-response","472","572975","0.0-1.0-639.0","0","0","83730","","null","","","null","70","","","","","","","","","","","","","","","NaN",""
"","S1","","html-keyboard-response","473","573227","0.0-1.0-641.0","0","0","83730","","null","","","null","71","","","","","","","","","","","","","","","",""
"","ISI","","html-keyboard-response","474","575229","0.0-1.0-642.0","0","0","83730","","null","","","null","71","NaN","","","","","","","","","","","","","","",""
"","S2","","html-keyboard-response","475","575482","0.0-1.0-643.0","0","0","83730","","null","","","null","71","","NaN","","","","","","","","","","","","","",""
"","response","","html-keyboard-response","476","575749","0.0-1.0-644.0-0.0","0","0","83730","","266","","","68","71","","","2","71","training","adjacent","DE","4","5","P.jpg","R.jpg","1","1","1","",""
"","feedback","","html-keyboard-response","477","576751","0.0-1.0-645.0-0.0","0","0","83730","","null","","","null","71","","","","","","","","","","","","","","","",""
"","ITI","","html-keyboard-response","478","577754","0.0-1.0-648.0","0","0","83730","","null","","","null","71","","","","","","","","","","","","","","","NaN",""
"","S1","","html-keyboard-response","479","578006","0.0-1.0-650.0","0","0","83730","","null","","","null","72","","","","","","","","","","","","","","","",""
"","ISI","","html-keyboard-response","480","580008","0.0-1.0-651.0","0","0","83730","","null","","","null","72","NaN","","","","","","","","","","","","","","",""
"","S2","","html-keyboard-response","481","580266","0.0-1.0-652.0","0","0","83730","","null","","","null","72","","NaN","","","","","","","","","","","","","",""
"","response","","html-keyboard-response","482","580634","0.0-1.0-653.0-0.0","0","0","83730","","367","","","68","72","","","2","72","training","adjacent","DC","4","3","P.jpg","Q.jpg","1","0","0","",""
"","feedback","","html-keyboard-response","483","581636","0.0-1.0-654.0-0.0","0","0","83730","","null","","","null","72","","","","","","","","","","","","","","","",""
"","time_out","","html-keyboard-response","484","583639","0.0-1.0-656.0-0.0","0","0","83730","","null","","","null","72","","","","","","","","","","","","","","","",""
"","ITI","","html-keyboard-response","485","584641","0.0-1.0-657.0","0","0","83730","","null","","","null","72","","","","","","","","","","","","","","","NaN",""
"","S1","","html-keyboard-response","486","584906","0.0-1.0-659.0","0","0","83730","","null","","","null","73","","","","","","","","","","","","","","","",""
"","ISI","","html-keyboard-response","487","586909","0.0-1.0-660.0","0","0","83730","","null","","","null","73","NaN","","","","","","","","","","","","","","",""
"","S2","","html-keyboard-response","488","587161","0.0-1.0-661.0","0","0","83730","","null","","","null","73","","NaN","","","","","","","","","","","","","",""
"","response","","html-keyboard-response","489","587495","0.0-1.0-662.0-0.0","0","0","83730","","333","","","75","73","","","2","73","training","adjacent","CB","3","2","Q.jpg","L.jpg","0","0","1","",""
"","feedback","","html-keyboard-response","490","588497","0.0-1.0-663.0-0.0","0","0","83730","","null","","","null","73","","","","","","","","","","","","","","","",""
"","ITI","","html-keyboard-response","491","589500","0.0-1.0-666.0","0","0","83730","","null","","","null","73","","","","","","","","","","","","","","","NaN",""
"","S1","","html-keyboard-response","492","589752","0.0-1.0-668.0","0","0","83730","","null","","","null","74","","","","","","","","","","","","","","","",""
"","ISI","","html-keyboard-response","493","591755","0.0-1.0-669.0","0","0","83730","","null","","","null","74","NaN","","","","","","","","","","","","","","",""
"","S2","","html-keyboard-response","494","592008","0.0-1.0-670.0","0","0","83730","","null","","","null","74","","NaN","","","","","","","","","","","","","",""
"","response","","html-keyboard-response","495","592456","0.0-1.0-671.0-0.0","0","0","83730","","447","","","68","74","","","2","74","training","adjacent","GF","7","6","O.jpg","N.jpg","1","0","0","",""
"","feedback","","html-keyboard-response","496","593458","0.0-1.0-672.0-0.0","0","0","83730","","null","","","null","74","","","","","","","","","","","","","","","",""
"","time_out","","html-keyboard-response","497","595460","0.0-1.0-674.0-0.0","0","0","83730","","null","","","null","74","","","","","","","","","","","","","","","",""
"","ITI","","html-keyboard-response","498","596463","0.0-1.0-675.0","0","0","83730","","null","","","null","74","","","","","","","","","","","","","","","NaN",""
"","S1","","html-keyboard-response","499","596715","0.0-1.0-677.0","0","0","83730","","null","","","null","75","","","","","","","","","","","","","","","",""
"","ISI","","html-keyboard-response","500","598718","0.0-1.0-678.0","0","0","83730","","561","","","68","75","d","","","","","","","","","","","","","","",""
"","S2","","html-keyboard-response","501","598971","0.0-1.0-679.0","0","0","83730","","null","","","null","75","","NaN","","","","","","","","","","","","","",""
"","response","","html-keyboard-response","502","599335","0.0-1.0-680.0-0.0","0","0","83730","","362","","","68","75","","","2","75","training","adjacent","FG","6","7","N.jpg","O.jpg","1","1","1","",""
"","feedback","","html-keyboard-response","503","600338","0.0-1.0-681.0-0.0","0","0","83730","","null","","","null","75","","","","","","","","","","","","","","","",""
"","ITI","","html-keyboard-response","504","601341","0.0-1.0-684.0","0","0","83730","","null","","","null","75","","","","","","","","","","","","","","","NaN",""
"","S1","","html-keyboard-response","505","601594","0.0-1.0-686.0","0","0","83730","","null","","","null","76","","","","","","","","","","","","","","","",""
"","ISI","","html-keyboard-response","506","603597","0.0-1.0-687.0","0","0","83730","","null","","","null","76","NaN","","","","","","","","","","","","","","",""
"","S2","","html-keyboard-response","507","603849","0.0-1.0-688.0","0","0","83730","","null","","","null","76","","NaN","","","","","","","","","","","","","",""
"","response","","html-keyboard-response","508","604490","0.0-1.0-689.0-0.0","0","0","83730","","639","","","68","76","","","2","76","training","adjacent","FE","6","5","N.jpg","R.jpg","1","0","0","",""
"","feedback","","html-keyboard-response","509","605493","0.0-1.0-690.0-0.0","0","0","83730","","null","","","null","76","","","","","","","","","","","","","","","",""
"","time_out","","html-keyboard-response","510","607496","0.0-1.0-692.0-0.0","0","0","83730","","null","","","null","76","","","","","","","","","","","","","","","",""
"","ITI","","html-keyboard-response","511","608499","0.0-1.0-693.0","0","0","83730","","null","","","null","76","","","","","","","","","","","","","","","NaN",""
"","S1","","html-keyboard-response","512","608751","0.0-1.0-695.0","0","0","83730","","null","","","null","77","","","","","","","","","","","","","","","",""
"","ISI","","html-keyboard-response","513","610753","0.0-1.0-696.0","0","0","83730","","353","","","68","77","d","","","","","","","","","","","","","","",""
"","S2","","html-keyboard-response","514","611007","0.0-1.0-697.0","0","0","83730","","null","","","null","77","","NaN","","","","","","","","","","","","","",""
"","response","","html-keyboard-response","515","611228","0.0-1.0-698.0-0.0","0","0","83730","","220","","","68","77","","","2","77","training","adjacent","CB","3","2","Q.jpg","L.jpg","1","0","0","",""
"","feedback","","html-keyboard-response","516","612230","0.0-1.0-699.0-0.0","0","0","83730","","null","","","null","77","","","","","","","","","","","","","","","",""
"","time_out","","html-keyboard-response","517","614233","0.0-1.0-701.0-0.0","0","0","83730","","null","","","null","77","","","","","","","","","","","","","","","",""
"","ITI","","html-keyboard-response","518","615236","0.0-1.0-702.0","0","0","83730","","null","","","null","77","","","","","","","","","","","","","","","NaN",""
"","S1","","html-keyboard-response","519","615488","0.0-1.0-704.0","0","0","83730","","null","","","null","78","","","","","","","","","","","","","","","",""
"","ISI","","html-keyboard-response","520","617491","0.0-1.0-705.0","0","0","83730","","null","","","null","78","NaN","","","","","","","","","","","","","","",""
"","S2","","html-keyboard-response","521","617744","0.0-1.0-706.0","0","0","83730","","null","","","null","78","","NaN","","","","","","","","","","","","","",""
"","response","","html-keyboard-response","522","618068","0.0-1.0-707.0-0.0","0","0","83730","","322","","","68","78","","","2","78","training","adjacent","CD","3","4","Q.jpg","P.jpg","1","1","1","",""
"","feedback","","html-keyboard-response","523","619071","0.0-1.0-708.0-0.0","0","0","83730","","null","","","null","78","","","","","","","","","","","","","","","",""
"","ITI","","html-keyboard-response","524","620074","0.0-1.0-711.0","0","0","83730","","null","","","null","78","","","","","","","","","","","","","","","NaN",""
"","S1","","html-keyboard-response","525","620326","0.0-1.0-713.0","0","0","83730","","null","","","null","79","","","","","","","","","","","","","","","",""
"","ISI","","html-keyboard-response","526","622327","0.0-1.0-714.0","0","0","83730","","null","","","null","79","NaN","","","","","","","","","","","","","","",""
"","S2","","html-keyboard-response","527","622580","0.0-1.0-715.0","0","0","83730","","null","","","null","79","","NaN","","","","","","","","","","","","","",""
"","response","","html-keyboard-response","528","622950","0.0-1.0-716.0-0.0","0","0","83730","","368","","","68","79","","","2","79","training","adjacent","FE","6","5","N.jpg","R.jpg","1","0","0","",""
"","feedback","","html-keyboard-response","529","623952","0.0-1.0-717.0-0.0","0","0","83730","","null","","","null","79","","","","","","","","","","","","","","","",""
"","time_out","","html-keyboard-response","530","625954","0.0-1.0-719.0-0.0","0","0","83730","","null","","","null","79","","","","","","","","","","","","","","","",""
"","ITI","","html-keyboard-response","531","626956","0.0-1.0-720.0","0","0","83730","","null","","","null","79","","","","","","","","","","","","","","","NaN",""
"","S1","","html-keyboard-response","532","627209","0.0-1.0-722.0","0","0","83730","","null","","","null","80","","","","","","","","","","","","","","","",""
"","ISI","","html-keyboard-response","533","629210","0.0-1.0-723.0","0","0","83730","","424","","","68","80","d","","","","","","","","","","","","","","",""
"","S2","","html-keyboard-response","534","629472","0.0-1.0-724.0","0","0","83730","","null","","","null","80","","NaN","","","","","","","","","","","","","",""
"","response","","html-keyboard-response","535","629685","0.0-1.0-725.0-0.0","0","0","83730","","211","","","68","80","","","2","80","training","adjacent","BA","2","1","L.jpg","M.jpg","1","0","0","",""
"","feedback","","html-keyboard-response","536","630687","0.0-1.0-726.0-0.0","0","0","83730","","null","","","null","80","","","","","","","","","","","","","","","",""
"","time_out","","html-keyboard-response","537","632690","0.0-1.0-728.0-0.0","0","0","83730","","null","","","null","80","","","","","","","","","","","","","","","",""
"","ITI","","html-keyboard-response","538","633691","0.0-1.0-729.0","0","0","83730","","null","","","null","80","","","","","","","","","","","","","","","NaN",""
"","S1","","html-keyboard-response","539","633943","0.0-1.0-731.0","0","0","83730","","null","","","null","81","","","","","","","","","","","","","","","",""
"","ISI","","html-keyboard-response","540","635945","0.0-1.0-732.0","0","0","83730","","null","","","null","81","NaN","","","","","","","","","","","","","","",""
"","S2","","html-keyboard-response","541","636197","0.0-1.0-733.0","0","0","83730","","null","","","null","81","","NaN","","","","","","","","","","","","","",""
"","response","","html-keyboard-response","542","636322","0.0-1.0-734.0-0.0","0","0","83730","","123","","","68","81","","","2","81","training","adjacent","BC","2","3","L.jpg","Q.jpg","1","1","1","",""
"","feedback","","html-keyboard-response","543","637325","0.0-1.0-735.0-0.0","0","0","83730","","null","","","null","81","","","","","","","","","","","","","","","",""
"","ITI","","html-keyboard-response","544","638327","0.0-1.0-738.0","0","0","83730","","null","","","null","81","","","","","","","","","","","","","","","NaN",""
"","S1","","html-keyboard-response","545","638580","0.0-1.0-740.0","0","0","83730","","null","","","null","82","","","","","","","","","","","","","","","",""
"","ISI","","html-keyboard-response","546","640583","0.0-1.0-741.0","0","0","83730","","null","","","null","82","NaN","","","","","","","","","","","","","","",""
"","S2","","html-keyboard-response","547","640844","0.0-1.0-742.0","0","0","83730","","null","","","null","82","","NaN","","","","","","","","","","","","","",""
"","response","","html-keyboard-response","548","641208","0.0-1.0-743.0-0.0","0","0","83730","","362","","","68","82","","","2","82","training","adjacent","AB","1","2","M.jpg","L.jpg","1","1","1","",""
"","feedback","","html-keyboard-response","549","642210","0.0-1.0-744.0-0.0","0","0","83730","","null","","","null","82","","","","","","","","","","","","","","","",""
"","ITI","","html-keyboard-response","550","643213","0.0-1.0-747.0","0","0","83730","","null","","","null","82","","","","","","","","","","","","","","","NaN",""
"","S1","","html-keyboard-response","551","643465","0.0-1.0-749.0","0","0","83730","","null","","","null","83","","","","","","","","","","","","","","","",""
"","ISI","","html-keyboard-response","552","645467","0.0-1.0-750.0","0","0","83730","","null","","","null","83","NaN","","","","","","","","","","","","","","",""
"","S2","","html-keyboard-response","553","645720","0.0-1.0-751.0","0","0","83730","","null","","","null","83","","NaN","","","","","","","","","","","","","",""
"","response","","html-keyboard-response","554","646040","0.0-1.0-752.0-0.0","0","0","83730","","319","","","68","83","","","2","83","training","adjacent","BA","2","1","L.jpg","M.jpg","1","0","0","",""
"","feedback","","html-keyboard-response","555","647043","0.0-1.0-753.0-0.0","0","0","83730","","null","","","null","83","","","","","","","","","","","","","","","",""
"","time_out","","html-keyboard-response","556","649045","0.0-1.0-755.0-0.0","0","0","83730","","null","","","null","83","","","","","","","","","","","","","","","",""
"","ITI","","html-keyboard-response","557","650047","0.0-1.0-756.0","0","0","83730","","null","","","null","83","","","","","","","","","","","","","","","NaN",""
"","S1","","html-keyboard-response","558","650299","0.0-1.0-758.0","0","0","83730","","null","","","null","84","","","","","","","","","","","","","","","",""
"","ISI","","html-keyboard-response","559","652300","0.0-1.0-759.0","0","0","83730","","null","","","null","84","NaN","","","","","","","","","","","","","","",""
"","S2","","html-keyboard-response","560","652553","0.0-1.0-760.0","0","0","83730","","null","","","null","84","","NaN","","","","","","","","","","","","","",""
"","response","","html-keyboard-response","561","652877","0.0-1.0-761.0-0.0","0","0","83730","","322","","","68","84","","","2","84","training","adjacent","DC","4","3","P.jpg","Q.jpg","1","0","0","",""
"","feedback","","html-keyboard-response","562","653880","0.0-1.0-762.0-0.0","0","0","83730","","null","","","null","84","","","","","","","","","","","","","","","",""
"","time_out","","html-keyboard-response","563","655882","0.0-1.0-764.0-0.0","0","0","83730","","null","","","null","84","","","","","","","","","","","","","","","",""
"","ITI","","html-keyboard-response","564","656885","0.0-1.0-765.0","0","0","83730","","null","","","null","84","","","","","","","","","","","","","","","NaN",""
"","S1","","html-keyboard-response","565","657137","0.0-1.0-767.0","0","0","83730","","null","","","null","85","","","","","","","","","","","","","","","",""
"","ISI","","html-keyboard-response","566","659140","0.0-1.0-768.0","0","0","83730","","null","","","null","85","NaN","","","","","","","","","","","","","","",""
"","S2","","html-keyboard-response","567","659393","0.0-1.0-769.0","0","0","83730","","null","","","null","85","","NaN","","","","","","","","","","","","","",""
"","response","","html-keyboard-response","568","659815","0.0-1.0-770.0-0.0","0","0","83730","","421","","","68","85","","","2","85","training","adjacent","ED","5","4","R.jpg","P.jpg","1","0","0","",""
"","feedback","","html-keyboard-response","569","660818","0.0-1.0-771.0-0.0","0","0","83730","","null","","","null","85","","","","","","","","","","","","","","","",""
"","time_out","","html-keyboard-response","570","662821","0.0-1.0-773.0-0.0","0","0","83730","","null","","","null","85","","","","","","","","","","","","","","","",""
"","ITI","","html-keyboard-response","571","663824","0.0-1.0-774.0","0","0","83730","","null","","","null","85","","","","","","","","","","","","","","","NaN",""
"","S1","","html-keyboard-response","572","664076","0.0-1.0-776.0","0","0","83730","","null","","","null","86","","","","","","","","","","","","","","","",""
"","ISI","","html-keyboard-response","573","666078","0.0-1.0-777.0","0","0","83730","","null","","","null","86","NaN","","","","","","","","","","","","","","",""
"","S2","","html-keyboard-response","574","666330","0.0-1.0-778.0","0","0","83730","","null","","","null","86","","NaN","","","","","","","","","","","","","",""
"","response","","html-keyboard-response","575","666632","0.0-1.0-779.0-0.0","0","0","83730","","300","","","68","86","","","2","86","training","adjacent","FE","6","5","N.jpg","R.jpg","1","0","0","",""
"","feedback","","html-keyboard-response","576","667635","0.0-1.0-780.0-0.0","0","0","83730","","null","","","null","86","","","","","","","","","","","","","","","",""
"","time_out","","html-keyboard-response","577","669638","0.0-1.0-782.0-0.0","0","0","83730","","null","","","null","86","","","","","","","","","","","","","","","",""
