"success","ttype","start_time","trial_type","trial_index","time_elapsed","internal_node_id","warning","missed_checkup","PID","view_history","rt","responses","repeat_instructions","key_press","index","keypress_isi","keypress_S2","block","trial_num","phase","group_type","pair_type","S1_stim","S2_stim","S1_img","S2_img","S1_chosen","S1_higher","accuracy","keypress_iti","total_bonus_tally"
"true","full_screen","d08052022hr1303","fullscreen","0","15163","0.0-0.0","0","0","53186","","","","","","","","","","","","","","","","","","","","","",""
"","instructions","","instructions","1","34538","0.0-1.0-0.0-0.0","0","0","53186","[{""page_index"":0,""viewing_time"":2271},{""page_index"":1,""viewing_time"":9784},{""page_index"":2,""viewing_time"":5746},{""page_index"":3,""viewing_time"":1570}]","19371","","","","","","","","","","","","","","","","","","","",""
"","comprehension_check","","survey-multi-choice","2","355461","0.0-1.0-0.0-1.0","0","0","53186","","320920","{""Q0"":""True"",""Q1"":""D"",""Q2"":""Once the second image appears and while the screen 'MAKE A CHOICE' is shown"",""Q3"":""Green mark"",""Q4"":""either D or K""}","0","","","","","","","","","","","","","","","","","",""
"","start_exp","","html-keyboard-response","3","643113","0.0-1.0-1.0","0","0","53186","","287648","","","32","","","","","","","","","","","","","","","","",""
"","S1","","html-keyboard-response","4","643371","0.0-1.0-2.0","0","0","53186","","null","","","null","0","","","","","","","","","","","","","","","",""
"","ISI","","html-keyboard-response","5","645374","0.0-1.0-3.0","0","0","53186","","null","","","null","0","NaN","","","","","","","","","","","","","","",""
"","S2","","html-keyboard-response","6","645628","0.0-1.0-4.0","0","0","53186","","null","","","null","0","","NaN","","","","","","","","","","","","","",""
"","response","","html-keyboard-response","7","646135","0.0-1.0-5.0-0.0","0","0","53186","","503","","","68","0","","","1","0","training","adjacent","BC","2","3","N.jpg","R.jpg","1","1","1","",""
"","feedback","","html-keyboard-response","8","647141","0.0-1.0-6.0-0.0","0","0","53186","","null","","","null","0","","","","","","","","","","","","","","","",""
"","ITI","","html-keyboard-response","9","648144","0.0-1.0-9.0","0","0","53186","","null","","","null","0","","","","","","","","","","","","","","","NaN",""
"","S1","","html-keyboard-response","10","648398","0.0-1.0-11.0","0","0","53186","","null","","","null","1","","","","","","","","","","","","","","","",""
"","ISI","","html-keyboard-response","11","650401","0.0-1.0-12.0","0","0","53186","","null","","","null","1","NaN","","","","","","","","","","","","","","",""
"","S2","","html-keyboard-response","12","650655","0.0-1.0-13.0","0","0","53186","","null","","","null","1","","NaN","","","","","","","","","","","","","",""
"","response","","html-keyboard-response","13","651095","0.0-1.0-14.0-0.0","0","0","53186","","437","","","75","1","","","1","1","training","adjacent","DC","4","3","P.jpg","R.jpg","0","0","1","",""
"","feedback","","html-keyboard-response","14","652098","0.0-1.0-15.0-0.0","0","0","53186","","null","","","null","1","","","","","","","","","","","","","","","",""
"","ITI","","html-keyboard-response","15","653102","0.0-1.0-18.0","0","0","53186","","null","","","null","1","","","","","","","","","","","","","","","NaN",""
"","S1","","html-keyboard-response","16","653355","0.0-1.0-20.0","0","0","53186","","null","","","null","2","","","","","","","","","","","","","","","",""
"","ISI","","html-keyboard-response","17","655359","0.0-1.0-21.0","0","0","53186","","null","","","null","2","NaN","","","","","","","","","","","","","","",""
"","S2","","html-keyboard-response","18","655615","0.0-1.0-22.0","0","0","53186","","null","","","null","2","","NaN","","","","","","","","","","","","","",""
"","response","","html-keyboard-response","19","656044","0.0-1.0-23.0-0.0","0","0","53186","","427","","","68","2","","","1","2","training","adjacent","DC","4","3","P.jpg","R.jpg","1","0","0","",""
"","feedback","","html-keyboard-response","20","657048","0.0-1.0-24.0-0.0","0","0","53186","","null","","","null","2","","","","","","","","","","","","","","","",""
"","time_out","","html-keyboard-response","21","659052","0.0-1.0-26.0-0.0","0","0","53186","","null","","","null","2","","","","","","","","","","","","","","","",""
"","ITI","","html-keyboard-response","22","660056","0.0-1.0-27.0","0","0","53186","","null","","","null","2","","","","","","","","","","","","","","","NaN",""
"","S1","","html-keyboard-response","23","660309","0.0-1.0-29.0","0","0","53186","","null","","","null","3","","","","","","","","","","","","","","","",""
"","ISI","","html-keyboard-response","24","662314","0.0-1.0-30.0","0","0","53186","","null","","","null","3","NaN","","","","","","","","","","","","","","",""
"","S2","","html-keyboard-response","25","662568","0.0-1.0-31.0","0","0","53186","","null","","","null","3","","NaN","","","","","","","","","","","","","",""
"","response","","html-keyboard-response","26","662791","0.0-1.0-32.0-0.0","0","0","53186","","219","","","75","3","","","1","3","training","adjacent","CB","3","2","R.jpg","N.jpg","0","0","1","",""
"","feedback","","html-keyboard-response","27","663795","0.0-1.0-33.0-0.0","0","0","53186","","null","","","null","3","","","","","","","","","","","","","","","",""
"","ITI","","html-keyboard-response","28","664799","0.0-1.0-36.0","0","0","53186","","null","","","null","3","","","","","","","","","","","","","","","NaN",""
"","S1","","html-keyboard-response","29","665054","0.0-1.0-38.0","0","0","53186","","null","","","null","4","","","","","","","","","","","","","","","",""
"","ISI","","html-keyboard-response","30","667063","0.0-1.0-39.0","0","0","53186","","null","","","null","4","NaN","","","","","","","","","","","","","","",""
"","S2","","html-keyboard-response","31","667319","0.0-1.0-40.0","0","0","53186","","null","","","null","4","","NaN","","","","","","","","","","","","","",""
"","response","","html-keyboard-response","32","667334","0.0-1.0-41.0-0.0","0","0","53186","","12","","","75","4","","","1","4","training","adjacent","AB","1","2","Q.jpg","N.jpg","0","1","0","",""
"","feedback","","html-keyboard-response","33","668339","0.0-1.0-42.0-0.0","0","0","53186","","null","","","null","4","","","","","","","","","","","","","","","",""
"","time_out","","html-keyboard-response","34","670340","0.0-1.0-44.0-0.0","0","0","53186","","null","","","null","4","","","","","","","","","","","","","","","",""
"","ITI","","html-keyboard-response","35","671344","0.0-1.0-45.0","0","0","53186","","null","","","null","4","","","","","","","","","","","","","","","NaN",""
"","S1","","html-keyboard-response","36","671599","0.0-1.0-47.0","0","0","53186","","null","","","null","5","","","","","","","","","","","","","","","",""
"","ISI","","html-keyboard-response","37","673602","0.0-1.0-48.0","0","0","53186","","null","","","null","5","NaN","","","","","","","","","","","","","","",""
"","S2","","html-keyboard-response","38","673857","0.0-1.0-49.0","0","0","53186","","null","","","null","5","","NaN","","","","","","","","","","","","","",""
"","response","","html-keyboard-response","39","673868","0.0-1.0-50.0-0.0","0","0","53186","","10","","","75","5","","","1","5","training","adjacent","ED","5","4","M.jpg","P.jpg","0","0","1","",""
"","feedback","","html-keyboard-response","40","674870","0.0-1.0-51.0-0.0","0","0","53186","","null","","","null","5","","","","","","","","","","","","","","","",""
"","ITI","","html-keyboard-response","41","675875","0.0-1.0-54.0","0","0","53186","","null","","","null","5","","","","","","","","","","","","","","","NaN",""
"","S1","","html-keyboard-response","42","676130","0.0-1.0-56.0","0","0","53186","","null","","","null","6","","","","","","","","","","","","","","","",""
"","ISI","","html-keyboard-response","43","678134","0.0-1.0-57.0","0","0","53186","","null","","","null","6","NaN","","","","","","","","","","","","","","",""
"","S2","","html-keyboard-response","44","678387","0.0-1.0-58.0","0","0","53186","","null","","","null","6","","NaN","","","","","","","","","","","","","",""
"","response","","html-keyboard-response","45","678750","0.0-1.0-59.0-0.0","0","0","53186","","360","","","68","6","","","1","6","training","adjacent","DE","4","5","P.jpg","M.jpg","1","1","1","",""
"","feedback","","html-keyboard-response","46","679754","0.0-1.0-60.0-0.0","0","0","53186","","null","","","null","6","","","","","","","","","","","","","","","",""
"","ITI","","html-keyboard-response","47","680759","0.0-1.0-63.0","0","0","53186","","null","","","null","6","","","","","","","","","","","","","","","NaN",""
"","S1","","html-keyboard-response","48","681014","0.0-1.0-65.0","0","0","53186","","null","","","null","7","","","","","","","","","","","","","","","",""
"","ISI","","html-keyboard-response","49","683017","0.0-1.0-66.0","0","0","53186","","null","","","null","7","NaN","","","","","","","","","","","","","","",""
"","S2","","html-keyboard-response","50","683272","0.0-1.0-67.0","0","0","53186","","null","","","null","7","","NaN","","","","","","","","","","","","","",""
"","response","","html-keyboard-response","51","683510","0.0-1.0-68.0-0.0","0","0","53186","","235","","","68","7","","","1","7","training","adjacent","GF","7","6","L.jpg","O.jpg","1","0","0","",""
"","feedback","","html-keyboard-response","52","684515","0.0-1.0-69.0-0.0","0","0","53186","","null","","","null","7","","","","","","","","","","","","","","","",""
"","time_out","","html-keyboard-response","53","686520","0.0-1.0-71.0-0.0","0","0","53186","","null","","","null","7","","","","","","","","","","","","","","","",""
"","ITI","","html-keyboard-response","54","687522","0.0-1.0-72.0","0","0","53186","","null","","","null","7","","","","","","","","","","","","","","","NaN",""
"","S1","","html-keyboard-response","55","687776","0.0-1.0-74.0","0","0","53186","","null","","","null","8","","","","","","","","","","","","","","","",""
"","ISI","","html-keyboard-response","56","689788","0.0-1.0-75.0","0","0","53186","","null","","","null","8","NaN","","","","","","","","","","","","","","",""
"","S2","","html-keyboard-response","57","690036","0.0-1.0-76.0","0","0","53186","","247","","","68","8","","d","1","8","training","adjacent","DE","4","5","P.jpg","M.jpg","1","1","1","",""
"","feedback","","html-keyboard-response","58","691040","0.0-1.0-78.0-0.0","0","0","53186","","null","","","null","8","","","","","","","","","","","","","","","",""
"","ITI","","html-keyboard-response","59","692043","0.0-1.0-81.0","0","0","53186","","null","","","null","8","","","","","","","","","","","","","","","NaN",""
"","S1","","html-keyboard-response","60","692297","0.0-1.0-83.0","0","0","53186","","null","","","null","9","","","","","","","","","","","","","","","",""
"","ISI","","html-keyboard-response","61","694299","0.0-1.0-84.0","0","0","53186","","null","","","null","9","NaN","","","","","","","","","","","","","","",""
"","S2","","html-keyboard-response","62","694550","0.0-1.0-85.0","0","0","53186","","249","","","75","9","","k","1","9","training","adjacent","GF","7","6","L.jpg","O.jpg","0","0","1","",""
"","feedback","","html-keyboard-response","63","695554","0.0-1.0-87.0-0.0","0","0","53186","","null","","","null","9","","","","","","","","","","","","","","","",""
"","ITI","","html-keyboard-response","64","696559","0.0-1.0-90.0","0","0","53186","","null","","","null","9","","","","","","","","","","","","","","","NaN",""
"","S1","","html-keyboard-response","65","696814","0.0-1.0-92.0","0","0","53186","","null","","","null","10","","","","","","","","","","","","","","","",""
"","ISI","","html-keyboard-response","66","698817","0.0-1.0-93.0","0","0","53186","","null","","","null","10","NaN","","","","","","","","","","","","","","",""
"","S2","","html-keyboard-response","67","699071","0.0-1.0-94.0","0","0","53186","","null","","","null","10","","NaN","","","","","","","","","","","","","",""
"","response","","html-keyboard-response","68","699142","0.0-1.0-95.0-0.0","0","0","53186","","68","","","75","10","","","1","10","training","adjacent","FG","6","7","O.jpg","L.jpg","0","1","0","",""
"","feedback","","html-keyboard-response","69","700146","0.0-1.0-96.0-0.0","0","0","53186","","null","","","null","10","","","","","","","","","","","","","","","",""
"","time_out","","html-keyboard-response","70","702151","0.0-1.0-98.0-0.0","0","0","53186","","null","","","null","10","","","","","","","","","","","","","","","",""
"","ITI","","html-keyboard-response","71","703155","0.0-1.0-99.0","0","0","53186","","null","","","null","10","","","","","","","","","","","","","","","NaN",""
"","S1","","html-keyboard-response","72","703410","0.0-1.0-101.0","0","0","53186","","null","","","null","11","","","","","","","","","","","","","","","",""
"","ISI","","html-keyboard-response","73","705413","0.0-1.0-102.0","0","0","53186","","null","","","null","11","NaN","","","","","","","","","","","","","","",""
"","S2","","html-keyboard-response","74","705668","0.0-1.0-103.0","0","0","53186","","null","","","null","11","","NaN","","","","","","","","","","","","","",""
"","response","","html-keyboard-response","75","705872","0.0-1.0-104.0-0.0","0","0","53186","","200","","","68","11","","","1","11","training","adjacent","FG","6","7","O.jpg","L.jpg","1","1","1","",""
"","feedback","","html-keyboard-response","76","706878","0.0-1.0-105.0-0.0","0","0","53186","","null","","","null","11","","","","","","","","","","","","","","","",""
"","ITI","","html-keyboard-response","77","707882","0.0-1.0-108.0","0","0","53186","","null","","","null","11","","","","","","","","","","","","","","","NaN",""
"","S1","","html-keyboard-response","78","708135","0.0-1.0-110.0","0","0","53186","","null","","","null","12","","","","","","","","","","","","","","","",""
"","ISI","","html-keyboard-response","79","710138","0.0-1.0-111.0","0","0","53186","","null","","","null","12","NaN","","","","","","","","","","","","","","",""
"","S2","","html-keyboard-response","80","710393","0.0-1.0-112.0","0","0","53186","","null","","","null","12","","NaN","","","","","","","","","","","","","",""
"","response","","html-keyboard-response","81","710655","0.0-1.0-113.0-0.0","0","0","53186","","259","","","68","12","","","1","12","training","adjacent","BC","2","3","N.jpg","R.jpg","1","1","1","",""
"","feedback","","html-keyboard-response","82","711659","0.0-1.0-114.0-0.0","0","0","53186","","null","","","null","12","","","","","","","","","","","","","","","",""
"","ITI","","html-keyboard-response","83","712662","0.0-1.0-117.0","0","0","53186","","null","","","null","12","","","","","","","","","","","","","","","NaN",""
"","S1","","html-keyboard-response","84","712916","0.0-1.0-119.0","0","0","53186","","null","","","null","13","","","","","","","","","","","","","","","",""
"","ISI","","html-keyboard-response","85","714919","0.0-1.0-120.0","0","0","53186","","null","","","null","13","NaN","","","","","","","","","","","","","","",""
"","S2","","html-keyboard-response","86","715171","0.0-1.0-121.0","0","0","53186","","null","","","null","13","","NaN","","","","","","","","","","","","","",""
"","response","","html-keyboard-response","87","715325","0.0-1.0-122.0-0.0","0","0","53186","","151","","","75","13","","","1","13","training","adjacent","DC","4","3","P.jpg","R.jpg","0","0","1","",""
"","feedback","","html-keyboard-response","88","716329","0.0-1.0-123.0-0.0","0","0","53186","","null","","","null","13","","","","","","","","","","","","","","","",""
"","ITI","","html-keyboard-response","89","717333","0.0-1.0-126.0","0","0","53186","","null","","","null","13","","","","","","","","","","","","","","","NaN",""
"","S1","","html-keyboard-response","90","717587","0.0-1.0-128.0","0","0","53186","","null","","","null","14","","","","","","","","","","","","","","","",""
"","ISI","","html-keyboard-response","91","720058","0.0-1.0-129.0","0","0","53186","","null","","","null","14","NaN","","","","","","","","","","","","","","",""
"","S2","","html-keyboard-response","92","721057","0.0-1.0-130.0","0","0","53186","","null","","","null","14","","NaN","","","","","","","","","","","","","",""
"","response","","html-keyboard-response","93","723059","0.0-1.0-131.0-0.0","0","0","53186","","null","","","null","14","","","1","14","training","adjacent","ED","5","4","M.jpg","P.jpg","NaN","0","0","",""
"","too_slow_prompt","","html-keyboard-response","94","725059","0.0-1.0-133.0-0.0","1","0","53186","","null","","","null","","","","","","","","","","","","","","","","",""
"","time_out","","html-keyboard-response","95","728059","0.0-1.0-134.0-0.0","0","0","53186","","null","","","null","14","","","","","","","","","","","","","","","",""
"","ITI","","html-keyboard-response","96","730059","0.0-1.0-135.0","0","0","53186","","null","","","null","14","","","","","","","","","","","","","","","NaN",""
"","S1","","html-keyboard-response","97","731058","0.0-1.0-137.0","0","0","53186","","null","","","null","15","","","","","","","","","","","","","","","",""
"","ISI","","html-keyboard-response","98","734060","0.0-1.0-138.0","0","0","53186","","null","","","null","15","NaN","","","","","","","","","","","","","","",""
"","S2","","html-keyboard-response","99","735059","0.0-1.0-139.0","0","0","53186","","null","","","null","15","","NaN","","","","","","","","","","","","","",""
"","response","","html-keyboard-response","100","737059","0.0-1.0-140.0-0.0","0","0","53186","","null","","","null","15","","","1","15","training","adjacent","EF","5","6","M.jpg","O.jpg","NaN","1","0","",""
"","too_slow_prompt","","html-keyboard-response","101","739058","0.0-1.0-142.0-0.0","1","0","53186","","null","","","null","","","","","","","","","","","","","","","","",""
"","time_out","","html-keyboard-response","102","742059","0.0-1.0-143.0-0.0","0","0","53186","","null","","","null","15","","","","","","","","","","","","","","","",""
"","ITI","","html-keyboard-response","103","744059","0.0-1.0-144.0","0","0","53186","","null","","","null","15","","","","","","","","","","","","","","","NaN",""
"","S1","","html-keyboard-response","104","745059","0.0-1.0-146.0","0","0","53186","","null","","","null","16","","","","","","","","","","","","","","","",""
"","ISI","","html-keyboard-response","105","748059","0.0-1.0-147.0","0","0","53186","","null","","","null","16","NaN","","","","","","","","","","","","","","",""
"","S2","","html-keyboard-response","106","749059","0.0-1.0-148.0","0","0","53186","","null","","","null","16","","NaN","","","","","","","","","","","","","",""
"","response","","html-keyboard-response","107","751059","0.0-1.0-149.0-0.0","0","0","53186","","null","","","null","16","","","1","16","training","adjacent","FE","6","5","O.jpg","M.jpg","NaN","0","0","",""
"","too_slow_prompt","","html-keyboard-response","108","753059","0.0-1.0-151.0-0.0","1","0","53186","","null","","","null","","","","","","","","","","","","","","","","",""
"","time_out","","html-keyboard-response","109","756059","0.0-1.0-152.0-0.0","0","0","53186","","null","","","null","16","","","","","","","","","","","","","","","",""
"","ITI","","html-keyboard-response","110","758062","0.0-1.0-153.0","0","0","53186","","null","","","null","16","","","","","","","","","","","","","","","NaN",""
"","S1","","html-keyboard-response","111","759059","0.0-1.0-155.0","0","0","53186","","null","","","null","17","","","","","","","","","","","","","","","",""
"","ISI","","html-keyboard-response","112","762058","0.0-1.0-156.0","0","0","53186","","null","","","null","17","NaN","","","","","","","","","","","","","","",""
"","S2","","html-keyboard-response","113","763059","0.0-1.0-157.0","0","0","53186","","null","","","null","17","","NaN","","","","","","","","","","","","","",""
"","response","","html-keyboard-response","114","765058","0.0-1.0-158.0-0.0","0","0","53186","","null","","","null","17","","","1","17","training","adjacent","EF","5","6","M.jpg","O.jpg","NaN","1","0","",""
"","too_slow_prompt","","html-keyboard-response","115","767060","0.0-1.0-160.0-0.0","1","0","53186","","null","","","null","","","","","","","","","","","","","","","","",""
"","time_out","","html-keyboard-response","116","770058","0.0-1.0-161.0-0.0","0","0","53186","","null","","","null","17","","","","","","","","","","","","","","","",""
"","ITI","","html-keyboard-response","117","771060","0.0-1.0-162.0","0","0","53186","","null","","","null","17","","","","","","","","","","","","","","","NaN",""
"","S1","","html-keyboard-response","118","771313","0.0-1.0-164.0","0","0","53186","","null","","","null","18","","","","","","","","","","","","","","","",""
"","ISI","","html-keyboard-response","119","773317","0.0-1.0-165.0","0","0","53186","","761","","","68","18","d","","","","","","","","","","","","","","",""
"","S2","","html-keyboard-response","120","773571","0.0-1.0-166.0","0","0","53186","","null","","","null","18","","NaN","","","","","","","","","","","","","",""
"","response","","html-keyboard-response","121","773621","0.0-1.0-167.0-0.0","0","0","53186","","48","","","68","18","","","1","18","training","adjacent","BA","2","1","N.jpg","Q.jpg","1","0","0","",""
"","feedback","","html-keyboard-response","122","774624","0.0-1.0-168.0-0.0","0","0","53186","","null","","","null","18","","","","","","","","","","","","","","","",""
"","time_out","","html-keyboard-response","123","776628","0.0-1.0-170.0-0.0","0","0","53186","","null","","","null","18","","","","","","","","","","","","","","","",""
"","ITI","","html-keyboard-response","124","777632","0.0-1.0-171.0","0","0","53186","","null","","","null","18","","","","","","","","","","","","","","","NaN",""
"","S1","","html-keyboard-response","125","777887","0.0-1.0-173.0","0","0","53186","","null","","","null","19","","","","","","","","","","","","","","","",""
"","ISI","","html-keyboard-response","126","779891","0.0-1.0-174.0","0","0","53186","","253","","","75","19","k","","","","","","","","","","","","","","",""
"","S2","","html-keyboard-response","127","780146","0.0-1.0-175.0","0","0","53186","","null","","","null","19","","NaN","","","","","","","","","","","","","",""
"","response","","html-keyboard-response","128","780335","0.0-1.0-176.0-0.0","0","0","53186","","186","","","75","19","","","1","19","training","adjacent","ED","5","4","M.jpg","P.jpg","0","0","1","",""
"","feedback","","html-keyboard-response","129","781340","0.0-1.0-177.0-0.0","0","0","53186","","null","","","null","19","","","","","","","","","","","","","","","",""
"","ITI","","html-keyboard-response","130","782343","0.0-1.0-180.0","0","0","53186","","null","","","null","19","","","","","","","","","","","","","","","NaN",""
"","S1","","html-keyboard-response","131","782598","0.0-1.0-182.0","0","0","53186","","null","","","null","20","","","","","","","","","","","","","","","",""
"","ISI","","html-keyboard-response","132","784602","0.0-1.0-183.0","0","0","53186","","null","","","null","20","NaN","","","","","","","","","","","","","","",""
"","S2","","html-keyboard-response","133","784856","0.0-1.0-184.0","0","0","53186","","null","","","null","20","","NaN","","","","","","","","","","","","","",""
"","response","","html-keyboard-response","134","785559","0.0-1.0-185.0-0.0","0","0","53186","","700","","","75","20","","","1","20","training","adjacent","CD","3","4","R.jpg","P.jpg","0","1","0","",""
"","feedback","","html-keyboard-response","135","786563","0.0-1.0-186.0-0.0","0","0","53186","","null","","","null","20","","","","","","","","","","","","","","","",""
"","time_out","","html-keyboard-response","136","789057","0.0-1.0-188.0-0.0","0","0","53186","","null","","","null","20","","","","","","","","","","","","","","","",""
"","ITI","","html-keyboard-response","137","791057","0.0-1.0-189.0","0","0","53186","","null","","","null","20","","","","","","","","","","","","","","","NaN",""
"","S1","","html-keyboard-response","138","792058","0.0-1.0-191.0","0","0","53186","","null","","","null","21","","","","","","","","","","","","","","","",""
"","ISI","","html-keyboard-response","139","794060","0.0-1.0-192.0","0","0","53186","","null","","","null","21","NaN","","","","","","","","","","","","","","",""
"","S2","","html-keyboard-response","140","794312","0.0-1.0-193.0","0","0","53186","","null","","","null","21","","NaN","","","","","","","","","","","","","",""
"","response","","html-keyboard-response","141","795495","0.0-1.0-194.0-0.0","0","0","53186","","1181","","","68","21","","","1","21","training","adjacent","AB","1","2","Q.jpg","N.jpg","1","1","1","",""
"","feedback","","html-keyboard-response","142","796499","0.0-1.0-195.0-0.0","0","0","53186","","null","","","null","21","","","","","","","","","","","","","","","",""
"","ITI","","html-keyboard-response","143","797501","0.0-1.0-198.0","0","0","53186","","null","","","null","21","","","","","","","","","","","","","","","NaN",""
"","S1","","html-keyboard-response","144","797754","0.0-1.0-200.0","0","0","53186","","null","","","null","22","","","","","","","","","","","","","","","",""
"","ISI","","html-keyboard-response","145","799756","0.0-1.0-201.0","0","0","53186","","338","","","68","22","d","","","","","","","","","","","","","","",""
"","S2","","html-keyboard-response","146","799940","0.0-1.0-202.0","0","0","53186","","182","","","68","22","","d","1","22","training","adjacent","ED","5","4","M.jpg","P.jpg","1","0","0","",""
"","feedback","","html-keyboard-response","147","800944","0.0-1.0-204.0-0.0","0","0","53186","","null","","","null","22","","","","","","","","","","","","","","","",""
"","time_out","","html-keyboard-response","148","802947","0.0-1.0-206.0-0.0","0","0","53186","","null","","","null","22","","","","","","","","","","","","","","","",""
"","ITI","","html-keyboard-response","149","803949","0.0-1.0-207.0","0","0","53186","","null","","","null","22","","","","","","","","","","","","","","","NaN",""
"","S1","","html-keyboard-response","150","804201","0.0-1.0-209.0","0","0","53186","","null","","","null","23","","","","","","","","","","","","","","","",""
"","ISI","","html-keyboard-response","151","806203","0.0-1.0-210.0","0","0","53186","","null","","","null","23","NaN","","","","","","","","","","","","","","",""
"","S2","","html-keyboard-response","152","806455","0.0-1.0-211.0","0","0","53186","","null","","","null","23","","NaN","","","","","","","","","","","","","",""
"","response","","html-keyboard-response","153","806508","0.0-1.0-212.0-0.0","0","0","53186","","52","","","75","23","","","1","23","training","adjacent","AB","1","2","Q.jpg","N.jpg","0","1","0","",""
"","feedback","","html-keyboard-response","154","807510","0.0-1.0-213.0-0.0","0","0","53186","","null","","","null","23","","","","","","","","","","","","","","","",""
"","time_out","","html-keyboard-response","155","809512","0.0-1.0-215.0-0.0","0","0","53186","","null","","","null","23","","","","","","","","","","","","","","","",""
"","ITI","","html-keyboard-response","156","810513","0.0-1.0-216.0","0","0","53186","","null","","","null","23","","","","","","","","","","","","","","","NaN",""
"","S1","","html-keyboard-response","157","810766","0.0-1.0-218.0","0","0","53186","","null","","","null","24","","","","","","","","","","","","","","","",""
"","ISI","","html-keyboard-response","158","812768","0.0-1.0-219.0","0","0","53186","","525","","","68","24","d","","","","","","","","","","","","","","",""
"","S2","","html-keyboard-response","159","812876","0.0-1.0-220.0","0","0","53186","","107","","","68","24","","d","1","24","training","adjacent","BA","2","1","N.jpg","Q.jpg","1","0","0","",""
"","feedback","","html-keyboard-response","160","813879","0.0-1.0-222.0-0.0","0","0","53186","","null","","","null","24","","","","","","","","","","","","","","","",""
"","time_out","","html-keyboard-response","161","815881","0.0-1.0-224.0-0.0","0","0","53186","","null","","","null","24","","","","","","","","","","","","","","","",""
"","ITI","","html-keyboard-response","162","816884","0.0-1.0-225.0","0","0","53186","","null","","","null","24","","","","","","","","","","","","","","","NaN",""
"","S1","","html-keyboard-response","163","817136","0.0-1.0-227.0","0","0","53186","","null","","","null","25","","","","","","","","","","","","","","","",""
"","ISI","","html-keyboard-response","164","819150","0.0-1.0-228.0","0","0","53186","","null","","","null","25","NaN","","","","","","","","","","","","","","",""
"","S2","","html-keyboard-response","165","819403","0.0-1.0-229.0","0","0","53186","","null","","","null","25","","NaN","","","","","","","","","","","","","",""
"","response","","html-keyboard-response","166","819405","0.0-1.0-230.0-0.0","0","0","53186","","1","","","75","25","","","1","25","training","adjacent","FE","6","5","O.jpg","M.jpg","0","0","1","",""
"","feedback","","html-keyboard-response","167","820407","0.0-1.0-231.0-0.0","0","0","53186","","null","","","null","25","","","","","","","","","","","","","","","",""
"","ITI","","html-keyboard-response","168","821409","0.0-1.0-234.0","0","0","53186","","null","","","null","25","","","","","","","","","","","","","","","NaN",""
"","S1","","html-keyboard-response","169","821662","0.0-1.0-236.0","0","0","53186","","null","","","null","26","","","","","","","","","","","","","","","",""
"","ISI","","html-keyboard-response","170","823663","0.0-1.0-237.0","0","0","53186","","null","","","null","26","NaN","","","","","","","","","","","","","","",""
"","S2","","html-keyboard-response","171","823915","0.0-1.0-238.0","0","0","53186","","null","","","null","26","","NaN","","","","","","","","","","","","","",""
"","response","","html-keyboard-response","172","824196","0.0-1.0-239.0-0.0","0","0","53186","","279","","","68","26","","","1","26","training","adjacent","BA","2","1","N.jpg","Q.jpg","1","0","0","",""
"","feedback","","html-keyboard-response","173","825198","0.0-1.0-240.0-0.0","0","0","53186","","null","","","null","26","","","","","","","","","","","","","","","",""
"","time_out","","html-keyboard-response","174","827201","0.0-1.0-242.0-0.0","0","0","53186","","null","","","null","26","","","","","","","","","","","","","","","",""
"","ITI","","html-keyboard-response","175","828204","0.0-1.0-243.0","0","0","53186","","null","","","null","26","","","","","","","","","","","","","","","NaN",""
"","S1","","html-keyboard-response","176","828455","0.0-1.0-245.0","0","0","53186","","null","","","null","27","","","","","","","","","","","","","","","",""
"","ISI","","html-keyboard-response","177","830457","0.0-1.0-246.0","0","0","53186","","244","","","68","27","d","","","","","","","","","","","","","","",""
"","S2","","html-keyboard-response","178","830710","0.0-1.0-247.0","0","0","53186","","null","","","null","27","","NaN","","","","","","","","","","","","","",""
"","response","","html-keyboard-response","179","831087","0.0-1.0-248.0-0.0","0","0","53186","","373","","","68","27","","","1","27","training","adjacent","FG","6","7","O.jpg","L.jpg","1","1","1","",""
"","feedback","","html-keyboard-response","180","832091","0.0-1.0-249.0-0.0","0","0","53186","","null","","","null","27","","","","","","","","","","","","","","","",""
"","ITI","","html-keyboard-response","181","833095","0.0-1.0-252.0","0","0","53186","","null","","","null","27","","","","","","","","","","","","","","","NaN",""
"","S1","","html-keyboard-response","182","833355","0.0-1.0-254.0","0","0","53186","","null","","","null","28","","","","","","","","","","","","","","","",""
"","ISI","","html-keyboard-response","183","835356","0.0-1.0-255.0","0","0","53186","","null","","","null","28","NaN","","","","","","","","","","","","","","",""
"","S2","","html-keyboard-response","184","835609","0.0-1.0-256.0","0","0","53186","","null","","","null","28","","NaN","","","","","","","","","","","","","",""
"","response","","html-keyboard-response","185","836052","0.0-1.0-257.0-0.0","0","0","53186","","442","","","75","28","","","1","28","training","adjacent","CB","3","2","R.jpg","N.jpg","0","0","1","",""
"","feedback","","html-keyboard-response","186","837055","0.0-1.0-258.0-0.0","0","0","53186","","null","","","null","28","","","","","","","","","","","","","","","",""
"","ITI","","html-keyboard-response","187","838058","0.0-1.0-261.0","0","0","53186","","null","","","null","28","","","","","","","","","","","","","","","NaN",""
"","S1","","html-keyboard-response","188","838311","0.0-1.0-263.0","0","0","53186","","null","","","null","29","","","","","","","","","","","","","","","",""
"","ISI","","html-keyboard-response","189","840314","0.0-1.0-264.0","0","0","53186","","null","","","null","29","NaN","","","","","","","","","","","","","","",""
"","S2","","html-keyboard-response","190","840570","0.0-1.0-265.0","0","0","53186","","null","","","null","29","","NaN","","","","","","","","","","","","","",""
"","response","","html-keyboard-response","191","840980","0.0-1.0-266.0-0.0","0","0","53186","","408","","","68","29","","","1","29","training","adjacent","FG","6","7","O.jpg","L.jpg","1","1","1","",""
"","feedback","","html-keyboard-response","192","841982","0.0-1.0-267.0-0.0","0","0","53186","","null","","","null","29","","","","","","","","","","","","","","","",""
"","ITI","","html-keyboard-response","193","842986","0.0-1.0-270.0","0","0","53186","","null","","","null","29","","","","","","","","","","","","","","","NaN",""
"","S1","","html-keyboard-response","194","843241","0.0-1.0-272.0","0","0","53186","","null","","","null","30","","","","","","","","","","","","","","","",""
"","ISI","","html-keyboard-response","195","845245","0.0-1.0-273.0","0","0","53186","","418","","","75","30","k","","","","","","","","","","","","","","",""
"","S2","","html-keyboard-response","196","845500","0.0-1.0-274.0","0","0","53186","","null","","","null","30","","NaN","","","","","","","","","","","","","",""
"","response","","html-keyboard-response","197","845581","0.0-1.0-275.0-0.0","0","0","53186","","79","","","75","30","","","1","30","training","adjacent","CD","3","4","R.jpg","P.jpg","0","1","0","",""
"","feedback","","html-keyboard-response","198","846586","0.0-1.0-276.0-0.0","0","0","53186","","null","","","null","30","","","","","","","","","","","","","","","",""
"","time_out","","html-keyboard-response","199","848589","0.0-1.0-278.0-0.0","0","0","53186","","null","","","null","30","","","","","","","","","","","","","","","",""
"","ITI","","html-keyboard-response","200","849590","0.0-1.0-279.0","0","0","53186","","null","","","null","30","","","","","","","","","","","","","","","NaN",""
"","S1","","html-keyboard-response","201","849841","0.0-1.0-281.0","0","0","53186","","null","","","null","31","","","","","","","","","","","","","","","",""
"","ISI","","html-keyboard-response","202","851845","0.0-1.0-282.0","0","0","53186","","null","","","null","31","NaN","","","","","","","","","","","","","","",""
"","S2","","html-keyboard-response","203","852100","0.0-1.0-283.0","0","0","53186","","null","","","null","31","","NaN","","","","","","","","","","","","","",""
"","response","","html-keyboard-response","204","852126","0.0-1.0-284.0-0.0","0","0","53186","","23","","","68","31","","","1","31","training","adjacent","CB","3","2","R.jpg","N.jpg","1","0","0","",""
"","feedback","","html-keyboard-response","205","853130","0.0-1.0-285.0-0.0","0","0","53186","","null","","","null","31","","","","","","","","","","","","","","","",""
"","time_out","","html-keyboard-response","206","855134","0.0-1.0-287.0-0.0","0","0","53186","","null","","","null","31","","","","","","","","","","","","","","","",""
"","ITI","","html-keyboard-response","207","856138","0.0-1.0-288.0","0","0","53186","","null","","","null","31","","","","","","","","","","","","","","","NaN",""
"","S1","","html-keyboard-response","208","856392","0.0-1.0-290.0","0","0","53186","","null","","","null","32","","","","","","","","","","","","","","","",""
"","ISI","","html-keyboard-response","209","858394","0.0-1.0-291.0","0","0","53186","","131","","","75","32","k","","","","","","","","","","","","","","",""
"","S2","","html-keyboard-response","210","858650","0.0-1.0-292.0","0","0","53186","","null","","","null","32","","NaN","","","","","","","","","","","","","",""
"","response","","html-keyboard-response","211","858861","0.0-1.0-293.0-0.0","0","0","53186","","208","","","68","32","","","1","32","training","adjacent","DC","4","3","P.jpg","R.jpg","1","0","0","",""
"","feedback","","html-keyboard-response","212","859864","0.0-1.0-294.0-0.0","0","0","53186","","null","","","null","32","","","","","","","","","","","","","","","",""
"","time_out","","html-keyboard-response","213","861868","0.0-1.0-296.0-0.0","0","0","53186","","null","","","null","32","","","","","","","","","","","","","","","",""
"","ITI","","html-keyboard-response","214","862870","0.0-1.0-297.0","0","0","53186","","null","","","null","32","","","","","","","","","","","","","","","NaN",""
"","S1","","html-keyboard-response","215","863123","0.0-1.0-299.0","0","0","53186","","null","","","null","33","","","","","","","","","","","","","","","",""
"","ISI","","html-keyboard-response","216","865128","0.0-1.0-300.0","0","0","53186","","null","","","null","33","NaN","","","","","","","","","","","","","","",""
"","S2","","html-keyboard-response","217","865382","0.0-1.0-301.0","0","0","53186","","null","","","null","33","","NaN","","","","","","","","","","","","","",""
"","response","","html-keyboard-response","218","865472","0.0-1.0-302.0-0.0","0","0","53186","","85","","","75","33","","","1","33","training","adjacent","FE","6","5","O.jpg","M.jpg","0","0","1","",""
"","feedback","","html-keyboard-response","219","866476","0.0-1.0-303.0-0.0","0","0","53186","","null","","","null","33","","","","","","","","","","","","","","","",""
"","ITI","","html-keyboard-response","220","867480","0.0-1.0-306.0","0","0","53186","","null","","","null","33","","","","","","","","","","","","","","","NaN",""
"","S1","","html-keyboard-response","221","867734","0.0-1.0-308.0","0","0","53186","","null","","","null","34","","","","","","","","","","","","","","","",""
"","ISI","","html-keyboard-response","222","869738","0.0-1.0-309.0","0","0","53186","","null","","","null","34","NaN","","","","","","","","","","","","","","",""
"","S2","","html-keyboard-response","223","869993","0.0-1.0-310.0","0","0","53186","","null","","","null","34","","NaN","","","","","","","","","","","","","",""
"","response","","html-keyboard-response","224","870084","0.0-1.0-311.0-0.0","0","0","53186","","89","","","75","34","","","1","34","training","adjacent","BC","2","3","N.jpg","R.jpg","0","1","0","",""
"","feedback","","html-keyboard-response","225","871088","0.0-1.0-312.0-0.0","0","0","53186","","null","","","null","34","","","","","","","","","","","","","","","",""
"","time_out","","html-keyboard-response","226","873101","0.0-1.0-314.0-0.0","0","0","53186","","null","","","null","34","","","","","","","","","","","","","","","",""
"","ITI","","html-keyboard-response","227","874106","0.0-1.0-315.0","0","0","53186","","null","","","null","34","","","","","","","","","","","","","","","NaN",""
"","S1","","html-keyboard-response","228","874359","0.0-1.0-317.0","0","0","53186","","null","","","null","35","","","","","","","","","","","","","","","",""
"","ISI","","html-keyboard-response","229","876362","0.0-1.0-318.0","0","0","53186","","null","","","null","35","NaN","","","","","","","","","","","","","","",""
"","S2","","html-keyboard-response","230","876615","0.0-1.0-319.0","0","0","53186","","null","","","null","35","","NaN","","","","","","","","","","","","","",""
"","response","","html-keyboard-response","231","876775","0.0-1.0-320.0-0.0","0","0","53186","","158","","","68","35","","","1","35","training","adjacent","CD","3","4","R.jpg","P.jpg","1","1","1","",""
"","feedback","","html-keyboard-response","232","877780","0.0-1.0-321.0-0.0","0","0","53186","","null","","","null","35","","","","","","","","","","","","","","","",""
"","ITI","","html-keyboard-response","233","878784","0.0-1.0-324.0","0","0","53186","","null","","","null","35","","","","","","","","","","","","","","","NaN",""
"","S1","","html-keyboard-response","234","879038","0.0-1.0-326.0","0","0","53186","","null","","","null","36","","","","","","","","","","","","","","","",""
"","ISI","","html-keyboard-response","235","881041","0.0-1.0-327.0","0","0","53186","","null","","","null","36","NaN","","","","","","","","","","","","","","",""
"","S2","","html-keyboard-response","236","881297","0.0-1.0-328.0","0","0","53186","","null","","","null","36","","NaN","","","","","","","","","","","","","",""
"","response","","html-keyboard-response","237","881821","0.0-1.0-329.0-0.0","0","0","53186","","522","","","68","36","","","1","36","training","adjacent","GF","7","6","L.jpg","O.jpg","1","0","0","",""
"","feedback","","html-keyboard-response","238","882824","0.0-1.0-330.0-0.0","0","0","53186","","null","","","null","36","","","","","","","","","","","","","","","",""
"","time_out","","html-keyboard-response","239","884828","0.0-1.0-332.0-0.0","0","0","53186","","null","","","null","36","","","","","","","","","","","","","","","",""
"","ITI","","html-keyboard-response","240","885832","0.0-1.0-333.0","0","0","53186","","null","","","null","36","","","","","","","","","","","","","","","NaN",""
"","S1","","html-keyboard-response","241","886086","0.0-1.0-335.0","0","0","53186","","null","","","null","37","","","","","","","","","","","","","","","",""
"","ISI","","html-keyboard-response","242","888092","0.0-1.0-336.0","0","0","53186","","206","","","75","37","k","","","","","","","","","","","","","","",""
"","S2","","html-keyboard-response","243","888172","0.0-1.0-337.0","0","0","53186","","76","","","68","37","","d","1","37","training","adjacent","DE","4","5","P.jpg","M.jpg","1","1","1","",""
"","feedback","","html-keyboard-response","244","889174","0.0-1.0-339.0-0.0","0","0","53186","","null","","","null","37","","","","","","","","","","","","","","","",""
"","ITI","","html-keyboard-response","245","890177","0.0-1.0-342.0","0","0","53186","","null","","","null","37","","","","","","","","","","","","","","","NaN",""
"","S1","","html-keyboard-response","246","890432","0.0-1.0-344.0","0","0","53186","","null","","","null","38","","","","","","","","","","","","","","","",""
"","ISI","","html-keyboard-response","247","892434","0.0-1.0-345.0","0","0","53186","","null","","","null","38","NaN","","","","","","","","","","","","","","",""
"","S2","","html-keyboard-response","248","892688","0.0-1.0-346.0","0","0","53186","","null","","","null","38","","NaN","","","","","","","","","","","","","",""
"","response","","html-keyboard-response","249","892752","0.0-1.0-347.0-0.0","0","0","53186","","60","","","68","38","","","1","38","training","adjacent","AB","1","2","Q.jpg","N.jpg","1","1","1","",""
"","feedback","","html-keyboard-response","250","894059","0.0-1.0-348.0-0.0","0","0","53186","","null","","","null","38","","","","","","","","","","","","","","","",""
"","ITI","","html-keyboard-response","251","896057","0.0-1.0-351.0","0","0","53186","","null","","","null","38","","","","","","","","","","","","","","","NaN",""
"","S1","","html-keyboard-response","252","897057","0.0-1.0-353.0","0","0","53186","","null","","","null","39","","","","","","","","","","","","","","","",""
"","ISI","","html-keyboard-response","253","900058","0.0-1.0-354.0","0","0","53186","","null","","","null","39","NaN","","","","","","","","","","","","","","",""
"","S2","","html-keyboard-response","254","901057","0.0-1.0-355.0","0","0","53186","","null","","","null","39","","NaN","","","","","","","","","","","","","",""
"","response","","html-keyboard-response","255","903058","0.0-1.0-356.0-0.0","0","0","53186","","null","","","null","39","","","1","39","training","adjacent","DE","4","5","P.jpg","M.jpg","NaN","1","0","",""
"","too_slow_prompt","","html-keyboard-response","256","905058","0.0-1.0-358.0-0.0","1","0","53186","","null","","","null","","","","","","","","","","","","","","","","",""
"","time_out","","html-keyboard-response","257","908059","0.0-1.0-359.0-0.0","0","0","53186","","null","","","null","39","","","","","","","","","","","","","","","",""
"","ITI","","html-keyboard-response","258","910058","0.0-1.0-360.0","0","0","53186","","null","","","null","39","","","","","","","","","","","","","","","NaN",""
"","S1","","html-keyboard-response","259","911058","0.0-1.0-362.0","0","0","53186","","null","","","null","40","","","","","","","","","","","","","","","",""
"","ISI","","html-keyboard-response","260","914057","0.0-1.0-363.0","0","0","53186","","null","","","null","40","NaN","","","","","","","","","","","","","","",""
"","S2","","html-keyboard-response","261","915059","0.0-1.0-364.0","0","0","53186","","null","","","null","40","","NaN","","","","","","","","","","","","","",""
"","response","","html-keyboard-response","262","917058","0.0-1.0-365.0-0.0","0","0","53186","","null","","","null","40","","","1","40","training","adjacent","FE","6","5","O.jpg","M.jpg","NaN","0","0","",""
"","too_slow_prompt","","html-keyboard-response","263","919058","0.0-1.0-367.0-0.0","1","0","53186","","null","","","null","","","","","","","","","","","","","","","","",""
"","time_out","","html-keyboard-response","264","922059","0.0-1.0-368.0-0.0","0","0","53186","","null","","","null","40","","","","","","","","","","","","","","","",""
"","ITI","","html-keyboard-response","265","924058","0.0-1.0-369.0","0","0","53186","","null","","","null","40","","","","","","","","","","","","","","","NaN",""
"","S1","","html-keyboard-response","266","924858","0.0-1.0-371.0","0","0","53186","","null","","","null","41","","","","","","","","","","","","","","","",""
"","ISI","","html-keyboard-response","267","926872","0.0-1.0-372.0","0","0","53186","","null","","","null","41","NaN","","","","","","","","","","","","","","",""
"","S2","","html-keyboard-response","268","927127","0.0-1.0-373.0","0","0","53186","","null","","","null","41","","NaN","","","","","","","","","","","","","",""
"","response","","html-keyboard-response","269","927327","0.0-1.0-374.0-0.0","0","0","53186","","196","","","68","41","","","1","41","training","adjacent","CD","3","4","R.jpg","P.jpg","1","1","1","",""
"","feedback","","html-keyboard-response","270","928332","0.0-1.0-375.0-0.0","0","0","53186","","null","","","null","41","","","","","","","","","","","","","","","",""
"","ITI","","html-keyboard-response","271","929335","0.0-1.0-378.0","0","0","53186","","null","","","null","41","","","","","","","","","","","","","","","NaN",""
"","S1","","html-keyboard-response","272","929588","0.0-1.0-380.0","0","0","53186","","null","","","null","42","","","","","","","","","","","","","","","",""
"","ISI","","html-keyboard-response","273","931605","0.0-1.0-381.0","0","0","53186","","352","","","68","42","d","","","","","","","","","","","","","","",""
"","S2","","html-keyboard-response","274","931844","0.0-1.0-382.0","0","0","53186","","237","","","68","42","","d","1","42","training","adjacent","EF","5","6","M.jpg","O.jpg","1","1","1","",""
"","feedback","","html-keyboard-response","275","932848","0.0-1.0-384.0-0.0","0","0","53186","","null","","","null","42","","","","","","","","","","","","","","","",""
"","ITI","","html-keyboard-response","276","933852","0.0-1.0-387.0","0","0","53186","","null","","","null","42","","","","","","","","","","","","","","","NaN",""
"","S1","","html-keyboard-response","277","934106","0.0-1.0-389.0","0","0","53186","","null","","","null","43","","","","","","","","","","","","","","","",""
"","ISI","","html-keyboard-response","278","936109","0.0-1.0-390.0","0","0","53186","","1889","","","75","43","k","","","","","","","","","","","","","","",""
"","S2","","html-keyboard-response","279","936351","0.0-1.0-391.0","0","0","53186","","238","","","75","43","","k","1","43","training","adjacent","BA","2","1","N.jpg","Q.jpg","0","0","1","",""
"","feedback","","html-keyboard-response","280","937356","0.0-1.0-393.0-0.0","0","0","53186","","null","","","null","43","","","","","","","","","","","","","","","",""
"","ITI","","html-keyboard-response","281","938360","0.0-1.0-396.0","0","0","53186","","null","","","null","43","","","","","","","","","","","","","","","NaN",""
"","S1","","html-keyboard-response","282","938614","0.0-1.0-398.0","0","0","53186","","null","","","null","44","","","","","","","","","","","","","","","",""
"","ISI","","html-keyboard-response","283","940617","0.0-1.0-399.0","0","0","53186","","null","","","null","44","NaN","","","","","","","","","","","","","","",""
"","S2","","html-keyboard-response","284","940870","0.0-1.0-400.0","0","0","53186","","null","","","null","44","","NaN","","","","","","","","","","","","","",""
"","response","","html-keyboard-response","285","940919","0.0-1.0-401.0-0.0","0","0","53186","","46","","","75","44","","","1","44","training","adjacent","BC","2","3","N.jpg","R.jpg","0","1","0","",""
"","feedback","","html-keyboard-response","286","941923","0.0-1.0-402.0-0.0","0","0","53186","","null","","","null","44","","","","","","","","","","","","","","","",""
"","time_out","","html-keyboard-response","287","943929","0.0-1.0-404.0-0.0","0","0","53186","","null","","","null","44","","","","","","","","","","","","","","","",""
"","ITI","","html-keyboard-response","288","944933","0.0-1.0-405.0","0","0","53186","","null","","","null","44","","","","","","","","","","","","","","","NaN",""
"","S1","","html-keyboard-response","289","945188","0.0-1.0-407.0","0","0","53186","","null","","","null","45","","","","","","","","","","","","","","","",""
"","ISI","","html-keyboard-response","290","947190","0.0-1.0-408.0","0","0","53186","","null","","","null","45","NaN","","","","","","","","","","","","","","",""
"","S2","","html-keyboard-response","291","947399","0.0-1.0-409.0","0","0","53186","","206","","","68","45","","d","1","45","training","adjacent","EF","5","6","M.jpg","O.jpg","1","1","1","",""
"","feedback","","html-keyboard-response","292","948403","0.0-1.0-411.0-0.0","0","0","53186","","null","","","null","45","","","","","","","","","","","","","","","",""
"","ITI","","html-keyboard-response","293","949406","0.0-1.0-414.0","0","0","53186","","null","","","null","45","","","","","","","","","","","","","","","NaN",""
"","S1","","html-keyboard-response","294","949659","0.0-1.0-416.0","0","0","53186","","null","","","null","46","","","","","","","","","","","","","","","",""
"","ISI","","html-keyboard-response","295","951662","0.0-1.0-417.0","0","0","53186","","null","","","null","46","NaN","","","","","","","","","","","","","","",""
"","S2","","html-keyboard-response","296","951915","0.0-1.0-418.0","0","0","53186","","null","","","null","46","","NaN","","","","","","","","","","","","","",""
"","response","","html-keyboard-response","297","954058","0.0-1.0-419.0-0.0","0","0","53186","","null","","","null","46","","","1","46","training","adjacent","CB","3","2","R.jpg","N.jpg","NaN","0","0","",""
"","too_slow_prompt","","html-keyboard-response","298","956059","0.0-1.0-421.0-0.0","1","0","53186","","null","","","null","","","","","","","","","","","","","","","","",""
"","time_out","","html-keyboard-response","299","959058","0.0-1.0-422.0-0.0","0","0","53186","","null","","","null","46","","","","","","","","","","","","","","","",""
"","ITI","","html-keyboard-response","300","961060","0.0-1.0-423.0","0","0","53186","","null","","","null","46","","","","","","","","","","","","","","","NaN",""
"","S1","","html-keyboard-response","301","962059","0.0-1.0-425.0","0","0","53186","","null","","","null","47","","","","","","","","","","","","","","","",""
"","ISI","","html-keyboard-response","302","965058","0.0-1.0-426.0","0","0","53186","","null","","","null","47","NaN","","","","","","","","","","","","","","",""
"","S2","","html-keyboard-response","303","966059","0.0-1.0-427.0","0","0","53186","","null","","","null","47","","NaN","","","","","","","","","","","","","",""
"","response","","html-keyboard-response","304","968059","0.0-1.0-428.0-0.0","0","0","53186","","null","","","null","47","","","1","47","training","adjacent","GF","7","6","L.jpg","O.jpg","NaN","0","0","",""
"","too_slow_prompt","","html-keyboard-response","305","970059","0.0-1.0-430.0-0.0","1","0","53186","","null","","","null","","","","","","","","","","","","","","","","",""
"","time_out","","html-keyboard-response","306","973059","0.0-1.0-431.0-0.0","0","0","53186","","null","","","null","47","","","","","","","","","","","","","","","",""
"","ITI","","html-keyboard-response","307","975058","0.0-1.0-432.0","0","0","53186","","null","","","null","47","","","","","","","","","","","","","","","NaN",""
"","block_over","","html-keyboard-response","308","1572704","0.0-1.0-433.0-0.0","0","0","53186","","597642","","","32","47","","","","","","","","","","","","","","","",""
"","S1","","html-keyboard-response","309","1572958","0.0-1.0-434.0","0","0","53186","","null","","","null","48","","","","","","","","","","","","","","","",""
"","ISI","","html-keyboard-response","310","1574961","0.0-1.0-435.0","0","0","53186","","null","","","null","48","NaN","","","","","","","","","","","","","","",""
"","S2","","html-keyboard-response","311","1575214","0.0-1.0-436.0","0","0","53186","","null","","","null","48","","NaN","","","","","","","","","","","","","",""
"","response","","html-keyboard-response","312","1575405","0.0-1.0-437.0-0.0","0","0","53186","","189","","","68","48","","","2","48","training","adjacent","DE","4","5","P.jpg","M.jpg","1","1","1","",""
"","feedback","","html-keyboard-response","313","1576409","0.0-1.0-438.0-0.0","0","0","53186","","null","","","null","48","","","","","","","","","","","","","","","",""
"","ITI","","html-keyboard-response","314","1577413","0.0-1.0-441.0","0","0","53186","","null","","","null","48","","","","","","","","","","","","","","","NaN",""
"","S1","","html-keyboard-response","315","1577669","0.0-1.0-443.0","0","0","53186","","null","","","null","49","","","","","","","","","","","","","","","",""
"","ISI","","html-keyboard-response","316","1579672","0.0-1.0-444.0","0","0","53186","","null","","","null","49","NaN","","","","","","","","","","","","","","",""
"","S2","","html-keyboard-response","317","1579929","0.0-1.0-445.0","0","0","53186","","null","","","null","49","","NaN","","","","","","","","","","","","","",""
"","response","","html-keyboard-response","318","1579933","0.0-1.0-446.0-0.0","0","0","53186","","0","","","68","49","","","2","49","training","adjacent","DE","4","5","P.jpg","M.jpg","1","1","1","",""
"","feedback","","html-keyboard-response","319","1580938","0.0-1.0-447.0-0.0","0","0","53186","","null","","","null","49","","","","","","","","","","","","","","","",""
"","ITI","","html-keyboard-response","320","1581943","0.0-1.0-450.0","0","0","53186","","null","","","null","49","","","","","","","","","","","","","","","NaN",""
"","S1","","html-keyboard-response","321","1582198","0.0-1.0-452.0","0","0","53186","","null","","","null","50","","","","","","","","","","","","","","","",""
"","ISI","","html-keyboard-response","322","1584200","0.0-1.0-453.0","0","0","53186","","null","","","null","50","NaN","","","","","","","","","","","","","","",""
"","S2","","html-keyboard-response","323","1584454","0.0-1.0-454.0","0","0","53186","","null","","","null","50","","NaN","","","","","","","","","","","","","",""
"","response","","html-keyboard-response","324","1584541","0.0-1.0-455.0-0.0","0","0","53186","","85","","","75","50","","","2","50","training","adjacent","BC","2","3","N.jpg","R.jpg","0","1","0","",""
"","feedback","","html-keyboard-response","325","1585545","0.0-1.0-456.0-0.0","0","0","53186","","null","","","null","50","","","","","","","","","","","","","","","",""
"","time_out","","html-keyboard-response","326","1587548","0.0-1.0-458.0-0.0","0","0","53186","","null","","","null","50","","","","","","","","","","","","","","","",""
"","ITI","","html-keyboard-response","327","1588551","0.0-1.0-459.0","0","0","53186","","null","","","null","50","","","","","","","","","","","","","","","NaN",""
"","S1","","html-keyboard-response","328","1588805","0.0-1.0-461.0","0","0","53186","","null","","","null","51","","","","","","","","","","","","","","","",""
"","ISI","","html-keyboard-response","329","1590808","0.0-1.0-462.0","0","0","53186","","184","","","75","51","k","","","","","","","","","","","","","","",""
"","S2","","html-keyboard-response","330","1591061","0.0-1.0-463.0","0","0","53186","","null","","","null","51","","NaN","","","","","","","","","","","","","",""
"","response","","html-keyboard-response","331","1591152","0.0-1.0-464.0-0.0","0","0","53186","","88","","","75","51","","","2","51","training","adjacent","BA","2","1","N.jpg","Q.jpg","0","0","1","",""
"","feedback","","html-keyboard-response","332","1592156","0.0-1.0-465.0-0.0","0","0","53186","","null","","","null","51","","","","","","","","","","","","","","","",""
"","ITI","","html-keyboard-response","333","1593160","0.0-1.0-468.0","0","0","53186","","null","","","null","51","","","","","","","","","","","","","","","NaN",""
"","S1","","html-keyboard-response","334","1593414","0.0-1.0-470.0","0","0","53186","","null","","","null","52","","","","","","","","","","","","","","","",""
"","ISI","","html-keyboard-response","335","1595417","0.0-1.0-471.0","0","0","53186","","null","","","null","52","NaN","","","","","","","","","","","","","","",""
"","S2","","html-keyboard-response","336","1595672","0.0-1.0-472.0","0","0","53186","","null","","","null","52","","NaN","","","","","","","","","","","","","",""
"","response","","html-keyboard-response","337","1595848","0.0-1.0-473.0-0.0","0","0","53186","","172","","","68","52","","","2","52","training","adjacent","BC","2","3","N.jpg","R.jpg","1","1","1","",""
"","feedback","","html-keyboard-response","338","1596853","0.0-1.0-474.0-0.0","0","0","53186","","null","","","null","52","","","","","","","","","","","","","","","",""
"","ITI","","html-keyboard-response","339","1597856","0.0-1.0-477.0","0","0","53186","","null","","","null","52","","","","","","","","","","","","","","","NaN",""
"","S1","","html-keyboard-response","340","1598111","0.0-1.0-479.0","0","0","53186","","null","","","null","53","","","","","","","","","","","","","","","",""
"","ISI","","html-keyboard-response","341","1600115","0.0-1.0-480.0","0","0","53186","","null","","","null","53","NaN","","","","","","","","","","","","","","",""
"","S2","","html-keyboard-response","342","1600379","0.0-1.0-481.0","0","0","53186","","null","","","null","53","","NaN","","","","","","","","","","","","","",""
"","response","","html-keyboard-response","343","1600624","0.0-1.0-482.0-0.0","0","0","53186","","241","","","75","53","","","2","53","training","adjacent","BA","2","1","N.jpg","Q.jpg","0","0","1","",""
"","feedback","","html-keyboard-response","344","1601629","0.0-1.0-483.0-0.0","0","0","53186","","null","","","null","53","","","","","","","","","","","","","","","",""
"","ITI","","html-keyboard-response","345","1602633","0.0-1.0-486.0","0","0","53186","","null","","","null","53","","","","","","","","","","","","","","","NaN",""
"","S1","","html-keyboard-response","346","1602887","0.0-1.0-488.0","0","0","53186","","null","","","null","54","","","","","","","","","","","","","","","",""
"","ISI","","html-keyboard-response","347","1604890","0.0-1.0-489.0","0","0","53186","","null","","","null","54","NaN","","","","","","","","","","","","","","",""
"","S2","","html-keyboard-response","348","1605145","0.0-1.0-490.0","0","0","53186","","null","","","null","54","","NaN","","","","","","","","","","","","","",""
"","response","","html-keyboard-response","349","1605304","0.0-1.0-491.0-0.0","0","0","53186","","155","","","75","54","","","2","54","training","adjacent","AB","1","2","Q.jpg","N.jpg","0","1","0","",""
"","feedback","","html-keyboard-response","350","1606309","0.0-1.0-492.0-0.0","0","0","53186","","null","","","null","54","","","","","","","","","","","","","","","",""
"","time_out","","html-keyboard-response","351","1608312","0.0-1.0-494.0-0.0","0","0","53186","","null","","","null","54","","","","","","","","","","","","","","","",""
"","ITI","","html-keyboard-response","352","1609316","0.0-1.0-495.0","0","0","53186","","null","","","null","54","","","","","","","","","","","","","","","NaN",""
"","S1","","html-keyboard-response","353","1609570","0.0-1.0-497.0","0","0","53186","","null","","","null","55","","","","","","","","","","","","","","","",""
"","ISI","","html-keyboard-response","354","1611574","0.0-1.0-498.0","0","0","53186","","null","","","null","55","NaN","","","","","","","","","","","","","","",""
"","S2","","html-keyboard-response","355","1611581","0.0-1.0-499.0","0","0","53186","","5","","","75","55","","k","2","55","training","adjacent","FE","6","5","O.jpg","M.jpg","0","0","1","",""
"","feedback","","html-keyboard-response","356","1612583","0.0-1.0-501.0-0.0","0","0","53186","","null","","","null","55","","","","","","","","","","","","","","","",""
"","ITI","","html-keyboard-response","357","1613585","0.0-1.0-504.0","0","0","53186","","null","","","null","55","","","","","","","","","","","","","","","NaN",""
"","S1","","html-keyboard-response","358","1613840","0.0-1.0-506.0","0","0","53186","","null","","","null","56","","","","","","","","","","","","","","","",""
"","ISI","","html-keyboard-response","359","1615843","0.0-1.0-507.0","0","0","53186","","null","","","null","56","NaN","","","","","","","","","","","","","","",""
"","S2","","html-keyboard-response","360","1616094","0.0-1.0-508.0","0","0","53186","","249","","","68","56","","d","2","56","training","adjacent","DE","4","5","P.jpg","M.jpg","1","1","1","",""
"","feedback","","html-keyboard-response","361","1617098","0.0-1.0-510.0-0.0","0","0","53186","","null","","","null","56","","","","","","","","","","","","","","","",""
"","ITI","","html-keyboard-response","362","1618102","0.0-1.0-513.0","0","0","53186","","null","","","null","56","","","","","","","","","","","","","","","NaN",""
"","S1","","html-keyboard-response","363","1618355","0.0-1.0-515.0","0","0","53186","","null","","","null","57","","","","","","","","","","","","","","","",""
"","ISI","","html-keyboard-response","364","1620359","0.0-1.0-516.0","0","0","53186","","null","","","null","57","NaN","","","","","","","","","","","","","","",""
"","S2","","html-keyboard-response","365","1620613","0.0-1.0-517.0","0","0","53186","","null","","","null","57","","NaN","","","","","","","","","","","","","",""
"","response","","html-keyboard-response","366","1620617","0.0-1.0-518.0-0.0","0","0","53186","","0","","","68","57","","","2","57","training","adjacent","AB","1","2","Q.jpg","N.jpg","1","1","1","",""
"","feedback","","html-keyboard-response","367","1621621","0.0-1.0-519.0-0.0","0","0","53186","","null","","","null","57","","","","","","","","","","","","","","","",""
"","ITI","","html-keyboard-response","368","1622625","0.0-1.0-522.0","0","0","53186","","null","","","null","57","","","","","","","","","","","","","","","NaN",""
"","S1","","html-keyboard-response","369","1622879","0.0-1.0-524.0","0","0","53186","","null","","","null","58","","","","","","","","","","","","","","","",""
"","ISI","","html-keyboard-response","370","1624882","0.0-1.0-525.0","0","0","53186","","null","","","null","58","NaN","","","","","","","","","","","","","","",""
"","S2","","html-keyboard-response","371","1625134","0.0-1.0-526.0","0","0","53186","","null","","","null","58","","NaN","","","","","","","","","","","","","",""
"","response","","html-keyboard-response","372","1625221","0.0-1.0-527.0-0.0","0","0","53186","","86","","","68","58","","","2","58","training","adjacent","AB","1","2","Q.jpg","N.jpg","1","1","1","",""
"","feedback","","html-keyboard-response","373","1626225","0.0-1.0-528.0-0.0","0","0","53186","","null","","","null","58","","","","","","","","","","","","","","","",""
"","ITI","","html-keyboard-response","374","1627231","0.0-1.0-531.0","0","0","53186","","null","","","null","58","","","","","","","","","","","","","","","NaN",""
"","S1","","html-keyboard-response","375","1627486","0.0-1.0-533.0","0","0","53186","","null","","","null","59","","","","","","","","","","","","","","","",""
"","ISI","","html-keyboard-response","376","1629489","0.0-1.0-534.0","0","0","53186","","1648","","","75","59","k","","","","","","","","","","","","","","",""
"","S2","","html-keyboard-response","377","1629696","0.0-1.0-535.0","0","0","53186","","204","","","75","59","","k","2","59","training","adjacent","FG","6","7","O.jpg","L.jpg","0","1","0","",""
"","feedback","","html-keyboard-response","378","1630713","0.0-1.0-537.0-0.0","0","0","53186","","null","","","null","59","","","","","","","","","","","","","","","",""
"","time_out","","html-keyboard-response","379","1632726","0.0-1.0-539.0-0.0","0","0","53186","","null","","","null","59","","","","","","","","","","","","","","","",""
"","ITI","","html-keyboard-response","380","1633730","0.0-1.0-540.0","0","0","53186","","null","","","null","59","","","","","","","","","","","","","","","NaN",""
"","S1","","html-keyboard-response","381","1633985","0.0-1.0-542.0","0","0","53186","","null","","","null","60","","","","","","","","","","","","","","","",""
"","ISI","","html-keyboard-response","382","1635990","0.0-1.0-543.0","0","0","53186","","null","","","null","60","NaN","","","","","","","","","","","","","","",""
"","S2","","html-keyboard-response","383","1636244","0.0-1.0-544.0","0","0","53186","","null","","","null","60","","NaN","","","","","","","","","","","","","",""
"","response","","html-keyboard-response","384","1636253","0.0-1.0-545.0-0.0","0","0","53186","","7","","","75","60","","","2","60","training","adjacent","GF","7","6","L.jpg","O.jpg","0","0","1","",""
"","feedback","","html-keyboard-response","385","1637256","0.0-1.0-546.0-0.0","0","0","53186","","null","","","null","60","","","","","","","","","","","","","","","",""
"","ITI","","html-keyboard-response","386","1638261","0.0-1.0-549.0","0","0","53186","","null","","","null","60","","","","","","","","","","","","","","","NaN",""
"","S1","","html-keyboard-response","387","1638515","0.0-1.0-551.0","0","0","53186","","null","","","null","61","","","","","","","","","","","","","","","",""
"","ISI","","html-keyboard-response","388","1640518","0.0-1.0-552.0","0","0","53186","","null","","","null","61","NaN","","","","","","","","","","","","","","",""
"","S2","","html-keyboard-response","389","1640733","0.0-1.0-553.0","0","0","53186","","212","","","68","61","","d","2","61","training","adjacent","ED","5","4","M.jpg","P.jpg","1","0","0","",""
"","feedback","","html-keyboard-response","390","1641736","0.0-1.0-555.0-0.0","0","0","53186","","null","","","null","61","","","","","","","","","","","","","","","",""
"","time_out","","html-keyboard-response","391","1643738","0.0-1.0-557.0-0.0","0","0","53186","","null","","","null","61","","","","","","","","","","","","","","","",""
"","ITI","","html-keyboard-response","392","1644740","0.0-1.0-558.0","0","0","53186","","null","","","null","61","","","","","","","","","","","","","","","NaN",""
"","S1","","html-keyboard-response","393","1644994","0.0-1.0-560.0","0","0","53186","","null","","","null","62","","","","","","","","","","","","","","","",""
"","ISI","","html-keyboard-response","394","1646996","0.0-1.0-561.0","0","0","53186","","null","","","null","62","NaN","","","","","","","","","","","","","","",""
"","S2","","html-keyboard-response","395","1647207","0.0-1.0-562.0","0","0","53186","","208","","","75","62","","k","2","62","training","adjacent","FG","6","7","O.jpg","L.jpg","0","1","0","",""
"","feedback","","html-keyboard-response","396","1648212","0.0-1.0-564.0-0.0","0","0","53186","","null","","","null","62","","","","","","","","","","","","","","","",""
"","time_out","","html-keyboard-response","397","1650216","0.0-1.0-566.0-0.0","0","0","53186","","null","","","null","62","","","","","","","","","","","","","","","",""
"","ITI","","html-keyboard-response","398","1651219","0.0-1.0-567.0","0","0","53186","","null","","","null","62","","","","","","","","","","","","","","","NaN",""
"","S1","","html-keyboard-response","399","1651472","0.0-1.0-569.0","0","0","53186","","null","","","null","63","","","","","","","","","","","","","","","",""
"","ISI","","html-keyboard-response","400","1653476","0.0-1.0-570.0","0","0","53186","","null","","","null","63","NaN","","","","","","","","","","","","","","",""
"","S2","","html-keyboard-response","401","1653730","0.0-1.0-571.0","0","0","53186","","null","","","null","63","","NaN","","","","","","","","","","","","","",""
"","response","","html-keyboard-response","402","1653757","0.0-1.0-572.0-0.0","0","0","53186","","25","","","68","63","","","2","63","training","adjacent","EF","5","6","M.jpg","O.jpg","1","1","1","",""
"","feedback","","html-keyboard-response","403","1654761","0.0-1.0-573.0-0.0","0","0","53186","","null","","","null","63","","","","","","","","","","","","","","","",""
"","ITI","","html-keyboard-response","404","1655766","0.0-1.0-576.0","0","0","53186","","null","","","null","63","","","","","","","","","","","","","","","NaN",""
"","S1","","html-keyboard-response","405","1656020","0.0-1.0-578.0","0","0","53186","","null","","","null","64","","","","","","","","","","","","","","","",""
"","ISI","","html-keyboard-response","406","1658024","0.0-1.0-579.0","0","0","53186","","null","","","null","64","NaN","","","","","","","","","","","","","","",""
"","S2","","html-keyboard-response","407","1658264","0.0-1.0-580.0","0","0","53186","","236","","","75","64","","k","2","64","training","adjacent","DC","4","3","P.jpg","R.jpg","0","0","1","",""
"","feedback","","html-keyboard-response","408","1659269","0.0-1.0-582.0-0.0","0","0","53186","","null","","","null","64","","","","","","","","","","","","","","","",""
"","ITI","","html-keyboard-response","409","1660273","0.0-1.0-585.0","0","0","53186","","null","","","null","64","","","","","","","","","","","","","","","NaN",""
"","S1","","html-keyboard-response","410","1660528","0.0-1.0-587.0","0","0","53186","","null","","","null","65","","","","","","","","","","","","","","","",""
"","ISI","","html-keyboard-response","411","1662533","0.0-1.0-588.0","0","0","53186","","null","","","null","65","NaN","","","","","","","","","","","","","","",""
"","S2","","html-keyboard-response","412","1662787","0.0-1.0-589.0","0","0","53186","","null","","","null","65","","NaN","","","","","","","","","","","","","",""
"","response","","html-keyboard-response","413","1662799","0.0-1.0-590.0-0.0","0","0","53186","","9","","","75","65","","","2","65","training","adjacent","BA","2","1","N.jpg","Q.jpg","0","0","1","",""
"","feedback","","html-keyboard-response","414","1663805","0.0-1.0-591.0-0.0","0","0","53186","","null","","","null","65","","","","","","","","","","","","","","","",""
"","ITI","","html-keyboard-response","415","1664810","0.0-1.0-594.0","0","0","53186","","null","","","null","65","","","","","","","","","","","","","","","NaN",""
"","S1","","html-keyboard-response","416","1665063","0.0-1.0-596.0","0","0","53186","","null","","","null","66","","","","","","","","","","","","","","","",""
"","ISI","","html-keyboard-response","417","1667066","0.0-1.0-597.0","0","0","53186","","null","","","null","66","NaN","","","","","","","","","","","","","","",""
"","S2","","html-keyboard-response","418","1667321","0.0-1.0-598.0","0","0","53186","","null","","","null","66","","NaN","","","","","","","","","","","","","",""
"","response","","html-keyboard-response","419","1667480","0.0-1.0-599.0-0.0","0","0","53186","","155","","","75","66","","","2","66","training","adjacent","DC","4","3","P.jpg","R.jpg","0","0","1","",""
"","feedback","","html-keyboard-response","420","1668486","0.0-1.0-600.0-0.0","0","0","53186","","null","","","null","66","","","","","","","","","","","","","","","",""
"","ITI","","html-keyboard-response","421","1669490","0.0-1.0-603.0","0","0","53186","","null","","","null","66","","","","","","","","","","","","","","","NaN",""
"","S1","","html-keyboard-response","422","1669744","0.0-1.0-605.0","0","0","53186","","null","","","null","67","","","","","","","","","","","","","","","",""
"","ISI","","html-keyboard-response","423","1671748","0.0-1.0-606.0","0","0","53186","","null","","","null","67","NaN","","","","","","","","","","","","","","",""
"","S2","","html-keyboard-response","424","1672002","0.0-1.0-607.0","0","0","53186","","null","","","null","67","","NaN","","","","","","","","","","","","","",""
"","response","","html-keyboard-response","425","1672133","0.0-1.0-608.0-0.0","0","0","53186","","129","","","68","67","","","2","67","training","adjacent","ED","5","4","M.jpg","P.jpg","1","0","0","",""
"","feedback","","html-keyboard-response","426","1673135","0.0-1.0-609.0-0.0","0","0","53186","","null","","","null","67","","","","","","","","","","","","","","","",""
"","time_out","","html-keyboard-response","427","1676059","0.0-1.0-611.0-0.0","0","0","53186","","null","","","null","67","","","","","","","","","","","","","","","",""
"","ITI","","html-keyboard-response","428","1678060","0.0-1.0-612.0","0","0","53186","","null","","","null","67","","","","","","","","","","","","","","","NaN",""
"","S1","","html-keyboard-response","429","1679058","0.0-1.0-614.0","0","0","53186","","null","","","null","68","","","","","","","","","","","","","","","",""
"","ISI","","html-keyboard-response","430","1682058","0.0-1.0-615.0","0","0","53186","","null","","","null","68","NaN","","","","","","","","","","","","","","",""
"","S2","","html-keyboard-response","431","1683058","0.0-1.0-616.0","0","0","53186","","null","","","null","68","","NaN","","","","","","","","","","","","","",""
"","response","","html-keyboard-response","432","1685059","0.0-1.0-617.0-0.0","0","0","53186","","null","","","null","68","","","2","68","training","adjacent","ED","5","4","M.jpg","P.jpg","NaN","0","0","",""
"","too_slow_prompt","","html-keyboard-response","433","1687062","0.0-1.0-619.0-0.0","1","0","53186","","null","","","null","","","","","","","","","","","","","","","","",""
"","time_out","","html-keyboard-response","434","1690060","0.0-1.0-620.0-0.0","0","0","53186","","null","","","null","68","","","","","","","","","","","","","","","",""
"","ITI","","html-keyboard-response","435","1692058","0.0-1.0-621.0","0","0","53186","","null","","","null","68","","","","","","","","","","","","","","","NaN",""
"","S1","","html-keyboard-response","436","1693060","0.0-1.0-623.0","0","0","53186","","null","","","null","69","","","","","","","","","","","","","","","",""
"","ISI","","html-keyboard-response","437","1696059","0.0-1.0-624.0","0","0","53186","","null","","","null","69","NaN","","","","","","","","","","","","","","",""
"","S2","","html-keyboard-response","438","1697058","0.0-1.0-625.0","0","0","53186","","null","","","null","69","","NaN","","","","","","","","","","","","","",""
"","response","","html-keyboard-response","439","1699058","0.0-1.0-626.0-0.0","0","0","53186","","null","","","null","69","","","2","69","training","adjacent","BC","2","3","N.jpg","R.jpg","NaN","1","0","",""
"","too_slow_prompt","","html-keyboard-response","440","1701058","0.0-1.0-628.0-0.0","1","0","53186","","null","","","null","","","","","","","","","","","","","","","","",""
"","time_out","","html-keyboard-response","441","1704059","0.0-1.0-629.0-0.0","0","0","53186","","null","","","null","69","","","","","","","","","","","","","","","",""
"","ITI","","html-keyboard-response","442","1706060","0.0-1.0-630.0","0","0","53186","","null","","","null","69","","","","","","","","","","","","","","","NaN",""
"","S1","","html-keyboard-response","443","1707061","0.0-1.0-632.0","0","0","53186","","null","","","null","70","","","","","","","","","","","","","","","",""
"","ISI","","html-keyboard-response","444","1710060","0.0-1.0-633.0","0","0","53186","","null","","","null","70","NaN","","","","","","","","","","","","","","",""
"","S2","","html-keyboard-response","445","1711059","0.0-1.0-634.0","0","0","53186","","null","","","null","70","","NaN","","","","","","","","","","","","","",""
"","response","","html-keyboard-response","446","1713058","0.0-1.0-635.0-0.0","0","0","53186","","null","","","null","70","","","2","70","training","adjacent","GF","7","6","L.jpg","O.jpg","NaN","0","0","",""
"","too_slow_prompt","","html-keyboard-response","447","1715058","0.0-1.0-637.0-0.0","1","0","53186","","null","","","null","","","","","","","","","","","","","","","","",""
"","time_out","","html-keyboard-response","448","1718059","0.0-1.0-638.0-0.0","0","0","53186","","null","","","null","70","","","","","","","","","","","","","","","",""
"","ITI","","html-keyboard-response","449","1720057","0.0-1.0-639.0","0","0","53186","","null","","","null","70","","","","","","","","","","","","","","","NaN",""
"","S1","","html-keyboard-response","450","1721060","0.0-1.0-641.0","0","0","53186","","null","","","null","71","","","","","","","","","","","","","","","",""
"","ISI","","html-keyboard-response","451","1724059","0.0-1.0-642.0","0","0","53186","","null","","","null","71","NaN","","","","","","","","","","","","","","",""
"","S2","","html-keyboard-response","452","1725060","0.0-1.0-643.0","0","0","53186","","null","","","null","71","","NaN","","","","","","","","","","","","","",""
"","response","","html-keyboard-response","453","1727059","0.0-1.0-644.0-0.0","0","0","53186","","null","","","null","71","","","2","71","training","adjacent","FE","6","5","O.jpg","M.jpg","NaN","0","0","",""
"","too_slow_prompt","","html-keyboard-response","454","1729059","0.0-1.0-646.0-0.0","1","0","53186","","null","","","null","","","","","","","","","","","","","","","","",""
"","time_out","","html-keyboard-response","455","1732058","0.0-1.0-647.0-0.0","0","0","53186","","null","","","null","71","","","","","","","","","","","","","","","",""
"","ITI","","html-keyboard-response","456","1734059","0.0-1.0-648.0","0","0","53186","","null","","","null","71","","","","","","","","","","","","","","","NaN",""
"","S1","","html-keyboard-response","457","1735059","0.0-1.0-650.0","0","0","53186","","null","","","null","72","","","","","","","","","","","","","","","",""
"","ISI","","html-keyboard-response","458","1738059","0.0-1.0-651.0","0","0","53186","","null","","","null","72","NaN","","","","","","","","","","","","","","",""
"","S2","","html-keyboard-response","459","1739058","0.0-1.0-652.0","0","0","53186","","null","","","null","72","","NaN","","","","","","","","","","","","","",""
"","response","","html-keyboard-response","460","1741060","0.0-1.0-653.0-0.0","0","0","53186","","null","","","null","72","","","2","72","training","adjacent","DE","4","5","P.jpg","M.jpg","NaN","1","0","",""
"","too_slow_prompt","","html-keyboard-response","461","1743059","0.0-1.0-655.0-0.0","1","0","53186","","null","","","null","","","","","","","","","","","","","","","","",""
"","time_out","","html-keyboard-response","462","1746060","0.0-1.0-656.0-0.0","0","0","53186","","null","","","null","72","","","","","","","","","","","","","","","",""
"","ITI","","html-keyboard-response","463","1748059","0.0-1.0-657.0","0","0","53186","","null","","","null","72","","","","","","","","","","","","","","","NaN",""
"","S1","","html-keyboard-response","464","1749058","0.0-1.0-659.0","0","0","53186","","null","","","null","73","","","","","","","","","","","","","","","",""
"","ISI","","html-keyboard-response","465","1752096","0.0-1.0-660.0","0","0","53186","","null","","","null","73","NaN","","","","","","","","","","","","","","",""
"","S2","","html-keyboard-response","466","1753059","0.0-1.0-661.0","0","0","53186","","null","","","null","73","","NaN","","","","","","","","","","","","","",""
"","response","","html-keyboard-response","467","1755060","0.0-1.0-662.0-0.0","0","0","53186","","null","","","null","73","","","2","73","training","adjacent","CD","3","4","R.jpg","P.jpg","NaN","1","0","",""
"","too_slow_prompt","","html-keyboard-response","468","1757057","0.0-1.0-664.0-0.0","1","0","53186","","null","","","null","","","","","","","","","","","","","","","","",""
"","time_out","","html-keyboard-response","469","1760058","0.0-1.0-665.0-0.0","0","0","53186","","null","","","null","73","","","","","","","","","","","","","","","",""
"","ITI","","html-keyboard-response","470","1762058","0.0-1.0-666.0","0","0","53186","","null","","","null","73","","","","","","","","","","","","","","","NaN",""
"","S1","","html-keyboard-response","471","1763062","0.0-1.0-668.0","0","0","53186","","null","","","null","74","","","","","","","","","","","","","","","",""
"","ISI","","html-keyboard-response","472","1766060","0.0-1.0-669.0","0","0","53186","","null","","","null","74","NaN","","","","","","","","","","","","","","",""
"","S2","","html-keyboard-response","473","1767059","0.0-1.0-670.0","0","0","53186","","null","","","null","74","","NaN","","","","","","","","","","","","","",""
"","response","","html-keyboard-response","474","1769057","0.0-1.0-671.0-0.0","0","0","53186","","null","","","null","74","","","2","74","training","adjacent","ED","5","4","M.jpg","P.jpg","NaN","0","0","",""
"","too_slow_prompt","","html-keyboard-response","475","1771059","0.0-1.0-673.0-0.0","1","0","53186","","null","","","null","","","","","","","","","","","","","","","","",""
"","time_out","","html-keyboard-response","476","1774058","0.0-1.0-674.0-0.0","0","0","53186","","null","","","null","74","","","","","","","","","","","","","","","",""
"","ITI","","html-keyboard-response","477","1776059","0.0-1.0-675.0","0","0","53186","","null","","","null","74","","","","","","","","","","","","","","","NaN",""
"","S1","","html-keyboard-response","478","1777060","0.0-1.0-677.0","0","0","53186","","null","","","null","75","","","","","","","","","","","","","","","",""
"","ISI","","html-keyboard-response","479","1780059","0.0-1.0-678.0","0","0","53186","","null","","","null","75","NaN","","","","","","","","","","","","","","",""
"","S2","","html-keyboard-response","480","1781058","0.0-1.0-679.0","0","0","53186","","null","","","null","75","","NaN","","","","","","","","","","","","","",""
"","response","","html-keyboard-response","481","1783059","0.0-1.0-680.0-0.0","0","0","53186","","null","","","null","75","","","2","75","training","adjacent","CB","3","2","R.jpg","N.jpg","NaN","0","0","",""
"","too_slow_prompt","","html-keyboard-response","482","1785057","0.0-1.0-682.0-0.0","1","0","53186","","null","","","null","","","","","","","","","","","","","","","","",""
"","time_out","","html-keyboard-response","483","1788065","0.0-1.0-683.0-0.0","0","0","53186","","null","","","null","75","","","","","","","","","","","","","","","",""
"","ITI","","html-keyboard-response","484","1790059","0.0-1.0-684.0","0","0","53186","","null","","","null","75","","","","","","","","","","","","","","","NaN",""
"","S1","","html-keyboard-response","485","1791058","0.0-1.0-686.0","0","0","53186","","null","","","null","76","","","","","","","","","","","","","","","",""
"","ISI","","html-keyboard-response","486","1794058","0.0-1.0-687.0","0","0","53186","","null","","","null","76","NaN","","","","","","","","","","","","","","",""
"","S2","","html-keyboard-response","487","1795057","0.0-1.0-688.0","0","0","53186","","null","","","null","76","","NaN","","","","","","","","","","","","","",""
"","response","","html-keyboard-response","488","1797058","0.0-1.0-689.0-0.0","0","0","53186","","null","","","null","76","","","2","76","training","adjacent","GF","7","6","L.jpg","O.jpg","NaN","0","0","",""
"","too_slow_prompt","","html-keyboard-response","489","1799059","0.0-1.0-691.0-0.0","1","0","53186","","null","","","null","","","","","","","","","","","","","","","","",""
"","time_out","","html-keyboard-response","490","1802059","0.0-1.0-692.0-0.0","0","0","53186","","null","","","null","76","","","","","","","","","","","","","","","",""
"","ITI","","html-keyboard-response","491","1804059","0.0-1.0-693.0","0","0","53186","","null","","","null","76","","","","","","","","","","","","","","","NaN",""
"","S1","","html-keyboard-response","492","1805059","0.0-1.0-695.0","0","0","53186","","null","","","null","77","","","","","","","","","","","","","","","",""
"","ISI","","html-keyboard-response","493","1808059","0.0-1.0-696.0","0","0","53186","","null","","","null","77","NaN","","","","","","","","","","","","","","",""
"","S2","","html-keyboard-response","494","1809060","0.0-1.0-697.0","0","0","53186","","null","","","null","77","","NaN","","","","","","","","","","","","","",""
"","response","","html-keyboard-response","495","1811059","0.0-1.0-698.0-0.0","0","0","53186","","null","","","null","77","","","2","77","training","adjacent","EF","5","6","M.jpg","O.jpg","NaN","1","0","",""
"","too_slow_prompt","","html-keyboard-response","496","1813058","0.0-1.0-700.0-0.0","1","0","53186","","null","","","null","","","","","","","","","","","","","","","","",""
"","time_out","","html-keyboard-response","497","1816059","0.0-1.0-701.0-0.0","0","0","53186","","null","","","null","77","","","","","","","","","","","","","","","",""
"","ITI","","html-keyboard-response","498","1818057","0.0-1.0-702.0","0","0","53186","","null","","","null","77","","","","","","","","","","","","","","","NaN",""
"","S1","","html-keyboard-response","499","1819071","0.0-1.0-704.0","0","0","53186","","null","","","null","78","","","","","","","","","","","","","","","",""
"","ISI","","html-keyboard-response","500","1822059","0.0-1.0-705.0","0","0","53186","","null","","","null","78","NaN","","","","","","","","","","","","","","",""
"","S2","","html-keyboard-response","501","1823079","0.0-1.0-706.0","0","0","53186","","null","","","null","78","","NaN","","","","","","","","","","","","","",""
"","response","","html-keyboard-response","502","1825059","0.0-1.0-707.0-0.0","0","0","53186","","null","","","null","78","","","2","78","training","adjacent","CD","3","4","R.jpg","P.jpg","NaN","1","0","",""
"","too_slow_prompt","","html-keyboard-response","503","1827058","0.0-1.0-709.0-0.0","1","0","53186","","null","","","null","","","","","","","","","","","","","","","","",""
"","time_out","","html-keyboard-response","504","1830058","0.0-1.0-710.0-0.0","0","0","53186","","null","","","null","78","","","","","","","","","","","","","","","",""
"","ITI","","html-keyboard-response","505","1832058","0.0-1.0-711.0","0","0","53186","","null","","","null","78","","","","","","","","","","","","","","","NaN",""
"","S1","","html-keyboard-response","506","1833059","0.0-1.0-713.0","0","0","53186","","null","","","null","79","","","","","","","","","","","","","","","",""
"","ISI","","html-keyboard-response","507","1836059","0.0-1.0-714.0","0","0","53186","","null","","","null","79","NaN","","","","","","","","","","","","","","",""
"","S2","","html-keyboard-response","508","1837058","0.0-1.0-715.0","0","0","53186","","null","","","null","79","","NaN","","","","","","","","","","","","","",""
"","response","","html-keyboard-response","509","1839060","0.0-1.0-716.0-0.0","0","0","53186","","null","","","null","79","","","2","79","training","adjacent","CD","3","4","R.jpg","P.jpg","NaN","1","0","",""
"","too_slow_prompt","","html-keyboard-response","510","1841060","0.0-1.0-718.0-0.0","1","0","53186","","null","","","null","","","","","","","","","","","","","","","","",""
"","time_out","","html-keyboard-response","511","1844058","0.0-1.0-719.0-0.0","0","0","53186","","null","","","null","79","","","","","","","","","","","","","","","",""
"","ITI","","html-keyboard-response","512","1846058","0.0-1.0-720.0","0","0","53186","","null","","","null","79","","","","","","","","","","","","","","","NaN",""
"","S1","","html-keyboard-response","513","1847059","0.0-1.0-722.0","0","0","53186","","null","","","null","80","","","","","","","","","","","","","","","",""
"","ISI","","html-keyboard-response","514","1850060","0.0-1.0-723.0","0","0","53186","","null","","","null","80","NaN","","","","","","","","","","","","","","",""
"","S2","","html-keyboard-response","515","1851058","0.0-1.0-724.0","0","0","53186","","null","","","null","80","","NaN","","","","","","","","","","","","","",""
"","response","","html-keyboard-response","516","1853058","0.0-1.0-725.0-0.0","0","0","53186","","null","","","null","80","","","2","80","training","adjacent","FG","6","7","O.jpg","L.jpg","NaN","1","0","",""
"","too_slow_prompt","","html-keyboard-response","517","1855058","0.0-1.0-727.0-0.0","1","0","53186","","null","","","null","","","","","","","","","","","","","","","","",""
"","time_out","","html-keyboard-response","518","1858059","0.0-1.0-728.0-0.0","0","0","53186","","null","","","null","80","","","","","","","","","","","","","","","",""
"","ITI","","html-keyboard-response","519","1860058","0.0-1.0-729.0","0","0","53186","","null","","","null","80","","","","","","","","","","","","","","","NaN",""
"","S1","","html-keyboard-response","520","1861058","0.0-1.0-731.0","0","0","53186","","null","","","null","81","","","","","","","","","","","","","","","",""
"","ISI","","html-keyboard-response","521","1864058","0.0-1.0-732.0","0","0","53186","","null","","","null","81","NaN","","","","","","","","","","","","","","",""
"","S2","","html-keyboard-response","522","1865059","0.0-1.0-733.0","0","0","53186","","null","","","null","81","","NaN","","","","","","","","","","","","","",""
"","response","","html-keyboard-response","523","1867060","0.0-1.0-734.0-0.0","0","0","53186","","null","","","null","81","","","2","81","training","adjacent","FE","6","5","O.jpg","M.jpg","NaN","0","0","",""
"","too_slow_prompt","","html-keyboard-response","524","1869058","0.0-1.0-736.0-0.0","1","0","53186","","null","","","null","","","","","","","","","","","","","","","","",""
"","time_out","","html-keyboard-response","525","1872058","0.0-1.0-737.0-0.0","0","0","53186","","null","","","null","81","","","","","","","","","","","","","","","",""
"","ITI","","html-keyboard-response","526","1874059","0.0-1.0-738.0","0","0","53186","","null","","","null","81","","","","","","","","","","","","","","","NaN",""
"","S1","","html-keyboard-response","527","1875059","0.0-1.0-740.0","0","0","53186","","null","","","null","82","","","","","","","","","","","","","","","",""
"","ISI","","html-keyboard-response","528","1878058","0.0-1.0-741.0","0","0","53186","","null","","","null","82","NaN","","","","","","","","","","","","","","",""
"","S2","","html-keyboard-response","529","1879057","0.0-1.0-742.0","0","0","53186","","null","","","null","82","","NaN","","","","","","","","","","","","","",""
"","response","","html-keyboard-response","530","1881060","0.0-1.0-743.0-0.0","0","0","53186","","null","","","null","82","","","2","82","training","adjacent","DC","4","3","P.jpg","R.jpg","NaN","0","0","",""
"","too_slow_prompt","","html-keyboard-response","531","1883059","0.0-1.0-745.0-0.0","1","0","53186","","null","","","null","","","","","","","","","","","","","","","","",""
"","time_out","","html-keyboard-response","532","1886060","0.0-1.0-746.0-0.0","0","0","53186","","null","","","null","82","","","","","","","","","","","","","","","",""
"","ITI","","html-keyboard-response","533","1888059","0.0-1.0-747.0","0","0","53186","","null","","","null","82","","","","","","","","","","","","","","","NaN",""
"","S1","","html-keyboard-response","534","1889060","0.0-1.0-749.0","0","0","53186","","null","","","null","83","","","","","","","","","","","","","","","",""
"","ISI","","html-keyboard-response","535","1892059","0.0-1.0-750.0","0","0","53186","","null","","","null","83","NaN","","","","","","","","","","","","","","",""
"","S2","","html-keyboard-response","536","1893059","0.0-1.0-751.0","0","0","53186","","null","","","null","83","","NaN","","","","","","","","","","","","","",""
"","response","","html-keyboard-response","537","1895058","0.0-1.0-752.0-0.0","0","0","53186","","null","","","null","83","","","2","83","training","adjacent","CB","3","2","R.jpg","N.jpg","NaN","0","0","",""
"","too_slow_prompt","","html-keyboard-response","538","1897059","0.0-1.0-754.0-0.0","1","0","53186","","null","","","null","","","","","","","","","","","","","","","","",""
"","time_out","","html-keyboard-response","539","1900059","0.0-1.0-755.0-0.0","0","0","53186","","null","","","null","83","","","","","","","","","","","","","","","",""
"","ITI","","html-keyboard-response","540","1902058","0.0-1.0-756.0","0","0","53186","","null","","","null","83","","","","","","","","","","","","","","","NaN",""
"","S1","","html-keyboard-response","541","1903059","0.0-1.0-758.0","0","0","53186","","null","","","null","84","","","","","","","","","","","","","","","",""
"","ISI","","html-keyboard-response","542","1906059","0.0-1.0-759.0","0","0","53186","","null","","","null","84","NaN","","","","","","","","","","","","","","",""
"","S2","","html-keyboard-response","543","1907064","0.0-1.0-760.0","0","0","53186","","null","","","null","84","","NaN","","","","","","","","","","","","","",""
"","response","","html-keyboard-response","544","1909058","0.0-1.0-761.0-0.0","0","0","53186","","null","","","null","84","","","2","84","training","adjacent","CD","3","4","R.jpg","P.jpg","NaN","1","0","",""
"","too_slow_prompt","","html-keyboard-response","545","1911059","0.0-1.0-763.0-0.0","1","0","53186","","null","","","null","","","","","","","","","","","","","","","","",""
"","time_out","","html-keyboard-response","546","1914059","0.0-1.0-764.0-0.0","0","0","53186","","null","","","null","84","","","","","","","","","","","","","","","",""
"","ITI","","html-keyboard-response","547","1916059","0.0-1.0-765.0","0","0","53186","","null","","","null","84","","","","","","","","","","","","","","","NaN",""
"","S1","","html-keyboard-response","548","1917059","0.0-1.0-767.0","0","0","53186","","null","","","null","85","","","","","","","","","","","","","","","",""
"","ISI","","html-keyboard-response","549","1920059","0.0-1.0-768.0","0","0","53186","","null","","","null","85","NaN","","","","","","","","","","","","","","",""
"","S2","","html-keyboard-response","550","1921059","0.0-1.0-769.0","0","0","53186","","null","","","null","85","","NaN","","","","","","","","","","","","","",""
"","response","","html-keyboard-response","551","1923059","0.0-1.0-770.0-0.0","0","0","53186","","null","","","null","85","","","2","85","training","adjacent","FG","6","7","O.jpg","L.jpg","NaN","1","0","",""
"","too_slow_prompt","","html-keyboard-response","552","1925057","0.0-1.0-772.0-0.0","1","0","53186","","null","","","null","","","","","","","","","","","","","","","","",""
"","time_out","","html-keyboard-response","553","1928060","0.0-1.0-773.0-0.0","0","0","53186","","null","","","null","85","","","","","","","","","","","","","","","",""
"","ITI","","html-keyboard-response","554","1930058","0.0-1.0-774.0","0","0","53186","","null","","","null","85","","","","","","","","","","","","","","","NaN",""
"","S1","","html-keyboard-response","555","1931059","0.0-1.0-776.0","0","0","53186","","null","","","null","86","","","","","","","","","","","","","","","",""
"","ISI","","html-keyboard-response","556","1934058","0.0-1.0-777.0","0","0","53186","","null","","","null","86","NaN","","","","","","","","","","","","","","",""
"","S2","","html-keyboard-response","557","1935060","0.0-1.0-778.0","0","0","53186","","null","","","null","86","","NaN","","","","","","","","","","","","","",""
"","response","","html-keyboard-response","558","1937058","0.0-1.0-779.0-0.0","0","0","53186","","null","","","null","86","","","2","86","training","adjacent","EF","5","6","M.jpg","O.jpg","NaN","1","0","",""
"","too_slow_prompt","","html-keyboard-response","559","1939058","0.0-1.0-781.0-0.0","1","0","53186","","null","","","null","","","","","","","","","","","","","","","","",""
"","time_out","","html-keyboard-response","560","1942059","0.0-1.0-782.0-0.0","0","0","53186","","null","","","null","86","","","","","","","","","","","","","","","",""
"","ITI","","html-keyboard-response","561","1944060","0.0-1.0-783.0","0","0","53186","","null","","","null","86","","","","","","","","","","","","","","","NaN",""
"","S1","","html-keyboard-response","562","1945058","0.0-1.0-785.0","0","0","53186","","null","","","null","87","","","","","","","","","","","","","","","",""
"","ISI","","html-keyboard-response","563","1948059","0.0-1.0-786.0","0","0","53186","","null","","","null","87","NaN","","","","","","","","","","","","","","",""
"","S2","","html-keyboard-response","564","1949059","0.0-1.0-787.0","0","0","53186","","null","","","null","87","","NaN","","","","","","","","","","","","","",""
"","response","","html-keyboard-response","565","1951060","0.0-1.0-788.0-0.0","0","0","53186","","null","","","null","87","","","2","87","training","adjacent","EF","5","6","M.jpg","O.jpg","NaN","1","0","",""
"","too_slow_prompt","","html-keyboard-response","566","1953060","0.0-1.0-790.0-0.0","1","0","53186","","null","","","null","","","","","","","","","","","","","","","","",""
"","time_out","","html-keyboard-response","567","1955065","0.0-1.0-791.0-0.0","0","0","53186","","null","","","null","87","","","","","","","","","","","","","","","",""
"","ITI","","html-keyboard-response","568","1956070","0.0-1.0-792.0","0","0","53186","","null","","","null","87","","","","","","","","","","","","","","","NaN",""
"","S1","","html-keyboard-response","569","1956324","0.0-1.0-794.0","0","0","53186","","null","","","null","88","","","","","","","","","","","","","","","",""
"","ISI","","html-keyboard-response","570","1958328","0.0-1.0-795.0","0","0","53186","","600","","","68","88","d","","","","","","","","","","","","","","",""
"","S2","","html-keyboard-response","571","1958582","0.0-1.0-796.0","0","0","53186","","null","","","null","88","","NaN","","","","","","","","","","","","","",""
"","response","","html-keyboard-response","572","1958607","0.0-1.0-797.0-0.0","0","0","53186","","22","","","68","88","","","2","88","training","adjacent","FE","6","5","O.jpg","M.jpg","1","0","0","",""
"","feedback","","html-keyboard-response","573","1959612","0.0-1.0-798.0-0.0","0","0","53186","","null","","","null","88","","","","","","","","","","","","","","","",""
"","time_out","","html-keyboard-response","574","1962057","0.0-1.0-800.0-0.0","0","0","53186","","null","","","null","88","","","","","","","","","","","","","","","",""
"","ITI","","html-keyboard-response","575","1964060","0.0-1.0-801.0","0","0","53186","","null","","","null","88","","","","","","","","","","","","","","","NaN",""
"","S1","","html-keyboard-response","576","1965058","0.0-1.0-803.0","0","0","53186","","null","","","null","89","","","","","","","","","","","","","","","",""
"","ISI","","html-keyboard-response","577","1968059","0.0-1.0-804.0","0","0","53186","","null","","","null","89","NaN","","","","","","","","","","","","","","",""
"","S2","","html-keyboard-response","578","1969060","0.0-1.0-805.0","0","0","53186","","null","","","null","89","","NaN","","","","","","","","","","","","","",""
"","response","","html-keyboard-response","579","1971059","0.0-1.0-806.0-0.0","0","0","53186","","null","","","null","89","","","2","89","training","adjacent","BA","2","1","N.jpg","Q.jpg","NaN","0","0","",""
