"success","ttype","start_time","trial_type","trial_index","time_elapsed","internal_node_id","warning","missed_checkup","PID","view_history","rt","responses","repeat_instructions","key_press","index","keypress_isi","keypress_S2","block","trial_num","phase","group_type","pair_type","S1_stim","S2_stim","S1_img","S2_img","S1_chosen","S1_higher","accuracy","keypress_iti","total_bonus_tally"
"true","full_screen","d04132023hr1455","fullscreen","0","9756","0.0-0.0","0","0","43436","","","","","","","","","","","","","","","","","","","","","",""
"","instructions","","instructions","1","16618","0.0-1.0-0.0-0.0","0","0","43436","[{""page_index"":0,""viewing_time"":2253},{""page_index"":1,""viewing_time"":2532},{""page_index"":2,""viewing_time"":1249},{""page_index"":3,""viewing_time"":824}]","6858","","","","","","","","","","","","","","","","","","","",""
"","comprehension_check","","survey-multi-choice","2","24789","0.0-1.0-0.0-1.0","0","0","43436","","8165","{""Q0"":""True"",""Q1"":""D"",""Q2"":""Once the second image appears and while the screen 'MAKE A CHOICE' is shown"",""Q3"":""Green mark"",""Q4"":""either D or K""}","0","","","","","","","","","","","","","","","","","",""
"","start_exp","","html-keyboard-response","3","25471","0.0-1.0-1.0","0","0","43436","","679","","","32","","","","","","","","","","","","","","","","",""
"","S1","","html-keyboard-response","4","25736","0.0-1.0-2.0","0","0","43436","","null","","","null","0","","","","","","","","","","","","","","","",""
"","ISI","","html-keyboard-response","5","26738","0.0-1.0-3.0","0","0","43436","","null","","","null","0","NaN","","","","","","","","","","","","","","",""
"","S2","","html-keyboard-response","6","27009","0.0-1.0-4.0","0","0","43436","","null","","","null","0","","NaN","","","","","","","","","","","","","",""
"","response","","html-keyboard-response","7","27443","0.0-1.0-5.0-0.0","0","0","43436","","433","","","68","0","","","1","0","training","adjacent","CB","3","2","Q.jpg","R.jpg","1","0","0","",""
"","feedback","","html-keyboard-response","8","28451","0.0-1.0-6.0-0.0","0","0","43436","","null","","","null","0","","","","","","","","","","","","","","","",""
"","time_out","","html-keyboard-response","9","30462","0.0-1.0-8.0-0.0","0","0","43436","","null","","","null","0","","","","","","","","","","","","","","","",""
"","ITI","","html-keyboard-response","10","31464","0.0-1.0-9.0","0","0","43436","","null","","","null","0","","","","","","","","","","","","","","","NaN",""
"","S1","","html-keyboard-response","11","31717","0.0-1.0-11.0","0","0","43436","","null","","","null","1","","","","","","","","","","","","","","","",""
"","ISI","","html-keyboard-response","12","32718","0.0-1.0-12.0","0","0","43436","","null","","","null","1","NaN","","","","","","","","","","","","","","",""
"","S2","","html-keyboard-response","13","32974","0.0-1.0-13.0","0","0","43436","","null","","","null","1","","NaN","","","","","","","","","","","","","",""
"","response","","html-keyboard-response","14","33508","0.0-1.0-14.0-0.0","0","0","43436","","532","","","68","1","","","1","1","training","adjacent","FG","6","7","M.jpg","O.jpg","1","1","1","",""
"","feedback","","html-keyboard-response","15","34510","0.0-1.0-15.0-0.0","0","0","43436","","null","","","null","1","","","","","","","","","","","","","","","",""
"","ITI","","html-keyboard-response","16","35512","0.0-1.0-18.0","0","0","43436","","null","","","null","1","","","","","","","","","","","","","","","NaN",""
"","S1","","html-keyboard-response","17","35765","0.0-1.0-20.0","0","0","43436","","null","","","null","2","","","","","","","","","","","","","","","",""
"","ISI","","html-keyboard-response","18","36766","0.0-1.0-21.0","0","0","43436","","null","","","null","2","NaN","","","","","","","","","","","","","","",""
"","S2","","html-keyboard-response","19","37019","0.0-1.0-22.0","0","0","43436","","null","","","null","2","","NaN","","","","","","","","","","","","","",""
"","response","","html-keyboard-response","20","37597","0.0-1.0-23.0-0.0","0","0","43436","","575","","","75","2","","","1","2","training","adjacent","EF","5","6","N.jpg","M.jpg","0","1","0","",""
"","feedback","","html-keyboard-response","21","38600","0.0-1.0-24.0-0.0","0","0","43436","","null","","","null","2","","","","","","","","","","","","","","","",""
"","time_out","","html-keyboard-response","22","40601","0.0-1.0-26.0-0.0","0","0","43436","","null","","","null","2","","","","","","","","","","","","","","","",""
"","ITI","","html-keyboard-response","23","41607","0.0-1.0-27.0","0","0","43436","","null","","","null","2","","","","","","","","","","","","","","","NaN",""
"","S1","","html-keyboard-response","24","41860","0.0-1.0-29.0","0","0","43436","","null","","","null","3","","","","","","","","","","","","","","","",""
"","ISI","","html-keyboard-response","25","42862","0.0-1.0-30.0","0","0","43436","","null","","","null","3","NaN","","","","","","","","","","","","","","",""
"","S2","","html-keyboard-response","26","43116","0.0-1.0-31.0","0","0","43436","","null","","","null","3","","NaN","","","","","","","","","","","","","",""
"","response","","html-keyboard-response","27","43591","0.0-1.0-32.0-0.0","0","0","43436","","474","","","75","3","","","1","3","training","adjacent","ED","5","4","N.jpg","L.jpg","0","0","1","",""
"","feedback","","html-keyboard-response","28","44593","0.0-1.0-33.0-0.0","0","0","43436","","null","","","null","3","","","","","","","","","","","","","","","",""
"","ITI","","html-keyboard-response","29","45594","0.0-1.0-36.0","0","0","43436","","null","","","null","3","","","","","","","","","","","","","","","NaN",""
"","S1","","html-keyboard-response","30","45858","0.0-1.0-38.0","0","0","43436","","null","","","null","4","","","","","","","","","","","","","","","",""
"","ISI","","html-keyboard-response","31","46860","0.0-1.0-39.0","0","0","43436","","null","","","null","4","NaN","","","","","","","","","","","","","","",""
"","S2","","html-keyboard-response","32","47112","0.0-1.0-40.0","0","0","43436","","null","","","null","4","","NaN","","","","","","","","","","","","","",""
"","response","","html-keyboard-response","33","47472","0.0-1.0-41.0-0.0","0","0","43436","","357","","","75","4","","","1","4","training","adjacent","AB","1","2","P.jpg","R.jpg","0","1","0","",""
"","feedback","","html-keyboard-response","34","48475","0.0-1.0-42.0-0.0","0","0","43436","","null","","","null","4","","","","","","","","","","","","","","","",""
"","time_out","","html-keyboard-response","35","50477","0.0-1.0-44.0-0.0","0","0","43436","","null","","","null","4","","","","","","","","","","","","","","","",""
"","ITI","","html-keyboard-response","36","51479","0.0-1.0-45.0","0","0","43436","","null","","","null","4","","","","","","","","","","","","","","","NaN",""
"","S1","","html-keyboard-response","37","51735","0.0-1.0-47.0","0","0","43436","","null","","","null","5","","","","","","","","","","","","","","","",""
"","ISI","","html-keyboard-response","38","52737","0.0-1.0-48.0","0","0","43436","","null","","","null","5","NaN","","","","","","","","","","","","","","",""
"","S2","","html-keyboard-response","39","52991","0.0-1.0-49.0","0","0","43436","","null","","","null","5","","NaN","","","","","","","","","","","","","",""
"","response","","html-keyboard-response","40","53154","0.0-1.0-50.0-0.0","0","0","43436","","161","","","68","5","","","1","5","training","adjacent","AB","1","2","P.jpg","R.jpg","1","1","1","",""
"","feedback","","html-keyboard-response","41","54157","0.0-1.0-51.0-0.0","0","0","43436","","null","","","null","5","","","","","","","","","","","","","","","",""
"","ITI","","html-keyboard-response","42","55162","0.0-1.0-54.0","0","0","43436","","null","","","null","5","","","","","","","","","","","","","","","NaN",""
"","S1","","html-keyboard-response","43","55414","0.0-1.0-56.0","0","0","43436","","null","","","null","6","","","","","","","","","","","","","","","",""
"","ISI","","html-keyboard-response","44","56417","0.0-1.0-57.0","0","0","43436","","null","","","null","6","NaN","","","","","","","","","","","","","","",""
"","S2","","html-keyboard-response","45","56669","0.0-1.0-58.0","0","0","43436","","null","","","null","6","","NaN","","","","","","","","","","","","","",""
"","response","","html-keyboard-response","46","56697","0.0-1.0-59.0-0.0","0","0","43436","","27","","","75","6","","","1","6","training","adjacent","GF","7","6","O.jpg","M.jpg","0","0","1","",""
"","feedback","","html-keyboard-response","47","57714","0.0-1.0-60.0-0.0","0","0","43436","","null","","","null","6","","","","","","","","","","","","","","","",""
"","ITI","","html-keyboard-response","48","58716","0.0-1.0-63.0","0","0","43436","","null","","","null","6","","","","","","","","","","","","","","","NaN",""
"","S1","","html-keyboard-response","49","58968","0.0-1.0-65.0","0","0","43436","","null","","","null","7","","","","","","","","","","","","","","","",""
"","ISI","","html-keyboard-response","50","59969","0.0-1.0-66.0","0","0","43436","","null","","","null","7","NaN","","","","","","","","","","","","","","",""
"","S2","","html-keyboard-response","51","60221","0.0-1.0-67.0","0","0","43436","","null","","","null","7","","NaN","","","","","","","","","","","","","",""
"","response","","html-keyboard-response","52","61042","0.0-1.0-68.0-0.0","0","0","43436","","819","","","68","7","","","1","7","training","adjacent","DC","4","3","L.jpg","Q.jpg","1","0","0","",""
"","feedback","","html-keyboard-response","53","62043","0.0-1.0-69.0-0.0","0","0","43436","","null","","","null","7","","","","","","","","","","","","","","","",""
"","time_out","","html-keyboard-response","54","64046","0.0-1.0-71.0-0.0","0","0","43436","","null","","","null","7","","","","","","","","","","","","","","","",""
"","ITI","","html-keyboard-response","55","65048","0.0-1.0-72.0","0","0","43436","","null","","","null","7","","","","","","","","","","","","","","","NaN",""
"","S1","","html-keyboard-response","56","65299","0.0-1.0-74.0","0","0","43436","","null","","","null","8","","","","","","","","","","","","","","","",""
"","ISI","","html-keyboard-response","57","66301","0.0-1.0-75.0","0","0","43436","","null","","","null","8","NaN","","","","","","","","","","","","","","",""
"","S2","","html-keyboard-response","58","66555","0.0-1.0-76.0","0","0","43436","","null","","","null","8","","NaN","","","","","","","","","","","","","",""
"","response","","html-keyboard-response","59","66754","0.0-1.0-77.0-0.0","0","0","43436","","198","","","75","8","","","1","8","training","adjacent","EF","5","6","N.jpg","M.jpg","0","1","0","",""
"","feedback","","html-keyboard-response","60","67756","0.0-1.0-78.0-0.0","0","0","43436","","null","","","null","8","","","","","","","","","","","","","","","",""
"","time_out","","html-keyboard-response","61","69759","0.0-1.0-80.0-0.0","0","0","43436","","null","","","null","8","","","","","","","","","","","","","","","",""
"","ITI","","html-keyboard-response","62","70761","0.0-1.0-81.0","0","0","43436","","null","","","null","8","","","","","","","","","","","","","","","NaN",""
"","S1","","html-keyboard-response","63","71014","0.0-1.0-83.0","0","0","43436","","null","","","null","9","","","","","","","","","","","","","","","",""
"","ISI","","html-keyboard-response","64","72016","0.0-1.0-84.0","0","0","43436","","null","","","null","9","NaN","","","","","","","","","","","","","","",""
"","S2","","html-keyboard-response","65","72267","0.0-1.0-85.0","0","0","43436","","null","","","null","9","","NaN","","","","","","","","","","","","","",""
"","response","","html-keyboard-response","66","72434","0.0-1.0-86.0-0.0","0","0","43436","","165","","","75","9","","","1","9","training","adjacent","CB","3","2","Q.jpg","R.jpg","0","0","1","",""
"","feedback","","html-keyboard-response","67","73436","0.0-1.0-87.0-0.0","0","0","43436","","null","","","null","9","","","","","","","","","","","","","","","",""
"","ITI","","html-keyboard-response","68","74438","0.0-1.0-90.0","0","0","43436","","null","","","null","9","","","","","","","","","","","","","","","NaN",""
"","S1","","html-keyboard-response","69","74692","0.0-1.0-92.0","0","0","43436","","null","","","null","10","","","","","","","","","","","","","","","",""
"","ISI","","html-keyboard-response","70","75694","0.0-1.0-93.0","0","0","43436","","null","","","null","10","NaN","","","","","","","","","","","","","","",""
"","S2","","html-keyboard-response","71","75946","0.0-1.0-94.0","0","0","43436","","null","","","null","10","","NaN","","","","","","","","","","","","","",""
"","response","","html-keyboard-response","72","76042","0.0-1.0-95.0-0.0","0","0","43436","","95","","","75","10","","","1","10","training","adjacent","CB","3","2","Q.jpg","R.jpg","0","0","1","",""
"","feedback","","html-keyboard-response","73","77044","0.0-1.0-96.0-0.0","0","0","43436","","null","","","null","10","","","","","","","","","","","","","","","",""
"","ITI","","html-keyboard-response","74","78046","0.0-1.0-99.0","0","0","43436","","null","","","null","10","","","","","","","","","","","","","","","NaN",""
"","S1","","html-keyboard-response","75","78299","0.0-1.0-101.0","0","0","43436","","null","","","null","11","","","","","","","","","","","","","","","",""
"","ISI","","html-keyboard-response","76","79301","0.0-1.0-102.0","0","0","43436","","null","","","null","11","NaN","","","","","","","","","","","","","","",""
"","S2","","html-keyboard-response","77","79565","0.0-1.0-103.0","0","0","43436","","null","","","null","11","","NaN","","","","","","","","","","","","","",""
"","response","","html-keyboard-response","78","80090","0.0-1.0-104.0-0.0","0","0","43436","","523","","","68","11","","","1","11","training","adjacent","CD","3","4","Q.jpg","L.jpg","1","1","1","",""
"","feedback","","html-keyboard-response","79","81093","0.0-1.0-105.0-0.0","0","0","43436","","null","","","null","11","","","","","","","","","","","","","","","",""
"","ITI","","html-keyboard-response","80","82095","0.0-1.0-108.0","0","0","43436","","null","","","null","11","","","","","","","","","","","","","","","NaN",""
"","S1","","html-keyboard-response","81","82347","0.0-1.0-110.0","0","0","43436","","null","","","null","12","","","","","","","","","","","","","","","",""
"","ISI","","html-keyboard-response","82","83349","0.0-1.0-111.0","0","0","43436","","null","","","null","12","NaN","","","","","","","","","","","","","","",""
"","S2","","html-keyboard-response","83","83601","0.0-1.0-112.0","0","0","43436","","null","","","null","12","","NaN","","","","","","","","","","","","","",""
"","response","","html-keyboard-response","84","85355","0.0-1.0-113.0-0.0","0","0","43436","","null","","","null","12","","","1","12","training","adjacent","DE","4","5","L.jpg","N.jpg","NaN","1","0","",""
"","too_slow_prompt","","html-keyboard-response","85","86358","0.0-1.0-115.0-0.0","1","0","43436","","null","","","null","","","","","","","","","","","","","","","","",""
"","time_out","","html-keyboard-response","86","88360","0.0-1.0-116.0-0.0","0","0","43436","","null","","","null","12","","","","","","","","","","","","","","","",""
"","ITI","","html-keyboard-response","87","89362","0.0-1.0-117.0","0","0","43436","","null","","","null","12","","","","","","","","","","","","","","","NaN",""
"","S1","","html-keyboard-response","88","89615","0.0-1.0-119.0","0","0","43436","","null","","","null","13","","","","","","","","","","","","","","","",""
"","ISI","","html-keyboard-response","89","90617","0.0-1.0-120.0","0","0","43436","","null","","","null","13","NaN","","","","","","","","","","","","","","",""
"","S2","","html-keyboard-response","90","90868","0.0-1.0-121.0","0","0","43436","","null","","","null","13","","NaN","","","","","","","","","","","","","",""
"","response","","html-keyboard-response","91","91315","0.0-1.0-122.0-0.0","0","0","43436","","445","","","68","13","","","1","13","training","adjacent","AB","1","2","P.jpg","R.jpg","1","1","1","",""
"","feedback","","html-keyboard-response","92","92317","0.0-1.0-123.0-0.0","0","0","43436","","null","","","null","13","","","","","","","","","","","","","","","",""
"","ITI","","html-keyboard-response","93","93319","0.0-1.0-126.0","0","0","43436","","null","","","null","13","","","","","","","","","","","","","","","NaN",""
"","S1","","html-keyboard-response","94","93570","0.0-1.0-128.0","0","0","43436","","null","","","null","14","","","","","","","","","","","","","","","",""
"","ISI","","html-keyboard-response","95","94572","0.0-1.0-129.0","0","0","43436","","null","","","null","14","NaN","","","","","","","","","","","","","","",""
"","S2","","html-keyboard-response","96","94824","0.0-1.0-130.0","0","0","43436","","null","","","null","14","","NaN","","","","","","","","","","","","","",""
"","response","","html-keyboard-response","97","95101","0.0-1.0-131.0-0.0","0","0","43436","","275","","","68","14","","","1","14","training","adjacent","BC","2","3","R.jpg","Q.jpg","1","1","1","",""
"","feedback","","html-keyboard-response","98","96103","0.0-1.0-132.0-0.0","0","0","43436","","null","","","null","14","","","","","","","","","","","","","","","",""
"","ITI","","html-keyboard-response","99","97105","0.0-1.0-135.0","0","0","43436","","null","","","null","14","","","","","","","","","","","","","","","NaN",""
"","S1","","html-keyboard-response","100","97357","0.0-1.0-137.0","0","0","43436","","null","","","null","15","","","","","","","","","","","","","","","",""
"","ISI","","html-keyboard-response","101","98359","0.0-1.0-138.0","0","0","43436","","null","","","null","15","NaN","","","","","","","","","","","","","","",""
"","S2","","html-keyboard-response","102","98611","0.0-1.0-139.0","0","0","43436","","null","","","null","15","","NaN","","","","","","","","","","","","","",""
"","response","","html-keyboard-response","103","98958","0.0-1.0-140.0-0.0","0","0","43436","","346","","","75","15","","","1","15","training","adjacent","AB","1","2","P.jpg","R.jpg","0","1","0","",""
"","feedback","","html-keyboard-response","104","99960","0.0-1.0-141.0-0.0","0","0","43436","","null","","","null","15","","","","","","","","","","","","","","","",""
"","time_out","","html-keyboard-response","105","101962","0.0-1.0-143.0-0.0","0","0","43436","","null","","","null","15","","","","","","","","","","","","","","","",""
"","ITI","","html-keyboard-response","106","102965","0.0-1.0-144.0","0","0","43436","","null","","","null","15","","","","","","","","","","","","","","","NaN",""
"","S1","","html-keyboard-response","107","103218","0.0-1.0-146.0","0","0","43436","","null","","","null","16","","","","","","","","","","","","","","","",""
"","ISI","","html-keyboard-response","108","104226","0.0-1.0-147.0","0","0","43436","","null","","","null","16","NaN","","","","","","","","","","","","","","",""
"","S2","","html-keyboard-response","109","104479","0.0-1.0-148.0","0","0","43436","","null","","","null","16","","NaN","","","","","","","","","","","","","",""
"","response","","html-keyboard-response","110","104923","0.0-1.0-149.0-0.0","0","0","43436","","441","","","68","16","","","1","16","training","adjacent","FE","6","5","M.jpg","N.jpg","1","0","0","",""
"","feedback","","html-keyboard-response","111","105925","0.0-1.0-150.0-0.0","0","0","43436","","null","","","null","16","","","","","","","","","","","","","","","",""
"","time_out","","html-keyboard-response","112","107928","0.0-1.0-152.0-0.0","0","0","43436","","null","","","null","16","","","","","","","","","","","","","","","",""
"","ITI","","html-keyboard-response","113","108929","0.0-1.0-153.0","0","0","43436","","null","","","null","16","","","","","","","","","","","","","","","NaN",""
"","S1","","html-keyboard-response","114","109181","0.0-1.0-155.0","0","0","43436","","null","","","null","17","","","","","","","","","","","","","","","",""
"","ISI","","html-keyboard-response","115","110183","0.0-1.0-156.0","0","0","43436","","null","","","null","17","NaN","","","","","","","","","","","","","","",""
"","S2","","html-keyboard-response","116","110435","0.0-1.0-157.0","0","0","43436","","null","","","null","17","","NaN","","","","","","","","","","","","","",""
"","response","","html-keyboard-response","117","110791","0.0-1.0-158.0-0.0","0","0","43436","","355","","","75","17","","","1","17","training","adjacent","CD","3","4","Q.jpg","L.jpg","0","1","0","",""
"","feedback","","html-keyboard-response","118","111794","0.0-1.0-159.0-0.0","0","0","43436","","null","","","null","17","","","","","","","","","","","","","","","",""
"","time_out","","html-keyboard-response","119","113796","0.0-1.0-161.0-0.0","0","0","43436","","null","","","null","17","","","","","","","","","","","","","","","",""
"","ITI","","html-keyboard-response","120","114799","0.0-1.0-162.0","0","0","43436","","null","","","null","17","","","","","","","","","","","","","","","NaN",""
"","S1","","html-keyboard-response","121","115051","0.0-1.0-164.0","0","0","43436","","null","","","null","18","","","","","","","","","","","","","","","",""
"","ISI","","html-keyboard-response","122","116053","0.0-1.0-165.0","0","0","43436","","null","","","null","18","NaN","","","","","","","","","","","","","","",""
"","S2","","html-keyboard-response","123","116307","0.0-1.0-166.0","0","0","43436","","null","","","null","18","","NaN","","","","","","","","","","","","","",""
"","response","","html-keyboard-response","124","116495","0.0-1.0-167.0-0.0","0","0","43436","","186","","","75","18","","","1","18","training","adjacent","GF","7","6","O.jpg","M.jpg","0","0","1","",""
"","feedback","","html-keyboard-response","125","117507","0.0-1.0-168.0-0.0","0","0","43436","","null","","","null","18","","","","","","","","","","","","","","","",""
"","ITI","","html-keyboard-response","126","118510","0.0-1.0-171.0","0","0","43436","","null","","","null","18","","","","","","","","","","","","","","","NaN",""
"","S1","","html-keyboard-response","127","118763","0.0-1.0-173.0","0","0","43436","","null","","","null","19","","","","","","","","","","","","","","","",""
"","ISI","","html-keyboard-response","128","119765","0.0-1.0-174.0","0","0","43436","","null","","","null","19","NaN","","","","","","","","","","","","","","",""
"","S2","","html-keyboard-response","129","120017","0.0-1.0-175.0","0","0","43436","","null","","","null","19","","NaN","","","","","","","","","","","","","",""
"","response","","html-keyboard-response","130","120316","0.0-1.0-176.0-0.0","0","0","43436","","297","","","68","19","","","1","19","training","adjacent","FE","6","5","M.jpg","N.jpg","1","0","0","",""
"","feedback","","html-keyboard-response","131","121318","0.0-1.0-177.0-0.0","0","0","43436","","null","","","null","19","","","","","","","","","","","","","","","",""
"","time_out","","html-keyboard-response","132","123321","0.0-1.0-179.0-0.0","0","0","43436","","null","","","null","19","","","","","","","","","","","","","","","",""
"","ITI","","html-keyboard-response","133","124323","0.0-1.0-180.0","0","0","43436","","null","","","null","19","","","","","","","","","","","","","","","NaN",""
"","S1","","html-keyboard-response","134","124575","0.0-1.0-182.0","0","0","43436","","null","","","null","20","","","","","","","","","","","","","","","",""
"","ISI","","html-keyboard-response","135","125577","0.0-1.0-183.0","0","0","43436","","null","","","null","20","NaN","","","","","","","","","","","","","","",""
"","S2","","html-keyboard-response","136","125830","0.0-1.0-184.0","0","0","43436","","null","","","null","20","","NaN","","","","","","","","","","","","","",""
"","response","","html-keyboard-response","137","126043","0.0-1.0-185.0-0.0","0","0","43436","","212","","","68","20","","","1","20","training","adjacent","FG","6","7","M.jpg","O.jpg","1","1","1","",""
"","feedback","","html-keyboard-response","138","127045","0.0-1.0-186.0-0.0","0","0","43436","","null","","","null","20","","","","","","","","","","","","","","","",""
"","ITI","","html-keyboard-response","139","128047","0.0-1.0-189.0","0","0","43436","","null","","","null","20","","","","","","","","","","","","","","","NaN",""
"","S1","","html-keyboard-response","140","128300","0.0-1.0-191.0","0","0","43436","","null","","","null","21","","","","","","","","","","","","","","","",""
"","ISI","","html-keyboard-response","141","129310","0.0-1.0-192.0","0","0","43436","","null","","","null","21","NaN","","","","","","","","","","","","","","",""
"","S2","","html-keyboard-response","142","129567","0.0-1.0-193.0","0","0","43436","","null","","","null","21","","NaN","","","","","","","","","","","","","",""
"","response","","html-keyboard-response","143","129925","0.0-1.0-194.0-0.0","0","0","43436","","357","","","68","21","","","1","21","training","adjacent","DE","4","5","L.jpg","N.jpg","1","1","1","",""
"","feedback","","html-keyboard-response","144","130928","0.0-1.0-195.0-0.0","0","0","43436","","null","","","null","21","","","","","","","","","","","","","","","",""
"","ITI","","html-keyboard-response","145","131931","0.0-1.0-198.0","0","0","43436","","null","","","null","21","","","","","","","","","","","","","","","NaN",""
"","S1","","html-keyboard-response","146","132185","0.0-1.0-200.0","0","0","43436","","null","","","null","22","","","","","","","","","","","","","","","",""
"","ISI","","html-keyboard-response","147","133187","0.0-1.0-201.0","0","0","43436","","null","","","null","22","NaN","","","","","","","","","","","","","","",""
"","S2","","html-keyboard-response","148","133440","0.0-1.0-202.0","0","0","43436","","null","","","null","22","","NaN","","","","","","","","","","","","","",""
"","response","","html-keyboard-response","149","133544","0.0-1.0-203.0-0.0","0","0","43436","","101","","","68","22","","","1","22","training","adjacent","BC","2","3","R.jpg","Q.jpg","1","1","1","",""
"","feedback","","html-keyboard-response","150","134546","0.0-1.0-204.0-0.0","0","0","43436","","null","","","null","22","","","","","","","","","","","","","","","",""
"","ITI","","html-keyboard-response","151","135548","0.0-1.0-207.0","0","0","43436","","null","","","null","22","","","","","","","","","","","","","","","NaN",""
"","S1","","html-keyboard-response","152","135801","0.0-1.0-209.0","0","0","43436","","null","","","null","23","","","","","","","","","","","","","","","",""
"","ISI","","html-keyboard-response","153","136805","0.0-1.0-210.0","0","0","43436","","null","","","null","23","NaN","","","","","","","","","","","","","","",""
"","S2","","html-keyboard-response","154","137059","0.0-1.0-211.0","0","0","43436","","null","","","null","23","","NaN","","","","","","","","","","","","","",""
"","response","","html-keyboard-response","155","137162","0.0-1.0-212.0-0.0","0","0","43436","","102","","","75","23","","","1","23","training","adjacent","ED","5","4","N.jpg","L.jpg","0","0","1","",""
"","feedback","","html-keyboard-response","156","138163","0.0-1.0-213.0-0.0","0","0","43436","","null","","","null","23","","","","","","","","","","","","","","","",""
"","ITI","","html-keyboard-response","157","139165","0.0-1.0-216.0","0","0","43436","","null","","","null","23","","","","","","","","","","","","","","","NaN",""
"","S1","","html-keyboard-response","158","139423","0.0-1.0-218.0","0","0","43436","","null","","","null","24","","","","","","","","","","","","","","","",""
"","ISI","","html-keyboard-response","159","140425","0.0-1.0-219.0","0","0","43436","","null","","","null","24","NaN","","","","","","","","","","","","","","",""
"","S2","","html-keyboard-response","160","140678","0.0-1.0-220.0","0","0","43436","","null","","","null","24","","NaN","","","","","","","","","","","","","",""
"","response","","html-keyboard-response","161","140907","0.0-1.0-221.0-0.0","0","0","43436","","228","","","75","24","","","1","24","training","adjacent","CB","3","2","Q.jpg","R.jpg","0","0","1","",""
"","feedback","","html-keyboard-response","162","141910","0.0-1.0-222.0-0.0","0","0","43436","","null","","","null","24","","","","","","","","","","","","","","","",""
"","ITI","","html-keyboard-response","163","142913","0.0-1.0-225.0","0","0","43436","","null","","","null","24","","","","","","","","","","","","","","","NaN",""
"","S1","","html-keyboard-response","164","143165","0.0-1.0-227.0","0","0","43436","","null","","","null","25","","","","","","","","","","","","","","","",""
"","ISI","","html-keyboard-response","165","144166","0.0-1.0-228.0","0","0","43436","","null","","","null","25","NaN","","","","","","","","","","","","","","",""
"","S2","","html-keyboard-response","166","144418","0.0-1.0-229.0","0","0","43436","","null","","","null","25","","NaN","","","","","","","","","","","","","",""
"","response","","html-keyboard-response","167","144707","0.0-1.0-230.0-0.0","0","0","43436","","288","","","68","25","","","1","25","training","adjacent","BC","2","3","R.jpg","Q.jpg","1","1","1","",""
"","feedback","","html-keyboard-response","168","145710","0.0-1.0-231.0-0.0","0","0","43436","","null","","","null","25","","","","","","","","","","","","","","","",""
"","ITI","","html-keyboard-response","169","146712","0.0-1.0-234.0","0","0","43436","","null","","","null","25","","","","","","","","","","","","","","","NaN",""
"","S1","","html-keyboard-response","170","146966","0.0-1.0-236.0","0","0","43436","","null","","","null","26","","","","","","","","","","","","","","","",""
"","ISI","","html-keyboard-response","171","147968","0.0-1.0-237.0","0","0","43436","","null","","","null","26","NaN","","","","","","","","","","","","","","",""
"","S2","","html-keyboard-response","172","148219","0.0-1.0-238.0","0","0","43436","","null","","","null","26","","NaN","","","","","","","","","","","","","",""
"","response","","html-keyboard-response","173","148480","0.0-1.0-239.0-0.0","0","0","43436","","259","","","68","26","","","1","26","training","adjacent","FE","6","5","M.jpg","N.jpg","1","0","0","",""
"","feedback","","html-keyboard-response","174","149482","0.0-1.0-240.0-0.0","0","0","43436","","null","","","null","26","","","","","","","","","","","","","","","",""
"","time_out","","html-keyboard-response","175","151483","0.0-1.0-242.0-0.0","0","0","43436","","null","","","null","26","","","","","","","","","","","","","","","",""
"","ITI","","html-keyboard-response","176","152485","0.0-1.0-243.0","0","0","43436","","null","","","null","26","","","","","","","","","","","","","","","NaN",""
"","S1","","html-keyboard-response","177","152737","0.0-1.0-245.0","0","0","43436","","null","","","null","27","","","","","","","","","","","","","","","",""
"","ISI","","html-keyboard-response","178","153747","0.0-1.0-246.0","0","0","43436","","null","","","null","27","NaN","","","","","","","","","","","","","","",""
"","S2","","html-keyboard-response","179","154004","0.0-1.0-247.0","0","0","43436","","null","","","null","27","","NaN","","","","","","","","","","","","","",""
"","response","","html-keyboard-response","180","154485","0.0-1.0-248.0-0.0","0","0","43436","","479","","","75","27","","","1","27","training","adjacent","BA","2","1","R.jpg","P.jpg","0","0","1","",""
"","feedback","","html-keyboard-response","181","155492","0.0-1.0-249.0-0.0","0","0","43436","","null","","","null","27","","","","","","","","","","","","","","","",""
"","ITI","","html-keyboard-response","182","156504","0.0-1.0-252.0","0","0","43436","","null","","","null","27","","","","","","","","","","","","","","","NaN",""
"","S1","","html-keyboard-response","183","156759","0.0-1.0-254.0","0","0","43436","","null","","","null","28","","","","","","","","","","","","","","","",""
"","ISI","","html-keyboard-response","184","157762","0.0-1.0-255.0","0","0","43436","","null","","","null","28","NaN","","","","","","","","","","","","","","",""
"","S2","","html-keyboard-response","185","158014","0.0-1.0-256.0","0","0","43436","","null","","","null","28","","NaN","","","","","","","","","","","","","",""
"","response","","html-keyboard-response","186","159767","0.0-1.0-257.0-0.0","0","0","43436","","null","","","null","28","","","1","28","training","adjacent","FG","6","7","M.jpg","O.jpg","NaN","1","0","",""
"","too_slow_prompt","","html-keyboard-response","187","160769","0.0-1.0-259.0-0.0","1","0","43436","","null","","","null","","","","","","","","","","","","","","","","",""
"","time_out","","html-keyboard-response","188","162771","0.0-1.0-260.0-0.0","0","0","43436","","null","","","null","28","","","","","","","","","","","","","","","",""
"","ITI","","html-keyboard-response","189","163774","0.0-1.0-261.0","0","0","43436","","null","","","null","28","","","","","","","","","","","","","","","NaN",""
"","S1","","html-keyboard-response","190","164027","0.0-1.0-263.0","0","0","43436","","null","","","null","29","","","","","","","","","","","","","","","",""
"","ISI","","html-keyboard-response","191","165034","0.0-1.0-264.0","0","0","43436","","null","","","null","29","NaN","","","","","","","","","","","","","","",""
"","S2","","html-keyboard-response","192","165287","0.0-1.0-265.0","0","0","43436","","null","","","null","29","","NaN","","","","","","","","","","","","","",""
"","response","","html-keyboard-response","193","165536","0.0-1.0-266.0-0.0","0","0","43436","","248","","","68","29","","","1","29","training","adjacent","FG","6","7","M.jpg","O.jpg","1","1","1","",""
"","feedback","","html-keyboard-response","194","166538","0.0-1.0-267.0-0.0","0","0","43436","","null","","","null","29","","","","","","","","","","","","","","","",""
"","ITI","","html-keyboard-response","195","167542","0.0-1.0-270.0","0","0","43436","","null","","","null","29","","","","","","","","","","","","","","","NaN",""
"","S1","","html-keyboard-response","196","167798","0.0-1.0-272.0","0","0","43436","","null","","","null","30","","","","","","","","","","","","","","","",""
"","ISI","","html-keyboard-response","197","168801","0.0-1.0-273.0","0","0","43436","","null","","","null","30","NaN","","","","","","","","","","","","","","",""
"","S2","","html-keyboard-response","198","168824","0.0-1.0-274.0","0","0","43436","","21","","","68","30","","d","1","30","training","adjacent","GF","7","6","O.jpg","M.jpg","1","0","0","",""
"","feedback","","html-keyboard-response","199","169828","0.0-1.0-276.0-0.0","0","0","43436","","null","","","null","30","","","","","","","","","","","","","","","",""
"","time_out","","html-keyboard-response","200","171829","0.0-1.0-278.0-0.0","0","0","43436","","null","","","null","30","","","","","","","","","","","","","","","",""
"","ITI","","html-keyboard-response","201","172832","0.0-1.0-279.0","0","0","43436","","null","","","null","30","","","","","","","","","","","","","","","NaN",""
"","S1","","html-keyboard-response","202","173084","0.0-1.0-281.0","0","0","43436","","null","","","null","31","","","","","","","","","","","","","","","",""
"","ISI","","html-keyboard-response","203","174087","0.0-1.0-282.0","0","0","43436","","null","","","null","31","NaN","","","","","","","","","","","","","","",""
"","S2","","html-keyboard-response","204","174339","0.0-1.0-283.0","0","0","43436","","null","","","null","31","","NaN","","","","","","","","","","","","","",""
"","response","","html-keyboard-response","205","174730","0.0-1.0-284.0-0.0","0","0","43436","","391","","","75","31","","","1","31","training","adjacent","ED","5","4","N.jpg","L.jpg","0","0","1","",""
"","feedback","","html-keyboard-response","206","175734","0.0-1.0-285.0-0.0","0","0","43436","","null","","","null","31","","","","","","","","","","","","","","","",""
"","ITI","","html-keyboard-response","207","176749","0.0-1.0-288.0","0","0","43436","","null","","","null","31","","","","","","","","","","","","","","","NaN",""
"","S1","","html-keyboard-response","208","177001","0.0-1.0-290.0","0","0","43436","","null","","","null","32","","","","","","","","","","","","","","","",""
"","ISI","","html-keyboard-response","209","178003","0.0-1.0-291.0","0","0","43436","","null","","","null","32","NaN","","","","","","","","","","","","","","",""
"","S2","","html-keyboard-response","210","178255","0.0-1.0-292.0","0","0","43436","","null","","","null","32","","NaN","","","","","","","","","","","","","",""
"","response","","html-keyboard-response","211","178551","0.0-1.0-293.0-0.0","0","0","43436","","294","","","68","32","","","1","32","training","adjacent","BC","2","3","R.jpg","Q.jpg","1","1","1","",""
"","feedback","","html-keyboard-response","212","179554","0.0-1.0-294.0-0.0","0","0","43436","","null","","","null","32","","","","","","","","","","","","","","","",""
"","ITI","","html-keyboard-response","213","180568","0.0-1.0-297.0","0","0","43436","","null","","","null","32","","","","","","","","","","","","","","","NaN",""
"","S1","","html-keyboard-response","214","180825","0.0-1.0-299.0","0","0","43436","","null","","","null","33","","","","","","","","","","","","","","","",""
"","ISI","","html-keyboard-response","215","181827","0.0-1.0-300.0","0","0","43436","","null","","","null","33","NaN","","","","","","","","","","","","","","",""
"","S2","","html-keyboard-response","216","182080","0.0-1.0-301.0","0","0","43436","","null","","","null","33","","NaN","","","","","","","","","","","","","",""
"","response","","html-keyboard-response","217","182214","0.0-1.0-302.0-0.0","0","0","43436","","133","","","75","33","","","1","33","training","adjacent","GF","7","6","O.jpg","M.jpg","0","0","1","",""
"","feedback","","html-keyboard-response","218","183218","0.0-1.0-303.0-0.0","0","0","43436","","null","","","null","33","","","","","","","","","","","","","","","",""
"","ITI","","html-keyboard-response","219","184221","0.0-1.0-306.0","0","0","43436","","null","","","null","33","","","","","","","","","","","","","","","NaN",""
"","S1","","html-keyboard-response","220","184476","0.0-1.0-308.0","0","0","43436","","null","","","null","34","","","","","","","","","","","","","","","",""
"","ISI","","html-keyboard-response","221","185479","0.0-1.0-309.0","0","0","43436","","null","","","null","34","NaN","","","","","","","","","","","","","","",""
"","S2","","html-keyboard-response","222","185735","0.0-1.0-310.0","0","0","43436","","null","","","null","34","","NaN","","","","","","","","","","","","","",""
"","response","","html-keyboard-response","223","186007","0.0-1.0-311.0-0.0","0","0","43436","","270","","","75","34","","","1","34","training","adjacent","EF","5","6","N.jpg","M.jpg","0","1","0","",""
"","feedback","","html-keyboard-response","224","187014","0.0-1.0-312.0-0.0","0","0","43436","","null","","","null","34","","","","","","","","","","","","","","","",""
"","time_out","","html-keyboard-response","225","189016","0.0-1.0-314.0-0.0","0","0","43436","","null","","","null","34","","","","","","","","","","","","","","","",""
"","ITI","","html-keyboard-response","226","190018","0.0-1.0-315.0","0","0","43436","","null","","","null","34","","","","","","","","","","","","","","","NaN",""
"","S1","","html-keyboard-response","227","190271","0.0-1.0-317.0","0","0","43436","","null","","","null","35","","","","","","","","","","","","","","","",""
"","ISI","","html-keyboard-response","228","191284","0.0-1.0-318.0","0","0","43436","","null","","","null","35","NaN","","","","","","","","","","","","","","",""
"","S2","","html-keyboard-response","229","191538","0.0-1.0-319.0","0","0","43436","","null","","","null","35","","NaN","","","","","","","","","","","","","",""
"","response","","html-keyboard-response","230","191676","0.0-1.0-320.0-0.0","0","0","43436","","137","","","68","35","","","1","35","training","adjacent","EF","5","6","N.jpg","M.jpg","1","1","1","",""
"","feedback","","html-keyboard-response","231","192678","0.0-1.0-321.0-0.0","0","0","43436","","null","","","null","35","","","","","","","","","","","","","","","",""
"","ITI","","html-keyboard-response","232","193681","0.0-1.0-324.0","0","0","43436","","null","","","null","35","","","","","","","","","","","","","","","NaN",""
"","S1","","html-keyboard-response","233","193935","0.0-1.0-326.0","0","0","43436","","null","","","null","36","","","","","","","","","","","","","","","",""
"","ISI","","html-keyboard-response","234","194936","0.0-1.0-327.0","0","0","43436","","null","","","null","36","NaN","","","","","","","","","","","","","","",""
"","S2","","html-keyboard-response","235","195188","0.0-1.0-328.0","0","0","43436","","null","","","null","36","","NaN","","","","","","","","","","","","","",""
"","response","","html-keyboard-response","236","195506","0.0-1.0-329.0-0.0","0","0","43436","","316","","","68","36","","","1","36","training","adjacent","BA","2","1","R.jpg","P.jpg","1","0","0","",""
"","feedback","","html-keyboard-response","237","196511","0.0-1.0-330.0-0.0","0","0","43436","","null","","","null","36","","","","","","","","","","","","","","","",""
"","time_out","","html-keyboard-response","238","198513","0.0-1.0-332.0-0.0","0","0","43436","","null","","","null","36","","","","","","","","","","","","","","","",""
"","ITI","","html-keyboard-response","239","199515","0.0-1.0-333.0","0","0","43436","","null","","","null","36","","","","","","","","","","","","","","","NaN",""
"","S1","","html-keyboard-response","240","199767","0.0-1.0-335.0","0","0","43436","","null","","","null","37","","","","","","","","","","","","","","","",""
"","ISI","","html-keyboard-response","241","200769","0.0-1.0-336.0","0","0","43436","","null","","","null","37","NaN","","","","","","","","","","","","","","",""
"","S2","","html-keyboard-response","242","201022","0.0-1.0-337.0","0","0","43436","","null","","","null","37","","NaN","","","","","","","","","","","","","",""
"","response","","html-keyboard-response","243","201429","0.0-1.0-338.0-0.0","0","0","43436","","406","","","68","37","","","1","37","training","adjacent","FE","6","5","M.jpg","N.jpg","1","0","0","",""
"","feedback","","html-keyboard-response","244","202431","0.0-1.0-339.0-0.0","0","0","43436","","null","","","null","37","","","","","","","","","","","","","","","",""
"","time_out","","html-keyboard-response","245","204446","0.0-1.0-341.0-0.0","0","0","43436","","null","","","null","37","","","","","","","","","","","","","","","",""
"","ITI","","html-keyboard-response","246","205454","0.0-1.0-342.0","0","0","43436","","null","","","null","37","","","","","","","","","","","","","","","NaN",""
"","S1","","html-keyboard-response","247","205705","0.0-1.0-344.0","0","0","43436","","null","","","null","38","","","","","","","","","","","","","","","",""
"","ISI","","html-keyboard-response","248","206708","0.0-1.0-345.0","0","0","43436","","null","","","null","38","NaN","","","","","","","","","","","","","","",""
"","S2","","html-keyboard-response","249","206961","0.0-1.0-346.0","0","0","43436","","null","","","null","38","","NaN","","","","","","","","","","","","","",""
"","response","","html-keyboard-response","250","207333","0.0-1.0-347.0-0.0","0","0","43436","","371","","","75","38","","","1","38","training","adjacent","CD","3","4","Q.jpg","L.jpg","0","1","0","",""
"","feedback","","html-keyboard-response","251","208336","0.0-1.0-348.0-0.0","0","0","43436","","null","","","null","38","","","","","","","","","","","","","","","",""
"","time_out","","html-keyboard-response","252","210337","0.0-1.0-350.0-0.0","0","0","43436","","null","","","null","38","","","","","","","","","","","","","","","",""
"","ITI","","html-keyboard-response","253","211339","0.0-1.0-351.0","0","0","43436","","null","","","null","38","","","","","","","","","","","","","","","NaN",""
"","S1","","html-keyboard-response","254","211592","0.0-1.0-353.0","0","0","43436","","null","","","null","39","","","","","","","","","","","","","","","",""
"","ISI","","html-keyboard-response","255","212595","0.0-1.0-354.0","0","0","43436","","null","","","null","39","NaN","","","","","","","","","","","","","","",""
"","S2","","html-keyboard-response","256","212848","0.0-1.0-355.0","0","0","43436","","null","","","null","39","","NaN","","","","","","","","","","","","","",""
"","response","","html-keyboard-response","257","213601","0.0-1.0-356.0-0.0","0","0","43436","","752","","","75","39","","","1","39","training","adjacent","BA","2","1","R.jpg","P.jpg","0","0","1","",""
"","feedback","","html-keyboard-response","258","214603","0.0-1.0-357.0-0.0","0","0","43436","","null","","","null","39","","","","","","","","","","","","","","","",""
"","ITI","","html-keyboard-response","259","215605","0.0-1.0-360.0","0","0","43436","","null","","","null","39","","","","","","","","","","","","","","","NaN",""
"","S1","","html-keyboard-response","260","215858","0.0-1.0-362.0","0","0","43436","","null","","","null","40","","","","","","","","","","","","","","","",""
"","ISI","","html-keyboard-response","261","216860","0.0-1.0-363.0","0","0","43436","","null","","","null","40","NaN","","","","","","","","","","","","","","",""
"","S2","","html-keyboard-response","262","217112","0.0-1.0-364.0","0","0","43436","","null","","","null","40","","NaN","","","","","","","","","","","","","",""
"","response","","html-keyboard-response","263","217467","0.0-1.0-365.0-0.0","0","0","43436","","353","","","68","40","","","1","40","training","adjacent","DE","4","5","L.jpg","N.jpg","1","1","1","",""
"","feedback","","html-keyboard-response","264","218469","0.0-1.0-366.0-0.0","0","0","43436","","null","","","null","40","","","","","","","","","","","","","","","",""
"","ITI","","html-keyboard-response","265","219471","0.0-1.0-369.0","0","0","43436","","null","","","null","40","","","","","","","","","","","","","","","NaN",""
"","S1","","html-keyboard-response","266","219725","0.0-1.0-371.0","0","0","43436","","null","","","null","41","","","","","","","","","","","","","","","",""
"","ISI","","html-keyboard-response","267","220728","0.0-1.0-372.0","0","0","43436","","null","","","null","41","NaN","","","","","","","","","","","","","","",""
"","S2","","html-keyboard-response","268","220981","0.0-1.0-373.0","0","0","43436","","null","","","null","41","","NaN","","","","","","","","","","","","","",""
"","response","","html-keyboard-response","269","221520","0.0-1.0-374.0-0.0","0","0","43436","","538","","","68","41","","","1","41","training","adjacent","BA","2","1","R.jpg","P.jpg","1","0","0","",""
"","feedback","","html-keyboard-response","270","222522","0.0-1.0-375.0-0.0","0","0","43436","","null","","","null","41","","","","","","","","","","","","","","","",""
"","time_out","","html-keyboard-response","271","224525","0.0-1.0-377.0-0.0","0","0","43436","","null","","","null","41","","","","","","","","","","","","","","","",""
"","ITI","","html-keyboard-response","272","225528","0.0-1.0-378.0","0","0","43436","","null","","","null","41","","","","","","","","","","","","","","","NaN",""
"","S1","","html-keyboard-response","273","225793","0.0-1.0-380.0","0","0","43436","","null","","","null","42","","","","","","","","","","","","","","","",""
"","ISI","","html-keyboard-response","274","226795","0.0-1.0-381.0","0","0","43436","","null","","","null","42","NaN","","","","","","","","","","","","","","",""
"","S2","","html-keyboard-response","275","227046","0.0-1.0-382.0","0","0","43436","","null","","","null","42","","NaN","","","","","","","","","","","","","",""
"","response","","html-keyboard-response","276","227355","0.0-1.0-383.0-0.0","0","0","43436","","307","","","75","42","","","1","42","training","adjacent","ED","5","4","N.jpg","L.jpg","0","0","1","",""
"","feedback","","html-keyboard-response","277","228358","0.0-1.0-384.0-0.0","0","0","43436","","null","","","null","42","","","","","","","","","","","","","","","",""
"","ITI","","html-keyboard-response","278","229361","0.0-1.0-387.0","0","0","43436","","null","","","null","42","","","","","","","","","","","","","","","NaN",""
"","S1","","html-keyboard-response","279","229613","0.0-1.0-389.0","0","0","43436","","null","","","null","43","","","","","","","","","","","","","","","",""
"","ISI","","html-keyboard-response","280","230634","0.0-1.0-390.0","0","0","43436","","null","","","null","43","NaN","","","","","","","","","","","","","","",""
"","S2","","html-keyboard-response","281","230888","0.0-1.0-391.0","0","0","43436","","null","","","null","43","","NaN","","","","","","","","","","","","","",""
"","response","","html-keyboard-response","282","231299","0.0-1.0-392.0-0.0","0","0","43436","","410","","","68","43","","","1","43","training","adjacent","DC","4","3","L.jpg","Q.jpg","1","0","0","",""
"","feedback","","html-keyboard-response","283","232302","0.0-1.0-393.0-0.0","0","0","43436","","null","","","null","43","","","","","","","","","","","","","","","",""
"","time_out","","html-keyboard-response","284","234303","0.0-1.0-395.0-0.0","0","0","43436","","null","","","null","43","","","","","","","","","","","","","","","",""
"","ITI","","html-keyboard-response","285","235306","0.0-1.0-396.0","0","0","43436","","null","","","null","43","","","","","","","","","","","","","","","NaN",""
"","S1","","html-keyboard-response","286","235558","0.0-1.0-398.0","0","0","43436","","null","","","null","44","","","","","","","","","","","","","","","",""
"","ISI","","html-keyboard-response","287","236561","0.0-1.0-399.0","0","0","43436","","null","","","null","44","NaN","","","","","","","","","","","","","","",""
"","S2","","html-keyboard-response","288","236814","0.0-1.0-400.0","0","0","43436","","null","","","null","44","","NaN","","","","","","","","","","","","","",""
"","response","","html-keyboard-response","289","237031","0.0-1.0-401.0-0.0","0","0","43436","","216","","","75","44","","","1","44","training","adjacent","CD","3","4","Q.jpg","L.jpg","0","1","0","",""
"","feedback","","html-keyboard-response","290","238033","0.0-1.0-402.0-0.0","0","0","43436","","null","","","null","44","","","","","","","","","","","","","","","",""
"","time_out","","html-keyboard-response","291","240035","0.0-1.0-404.0-0.0","0","0","43436","","null","","","null","44","","","","","","","","","","","","","","","",""
"","ITI","","html-keyboard-response","292","241037","0.0-1.0-405.0","0","0","43436","","null","","","null","44","","","","","","","","","","","","","","","NaN",""
"","S1","","html-keyboard-response","293","241288","0.0-1.0-407.0","0","0","43436","","null","","","null","45","","","","","","","","","","","","","","","",""
"","ISI","","html-keyboard-response","294","242291","0.0-1.0-408.0","0","0","43436","","null","","","null","45","NaN","","","","","","","","","","","","","","",""
"","S2","","html-keyboard-response","295","242545","0.0-1.0-409.0","0","0","43436","","null","","","null","45","","NaN","","","","","","","","","","","","","",""
"","response","","html-keyboard-response","296","243076","0.0-1.0-410.0-0.0","0","0","43436","","530","","","68","45","","","1","45","training","adjacent","DC","4","3","L.jpg","Q.jpg","1","0","0","",""
"","feedback","","html-keyboard-response","297","244078","0.0-1.0-411.0-0.0","0","0","43436","","null","","","null","45","","","","","","","","","","","","","","","",""
"","time_out","","html-keyboard-response","298","246080","0.0-1.0-413.0-0.0","0","0","43436","","null","","","null","45","","","","","","","","","","","","","","","",""
"","ITI","","html-keyboard-response","299","247082","0.0-1.0-414.0","0","0","43436","","null","","","null","45","","","","","","","","","","","","","","","NaN",""
"","S1","","html-keyboard-response","300","247335","0.0-1.0-416.0","0","0","43436","","null","","","null","46","","","","","","","","","","","","","","","",""
"","ISI","","html-keyboard-response","301","248336","0.0-1.0-417.0","0","0","43436","","null","","","null","46","NaN","","","","","","","","","","","","","","",""
"","S2","","html-keyboard-response","302","248576","0.0-1.0-418.0","0","0","43436","","239","","","75","46","","k","1","46","training","adjacent","DE","4","5","L.jpg","N.jpg","0","1","0","",""
"","feedback","","html-keyboard-response","303","249579","0.0-1.0-420.0-0.0","0","0","43436","","null","","","null","46","","","","","","","","","","","","","","","",""
"","time_out","","html-keyboard-response","304","251582","0.0-1.0-422.0-0.0","0","0","43436","","null","","","null","46","","","","","","","","","","","","","","","",""
"","ITI","","html-keyboard-response","305","252583","0.0-1.0-423.0","0","0","43436","","null","","","null","46","","","","","","","","","","","","","","","NaN",""
"","S1","","html-keyboard-response","306","252836","0.0-1.0-425.0","0","0","43436","","null","","","null","47","","","","","","","","","","","","","","","",""
"","ISI","","html-keyboard-response","307","253851","0.0-1.0-426.0","0","0","43436","","null","","","null","47","NaN","","","","","","","","","","","","","","",""
"","S2","","html-keyboard-response","308","254104","0.0-1.0-427.0","0","0","43436","","null","","","null","47","","NaN","","","","","","","","","","","","","",""
"","response","","html-keyboard-response","309","254193","0.0-1.0-428.0-0.0","0","0","43436","","87","","","75","47","","","1","47","training","adjacent","DC","4","3","L.jpg","Q.jpg","0","0","1","",""
"","feedback","","html-keyboard-response","310","255196","0.0-1.0-429.0-0.0","0","0","43436","","null","","","null","47","","","","","","","","","","","","","","","",""
"","ITI","","html-keyboard-response","311","256198","0.0-1.0-432.0","0","0","43436","","null","","","null","47","","","","","","","","","","","","","","","NaN",""
"","block_over","","html-keyboard-response","312","259512","0.0-1.0-433.0-0.0","0","0","43436","","3311","","","32","47","","","","","","","","","","","","","","","",""
"","S1","","html-keyboard-response","313","259764","0.0-1.0-434.0","0","0","43436","","null","","","null","48","","","","","","","","","","","","","","","",""
"","ISI","","html-keyboard-response","314","260766","0.0-1.0-435.0","0","0","43436","","null","","","null","48","NaN","","","","","","","","","","","","","","",""
"","S2","","html-keyboard-response","315","261019","0.0-1.0-436.0","0","0","43436","","null","","","null","48","","NaN","","","","","","","","","","","","","",""
"","response","","html-keyboard-response","316","261297","0.0-1.0-437.0-0.0","0","0","43436","","277","","","68","48","","","2","48","training","adjacent","ED","5","4","N.jpg","L.jpg","1","0","0","",""
"","feedback","","html-keyboard-response","317","262300","0.0-1.0-438.0-0.0","0","0","43436","","null","","","null","48","","","","","","","","","","","","","","","",""
"","time_out","","html-keyboard-response","318","264302","0.0-1.0-440.0-0.0","0","0","43436","","null","","","null","48","","","","","","","","","","","","","","","",""
"","ITI","","html-keyboard-response","319","265304","0.0-1.0-441.0","0","0","43436","","null","","","null","48","","","","","","","","","","","","","","","NaN",""
"","S1","","html-keyboard-response","320","265556","0.0-1.0-443.0","0","0","43436","","null","","","null","49","","","","","","","","","","","","","","","",""
"","ISI","","html-keyboard-response","321","266559","0.0-1.0-444.0","0","0","43436","","null","","","null","49","NaN","","","","","","","","","","","","","","",""
"","S2","","html-keyboard-response","322","266811","0.0-1.0-445.0","0","0","43436","","null","","","null","49","","NaN","","","","","","","","","","","","","",""
"","response","","html-keyboard-response","323","267015","0.0-1.0-446.0-0.0","0","0","43436","","201","","","68","49","","","2","49","training","adjacent","DE","4","5","L.jpg","N.jpg","1","1","1","",""
"","feedback","","html-keyboard-response","324","268016","0.0-1.0-447.0-0.0","0","0","43436","","null","","","null","49","","","","","","","","","","","","","","","",""
"","ITI","","html-keyboard-response","325","269019","0.0-1.0-450.0","0","0","43436","","null","","","null","49","","","","","","","","","","","","","","","NaN",""
"","S1","","html-keyboard-response","326","269272","0.0-1.0-452.0","0","0","43436","","null","","","null","50","","","","","","","","","","","","","","","",""
"","ISI","","html-keyboard-response","327","270276","0.0-1.0-453.0","0","0","43436","","null","","","null","50","NaN","","","","","","","","","","","","","","",""
"","S2","","html-keyboard-response","328","270536","0.0-1.0-454.0","0","0","43436","","null","","","null","50","","NaN","","","","","","","","","","","","","",""
"","response","","html-keyboard-response","329","271155","0.0-1.0-455.0-0.0","0","0","43436","","617","","","75","50","","","2","50","training","adjacent","CB","3","2","Q.jpg","R.jpg","0","0","1","",""
"","feedback","","html-keyboard-response","330","272159","0.0-1.0-456.0-0.0","0","0","43436","","null","","","null","50","","","","","","","","","","","","","","","",""
"","ITI","","html-keyboard-response","331","273160","0.0-1.0-459.0","0","0","43436","","null","","","null","50","","","","","","","","","","","","","","","NaN",""
"","S1","","html-keyboard-response","332","273412","0.0-1.0-461.0","0","0","43436","","null","","","null","51","","","","","","","","","","","","","","","",""
"","ISI","","html-keyboard-response","333","274414","0.0-1.0-462.0","0","0","43436","","null","","","null","51","NaN","","","","","","","","","","","","","","",""
"","S2","","html-keyboard-response","334","274666","0.0-1.0-463.0","0","0","43436","","null","","","null","51","","NaN","","","","","","","","","","","","","",""
"","response","","html-keyboard-response","335","275005","0.0-1.0-464.0-0.0","0","0","43436","","338","","","68","51","","","2","51","training","adjacent","DE","4","5","L.jpg","N.jpg","1","1","1","",""
"","feedback","","html-keyboard-response","336","276008","0.0-1.0-465.0-0.0","0","0","43436","","null","","","null","51","","","","","","","","","","","","","","","",""
"","ITI","","html-keyboard-response","337","277016","0.0-1.0-468.0","0","0","43436","","null","","","null","51","","","","","","","","","","","","","","","NaN",""
"","S1","","html-keyboard-response","338","277267","0.0-1.0-470.0","0","0","43436","","null","","","null","52","","","","","","","","","","","","","","","",""
"","ISI","","html-keyboard-response","339","278268","0.0-1.0-471.0","0","0","43436","","null","","","null","52","NaN","","","","","","","","","","","","","","",""
"","S2","","html-keyboard-response","340","278521","0.0-1.0-472.0","0","0","43436","","null","","","null","52","","NaN","","","","","","","","","","","","","",""
"","response","","html-keyboard-response","341","278877","0.0-1.0-473.0-0.0","0","0","43436","","351","","","75","52","","","2","52","training","adjacent","AB","1","2","P.jpg","R.jpg","0","1","0","",""
"","feedback","","html-keyboard-response","342","279879","0.0-1.0-474.0-0.0","0","0","43436","","null","","","null","52","","","","","","","","","","","","","","","",""
"","time_out","","html-keyboard-response","343","281881","0.0-1.0-476.0-0.0","0","0","43436","","null","","","null","52","","","","","","","","","","","","","","","",""
"","ITI","","html-keyboard-response","344","282883","0.0-1.0-477.0","0","0","43436","","null","","","null","52","","","","","","","","","","","","","","","NaN",""
"","S1","","html-keyboard-response","345","283134","0.0-1.0-479.0","0","0","43436","","null","","","null","53","","","","","","","","","","","","","","","",""
"","ISI","","html-keyboard-response","346","284136","0.0-1.0-480.0","0","0","43436","","null","","","null","53","NaN","","","","","","","","","","","","","","",""
"","S2","","html-keyboard-response","347","284389","0.0-1.0-481.0","0","0","43436","","null","","","null","53","","NaN","","","","","","","","","","","","","",""
"","response","","html-keyboard-response","348","284915","0.0-1.0-482.0-0.0","0","0","43436","","525","","","75","53","","","2","53","training","adjacent","CB","3","2","Q.jpg","R.jpg","0","0","1","",""
"","feedback","","html-keyboard-response","349","285918","0.0-1.0-483.0-0.0","0","0","43436","","null","","","null","53","","","","","","","","","","","","","","","",""
"","ITI","","html-keyboard-response","350","286920","0.0-1.0-486.0","0","0","43436","","null","","","null","53","","","","","","","","","","","","","","","NaN",""
"","S1","","html-keyboard-response","351","287172","0.0-1.0-488.0","0","0","43436","","null","","","null","54","","","","","","","","","","","","","","","",""
"","ISI","","html-keyboard-response","352","288175","0.0-1.0-489.0","0","0","43436","","null","","","null","54","NaN","","","","","","","","","","","","","","",""
"","S2","","html-keyboard-response","353","288428","0.0-1.0-490.0","0","0","43436","","null","","","null","54","","NaN","","","","","","","","","","","","","",""
"","response","","html-keyboard-response","354","289028","0.0-1.0-491.0-0.0","0","0","43436","","599","","","75","54","","","2","54","training","adjacent","CD","3","4","Q.jpg","L.jpg","0","1","0","",""
"","feedback","","html-keyboard-response","355","290031","0.0-1.0-492.0-0.0","0","0","43436","","null","","","null","54","","","","","","","","","","","","","","","",""
"","time_out","","html-keyboard-response","356","292032","0.0-1.0-494.0-0.0","0","0","43436","","null","","","null","54","","","","","","","","","","","","","","","",""
"","ITI","","html-keyboard-response","357","293034","0.0-1.0-495.0","0","0","43436","","null","","","null","54","","","","","","","","","","","","","","","NaN",""
"","S1","","html-keyboard-response","358","293286","0.0-1.0-497.0","0","0","43436","","null","","","null","55","","","","","","","","","","","","","","","",""
"","ISI","","html-keyboard-response","359","294288","0.0-1.0-498.0","0","0","43436","","null","","","null","55","NaN","","","","","","","","","","","","","","",""
"","S2","","html-keyboard-response","360","294541","0.0-1.0-499.0","0","0","43436","","null","","","null","55","","NaN","","","","","","","","","","","","","",""
"","response","","html-keyboard-response","361","294989","0.0-1.0-500.0-0.0","0","0","43436","","446","","","68","55","","","2","55","training","adjacent","GF","7","6","O.jpg","M.jpg","1","0","0","",""
"","feedback","","html-keyboard-response","362","295994","0.0-1.0-501.0-0.0","0","0","43436","","null","","","null","55","","","","","","","","","","","","","","","",""
"","time_out","","html-keyboard-response","363","297996","0.0-1.0-503.0-0.0","0","0","43436","","null","","","null","55","","","","","","","","","","","","","","","",""
"","ITI","","html-keyboard-response","364","298998","0.0-1.0-504.0","0","0","43436","","null","","","null","55","","","","","","","","","","","","","","","NaN",""
"","S1","","html-keyboard-response","365","299249","0.0-1.0-506.0","0","0","43436","","null","","","null","56","","","","","","","","","","","","","","","",""
"","ISI","","html-keyboard-response","366","300251","0.0-1.0-507.0","0","0","43436","","null","","","null","56","NaN","","","","","","","","","","","","","","",""
"","S2","","html-keyboard-response","367","300504","0.0-1.0-508.0","0","0","43436","","null","","","null","56","","NaN","","","","","","","","","","","","","",""
"","response","","html-keyboard-response","368","300857","0.0-1.0-509.0-0.0","0","0","43436","","352","","","75","56","","","2","56","training","adjacent","BA","2","1","R.jpg","P.jpg","0","0","1","",""
"","feedback","","html-keyboard-response","369","301861","0.0-1.0-510.0-0.0","0","0","43436","","null","","","null","56","","","","","","","","","","","","","","","",""
"","ITI","","html-keyboard-response","370","302863","0.0-1.0-513.0","0","0","43436","","null","","","null","56","","","","","","","","","","","","","","","NaN",""
"","S1","","html-keyboard-response","371","303115","0.0-1.0-515.0","0","0","43436","","null","","","null","57","","","","","","","","","","","","","","","",""
"","ISI","","html-keyboard-response","372","304118","0.0-1.0-516.0","0","0","43436","","null","","","null","57","NaN","","","","","","","","","","","","","","",""
"","S2","","html-keyboard-response","373","304387","0.0-1.0-517.0","0","0","43436","","null","","","null","57","","NaN","","","","","","","","","","","","","",""
"","response","","html-keyboard-response","374","305113","0.0-1.0-518.0-0.0","0","0","43436","","724","","","68","57","","","2","57","training","adjacent","EF","5","6","N.jpg","M.jpg","1","1","1","",""
"","feedback","","html-keyboard-response","375","306115","0.0-1.0-519.0-0.0","0","0","43436","","null","","","null","57","","","","","","","","","","","","","","","",""
"","ITI","","html-keyboard-response","376","307117","0.0-1.0-522.0","0","0","43436","","null","","","null","57","","","","","","","","","","","","","","","NaN",""
"","S1","","html-keyboard-response","377","307369","0.0-1.0-524.0","0","0","43436","","null","","","null","58","","","","","","","","","","","","","","","",""
"","ISI","","html-keyboard-response","378","308371","0.0-1.0-525.0","0","0","43436","","null","","","null","58","NaN","","","","","","","","","","","","","","",""
"","S2","","html-keyboard-response","379","308622","0.0-1.0-526.0","0","0","43436","","null","","","null","58","","NaN","","","","","","","","","","","","","",""
"","response","","html-keyboard-response","380","308900","0.0-1.0-527.0-0.0","0","0","43436","","276","","","75","58","","","2","58","training","adjacent","ED","5","4","N.jpg","L.jpg","0","0","1","",""
"","feedback","","html-keyboard-response","381","309916","0.0-1.0-528.0-0.0","0","0","43436","","null","","","null","58","","","","","","","","","","","","","","","",""
"","ITI","","html-keyboard-response","382","310918","0.0-1.0-531.0","0","0","43436","","null","","","null","58","","","","","","","","","","","","","","","NaN",""
"","S1","","html-keyboard-response","383","311171","0.0-1.0-533.0","0","0","43436","","null","","","null","59","","","","","","","","","","","","","","","",""
"","ISI","","html-keyboard-response","384","312175","0.0-1.0-534.0","0","0","43436","","null","","","null","59","NaN","","","","","","","","","","","","","","",""
"","S2","","html-keyboard-response","385","312427","0.0-1.0-535.0","0","0","43436","","null","","","null","59","","NaN","","","","","","","","","","","","","",""
"","response","","html-keyboard-response","386","313607","0.0-1.0-536.0-0.0","0","0","43436","","1178","","","75","59","","","2","59","training","adjacent","DE","4","5","L.jpg","N.jpg","0","1","0","",""
"","feedback","","html-keyboard-response","387","314610","0.0-1.0-537.0-0.0","0","0","43436","","null","","","null","59","","","","","","","","","","","","","","","",""
"","time_out","","html-keyboard-response","388","316613","0.0-1.0-539.0-0.0","0","0","43436","","null","","","null","59","","","","","","","","","","","","","","","",""
"","ITI","","html-keyboard-response","389","317615","0.0-1.0-540.0","0","0","43436","","null","","","null","59","","","","","","","","","","","","","","","NaN",""
"","S1","","html-keyboard-response","390","317867","0.0-1.0-542.0","0","0","43436","","null","","","null","60","","","","","","","","","","","","","","","",""
"","ISI","","html-keyboard-response","391","318870","0.0-1.0-543.0","0","0","43436","","null","","","null","60","NaN","","","","","","","","","","","","","","",""
"","S2","","html-keyboard-response","392","319122","0.0-1.0-544.0","0","0","43436","","null","","","null","60","","NaN","","","","","","","","","","","","","",""
"","response","","html-keyboard-response","393","320019","0.0-1.0-545.0-0.0","0","0","43436","","896","","","68","60","","","2","60","training","adjacent","DC","4","3","L.jpg","Q.jpg","1","0","0","",""
"","feedback","","html-keyboard-response","394","321022","0.0-1.0-546.0-0.0","0","0","43436","","null","","","null","60","","","","","","","","","","","","","","","",""
"","time_out","","html-keyboard-response","395","323028","0.0-1.0-548.0-0.0","0","0","43436","","null","","","null","60","","","","","","","","","","","","","","","",""
"","ITI","","html-keyboard-response","396","324030","0.0-1.0-549.0","0","0","43436","","null","","","null","60","","","","","","","","","","","","","","","NaN",""
"","S1","","html-keyboard-response","397","324281","0.0-1.0-551.0","0","0","43436","","null","","","null","61","","","","","","","","","","","","","","","",""
"","ISI","","html-keyboard-response","398","325283","0.0-1.0-552.0","0","0","43436","","null","","","null","61","NaN","","","","","","","","","","","","","","",""
"","S2","","html-keyboard-response","399","325535","0.0-1.0-553.0","0","0","43436","","null","","","null","61","","NaN","","","","","","","","","","","","","",""
"","response","","html-keyboard-response","400","326424","0.0-1.0-554.0-0.0","0","0","43436","","887","","","68","61","","","2","61","training","adjacent","EF","5","6","N.jpg","M.jpg","1","1","1","",""
"","feedback","","html-keyboard-response","401","327428","0.0-1.0-555.0-0.0","0","0","43436","","null","","","null","61","","","","","","","","","","","","","","","",""
"","ITI","","html-keyboard-response","402","328431","0.0-1.0-558.0","0","0","43436","","null","","","null","61","","","","","","","","","","","","","","","NaN",""
"","S1","","html-keyboard-response","403","328684","0.0-1.0-560.0","0","0","43436","","null","","","null","62","","","","","","","","","","","","","","","",""
"","ISI","","html-keyboard-response","404","329687","0.0-1.0-561.0","0","0","43436","","null","","","null","62","NaN","","","","","","","","","","","","","","",""
"","S2","","html-keyboard-response","405","329939","0.0-1.0-562.0","0","0","43436","","null","","","null","62","","NaN","","","","","","","","","","","","","",""
"","response","","html-keyboard-response","406","330639","0.0-1.0-563.0-0.0","0","0","43436","","699","","","68","62","","","2","62","training","adjacent","FE","6","5","M.jpg","N.jpg","1","0","0","",""
"","feedback","","html-keyboard-response","407","331643","0.0-1.0-564.0-0.0","0","0","43436","","null","","","null","62","","","","","","","","","","","","","","","",""
"","time_out","","html-keyboard-response","408","333646","0.0-1.0-566.0-0.0","0","0","43436","","null","","","null","62","","","","","","","","","","","","","","","",""
"","ITI","","html-keyboard-response","409","334648","0.0-1.0-567.0","0","0","43436","","null","","","null","62","","","","","","","","","","","","","","","NaN",""
"","S1","","html-keyboard-response","410","334910","0.0-1.0-569.0","0","0","43436","","null","","","null","63","","","","","","","","","","","","","","","",""
"","ISI","","html-keyboard-response","411","335913","0.0-1.0-570.0","0","0","43436","","null","","","null","63","NaN","","","","","","","","","","","","","","",""
"","S2","","html-keyboard-response","412","336165","0.0-1.0-571.0","0","0","43436","","null","","","null","63","","NaN","","","","","","","","","","","","","",""
"","response","","html-keyboard-response","413","336567","0.0-1.0-572.0-0.0","0","0","43436","","401","","","75","63","","","2","63","training","adjacent","BA","2","1","R.jpg","P.jpg","0","0","1","",""
"","feedback","","html-keyboard-response","414","337569","0.0-1.0-573.0-0.0","0","0","43436","","null","","","null","63","","","","","","","","","","","","","","","",""
"","ITI","","html-keyboard-response","415","338571","0.0-1.0-576.0","0","0","43436","","null","","","null","63","","","","","","","","","","","","","","","NaN",""
"","S1","","html-keyboard-response","416","338823","0.0-1.0-578.0","0","0","43436","","null","","","null","64","","","","","","","","","","","","","","","",""
"","ISI","","html-keyboard-response","417","339827","0.0-1.0-579.0","0","0","43436","","null","","","null","64","NaN","","","","","","","","","","","","","","",""
"","S2","","html-keyboard-response","418","340079","0.0-1.0-580.0","0","0","43436","","null","","","null","64","","NaN","","","","","","","","","","","","","",""
"","response","","html-keyboard-response","419","340422","0.0-1.0-581.0-0.0","0","0","43436","","341","","","75","64","","","2","64","training","adjacent","CB","3","2","Q.jpg","R.jpg","0","0","1","",""
"","feedback","","html-keyboard-response","420","341424","0.0-1.0-582.0-0.0","0","0","43436","","null","","","null","64","","","","","","","","","","","","","","","",""
"","ITI","","html-keyboard-response","421","342428","0.0-1.0-585.0","0","0","43436","","null","","","null","64","","","","","","","","","","","","","","","NaN",""
"","S1","","html-keyboard-response","422","342680","0.0-1.0-587.0","0","0","43436","","null","","","null","65","","","","","","","","","","","","","","","",""
"","ISI","","html-keyboard-response","423","343682","0.0-1.0-588.0","0","0","43436","","null","","","null","65","NaN","","","","","","","","","","","","","","",""
"","S2","","html-keyboard-response","424","343934","0.0-1.0-589.0","0","0","43436","","null","","","null","65","","NaN","","","","","","","","","","","","","",""
"","response","","html-keyboard-response","425","344798","0.0-1.0-590.0-0.0","0","0","43436","","862","","","68","65","","","2","65","training","adjacent","FG","6","7","M.jpg","O.jpg","1","1","1","",""
"","feedback","","html-keyboard-response","426","345801","0.0-1.0-591.0-0.0","0","0","43436","","null","","","null","65","","","","","","","","","","","","","","","",""
"","ITI","","html-keyboard-response","427","346803","0.0-1.0-594.0","0","0","43436","","null","","","null","65","","","","","","","","","","","","","","","NaN",""
"","S1","","html-keyboard-response","428","347055","0.0-1.0-596.0","0","0","43436","","null","","","null","66","","","","","","","","","","","","","","","",""
"","ISI","","html-keyboard-response","429","348057","0.0-1.0-597.0","0","0","43436","","null","","","null","66","NaN","","","","","","","","","","","","","","",""
"","S2","","html-keyboard-response","430","348313","0.0-1.0-598.0","0","0","43436","","null","","","null","66","","NaN","","","","","","","","","","","","","",""
"","response","","html-keyboard-response","431","348740","0.0-1.0-599.0-0.0","0","0","43436","","426","","","75","66","","","2","66","training","adjacent","DC","4","3","L.jpg","Q.jpg","0","0","1","",""
"","feedback","","html-keyboard-response","432","349745","0.0-1.0-600.0-0.0","0","0","43436","","null","","","null","66","","","","","","","","","","","","","","","",""
"","ITI","","html-keyboard-response","433","350748","0.0-1.0-603.0","0","0","43436","","null","","","null","66","","","","","","","","","","","","","","","NaN",""
"","S1","","html-keyboard-response","434","351016","0.0-1.0-605.0","0","0","43436","","null","","","null","67","","","","","","","","","","","","","","","",""
"","ISI","","html-keyboard-response","435","352018","0.0-1.0-606.0","0","0","43436","","null","","","null","67","NaN","","","","","","","","","","","","","","",""
"","S2","","html-keyboard-response","436","352281","0.0-1.0-607.0","0","0","43436","","null","","","null","67","","NaN","","","","","","","","","","","","","",""
"","response","","html-keyboard-response","437","352844","0.0-1.0-608.0-0.0","0","0","43436","","560","","","68","67","","","2","67","training","adjacent","ED","5","4","N.jpg","L.jpg","1","0","0","",""
"","feedback","","html-keyboard-response","438","353847","0.0-1.0-609.0-0.0","0","0","43436","","null","","","null","67","","","","","","","","","","","","","","","",""
"","time_out","","html-keyboard-response","439","355849","0.0-1.0-611.0-0.0","0","0","43436","","null","","","null","67","","","","","","","","","","","","","","","",""
"","ITI","","html-keyboard-response","440","356851","0.0-1.0-612.0","0","0","43436","","null","","","null","67","","","","","","","","","","","","","","","NaN",""
"","S1","","html-keyboard-response","441","357103","0.0-1.0-614.0","0","0","43436","","null","","","null","68","","","","","","","","","","","","","","","",""
"","ISI","","html-keyboard-response","442","358104","0.0-1.0-615.0","0","0","43436","","null","","","null","68","NaN","","","","","","","","","","","","","","",""
"","S2","","html-keyboard-response","443","358356","0.0-1.0-616.0","0","0","43436","","null","","","null","68","","NaN","","","","","","","","","","","","","",""
"","response","","html-keyboard-response","444","358833","0.0-1.0-617.0-0.0","0","0","43436","","475","","","68","68","","","2","68","training","adjacent","AB","1","2","P.jpg","R.jpg","1","1","1","",""
"","feedback","","html-keyboard-response","445","359835","0.0-1.0-618.0-0.0","0","0","43436","","null","","","null","68","","","","","","","","","","","","","","","",""
"","ITI","","html-keyboard-response","446","360837","0.0-1.0-621.0","0","0","43436","","null","","","null","68","","","","","","","","","","","","","","","NaN",""
"","S1","","html-keyboard-response","447","361088","0.0-1.0-623.0","0","0","43436","","null","","","null","69","","","","","","","","","","","","","","","",""
"","ISI","","html-keyboard-response","448","362090","0.0-1.0-624.0","0","0","43436","","null","","","null","69","NaN","","","","","","","","","","","","","","",""
"","S2","","html-keyboard-response","449","362341","0.0-1.0-625.0","0","0","43436","","null","","","null","69","","NaN","","","","","","","","","","","","","",""
"","response","","html-keyboard-response","450","363272","0.0-1.0-626.0-0.0","0","0","43436","","929","","","75","69","","","2","69","training","adjacent","CB","3","2","Q.jpg","R.jpg","0","0","1","",""
"","feedback","","html-keyboard-response","451","364274","0.0-1.0-627.0-0.0","0","0","43436","","null","","","null","69","","","","","","","","","","","","","","","",""
"","ITI","","html-keyboard-response","452","365278","0.0-1.0-630.0","0","0","43436","","null","","","null","69","","","","","","","","","","","","","","","NaN",""
"","S1","","html-keyboard-response","453","365530","0.0-1.0-632.0","0","0","43436","","null","","","null","70","","","","","","","","","","","","","","","",""
"","ISI","","html-keyboard-response","454","366532","0.0-1.0-633.0","0","0","43436","","null","","","null","70","NaN","","","","","","","","","","","","","","",""
"","S2","","html-keyboard-response","455","366784","0.0-1.0-634.0","0","0","43436","","null","","","null","70","","NaN","","","","","","","","","","","","","",""
"","response","","html-keyboard-response","456","367232","0.0-1.0-635.0-0.0","0","0","43436","","447","","","75","70","","","2","70","training","adjacent","EF","5","6","N.jpg","M.jpg","0","1","0","",""
"","feedback","","html-keyboard-response","457","368234","0.0-1.0-636.0-0.0","0","0","43436","","null","","","null","70","","","","","","","","","","","","","","","",""
"","time_out","","html-keyboard-response","458","370236","0.0-1.0-638.0-0.0","0","0","43436","","null","","","null","70","","","","","","","","","","","","","","","",""
"","ITI","","html-keyboard-response","459","371238","0.0-1.0-639.0","0","0","43436","","null","","","null","70","","","","","","","","","","","","","","","NaN",""
"","S1","","html-keyboard-response","460","371490","0.0-1.0-641.0","0","0","43436","","null","","","null","71","","","","","","","","","","","","","","","",""
"","ISI","","html-keyboard-response","461","372493","0.0-1.0-642.0","0","0","43436","","null","","","null","71","NaN","","","","","","","","","","","","","","",""
"","S2","","html-keyboard-response","462","372746","0.0-1.0-643.0","0","0","43436","","null","","","null","71","","NaN","","","","","","","","","","","","","",""
"","response","","html-keyboard-response","463","373441","0.0-1.0-644.0-0.0","0","0","43436","","693","","","75","71","","","2","71","training","adjacent","CD","3","4","Q.jpg","L.jpg","0","1","0","",""
"","feedback","","html-keyboard-response","464","374445","0.0-1.0-645.0-0.0","0","0","43436","","null","","","null","71","","","","","","","","","","","","","","","",""
"","time_out","","html-keyboard-response","465","376448","0.0-1.0-647.0-0.0","0","0","43436","","null","","","null","71","","","","","","","","","","","","","","","",""
"","ITI","","html-keyboard-response","466","377451","0.0-1.0-648.0","0","0","43436","","null","","","null","71","","","","","","","","","","","","","","","NaN",""
"","S1","","html-keyboard-response","467","377703","0.0-1.0-650.0","0","0","43436","","null","","","null","72","","","","","","","","","","","","","","","",""
"","ISI","","html-keyboard-response","468","378706","0.0-1.0-651.0","0","0","43436","","null","","","null","72","NaN","","","","","","","","","","","","","","",""
"","S2","","html-keyboard-response","469","378958","0.0-1.0-652.0","0","0","43436","","null","","","null","72","","NaN","","","","","","","","","","","","","",""
"","response","","html-keyboard-response","470","379639","0.0-1.0-653.0-0.0","0","0","43436","","680","","","68","72","","","2","72","training","adjacent","AB","1","2","P.jpg","R.jpg","1","1","1","",""
"","feedback","","html-keyboard-response","471","380642","0.0-1.0-654.0-0.0","0","0","43436","","null","","","null","72","","","","","","","","","","","","","","","",""
"","ITI","","html-keyboard-response","472","381644","0.0-1.0-657.0","0","0","43436","","null","","","null","72","","","","","","","","","","","","","","","NaN",""
"","S1","","html-keyboard-response","473","381897","0.0-1.0-659.0","0","0","43436","","null","","","null","73","","","","","","","","","","","","","","","",""
"","ISI","","html-keyboard-response","474","382899","0.0-1.0-660.0","0","0","43436","","null","","","null","73","NaN","","","","","","","","","","","","","","",""
"","S2","","html-keyboard-response","475","383151","0.0-1.0-661.0","0","0","43436","","null","","","null","73","","NaN","","","","","","","","","","","","","",""
"","response","","html-keyboard-response","476","383705","0.0-1.0-662.0-0.0","0","0","43436","","553","","","68","73","","","2","73","training","adjacent","AB","1","2","P.jpg","R.jpg","1","1","1","",""
"","feedback","","html-keyboard-response","477","384709","0.0-1.0-663.0-0.0","0","0","43436","","null","","","null","73","","","","","","","","","","","","","","","",""
"","ITI","","html-keyboard-response","478","385713","0.0-1.0-666.0","0","0","43436","","null","","","null","73","","","","","","","","","","","","","","","NaN",""
"","S1","","html-keyboard-response","479","385965","0.0-1.0-668.0","0","0","43436","","null","","","null","74","","","","","","","","","","","","","","","",""
"","ISI","","html-keyboard-response","480","386967","0.0-1.0-669.0","0","0","43436","","null","","","null","74","NaN","","","","","","","","","","","","","","",""
"","S2","","html-keyboard-response","481","387234","0.0-1.0-670.0","0","0","43436","","null","","","null","74","","NaN","","","","","","","","","","","","","",""
"","response","","html-keyboard-response","482","387697","0.0-1.0-671.0-0.0","0","0","43436","","460","","","75","74","","","2","74","training","adjacent","BC","2","3","R.jpg","Q.jpg","0","1","0","",""
"","feedback","","html-keyboard-response","483","388700","0.0-1.0-672.0-0.0","0","0","43436","","null","","","null","74","","","","","","","","","","","","","","","",""
"","time_out","","html-keyboard-response","484","390703","0.0-1.0-674.0-0.0","0","0","43436","","null","","","null","74","","","","","","","","","","","","","","","",""
"","ITI","","html-keyboard-response","485","391705","0.0-1.0-675.0","0","0","43436","","null","","","null","74","","","","","","","","","","","","","","","NaN",""
"","S1","","html-keyboard-response","486","391956","0.0-1.0-677.0","0","0","43436","","null","","","null","75","","","","","","","","","","","","","","","",""
"","ISI","","html-keyboard-response","487","392958","0.0-1.0-678.0","0","0","43436","","null","","","null","75","NaN","","","","","","","","","","","","","","",""
"","S2","","html-keyboard-response","488","393212","0.0-1.0-679.0","0","0","43436","","null","","","null","75","","NaN","","","","","","","","","","","","","",""
"","response","","html-keyboard-response","489","393614","0.0-1.0-680.0-0.0","0","0","43436","","400","","","68","75","","","2","75","training","adjacent","FG","6","7","M.jpg","O.jpg","1","1","1","",""
"","feedback","","html-keyboard-response","490","394617","0.0-1.0-681.0-0.0","0","0","43436","","null","","","null","75","","","","","","","","","","","","","","","",""
"","ITI","","html-keyboard-response","491","395619","0.0-1.0-684.0","0","0","43436","","null","","","null","75","","","","","","","","","","","","","","","NaN",""
"","S1","","html-keyboard-response","492","395872","0.0-1.0-686.0","0","0","43436","","null","","","null","76","","","","","","","","","","","","","","","",""
"","ISI","","html-keyboard-response","493","396873","0.0-1.0-687.0","0","0","43436","","null","","","null","76","NaN","","","","","","","","","","","","","","",""
"","S2","","html-keyboard-response","494","397125","0.0-1.0-688.0","0","0","43436","","null","","","null","76","","NaN","","","","","","","","","","","","","",""
"","response","","html-keyboard-response","495","397680","0.0-1.0-689.0-0.0","0","0","43436","","553","","","68","76","","","2","76","training","adjacent","CD","3","4","Q.jpg","L.jpg","1","1","1","",""
"","feedback","","html-keyboard-response","496","398682","0.0-1.0-690.0-0.0","0","0","43436","","null","","","null","76","","","","","","","","","","","","","","","",""
"","ITI","","html-keyboard-response","497","399685","0.0-1.0-693.0","0","0","43436","","null","","","null","76","","","","","","","","","","","","","","","NaN",""
"","S1","","html-keyboard-response","498","399938","0.0-1.0-695.0","0","0","43436","","null","","","null","77","","","","","","","","","","","","","","","",""
"","ISI","","html-keyboard-response","499","400947","0.0-1.0-696.0","0","0","43436","","null","","","null","77","NaN","","","","","","","","","","","","","","",""
"","S2","","html-keyboard-response","500","401199","0.0-1.0-697.0","0","0","43436","","null","","","null","77","","NaN","","","","","","","","","","","","","",""
"","response","","html-keyboard-response","501","401748","0.0-1.0-698.0-0.0","0","0","43436","","548","","","68","77","","","2","77","training","adjacent","FE","6","5","M.jpg","N.jpg","1","0","0","",""
"","feedback","","html-keyboard-response","502","402750","0.0-1.0-699.0-0.0","0","0","43436","","null","","","null","77","","","","","","","","","","","","","","","",""
"","time_out","","html-keyboard-response","503","404752","0.0-1.0-701.0-0.0","0","0","43436","","null","","","null","77","","","","","","","","","","","","","","","",""
"","ITI","","html-keyboard-response","504","405754","0.0-1.0-702.0","0","0","43436","","null","","","null","77","","","","","","","","","","","","","","","NaN",""
"","S1","","html-keyboard-response","505","406021","0.0-1.0-704.0","0","0","43436","","null","","","null","78","","","","","","","","","","","","","","","",""
"","ISI","","html-keyboard-response","506","407023","0.0-1.0-705.0","0","0","43436","","null","","","null","78","NaN","","","","","","","","","","","","","","",""
"","S2","","html-keyboard-response","507","407275","0.0-1.0-706.0","0","0","43436","","null","","","null","78","","NaN","","","","","","","","","","","","","",""
"","response","","html-keyboard-response","508","407947","0.0-1.0-707.0-0.0","0","0","43436","","670","","","68","78","","","2","78","training","adjacent","CD","3","4","Q.jpg","L.jpg","1","1","1","",""
"","feedback","","html-keyboard-response","509","408950","0.0-1.0-708.0-0.0","0","0","43436","","null","","","null","78","","","","","","","","","","","","","","","",""
"","ITI","","html-keyboard-response","510","409951","0.0-1.0-711.0","0","0","43436","","null","","","null","78","","","","","","","","","","","","","","","NaN",""
"","S1","","html-keyboard-response","511","410203","0.0-1.0-713.0","0","0","43436","","null","","","null","79","","","","","","","","","","","","","","","",""
"","ISI","","html-keyboard-response","512","411205","0.0-1.0-714.0","0","0","43436","","null","","","null","79","NaN","","","","","","","","","","","","","","",""
"","S2","","html-keyboard-response","513","411457","0.0-1.0-715.0","0","0","43436","","null","","","null","79","","NaN","","","","","","","","","","","","","",""
"","response","","html-keyboard-response","514","411880","0.0-1.0-716.0-0.0","0","0","43436","","422","","","75","79","","","2","79","training","adjacent","FE","6","5","M.jpg","N.jpg","0","0","1","",""
"","feedback","","html-keyboard-response","515","412882","0.0-1.0-717.0-0.0","0","0","43436","","null","","","null","79","","","","","","","","","","","","","","","",""
"","ITI","","html-keyboard-response","516","413885","0.0-1.0-720.0","0","0","43436","","null","","","null","79","","","","","","","","","","","","","","","NaN",""
"","S1","","html-keyboard-response","517","414137","0.0-1.0-722.0","0","0","43436","","null","","","null","80","","","","","","","","","","","","","","","",""
"","ISI","","html-keyboard-response","518","415139","0.0-1.0-723.0","0","0","43436","","null","","","null","80","NaN","","","","","","","","","","","","","","",""
"","S2","","html-keyboard-response","519","415392","0.0-1.0-724.0","0","0","43436","","null","","","null","80","","NaN","","","","","","","","","","","","","",""
"","response","","html-keyboard-response","520","415989","0.0-1.0-725.0-0.0","0","0","43436","","596","","","68","80","","","2","80","training","adjacent","DE","4","5","L.jpg","N.jpg","1","1","1","",""
"","feedback","","html-keyboard-response","521","416992","0.0-1.0-726.0-0.0","0","0","43436","","null","","","null","80","","","","","","","","","","","","","","","",""
"","ITI","","html-keyboard-response","522","417998","0.0-1.0-729.0","0","0","43436","","null","","","null","80","","","","","","","","","","","","","","","NaN",""
"","S1","","html-keyboard-response","523","418263","0.0-1.0-731.0","0","0","43436","","null","","","null","81","","","","","","","","","","","","","","","",""
"","ISI","","html-keyboard-response","524","419264","0.0-1.0-732.0","0","0","43436","","null","","","null","81","NaN","","","","","","","","","","","","","","",""
"","S2","","html-keyboard-response","525","419517","0.0-1.0-733.0","0","0","43436","","null","","","null","81","","NaN","","","","","","","","","","","","","",""
"","response","","html-keyboard-response","526","420165","0.0-1.0-734.0-0.0","0","0","43436","","648","","","75","81","","","2","81","training","adjacent","BC","2","3","R.jpg","Q.jpg","0","1","0","",""
"","feedback","","html-keyboard-response","527","421168","0.0-1.0-735.0-0.0","0","0","43436","","null","","","null","81","","","","","","","","","","","","","","","",""
"","time_out","","html-keyboard-response","528","423171","0.0-1.0-737.0-0.0","0","0","43436","","null","","","null","81","","","","","","","","","","","","","","","",""
"","ITI","","html-keyboard-response","529","424172","0.0-1.0-738.0","0","0","43436","","null","","","null","81","","","","","","","","","","","","","","","NaN",""
"","S1","","html-keyboard-response","530","424425","0.0-1.0-740.0","0","0","43436","","null","","","null","82","","","","","","","","","","","","","","","",""
"","ISI","","html-keyboard-response","531","425429","0.0-1.0-741.0","0","0","43436","","null","","","null","82","NaN","","","","","","","","","","","","","","",""
"","S2","","html-keyboard-response","532","425683","0.0-1.0-742.0","0","0","43436","","null","","","null","82","","NaN","","","","","","","","","","","","","",""
"","response","","html-keyboard-response","533","426466","0.0-1.0-743.0-0.0","0","0","43436","","782","","","68","82","","","2","82","training","adjacent","GF","7","6","O.jpg","M.jpg","1","0","0","",""
"","feedback","","html-keyboard-response","534","427470","0.0-1.0-744.0-0.0","0","0","43436","","null","","","null","82","","","","","","","","","","","","","","","",""
"","time_out","","html-keyboard-response","535","429471","0.0-1.0-746.0-0.0","0","0","43436","","null","","","null","82","","","","","","","","","","","","","","","",""
"","ITI","","html-keyboard-response","536","430474","0.0-1.0-747.0","0","0","43436","","null","","","null","82","","","","","","","","","","","","","","","NaN",""
"","S1","","html-keyboard-response","537","430725","0.0-1.0-749.0","0","0","43436","","null","","","null","83","","","","","","","","","","","","","","","",""
"","ISI","","html-keyboard-response","538","431729","0.0-1.0-750.0","0","0","43436","","null","","","null","83","NaN","","","","","","","","","","","","","","",""
"","S2","","html-keyboard-response","539","431982","0.0-1.0-751.0","0","0","43436","","null","","","null","83","","NaN","","","","","","","","","","","","","",""
"","response","","html-keyboard-response","540","432633","0.0-1.0-752.0-0.0","0","0","43436","","650","","","68","83","","","2","83","training","adjacent","BA","2","1","R.jpg","P.jpg","1","0","0","",""
"","feedback","","html-keyboard-response","541","433634","0.0-1.0-753.0-0.0","0","0","43436","","null","","","null","83","","","","","","","","","","","","","","","",""
"","time_out","","html-keyboard-response","542","435636","0.0-1.0-755.0-0.0","0","0","43436","","null","","","null","83","","","","","","","","","","","","","","","",""
"","ITI","","html-keyboard-response","543","436639","0.0-1.0-756.0","0","0","43436","","null","","","null","83","","","","","","","","","","","","","","","NaN",""
"","S1","","html-keyboard-response","544","436891","0.0-1.0-758.0","0","0","43436","","null","","","null","84","","","","","","","","","","","","","","","",""
"","ISI","","html-keyboard-response","545","437905","0.0-1.0-759.0","0","0","43436","","null","","","null","84","NaN","","","","","","","","","","","","","","",""
"","S2","","html-keyboard-response","546","438157","0.0-1.0-760.0","0","0","43436","","null","","","null","84","","NaN","","","","","","","","","","","","","",""
"","response","","html-keyboard-response","547","438612","0.0-1.0-761.0-0.0","0","0","43436","","453","","","75","84","","","2","84","training","adjacent","DC","4","3","L.jpg","Q.jpg","0","0","1","",""
"","feedback","","html-keyboard-response","548","439615","0.0-1.0-762.0-0.0","0","0","43436","","null","","","null","84","","","","","","","","","","","","","","","",""
"","ITI","","html-keyboard-response","549","440618","0.0-1.0-765.0","0","0","43436","","null","","","null","84","","","","","","","","","","","","","","","NaN",""
"","S1","","html-keyboard-response","550","440871","0.0-1.0-767.0","0","0","43436","","null","","","null","85","","","","","","","","","","","","","","","",""
"","ISI","","html-keyboard-response","551","441873","0.0-1.0-768.0","0","0","43436","","null","","","null","85","NaN","","","","","","","","","","","","","","",""
"","S2","","html-keyboard-response","552","442126","0.0-1.0-769.0","0","0","43436","","null","","","null","85","","NaN","","","","","","","","","","","","","",""
"","response","","html-keyboard-response","553","442241","0.0-1.0-770.0-0.0","0","0","43436","","114","","","75","85","","","2","85","training","adjacent","DC","4","3","L.jpg","Q.jpg","0","0","1","",""
"","feedback","","html-keyboard-response","554","443246","0.0-1.0-771.0-0.0","0","0","43436","","null","","","null","85","","","","","","","","","","","","","","","",""
"","ITI","","html-keyboard-response","555","444249","0.0-1.0-774.0","0","0","43436","","null","","","null","85","","","","","","","","","","","","","","","NaN",""
"","S1","","html-keyboard-response","556","444502","0.0-1.0-776.0","0","0","43436","","null","","","null","86","","","","","","","","","","","","","","","",""
"","ISI","","html-keyboard-response","557","445503","0.0-1.0-777.0","0","0","43436","","null","","","null","86","NaN","","","","","","","","","","","","","","",""
"","S2","","html-keyboard-response","558","445755","0.0-1.0-778.0","0","0","43436","","null","","","null","86","","NaN","","","","","","","","","","","","","",""
"","response","","html-keyboard-response","559","446122","0.0-1.0-779.0-0.0","0","0","43436","","365","","","75","86","","","2","86","training","adjacent","GF","7","6","O.jpg","M.jpg","0","0","1","",""
"","feedback","","html-keyboard-response","560","447124","0.0-1.0-780.0-0.0","0","0","43436","","null","","","null","86","","","","","","","","","","","","","","","",""
"","ITI","","html-keyboard-response","561","448126","0.0-1.0-783.0","0","0","43436","","null","","","null","86","","","","","","","","","","","","","","","NaN",""
"","S1","","html-keyboard-response","562","448381","0.0-1.0-785.0","0","0","43436","","null","","","null","87","","","","","","","","","","","","","","","",""
"","ISI","","html-keyboard-response","563","449383","0.0-1.0-786.0","0","0","43436","","null","","","null","87","NaN","","","","","","","","","","","","","","",""
"","S2","","html-keyboard-response","564","449636","0.0-1.0-787.0","0","0","43436","","null","","","null","87","","NaN","","","","","","","","","","","","","",""
"","response","","html-keyboard-response","565","450267","0.0-1.0-788.0-0.0","0","0","43436","","629","","","68","87","","","2","87","training","adjacent","BC","2","3","R.jpg","Q.jpg","1","1","1","",""
"","feedback","","html-keyboard-response","566","451269","0.0-1.0-789.0-0.0","0","0","43436","","null","","","null","87","","","","","","","","","","","","","","","",""
"","ITI","","html-keyboard-response","567","452271","0.0-1.0-792.0","0","0","43436","","null","","","null","87","","","","","","","","","","","","","","","NaN",""
"","S1","","html-keyboard-response","568","452523","0.0-1.0-794.0","0","0","43436","","null","","","null","88","","","","","","","","","","","","","","","",""
"","ISI","","html-keyboard-response","569","453526","0.0-1.0-795.0","0","0","43436","","null","","","null","88","NaN","","","","","","","","","","","","","","",""
"","S2","","html-keyboard-response","570","453779","0.0-1.0-796.0","0","0","43436","","null","","","null","88","","NaN","","","","","","","","","","","","","",""
"","response","","html-keyboard-response","571","454568","0.0-1.0-797.0-0.0","0","0","43436","","788","","","68","88","","","2","88","training","adjacent","FG","6","7","M.jpg","O.jpg","1","1","1","",""
"","feedback","","html-keyboard-response","572","455570","0.0-1.0-798.0-0.0","0","0","43436","","null","","","null","88","","","","","","","","","","","","","","","",""
"","ITI","","html-keyboard-response","573","456583","0.0-1.0-801.0","0","0","43436","","null","","","null","88","","","","","","","","","","","","","","","NaN",""
"","S1","","html-keyboard-response","574","456835","0.0-1.0-803.0","0","0","43436","","null","","","null","89","","","","","","","","","","","","","","","",""
"","ISI","","html-keyboard-response","575","457838","0.0-1.0-804.0","0","0","43436","","null","","","null","89","NaN","","","","","","","","","","","","","","",""
"","S2","","html-keyboard-response","576","458101","0.0-1.0-805.0","0","0","43436","","null","","","null","89","","NaN","","","","","","","","","","","","","",""
"","response","","html-keyboard-response","577","458855","0.0-1.0-806.0-0.0","0","0","43436","","752","","","68","89","","","2","89","training","adjacent","FG","6","7","M.jpg","O.jpg","1","1","1","",""
"","feedback","","html-keyboard-response","578","459857","0.0-1.0-807.0-0.0","0","0","43436","","null","","","null","89","","","","","","","","","","","","","","","",""
"","ITI","","html-keyboard-response","579","460859","0.0-1.0-810.0","0","0","43436","","null","","","null","89","","","","","","","","","","","","","","","NaN",""
"","S1","","html-keyboard-response","580","461114","0.0-1.0-812.0","0","0","43436","","null","","","null","90","","","","","","","","","","","","","","","",""
"","ISI","","html-keyboard-response","581","462117","0.0-1.0-813.0","0","0","43436","","null","","","null","90","NaN","","","","","","","","","","","","","","",""
"","S2","","html-keyboard-response","582","462370","0.0-1.0-814.0","0","0","43436","","null","","","null","90","","NaN","","","","","","","","","","","","","",""
"","response","","html-keyboard-response","583","462858","0.0-1.0-815.0-0.0","0","0","43436","","487","","","75","90","","","2","90","training","adjacent","FE","6","5","M.jpg","N.jpg","0","0","1","",""
