"success","ttype","start_time","trial_type","trial_index","time_elapsed","internal_node_id","warning","missed_checkup","PID","view_history","rt","responses","repeat_instructions","key_press","index","keypress_isi","keypress_S2","block","trial_num","phase","group_type","pair_type","S1_stim","S2_stim","S1_img","S2_img","S1_chosen","S1_higher","accuracy","keypress_iti","total_bonus_tally"
"true","full_screen","d04142023hr1912","fullscreen","0","362976","0.0-0.0","0","0","53264","","","","","","","","","","","","","","","","","","","","","",""
"","instructions","","instructions","1","465968","0.0-1.0-0.0-0.0","0","0","53264","[{""page_index"":0,""viewing_time"":4084},{""page_index"":1,""viewing_time"":94720},{""page_index"":2,""viewing_time"":2782},{""page_index"":3,""viewing_time"":1400}]","102987","","","","","","","","","","","","","","","","","","","",""
"","comprehension_check","","survey-multi-choice","2","479948","0.0-1.0-0.0-1.0","0","0","53264","","13970","{""Q0"":""True"",""Q1"":""D"",""Q2"":""Only when the screen 'MAKE A CHOICE' is shown"",""Q3"":""Green mark"",""Q4"":""either D or K""}","1","","","","","","","","","","","","","","","","","",""
"","missed_instruction_checkup","","html-keyboard-response","3","481294","0.0-1.0-0.0-2.0-0.0","0","1","53264","","1341","","","32","","","","","","","","","","","","","","","","",""
"","instructions","","instructions","4","508565","0.0-1.0-0.1-0.1","0","0","53264","[{""page_index"":0,""viewing_time"":6697},{""page_index"":1,""viewing_time"":11905},{""page_index"":2,""viewing_time"":7876},{""page_index"":3,""viewing_time"":790}]","27268","","","","","","","","","","","","","","","","","","","",""
"","comprehension_check","","survey-multi-choice","5","525879","0.0-1.0-0.1-1.1","0","0","53264","","17309","{""Q0"":""True"",""Q1"":""D"",""Q2"":""Once the second image appears and while the screen 'MAKE A CHOICE' is shown"",""Q3"":""Green mark"",""Q4"":""either D or K""}","0","","","","","","","","","","","","","","","","","",""
"","start_exp","","html-keyboard-response","6","538161","0.0-1.0-1.0","0","0","53264","","12278","","","32","","","","","","","","","","","","","","","","",""
"","S1","","html-keyboard-response","7","538420","0.0-1.0-2.0","0","0","53264","","null","","","null","0","","","","","","","","","","","","","","","",""
"","ISI","","html-keyboard-response","8","539434","0.0-1.0-3.0","0","0","53264","","null","","","null","0","NaN","","","","","","","","","","","","","","",""
"","S2","","html-keyboard-response","9","539704","0.0-1.0-4.0","0","0","53264","","null","","","null","0","","NaN","","","","","","","","","","","","","",""
"","response","","html-keyboard-response","10","540161","0.0-1.0-5.0-0.0","0","0","53264","","452","","","75","0","","","1","0","training","adjacent","DE","4","5","M.jpg","R.jpg","0","1","0","",""
"","feedback","","html-keyboard-response","11","541171","0.0-1.0-6.0-0.0","0","0","53264","","null","","","null","0","","","","","","","","","","","","","","","",""
"","time_out","","html-keyboard-response","12","543186","0.0-1.0-8.0-0.0","0","0","53264","","null","","","null","0","","","","","","","","","","","","","","","",""
"","ITI","","html-keyboard-response","13","544198","0.0-1.0-9.0","0","0","53264","","null","","","null","0","","","","","","","","","","","","","","","NaN",""
"","S1","","html-keyboard-response","14","544469","0.0-1.0-11.0","0","0","53264","","null","","","null","1","","","","","","","","","","","","","","","",""
"","ISI","","html-keyboard-response","15","545487","0.0-1.0-12.0","0","0","53264","","null","","","null","1","NaN","","","","","","","","","","","","","","",""
"","S2","","html-keyboard-response","16","545757","0.0-1.0-13.0","0","0","53264","","null","","","null","1","","NaN","","","","","","","","","","","","","",""
"","response","","html-keyboard-response","17","546261","0.0-1.0-14.0-0.0","0","0","53264","","501","","","75","1","","","1","1","training","adjacent","FE","6","5","L.jpg","R.jpg","0","0","1","",""
"","feedback","","html-keyboard-response","18","547268","0.0-1.0-15.0-0.0","0","0","53264","","null","","","null","1","","","","","","","","","","","","","","","",""
"","ITI","","html-keyboard-response","19","548283","0.0-1.0-18.0","0","0","53264","","null","","","null","1","","","","","","","","","","","","","","","NaN",""
"","S1","","html-keyboard-response","20","548538","0.0-1.0-20.0","0","0","53264","","null","","","null","2","","","","","","","","","","","","","","","",""
"","ISI","","html-keyboard-response","21","549546","0.0-1.0-21.0","0","0","53264","","null","","","null","2","NaN","","","","","","","","","","","","","","",""
"","S2","","html-keyboard-response","22","549799","0.0-1.0-22.0","0","0","53264","","null","","","null","2","","NaN","","","","","","","","","","","","","",""
"","response","","html-keyboard-response","23","550253","0.0-1.0-23.0-0.0","0","0","53264","","451","","","68","2","","","1","2","training","adjacent","DC","4","3","M.jpg","O.jpg","1","0","0","",""
"","feedback","","html-keyboard-response","24","551257","0.0-1.0-24.0-0.0","0","0","53264","","null","","","null","2","","","","","","","","","","","","","","","",""
"","time_out","","html-keyboard-response","25","553302","0.0-1.0-26.0-0.0","0","0","53264","","null","","","null","2","","","","","","","","","","","","","","","",""
"","ITI","","html-keyboard-response","26","554317","0.0-1.0-27.0","0","0","53264","","null","","","null","2","","","","","","","","","","","","","","","NaN",""
"","S1","","html-keyboard-response","27","554587","0.0-1.0-29.0","0","0","53264","","null","","","null","3","","","","","","","","","","","","","","","",""
"","ISI","","html-keyboard-response","28","555599","0.0-1.0-30.0","0","0","53264","","null","","","null","3","NaN","","","","","","","","","","","","","","",""
"","S2","","html-keyboard-response","29","555869","0.0-1.0-31.0","0","0","53264","","null","","","null","3","","NaN","","","","","","","","","","","","","",""
"","response","","html-keyboard-response","30","556204","0.0-1.0-32.0-0.0","0","0","53264","","332","","","75","3","","","1","3","training","adjacent","ED","5","4","R.jpg","M.jpg","0","0","1","",""
"","feedback","","html-keyboard-response","31","557210","0.0-1.0-33.0-0.0","0","0","53264","","null","","","null","3","","","","","","","","","","","","","","","",""
"","ITI","","html-keyboard-response","32","558227","0.0-1.0-36.0","0","0","53264","","null","","","null","3","","","","","","","","","","","","","","","NaN",""
"","S1","","html-keyboard-response","33","558480","0.0-1.0-38.0","0","0","53264","","null","","","null","4","","","","","","","","","","","","","","","",""
"","ISI","","html-keyboard-response","34","559493","0.0-1.0-39.0","0","0","53264","","null","","","null","4","NaN","","","","","","","","","","","","","","",""
"","S2","","html-keyboard-response","35","559747","0.0-1.0-40.0","0","0","53264","","null","","","null","4","","NaN","","","","","","","","","","","","","",""
"","response","","html-keyboard-response","36","560020","0.0-1.0-41.0-0.0","0","0","53264","","270","","","75","4","","","1","4","training","adjacent","ED","5","4","R.jpg","M.jpg","0","0","1","",""
"","feedback","","html-keyboard-response","37","561028","0.0-1.0-42.0-0.0","0","0","53264","","null","","","null","4","","","","","","","","","","","","","","","",""
"","ITI","","html-keyboard-response","38","562057","0.0-1.0-45.0","0","0","53264","","null","","","null","4","","","","","","","","","","","","","","","NaN",""
"","S1","","html-keyboard-response","39","562326","0.0-1.0-47.0","0","0","53264","","null","","","null","5","","","","","","","","","","","","","","","",""
"","ISI","","html-keyboard-response","40","563343","0.0-1.0-48.0","0","0","53264","","null","","","null","5","NaN","","","","","","","","","","","","","","",""
"","S2","","html-keyboard-response","41","563613","0.0-1.0-49.0","0","0","53264","","null","","","null","5","","NaN","","","","","","","","","","","","","",""
"","response","","html-keyboard-response","42","564002","0.0-1.0-50.0-0.0","0","0","53264","","386","","","75","5","","","1","5","training","adjacent","AB","1","2","Q.jpg","N.jpg","0","1","0","",""
"","feedback","","html-keyboard-response","43","565008","0.0-1.0-51.0-0.0","0","0","53264","","null","","","null","5","","","","","","","","","","","","","","","",""
"","time_out","","html-keyboard-response","44","567020","0.0-1.0-53.0-0.0","0","0","53264","","null","","","null","5","","","","","","","","","","","","","","","",""
"","ITI","","html-keyboard-response","45","568036","0.0-1.0-54.0","0","0","53264","","null","","","null","5","","","","","","","","","","","","","","","NaN",""
"","S1","","html-keyboard-response","46","568290","0.0-1.0-56.0","0","0","53264","","null","","","null","6","","","","","","","","","","","","","","","",""
"","ISI","","html-keyboard-response","47","569310","0.0-1.0-57.0","0","0","53264","","null","","","null","6","NaN","","","","","","","","","","","","","","",""
"","S2","","html-keyboard-response","48","569579","0.0-1.0-58.0","0","0","53264","","null","","","null","6","","NaN","","","","","","","","","","","","","",""
"","response","","html-keyboard-response","49","569885","0.0-1.0-59.0-0.0","0","0","53264","","304","","","75","6","","","1","6","training","adjacent","CD","3","4","O.jpg","M.jpg","0","1","0","",""
"","feedback","","html-keyboard-response","50","570899","0.0-1.0-60.0-0.0","0","0","53264","","null","","","null","6","","","","","","","","","","","","","","","",""
"","time_out","","html-keyboard-response","51","572914","0.0-1.0-62.0-0.0","0","0","53264","","null","","","null","6","","","","","","","","","","","","","","","",""
"","ITI","","html-keyboard-response","52","573930","0.0-1.0-63.0","0","0","53264","","null","","","null","6","","","","","","","","","","","","","","","NaN",""
"","S1","","html-keyboard-response","53","574185","0.0-1.0-65.0","0","0","53264","","null","","","null","7","","","","","","","","","","","","","","","",""
"","ISI","","html-keyboard-response","54","575217","0.0-1.0-66.0","0","0","53264","","null","","","null","7","NaN","","","","","","","","","","","","","","",""
"","S2","","html-keyboard-response","55","575489","0.0-1.0-67.0","0","0","53264","","null","","","null","7","","NaN","","","","","","","","","","","","","",""
"","response","","html-keyboard-response","56","576195","0.0-1.0-68.0-0.0","0","0","53264","","703","","","68","7","","","1","7","training","adjacent","ED","5","4","R.jpg","M.jpg","1","0","0","",""
"","feedback","","html-keyboard-response","57","577207","0.0-1.0-69.0-0.0","0","0","53264","","null","","","null","7","","","","","","","","","","","","","","","",""
"","time_out","","html-keyboard-response","58","579219","0.0-1.0-71.0-0.0","0","0","53264","","null","","","null","7","","","","","","","","","","","","","","","",""
"","ITI","","html-keyboard-response","59","580238","0.0-1.0-72.0","0","0","53264","","null","","","null","7","","","","","","","","","","","","","","","NaN",""
"","S1","","html-keyboard-response","60","580491","0.0-1.0-74.0","0","0","53264","","null","","","null","8","","","","","","","","","","","","","","","",""
"","ISI","","html-keyboard-response","61","581523","0.0-1.0-75.0","0","0","53264","","null","","","null","8","NaN","","","","","","","","","","","","","","",""
"","S2","","html-keyboard-response","62","581793","0.0-1.0-76.0","0","0","53264","","null","","","null","8","","NaN","","","","","","","","","","","","","",""
"","response","","html-keyboard-response","63","582143","0.0-1.0-77.0-0.0","0","0","53264","","347","","","75","8","","","1","8","training","adjacent","CB","3","2","O.jpg","N.jpg","0","0","1","",""
"","feedback","","html-keyboard-response","64","583160","0.0-1.0-78.0-0.0","0","0","53264","","null","","","null","8","","","","","","","","","","","","","","","",""
"","ITI","","html-keyboard-response","65","584172","0.0-1.0-81.0","0","0","53264","","null","","","null","8","","","","","","","","","","","","","","","NaN",""
"","S1","","html-keyboard-response","66","584427","0.0-1.0-83.0","0","0","53264","","null","","","null","9","","","","","","","","","","","","","","","",""
"","ISI","","html-keyboard-response","67","585444","0.0-1.0-84.0","0","0","53264","","null","","","null","9","NaN","","","","","","","","","","","","","","",""
"","S2","","html-keyboard-response","68","585701","0.0-1.0-85.0","0","0","53264","","null","","","null","9","","NaN","","","","","","","","","","","","","",""
"","response","","html-keyboard-response","69","586226","0.0-1.0-86.0-0.0","0","0","53264","","522","","","68","9","","","1","9","training","adjacent","BC","2","3","N.jpg","O.jpg","1","1","1","",""
"","feedback","","html-keyboard-response","70","587254","0.0-1.0-87.0-0.0","0","0","53264","","null","","","null","9","","","","","","","","","","","","","","","",""
"","ITI","","html-keyboard-response","71","588272","0.0-1.0-90.0","0","0","53264","","null","","","null","9","","","","","","","","","","","","","","","NaN",""
"","S1","","html-keyboard-response","72","588543","0.0-1.0-92.0","0","0","53264","","null","","","null","10","","","","","","","","","","","","","","","",""
"","ISI","","html-keyboard-response","73","589558","0.0-1.0-93.0","0","0","53264","","null","","","null","10","NaN","","","","","","","","","","","","","","",""
"","S2","","html-keyboard-response","74","589827","0.0-1.0-94.0","0","0","53264","","null","","","null","10","","NaN","","","","","","","","","","","","","",""
"","response","","html-keyboard-response","75","590203","0.0-1.0-95.0-0.0","0","0","53264","","374","","","75","10","","","1","10","training","adjacent","CB","3","2","O.jpg","N.jpg","0","0","1","",""
"","feedback","","html-keyboard-response","76","591210","0.0-1.0-96.0-0.0","0","0","53264","","null","","","null","10","","","","","","","","","","","","","","","",""
"","ITI","","html-keyboard-response","77","592230","0.0-1.0-99.0","0","0","53264","","null","","","null","10","","","","","","","","","","","","","","","NaN",""
"","S1","","html-keyboard-response","78","592483","0.0-1.0-101.0","0","0","53264","","null","","","null","11","","","","","","","","","","","","","","","",""
"","ISI","","html-keyboard-response","79","593500","0.0-1.0-102.0","0","0","53264","","null","","","null","11","NaN","","","","","","","","","","","","","","",""
"","S2","","html-keyboard-response","80","593755","0.0-1.0-103.0","0","0","53264","","null","","","null","11","","NaN","","","","","","","","","","","","","",""
"","response","","html-keyboard-response","81","594182","0.0-1.0-104.0-0.0","0","0","53264","","424","","","75","11","","","1","11","training","adjacent","CB","3","2","O.jpg","N.jpg","0","0","1","",""
"","feedback","","html-keyboard-response","82","595187","0.0-1.0-105.0-0.0","0","0","53264","","null","","","null","11","","","","","","","","","","","","","","","",""
"","ITI","","html-keyboard-response","83","596216","0.0-1.0-108.0","0","0","53264","","null","","","null","11","","","","","","","","","","","","","","","NaN",""
"","S1","","html-keyboard-response","84","596502","0.0-1.0-110.0","0","0","53264","","null","","","null","12","","","","","","","","","","","","","","","",""
"","ISI","","html-keyboard-response","85","597515","0.0-1.0-111.0","0","0","53264","","null","","","null","12","NaN","","","","","","","","","","","","","","",""
"","S2","","html-keyboard-response","86","597786","0.0-1.0-112.0","0","0","53264","","null","","","null","12","","NaN","","","","","","","","","","","","","",""
"","response","","html-keyboard-response","87","598304","0.0-1.0-113.0-0.0","0","0","53264","","515","","","68","12","","","1","12","training","adjacent","BA","2","1","N.jpg","Q.jpg","1","0","0","",""
"","feedback","","html-keyboard-response","88","599313","0.0-1.0-114.0-0.0","0","0","53264","","null","","","null","12","","","","","","","","","","","","","","","",""
"","time_out","","html-keyboard-response","89","601332","0.0-1.0-116.0-0.0","0","0","53264","","null","","","null","12","","","","","","","","","","","","","","","",""
"","ITI","","html-keyboard-response","90","602346","0.0-1.0-117.0","0","0","53264","","null","","","null","12","","","","","","","","","","","","","","","NaN",""
"","S1","","html-keyboard-response","91","602602","0.0-1.0-119.0","0","0","53264","","null","","","null","13","","","","","","","","","","","","","","","",""
"","ISI","","html-keyboard-response","92","603633","0.0-1.0-120.0","0","0","53264","","null","","","null","13","NaN","","","","","","","","","","","","","","",""
"","S2","","html-keyboard-response","93","603901","0.0-1.0-121.0","0","0","53264","","null","","","null","13","","NaN","","","","","","","","","","","","","",""
"","response","","html-keyboard-response","94","605002","0.0-1.0-122.0-0.0","0","0","53264","","1099","","","75","13","","","1","13","training","adjacent","BC","2","3","N.jpg","O.jpg","0","1","0","",""
"","feedback","","html-keyboard-response","95","606015","0.0-1.0-123.0-0.0","0","0","53264","","null","","","null","13","","","","","","","","","","","","","","","",""
"","time_out","","html-keyboard-response","96","608028","0.0-1.0-125.0-0.0","0","0","53264","","null","","","null","13","","","","","","","","","","","","","","","",""
"","ITI","","html-keyboard-response","97","609045","0.0-1.0-126.0","0","0","53264","","null","","","null","13","","","","","","","","","","","","","","","NaN",""
"","S1","","html-keyboard-response","98","609299","0.0-1.0-128.0","0","0","53264","","null","","","null","14","","","","","","","","","","","","","","","",""
"","ISI","","html-keyboard-response","99","610316","0.0-1.0-129.0","0","0","53264","","null","","","null","14","NaN","","","","","","","","","","","","","","",""
"","S2","","html-keyboard-response","100","610601","0.0-1.0-130.0","0","0","53264","","null","","","null","14","","NaN","","","","","","","","","","","","","",""
"","response","","html-keyboard-response","101","610929","0.0-1.0-131.0-0.0","0","0","53264","","324","","","68","14","","","1","14","training","adjacent","FG","6","7","L.jpg","P.jpg","1","1","1","",""
"","feedback","","html-keyboard-response","102","611946","0.0-1.0-132.0-0.0","0","0","53264","","null","","","null","14","","","","","","","","","","","","","","","",""
"","ITI","","html-keyboard-response","103","612960","0.0-1.0-135.0","0","0","53264","","null","","","null","14","","","","","","","","","","","","","","","NaN",""
"","S1","","html-keyboard-response","104","613228","0.0-1.0-137.0","0","0","53264","","null","","","null","15","","","","","","","","","","","","","","","",""
"","ISI","","html-keyboard-response","105","614244","0.0-1.0-138.0","0","0","53264","","null","","","null","15","NaN","","","","","","","","","","","","","","",""
"","S2","","html-keyboard-response","106","614499","0.0-1.0-139.0","0","0","53264","","null","","","null","15","","NaN","","","","","","","","","","","","","",""
"","response","","html-keyboard-response","107","614991","0.0-1.0-140.0-0.0","0","0","53264","","490","","","68","15","","","1","15","training","adjacent","DE","4","5","M.jpg","R.jpg","1","1","1","",""
"","feedback","","html-keyboard-response","108","616026","0.0-1.0-141.0-0.0","0","0","53264","","null","","","null","15","","","","","","","","","","","","","","","",""
"","ITI","","html-keyboard-response","109","617037","0.0-1.0-144.0","0","0","53264","","null","","","null","15","","","","","","","","","","","","","","","NaN",""
"","S1","","html-keyboard-response","110","617308","0.0-1.0-146.0","0","0","53264","","null","","","null","16","","","","","","","","","","","","","","","",""
"","ISI","","html-keyboard-response","111","618335","0.0-1.0-147.0","0","0","53264","","null","","","null","16","NaN","","","","","","","","","","","","","","",""
"","S2","","html-keyboard-response","112","618603","0.0-1.0-148.0","0","0","53264","","null","","","null","16","","NaN","","","","","","","","","","","","","",""
"","response","","html-keyboard-response","113","619012","0.0-1.0-149.0-0.0","0","0","53264","","407","","","75","16","","","1","16","training","adjacent","CD","3","4","O.jpg","M.jpg","0","1","0","",""
"","feedback","","html-keyboard-response","114","620030","0.0-1.0-150.0-0.0","0","0","53264","","null","","","null","16","","","","","","","","","","","","","","","",""
"","time_out","","html-keyboard-response","115","622047","0.0-1.0-152.0-0.0","0","0","53264","","null","","","null","16","","","","","","","","","","","","","","","",""
"","ITI","","html-keyboard-response","116","623061","0.0-1.0-153.0","0","0","53264","","null","","","null","16","","","","","","","","","","","","","","","NaN",""
"","S1","","html-keyboard-response","117","623316","0.0-1.0-155.0","0","0","53264","","null","","","null","17","","","","","","","","","","","","","","","",""
"","ISI","","html-keyboard-response","118","624332","0.0-1.0-156.0","0","0","53264","","null","","","null","17","NaN","","","","","","","","","","","","","","",""
"","S2","","html-keyboard-response","119","624602","0.0-1.0-157.0","0","0","53264","","null","","","null","17","","NaN","","","","","","","","","","","","","",""
"","response","","html-keyboard-response","120","624874","0.0-1.0-158.0-0.0","0","0","53264","","270","","","68","17","","","1","17","training","adjacent","DC","4","3","M.jpg","O.jpg","1","0","0","",""
"","feedback","","html-keyboard-response","121","625891","0.0-1.0-159.0-0.0","0","0","53264","","null","","","null","17","","","","","","","","","","","","","","","",""
"","time_out","","html-keyboard-response","122","627908","0.0-1.0-161.0-0.0","0","0","53264","","null","","","null","17","","","","","","","","","","","","","","","",""
"","ITI","","html-keyboard-response","123","628925","0.0-1.0-162.0","0","0","53264","","null","","","null","17","","","","","","","","","","","","","","","NaN",""
"","S1","","html-keyboard-response","124","629180","0.0-1.0-164.0","0","0","53264","","null","","","null","18","","","","","","","","","","","","","","","",""
"","ISI","","html-keyboard-response","125","630209","0.0-1.0-165.0","0","0","53264","","null","","","null","18","NaN","","","","","","","","","","","","","","",""
"","S2","","html-keyboard-response","126","630481","0.0-1.0-166.0","0","0","53264","","null","","","null","18","","NaN","","","","","","","","","","","","","",""
"","response","","html-keyboard-response","127","630798","0.0-1.0-167.0-0.0","0","0","53264","","314","","","75","18","","","1","18","training","adjacent","GF","7","6","P.jpg","L.jpg","0","0","1","",""
"","feedback","","html-keyboard-response","128","631816","0.0-1.0-168.0-0.0","0","0","53264","","null","","","null","18","","","","","","","","","","","","","","","",""
"","ITI","","html-keyboard-response","129","632831","0.0-1.0-171.0","0","0","53264","","null","","","null","18","","","","","","","","","","","","","","","NaN",""
"","S1","","html-keyboard-response","130","633084","0.0-1.0-173.0","0","0","53264","","null","","","null","19","","","","","","","","","","","","","","","",""
"","ISI","","html-keyboard-response","131","634098","0.0-1.0-174.0","0","0","53264","","null","","","null","19","NaN","","","","","","","","","","","","","","",""
"","S2","","html-keyboard-response","132","634352","0.0-1.0-175.0","0","0","53264","","null","","","null","19","","NaN","","","","","","","","","","","","","",""
"","response","","html-keyboard-response","133","634602","0.0-1.0-176.0-0.0","0","0","53264","","249","","","75","19","","","1","19","training","adjacent","CD","3","4","O.jpg","M.jpg","0","1","0","",""
"","feedback","","html-keyboard-response","134","635608","0.0-1.0-177.0-0.0","0","0","53264","","null","","","null","19","","","","","","","","","","","","","","","",""
"","time_out","","html-keyboard-response","135","637621","0.0-1.0-179.0-0.0","0","0","53264","","null","","","null","19","","","","","","","","","","","","","","","",""
"","ITI","","html-keyboard-response","136","638638","0.0-1.0-180.0","0","0","53264","","null","","","null","19","","","","","","","","","","","","","","","NaN",""
"","S1","","html-keyboard-response","137","638909","0.0-1.0-182.0","0","0","53264","","null","","","null","20","","","","","","","","","","","","","","","",""
"","ISI","","html-keyboard-response","138","639940","0.0-1.0-183.0","0","0","53264","","null","","","null","20","NaN","","","","","","","","","","","","","","",""
"","S2","","html-keyboard-response","139","640210","0.0-1.0-184.0","0","0","53264","","null","","","null","20","","NaN","","","","","","","","","","","","","",""
"","response","","html-keyboard-response","140","640456","0.0-1.0-185.0-0.0","0","0","53264","","242","","","68","20","","","1","20","training","adjacent","BA","2","1","N.jpg","Q.jpg","1","0","0","",""
"","feedback","","html-keyboard-response","141","641475","0.0-1.0-186.0-0.0","0","0","53264","","null","","","null","20","","","","","","","","","","","","","","","",""
"","time_out","","html-keyboard-response","142","643488","0.0-1.0-188.0-0.0","0","0","53264","","null","","","null","20","","","","","","","","","","","","","","","",""
"","ITI","","html-keyboard-response","143","644501","0.0-1.0-189.0","0","0","53264","","null","","","null","20","","","","","","","","","","","","","","","NaN",""
"","S1","","html-keyboard-response","144","644755","0.0-1.0-191.0","0","0","53264","","null","","","null","21","","","","","","","","","","","","","","","",""
"","ISI","","html-keyboard-response","145","645788","0.0-1.0-192.0","0","0","53264","","null","","","null","21","NaN","","","","","","","","","","","","","","",""
"","S2","","html-keyboard-response","146","646058","0.0-1.0-193.0","0","0","53264","","null","","","null","21","","NaN","","","","","","","","","","","","","",""
"","response","","html-keyboard-response","147","646613","0.0-1.0-194.0-0.0","0","0","53264","","553","","","68","21","","","1","21","training","adjacent","DE","4","5","M.jpg","R.jpg","1","1","1","",""
"","feedback","","html-keyboard-response","148","647619","0.0-1.0-195.0-0.0","0","0","53264","","null","","","null","21","","","","","","","","","","","","","","","",""
"","ITI","","html-keyboard-response","149","648626","0.0-1.0-198.0","0","0","53264","","null","","","null","21","","","","","","","","","","","","","","","NaN",""
"","S1","","html-keyboard-response","150","648894","0.0-1.0-200.0","0","0","53264","","null","","","null","22","","","","","","","","","","","","","","","",""
"","ISI","","html-keyboard-response","151","649903","0.0-1.0-201.0","0","0","53264","","null","","","null","22","NaN","","","","","","","","","","","","","","",""
"","S2","","html-keyboard-response","152","650158","0.0-1.0-202.0","0","0","53264","","null","","","null","22","","NaN","","","","","","","","","","","","","",""
"","response","","html-keyboard-response","153","650703","0.0-1.0-203.0-0.0","0","0","53264","","542","","","68","22","","","1","22","training","adjacent","DC","4","3","M.jpg","O.jpg","1","0","0","",""
"","feedback","","html-keyboard-response","154","651723","0.0-1.0-204.0-0.0","0","0","53264","","null","","","null","22","","","","","","","","","","","","","","","",""
"","time_out","","html-keyboard-response","155","653734","0.0-1.0-206.0-0.0","0","0","53264","","null","","","null","22","","","","","","","","","","","","","","","",""
"","ITI","","html-keyboard-response","156","654748","0.0-1.0-207.0","0","0","53264","","null","","","null","22","","","","","","","","","","","","","","","NaN",""
"","S1","","html-keyboard-response","157","655018","0.0-1.0-209.0","0","0","53264","","null","","","null","23","","","","","","","","","","","","","","","",""
"","ISI","","html-keyboard-response","158","656050","0.0-1.0-210.0","0","0","53264","","null","","","null","23","NaN","","","","","","","","","","","","","","",""
"","S2","","html-keyboard-response","159","656320","0.0-1.0-211.0","0","0","53264","","null","","","null","23","","NaN","","","","","","","","","","","","","",""
"","response","","html-keyboard-response","160","656340","0.0-1.0-212.0-0.0","0","0","53264","","17","","","75","23","","","1","23","training","adjacent","AB","1","2","Q.jpg","N.jpg","0","1","0","",""
"","feedback","","html-keyboard-response","161","657355","0.0-1.0-213.0-0.0","0","0","53264","","null","","","null","23","","","","","","","","","","","","","","","",""
"","time_out","","html-keyboard-response","162","659367","0.0-1.0-215.0-0.0","0","0","53264","","null","","","null","23","","","","","","","","","","","","","","","",""
"","ITI","","html-keyboard-response","163","660385","0.0-1.0-216.0","0","0","53264","","null","","","null","23","","","","","","","","","","","","","","","NaN",""
"","S1","","html-keyboard-response","164","660639","0.0-1.0-218.0","0","0","53264","","null","","","null","24","","","","","","","","","","","","","","","",""
"","ISI","","html-keyboard-response","165","661657","0.0-1.0-219.0","0","0","53264","","null","","","null","24","NaN","","","","","","","","","","","","","","",""
"","S2","","html-keyboard-response","166","661927","0.0-1.0-220.0","0","0","53264","","null","","","null","24","","NaN","","","","","","","","","","","","","",""
"","response","","html-keyboard-response","167","662189","0.0-1.0-221.0-0.0","0","0","53264","","260","","","75","24","","","1","24","training","adjacent","FE","6","5","L.jpg","R.jpg","0","0","1","",""
"","feedback","","html-keyboard-response","168","663197","0.0-1.0-222.0-0.0","0","0","53264","","null","","","null","24","","","","","","","","","","","","","","","",""
"","ITI","","html-keyboard-response","169","664211","0.0-1.0-225.0","0","0","53264","","null","","","null","24","","","","","","","","","","","","","","","NaN",""
"","S1","","html-keyboard-response","170","664466","0.0-1.0-227.0","0","0","53264","","null","","","null","25","","","","","","","","","","","","","","","",""
"","ISI","","html-keyboard-response","171","665484","0.0-1.0-228.0","0","0","53264","","null","","","null","25","NaN","","","","","","","","","","","","","","",""
"","S2","","html-keyboard-response","172","665740","0.0-1.0-229.0","0","0","53264","","null","","","null","25","","NaN","","","","","","","","","","","","","",""
"","response","","html-keyboard-response","173","666111","0.0-1.0-230.0-0.0","0","0","53264","","369","","","75","25","","","1","25","training","adjacent","GF","7","6","P.jpg","L.jpg","0","0","1","",""
"","feedback","","html-keyboard-response","174","667122","0.0-1.0-231.0-0.0","0","0","53264","","null","","","null","25","","","","","","","","","","","","","","","",""
"","ITI","","html-keyboard-response","175","668137","0.0-1.0-234.0","0","0","53264","","null","","","null","25","","","","","","","","","","","","","","","NaN",""
"","S1","","html-keyboard-response","176","668405","0.0-1.0-236.0","0","0","53264","","null","","","null","26","","","","","","","","","","","","","","","",""
"","ISI","","html-keyboard-response","177","669420","0.0-1.0-237.0","0","0","53264","","null","","","null","26","NaN","","","","","","","","","","","","","","",""
"","S2","","html-keyboard-response","178","669692","0.0-1.0-238.0","0","0","53264","","null","","","null","26","","NaN","","","","","","","","","","","","","",""
"","response","","html-keyboard-response","179","669962","0.0-1.0-239.0-0.0","0","0","53264","","267","","","68","26","","","1","26","training","adjacent","FG","6","7","L.jpg","P.jpg","1","1","1","",""
"","feedback","","html-keyboard-response","180","670979","0.0-1.0-240.0-0.0","0","0","53264","","null","","","null","26","","","","","","","","","","","","","","","",""
"","ITI","","html-keyboard-response","181","671992","0.0-1.0-243.0","0","0","53264","","null","","","null","26","","","","","","","","","","","","","","","NaN",""
"","S1","","html-keyboard-response","182","672261","0.0-1.0-245.0","0","0","53264","","null","","","null","27","","","","","","","","","","","","","","","",""
"","ISI","","html-keyboard-response","183","673276","0.0-1.0-246.0","0","0","53264","","null","","","null","27","NaN","","","","","","","","","","","","","","",""
"","S2","","html-keyboard-response","184","673529","0.0-1.0-247.0","0","0","53264","","null","","","null","27","","NaN","","","","","","","","","","","","","",""
"","response","","html-keyboard-response","185","673931","0.0-1.0-248.0-0.0","0","0","53264","","399","","","68","27","","","1","27","training","adjacent","EF","5","6","R.jpg","L.jpg","1","1","1","",""
"","feedback","","html-keyboard-response","186","674939","0.0-1.0-249.0-0.0","0","0","53264","","null","","","null","27","","","","","","","","","","","","","","","",""
"","ITI","","html-keyboard-response","187","675972","0.0-1.0-252.0","0","0","53264","","null","","","null","27","","","","","","","","","","","","","","","NaN",""
"","S1","","html-keyboard-response","188","676240","0.0-1.0-254.0","0","0","53264","","null","","","null","28","","","","","","","","","","","","","","","",""
"","ISI","","html-keyboard-response","189","677252","0.0-1.0-255.0","0","0","53264","","null","","","null","28","NaN","","","","","","","","","","","","","","",""
"","S2","","html-keyboard-response","190","677524","0.0-1.0-256.0","0","0","53264","","null","","","null","28","","NaN","","","","","","","","","","","","","",""
"","response","","html-keyboard-response","191","677543","0.0-1.0-257.0-0.0","0","0","53264","","16","","","75","28","","","1","28","training","adjacent","CD","3","4","O.jpg","M.jpg","0","1","0","",""
"","feedback","","html-keyboard-response","192","678560","0.0-1.0-258.0-0.0","0","0","53264","","null","","","null","28","","","","","","","","","","","","","","","",""
"","time_out","","html-keyboard-response","193","680571","0.0-1.0-260.0-0.0","0","0","53264","","null","","","null","28","","","","","","","","","","","","","","","",""
"","ITI","","html-keyboard-response","194","681583","0.0-1.0-261.0","0","0","53264","","null","","","null","28","","","","","","","","","","","","","","","NaN",""
"","S1","","html-keyboard-response","195","681839","0.0-1.0-263.0","0","0","53264","","null","","","null","29","","","","","","","","","","","","","","","",""
"","ISI","","html-keyboard-response","196","682862","0.0-1.0-264.0","0","0","53264","","null","","","null","29","NaN","","","","","","","","","","","","","","",""
"","S2","","html-keyboard-response","197","683131","0.0-1.0-265.0","0","0","53264","","null","","","null","29","","NaN","","","","","","","","","","","","","",""
"","response","","html-keyboard-response","198","683558","0.0-1.0-266.0-0.0","0","0","53264","","424","","","68","29","","","1","29","training","adjacent","EF","5","6","R.jpg","L.jpg","1","1","1","",""
"","feedback","","html-keyboard-response","199","684568","0.0-1.0-267.0-0.0","0","0","53264","","null","","","null","29","","","","","","","","","","","","","","","",""
"","ITI","","html-keyboard-response","200","685582","0.0-1.0-270.0","0","0","53264","","null","","","null","29","","","","","","","","","","","","","","","NaN",""
"","S1","","html-keyboard-response","201","685836","0.0-1.0-272.0","0","0","53264","","null","","","null","30","","","","","","","","","","","","","","","",""
"","ISI","","html-keyboard-response","202","686850","0.0-1.0-273.0","0","0","53264","","null","","","null","30","NaN","","","","","","","","","","","","","","",""
"","S2","","html-keyboard-response","203","687103","0.0-1.0-274.0","0","0","53264","","null","","","null","30","","NaN","","","","","","","","","","","","","",""
"","response","","html-keyboard-response","204","687567","0.0-1.0-275.0-0.0","0","0","53264","","461","","","75","30","","","1","30","training","adjacent","AB","1","2","Q.jpg","N.jpg","0","1","0","",""
"","feedback","","html-keyboard-response","205","688598","0.0-1.0-276.0-0.0","0","0","53264","","null","","","null","30","","","","","","","","","","","","","","","",""
"","time_out","","html-keyboard-response","206","690631","0.0-1.0-278.0-0.0","0","0","53264","","null","","","null","30","","","","","","","","","","","","","","","",""
"","ITI","","html-keyboard-response","207","691658","0.0-1.0-279.0","0","0","53264","","null","","","null","30","","","","","","","","","","","","","","","NaN",""
"","S1","","html-keyboard-response","208","691927","0.0-1.0-281.0","0","0","53264","","null","","","null","31","","","","","","","","","","","","","","","",""
"","ISI","","html-keyboard-response","209","692943","0.0-1.0-282.0","0","0","53264","","null","","","null","31","NaN","","","","","","","","","","","","","","",""
"","S2","","html-keyboard-response","210","693215","0.0-1.0-283.0","0","0","53264","","null","","","null","31","","NaN","","","","","","","","","","","","","",""
"","response","","html-keyboard-response","211","693630","0.0-1.0-284.0-0.0","0","0","53264","","412","","","75","31","","","1","31","training","adjacent","FE","6","5","L.jpg","R.jpg","0","0","1","",""
"","feedback","","html-keyboard-response","212","694649","0.0-1.0-285.0-0.0","0","0","53264","","null","","","null","31","","","","","","","","","","","","","","","",""
"","ITI","","html-keyboard-response","213","695660","0.0-1.0-288.0","0","0","53264","","null","","","null","31","","","","","","","","","","","","","","","NaN",""
"","S1","","html-keyboard-response","214","695927","0.0-1.0-290.0","0","0","53264","","null","","","null","32","","","","","","","","","","","","","","","",""
"","ISI","","html-keyboard-response","215","696941","0.0-1.0-291.0","0","0","53264","","null","","","null","32","NaN","","","","","","","","","","","","","","",""
"","S2","","html-keyboard-response","216","697211","0.0-1.0-292.0","0","0","53264","","null","","","null","32","","NaN","","","","","","","","","","","","","",""
"","response","","html-keyboard-response","217","697612","0.0-1.0-293.0-0.0","0","0","53264","","399","","","68","32","","","1","32","training","adjacent","BC","2","3","N.jpg","O.jpg","1","1","1","",""
"","feedback","","html-keyboard-response","218","698624","0.0-1.0-294.0-0.0","0","0","53264","","null","","","null","32","","","","","","","","","","","","","","","",""
"","ITI","","html-keyboard-response","219","699658","0.0-1.0-297.0","0","0","53264","","null","","","null","32","","","","","","","","","","","","","","","NaN",""
"","S1","","html-keyboard-response","220","699926","0.0-1.0-299.0","0","0","53264","","null","","","null","33","","","","","","","","","","","","","","","",""
"","ISI","","html-keyboard-response","221","700959","0.0-1.0-300.0","0","0","53264","","null","","","null","33","NaN","","","","","","","","","","","","","","",""
"","S2","","html-keyboard-response","222","701230","0.0-1.0-301.0","0","0","53264","","null","","","null","33","","NaN","","","","","","","","","","","","","",""
"","response","","html-keyboard-response","223","701585","0.0-1.0-302.0-0.0","0","0","53264","","352","","","75","33","","","1","33","training","adjacent","FE","6","5","L.jpg","R.jpg","0","0","1","",""
"","feedback","","html-keyboard-response","224","702595","0.0-1.0-303.0-0.0","0","0","53264","","null","","","null","33","","","","","","","","","","","","","","","",""
"","ITI","","html-keyboard-response","225","703611","0.0-1.0-306.0","0","0","53264","","null","","","null","33","","","","","","","","","","","","","","","NaN",""
"","S1","","html-keyboard-response","226","703866","0.0-1.0-308.0","0","0","53264","","null","","","null","34","","","","","","","","","","","","","","","",""
"","ISI","","html-keyboard-response","227","704878","0.0-1.0-309.0","0","0","53264","","null","","","null","34","NaN","","","","","","","","","","","","","","",""
"","S2","","html-keyboard-response","228","705133","0.0-1.0-310.0","0","0","53264","","null","","","null","34","","NaN","","","","","","","","","","","","","",""
"","response","","html-keyboard-response","229","705486","0.0-1.0-311.0-0.0","0","0","53264","","350","","","75","34","","","1","34","training","adjacent","ED","5","4","R.jpg","M.jpg","0","0","1","",""
"","feedback","","html-keyboard-response","230","706494","0.0-1.0-312.0-0.0","0","0","53264","","null","","","null","34","","","","","","","","","","","","","","","",""
"","ITI","","html-keyboard-response","231","707525","0.0-1.0-315.0","0","0","53264","","null","","","null","34","","","","","","","","","","","","","","","NaN",""
"","S1","","html-keyboard-response","232","707795","0.0-1.0-317.0","0","0","53264","","null","","","null","35","","","","","","","","","","","","","","","",""
"","ISI","","html-keyboard-response","233","708809","0.0-1.0-318.0","0","0","53264","","null","","","null","35","NaN","","","","","","","","","","","","","","",""
"","S2","","html-keyboard-response","234","709079","0.0-1.0-319.0","0","0","53264","","null","","","null","35","","NaN","","","","","","","","","","","","","",""
"","response","","html-keyboard-response","235","709387","0.0-1.0-320.0-0.0","0","0","53264","","306","","","75","35","","","1","35","training","adjacent","CB","3","2","O.jpg","N.jpg","0","0","1","",""
"","feedback","","html-keyboard-response","236","710397","0.0-1.0-321.0-0.0","0","0","53264","","null","","","null","35","","","","","","","","","","","","","","","",""
"","ITI","","html-keyboard-response","237","711413","0.0-1.0-324.0","0","0","53264","","null","","","null","35","","","","","","","","","","","","","","","NaN",""
"","S1","","html-keyboard-response","238","711667","0.0-1.0-326.0","0","0","53264","","null","","","null","36","","","","","","","","","","","","","","","",""
"","ISI","","html-keyboard-response","239","712685","0.0-1.0-327.0","0","0","53264","","null","","","null","36","NaN","","","","","","","","","","","","","","",""
"","S2","","html-keyboard-response","240","712939","0.0-1.0-328.0","0","0","53264","","null","","","null","36","","NaN","","","","","","","","","","","","","",""
"","response","","html-keyboard-response","241","713341","0.0-1.0-329.0-0.0","0","0","53264","","400","","","68","36","","","1","36","training","adjacent","FG","6","7","L.jpg","P.jpg","1","1","1","",""
"","feedback","","html-keyboard-response","242","714351","0.0-1.0-330.0-0.0","0","0","53264","","null","","","null","36","","","","","","","","","","","","","","","",""
"","ITI","","html-keyboard-response","243","715383","0.0-1.0-333.0","0","0","53264","","null","","","null","36","","","","","","","","","","","","","","","NaN",""
"","S1","","html-keyboard-response","244","715654","0.0-1.0-335.0","0","0","53264","","null","","","null","37","","","","","","","","","","","","","","","",""
"","ISI","","html-keyboard-response","245","716674","0.0-1.0-336.0","0","0","53264","","null","","","null","37","NaN","","","","","","","","","","","","","","",""
"","S2","","html-keyboard-response","246","716944","0.0-1.0-337.0","0","0","53264","","null","","","null","37","","NaN","","","","","","","","","","","","","",""
"","response","","html-keyboard-response","247","717371","0.0-1.0-338.0-0.0","0","0","53264","","425","","","68","37","","","1","37","training","adjacent","BA","2","1","N.jpg","Q.jpg","1","0","0","",""
"","feedback","","html-keyboard-response","248","718390","0.0-1.0-339.0-0.0","0","0","53264","","null","","","null","37","","","","","","","","","","","","","","","",""
"","time_out","","html-keyboard-response","249","720408","0.0-1.0-341.0-0.0","0","0","53264","","null","","","null","37","","","","","","","","","","","","","","","",""
"","ITI","","html-keyboard-response","250","721426","0.0-1.0-342.0","0","0","53264","","null","","","null","37","","","","","","","","","","","","","","","NaN",""
"","S1","","html-keyboard-response","251","721679","0.0-1.0-344.0","0","0","53264","","null","","","null","38","","","","","","","","","","","","","","","",""
"","ISI","","html-keyboard-response","252","722710","0.0-1.0-345.0","0","0","53264","","null","","","null","38","NaN","","","","","","","","","","","","","","",""
"","S2","","html-keyboard-response","253","722981","0.0-1.0-346.0","0","0","53264","","null","","","null","38","","NaN","","","","","","","","","","","","","",""
"","response","","html-keyboard-response","254","723373","0.0-1.0-347.0-0.0","0","0","53264","","390","","","75","38","","","1","38","training","adjacent","FG","6","7","L.jpg","P.jpg","0","1","0","",""
"","feedback","","html-keyboard-response","255","724382","0.0-1.0-348.0-0.0","0","0","53264","","null","","","null","38","","","","","","","","","","","","","","","",""
"","time_out","","html-keyboard-response","256","726395","0.0-1.0-350.0-0.0","0","0","53264","","null","","","null","38","","","","","","","","","","","","","","","",""
"","ITI","","html-keyboard-response","257","727412","0.0-1.0-351.0","0","0","53264","","null","","","null","38","","","","","","","","","","","","","","","NaN",""
"","S1","","html-keyboard-response","258","727667","0.0-1.0-353.0","0","0","53264","","null","","","null","39","","","","","","","","","","","","","","","",""
"","ISI","","html-keyboard-response","259","728702","0.0-1.0-354.0","0","0","53264","","null","","","null","39","NaN","","","","","","","","","","","","","","",""
"","S2","","html-keyboard-response","260","728971","0.0-1.0-355.0","0","0","53264","","null","","","null","39","","NaN","","","","","","","","","","","","","",""
"","response","","html-keyboard-response","261","729267","0.0-1.0-356.0-0.0","0","0","53264","","293","","","75","39","","","1","39","training","adjacent","GF","7","6","P.jpg","L.jpg","0","0","1","",""
"","feedback","","html-keyboard-response","262","730275","0.0-1.0-357.0-0.0","0","0","53264","","null","","","null","39","","","","","","","","","","","","","","","",""
"","ITI","","html-keyboard-response","263","731289","0.0-1.0-360.0","0","0","53264","","null","","","null","39","","","","","","","","","","","","","","","NaN",""
"","S1","","html-keyboard-response","264","731543","0.0-1.0-362.0","0","0","53264","","null","","","null","40","","","","","","","","","","","","","","","",""
"","ISI","","html-keyboard-response","265","732557","0.0-1.0-363.0","0","0","53264","","null","","","null","40","NaN","","","","","","","","","","","","","","",""
"","S2","","html-keyboard-response","266","732810","0.0-1.0-364.0","0","0","53264","","null","","","null","40","","NaN","","","","","","","","","","","","","",""
"","response","","html-keyboard-response","267","734590","0.0-1.0-365.0-0.0","0","0","53264","","null","","","null","40","","","1","40","training","adjacent","DC","4","3","M.jpg","O.jpg","NaN","0","0","",""
"","too_slow_prompt","","html-keyboard-response","268","735605","0.0-1.0-367.0-0.0","1","0","53264","","null","","","null","","","","","","","","","","","","","","","","",""
"","time_out","","html-keyboard-response","269","737637","0.0-1.0-368.0-0.0","0","0","53264","","null","","","null","40","","","","","","","","","","","","","","","",""
"","ITI","","html-keyboard-response","270","738669","0.0-1.0-369.0","0","0","53264","","null","","","null","40","","","","","","","","","","","","","","","NaN",""
"","S1","","html-keyboard-response","271","738940","0.0-1.0-371.0","0","0","53264","","null","","","null","41","","","","","","","","","","","","","","","",""
"","ISI","","html-keyboard-response","272","739958","0.0-1.0-372.0","0","0","53264","","null","","","null","41","NaN","","","","","","","","","","","","","","",""
"","S2","","html-keyboard-response","273","740228","0.0-1.0-373.0","0","0","53264","","null","","","null","41","","NaN","","","","","","","","","","","","","",""
"","response","","html-keyboard-response","274","740636","0.0-1.0-374.0-0.0","0","0","53264","","406","","","75","41","","","1","41","training","adjacent","AB","1","2","Q.jpg","N.jpg","0","1","0","",""
"","feedback","","html-keyboard-response","275","741656","0.0-1.0-375.0-0.0","0","0","53264","","null","","","null","41","","","","","","","","","","","","","","","",""
"","time_out","","html-keyboard-response","276","743670","0.0-1.0-377.0-0.0","0","0","53264","","null","","","null","41","","","","","","","","","","","","","","","",""
"","ITI","","html-keyboard-response","277","744683","0.0-1.0-378.0","0","0","53264","","null","","","null","41","","","","","","","","","","","","","","","NaN",""
"","S1","","html-keyboard-response","278","744938","0.0-1.0-380.0","0","0","53264","","null","","","null","42","","","","","","","","","","","","","","","",""
"","ISI","","html-keyboard-response","279","745951","0.0-1.0-381.0","0","0","53264","","null","","","null","42","NaN","","","","","","","","","","","","","","",""
"","S2","","html-keyboard-response","280","746221","0.0-1.0-382.0","0","0","53264","","null","","","null","42","","NaN","","","","","","","","","","","","","",""
"","response","","html-keyboard-response","281","746503","0.0-1.0-383.0-0.0","0","0","53264","","279","","","68","42","","","1","42","training","adjacent","EF","5","6","R.jpg","L.jpg","1","1","1","",""
"","feedback","","html-keyboard-response","282","747508","0.0-1.0-384.0-0.0","0","0","53264","","null","","","null","42","","","","","","","","","","","","","","","",""
"","ITI","","html-keyboard-response","283","748524","0.0-1.0-387.0","0","0","53264","","null","","","null","42","","","","","","","","","","","","","","","NaN",""
"","S1","","html-keyboard-response","284","748778","0.0-1.0-389.0","0","0","53264","","null","","","null","43","","","","","","","","","","","","","","","",""
"","ISI","","html-keyboard-response","285","749792","0.0-1.0-390.0","0","0","53264","","null","","","null","43","NaN","","","","","","","","","","","","","","",""
"","S2","","html-keyboard-response","286","750049","0.0-1.0-391.0","0","0","53264","","null","","","null","43","","NaN","","","","","","","","","","","","","",""
"","response","","html-keyboard-response","287","750258","0.0-1.0-392.0-0.0","0","0","53264","","206","","","75","43","","","1","43","training","adjacent","GF","7","6","P.jpg","L.jpg","0","0","1","",""
"","feedback","","html-keyboard-response","288","751269","0.0-1.0-393.0-0.0","0","0","53264","","null","","","null","43","","","","","","","","","","","","","","","",""
"","ITI","","html-keyboard-response","289","752286","0.0-1.0-396.0","0","0","53264","","null","","","null","43","","","","","","","","","","","","","","","NaN",""
"","S1","","html-keyboard-response","290","752555","0.0-1.0-398.0","0","0","53264","","null","","","null","44","","","","","","","","","","","","","","","",""
"","ISI","","html-keyboard-response","291","753570","0.0-1.0-399.0","0","0","53264","","null","","","null","44","NaN","","","","","","","","","","","","","","",""
"","S2","","html-keyboard-response","292","753840","0.0-1.0-400.0","0","0","53264","","null","","","null","44","","NaN","","","","","","","","","","","","","",""
"","response","","html-keyboard-response","293","754166","0.0-1.0-401.0-0.0","0","0","53264","","323","","","68","44","","","1","44","training","adjacent","EF","5","6","R.jpg","L.jpg","1","1","1","",""
"","feedback","","html-keyboard-response","294","755177","0.0-1.0-402.0-0.0","0","0","53264","","null","","","null","44","","","","","","","","","","","","","","","",""
"","ITI","","html-keyboard-response","295","756192","0.0-1.0-405.0","0","0","53264","","null","","","null","44","","","","","","","","","","","","","","","NaN",""
"","S1","","html-keyboard-response","296","756447","0.0-1.0-407.0","0","0","53264","","null","","","null","45","","","","","","","","","","","","","","","",""
"","ISI","","html-keyboard-response","297","757463","0.0-1.0-408.0","0","0","53264","","null","","","null","45","NaN","","","","","","","","","","","","","","",""
"","S2","","html-keyboard-response","298","757717","0.0-1.0-409.0","0","0","53264","","null","","","null","45","","NaN","","","","","","","","","","","","","",""
"","response","","html-keyboard-response","299","758011","0.0-1.0-410.0-0.0","0","0","53264","","291","","","68","45","","","1","45","training","adjacent","BC","2","3","N.jpg","O.jpg","1","1","1","",""
"","feedback","","html-keyboard-response","300","759018","0.0-1.0-411.0-0.0","0","0","53264","","null","","","null","45","","","","","","","","","","","","","","","",""
"","ITI","","html-keyboard-response","301","760052","0.0-1.0-414.0","0","0","53264","","null","","","null","45","","","","","","","","","","","","","","","NaN",""
"","S1","","html-keyboard-response","302","760321","0.0-1.0-416.0","0","0","53264","","null","","","null","46","","","","","","","","","","","","","","","",""
"","ISI","","html-keyboard-response","303","761352","0.0-1.0-417.0","0","0","53264","","null","","","null","46","NaN","","","","","","","","","","","","","","",""
"","S2","","html-keyboard-response","304","761606","0.0-1.0-418.0","0","0","53264","","null","","","null","46","","NaN","","","","","","","","","","","","","",""
"","response","","html-keyboard-response","305","761978","0.0-1.0-419.0-0.0","0","0","53264","","369","","","68","46","","","1","46","training","adjacent","BA","2","1","N.jpg","Q.jpg","1","0","0","",""
"","feedback","","html-keyboard-response","306","762990","0.0-1.0-420.0-0.0","0","0","53264","","null","","","null","46","","","","","","","","","","","","","","","",""
"","time_out","","html-keyboard-response","307","765007","0.0-1.0-422.0-0.0","0","0","53264","","null","","","null","46","","","","","","","","","","","","","","","",""
"","ITI","","html-keyboard-response","308","766023","0.0-1.0-423.0","0","0","53264","","null","","","null","46","","","","","","","","","","","","","","","NaN",""
"","S1","","html-keyboard-response","309","766277","0.0-1.0-425.0","0","0","53264","","null","","","null","47","","","","","","","","","","","","","","","",""
"","ISI","","html-keyboard-response","310","767308","0.0-1.0-426.0","0","0","53264","","null","","","null","47","NaN","","","","","","","","","","","","","","",""
"","S2","","html-keyboard-response","311","767579","0.0-1.0-427.0","0","0","53264","","null","","","null","47","","NaN","","","","","","","","","","","","","",""
"","response","","html-keyboard-response","312","768082","0.0-1.0-428.0-0.0","0","0","53264","","501","","","75","47","","","1","47","training","adjacent","DE","4","5","M.jpg","R.jpg","0","1","0","",""
"","feedback","","html-keyboard-response","313","769087","0.0-1.0-429.0-0.0","0","0","53264","","null","","","null","47","","","","","","","","","","","","","","","",""
"","time_out","","html-keyboard-response","314","771102","0.0-1.0-431.0-0.0","0","0","53264","","null","","","null","47","","","","","","","","","","","","","","","",""
"","ITI","","html-keyboard-response","315","772120","0.0-1.0-432.0","0","0","53264","","null","","","null","47","","","","","","","","","","","","","","","NaN",""
"","block_over","","html-keyboard-response","316","1073900","0.0-1.0-433.0-0.0","0","0","53264","","301778","","","32","47","","","","","","","","","","","","","","","",""
"","S1","","html-keyboard-response","317","1074160","0.0-1.0-434.0","0","0","53264","","null","","","null","48","","","","","","","","","","","","","","","",""
"","ISI","","html-keyboard-response","318","1075175","0.0-1.0-435.0","0","0","53264","","null","","","null","48","NaN","","","","","","","","","","","","","","",""
"","S2","","html-keyboard-response","319","1075430","0.0-1.0-436.0","0","0","53264","","null","","","null","48","","NaN","","","","","","","","","","","","","",""
"","response","","html-keyboard-response","320","1075862","0.0-1.0-437.0-0.0","0","0","53264","","430","","","75","48","","","2","48","training","adjacent","BC","2","3","N.jpg","O.jpg","0","1","0","",""
"","feedback","","html-keyboard-response","321","1076874","0.0-1.0-438.0-0.0","0","0","53264","","null","","","null","48","","","","","","","","","","","","","","","",""
"","time_out","","html-keyboard-response","322","1078890","0.0-1.0-440.0-0.0","0","0","53264","","null","","","null","48","","","","","","","","","","","","","","","",""
"","ITI","","html-keyboard-response","323","1079909","0.0-1.0-441.0","0","0","53264","","null","","","null","48","","","","","","","","","","","","","","","NaN",""
"","S1","","html-keyboard-response","324","1080180","0.0-1.0-443.0","0","0","53264","","null","","","null","49","","","","","","","","","","","","","","","",""
"","ISI","","html-keyboard-response","325","1081197","0.0-1.0-444.0","0","0","53264","","null","","","null","49","NaN","","","","","","","","","","","","","","",""
"","S2","","html-keyboard-response","326","1081466","0.0-1.0-445.0","0","0","53264","","null","","","null","49","","NaN","","","","","","","","","","","","","",""
"","response","","html-keyboard-response","327","1081876","0.0-1.0-446.0-0.0","0","0","53264","","406","","","68","49","","","2","49","training","adjacent","DC","4","3","M.jpg","O.jpg","1","0","0","",""
"","feedback","","html-keyboard-response","328","1082889","0.0-1.0-447.0-0.0","0","0","53264","","null","","","null","49","","","","","","","","","","","","","","","",""
"","time_out","","html-keyboard-response","329","1084906","0.0-1.0-449.0-0.0","0","0","53264","","null","","","null","49","","","","","","","","","","","","","","","",""
"","ITI","","html-keyboard-response","330","1085923","0.0-1.0-450.0","0","0","53264","","null","","","null","49","","","","","","","","","","","","","","","NaN",""
"","S1","","html-keyboard-response","331","1086176","0.0-1.0-452.0","0","0","53264","","null","","","null","50","","","","","","","","","","","","","","","",""
"","ISI","","html-keyboard-response","332","1087208","0.0-1.0-453.0","0","0","53264","","null","","","null","50","NaN","","","","","","","","","","","","","","",""
"","S2","","html-keyboard-response","333","1087479","0.0-1.0-454.0","0","0","53264","","null","","","null","50","","NaN","","","","","","","","","","","","","",""
"","response","","html-keyboard-response","334","1087626","0.0-1.0-455.0-0.0","0","0","53264","","144","","","68","50","","","2","50","training","adjacent","AB","1","2","Q.jpg","N.jpg","1","1","1","",""
"","feedback","","html-keyboard-response","335","1088637","0.0-1.0-456.0-0.0","0","0","53264","","null","","","null","50","","","","","","","","","","","","","","","",""
"","ITI","","html-keyboard-response","336","1089653","0.0-1.0-459.0","0","0","53264","","null","","","null","50","","","","","","","","","","","","","","","NaN",""
"","S1","","html-keyboard-response","337","1089908","0.0-1.0-461.0","0","0","53264","","null","","","null","51","","","","","","","","","","","","","","","",""
"","ISI","","html-keyboard-response","338","1090922","0.0-1.0-462.0","0","0","53264","","null","","","null","51","NaN","","","","","","","","","","","","","","",""
"","S2","","html-keyboard-response","339","1091176","0.0-1.0-463.0","0","0","53264","","null","","","null","51","","NaN","","","","","","","","","","","","","",""
"","response","","html-keyboard-response","340","1091648","0.0-1.0-464.0-0.0","0","0","53264","","469","","","75","51","","","2","51","training","adjacent","BA","2","1","N.jpg","Q.jpg","0","0","1","",""
"","feedback","","html-keyboard-response","341","1092667","0.0-1.0-465.0-0.0","0","0","53264","","null","","","null","51","","","","","","","","","","","","","","","",""
"","ITI","","html-keyboard-response","342","1093683","0.0-1.0-468.0","0","0","53264","","null","","","null","51","","","","","","","","","","","","","","","NaN",""
"","S1","","html-keyboard-response","343","1093952","0.0-1.0-470.0","0","0","53264","","null","","","null","52","","","","","","","","","","","","","","","",""
"","ISI","","html-keyboard-response","344","1094966","0.0-1.0-471.0","0","0","53264","","null","","","null","52","NaN","","","","","","","","","","","","","","",""
"","S2","","html-keyboard-response","345","1095237","0.0-1.0-472.0","0","0","53264","","null","","","null","52","","NaN","","","","","","","","","","","","","",""
"","response","","html-keyboard-response","346","1095600","0.0-1.0-473.0-0.0","0","0","53264","","360","","","75","52","","","2","52","training","adjacent","AB","1","2","Q.jpg","N.jpg","0","1","0","",""
"","feedback","","html-keyboard-response","347","1096618","0.0-1.0-474.0-0.0","0","0","53264","","null","","","null","52","","","","","","","","","","","","","","","",""
"","time_out","","html-keyboard-response","348","1098636","0.0-1.0-476.0-0.0","0","0","53264","","null","","","null","52","","","","","","","","","","","","","","","",""
"","ITI","","html-keyboard-response","349","1099654","0.0-1.0-477.0","0","0","53264","","null","","","null","52","","","","","","","","","","","","","","","NaN",""
"","S1","","html-keyboard-response","350","1099909","0.0-1.0-479.0","0","0","53264","","null","","","null","53","","","","","","","","","","","","","","","",""
"","ISI","","html-keyboard-response","351","1100939","0.0-1.0-480.0","0","0","53264","","null","","","null","53","NaN","","","","","","","","","","","","","","",""
"","S2","","html-keyboard-response","352","1101210","0.0-1.0-481.0","0","0","53264","","null","","","null","53","","NaN","","","","","","","","","","","","","",""
"","response","","html-keyboard-response","353","1101667","0.0-1.0-482.0-0.0","0","0","53264","","455","","","68","53","","","2","53","training","adjacent","CB","3","2","O.jpg","N.jpg","1","0","0","",""
"","feedback","","html-keyboard-response","354","1102681","0.0-1.0-483.0-0.0","0","0","53264","","null","","","null","53","","","","","","","","","","","","","","","",""
"","time_out","","html-keyboard-response","355","1104694","0.0-1.0-485.0-0.0","0","0","53264","","null","","","null","53","","","","","","","","","","","","","","","",""
"","ITI","","html-keyboard-response","356","1105705","0.0-1.0-486.0","0","0","53264","","null","","","null","53","","","","","","","","","","","","","","","NaN",""
"","S1","","html-keyboard-response","357","1105974","0.0-1.0-488.0","0","0","53264","","null","","","null","54","","","","","","","","","","","","","","","",""
"","ISI","","html-keyboard-response","358","1107003","0.0-1.0-489.0","0","0","53264","","null","","","null","54","NaN","","","","","","","","","","","","","","",""
"","S2","","html-keyboard-response","359","1107273","0.0-1.0-490.0","0","0","53264","","null","","","null","54","","NaN","","","","","","","","","","","","","",""
"","response","","html-keyboard-response","360","1107693","0.0-1.0-491.0-0.0","0","0","53264","","417","","","75","54","","","2","54","training","adjacent","FE","6","5","L.jpg","R.jpg","0","0","1","",""
"","feedback","","html-keyboard-response","361","1108712","0.0-1.0-492.0-0.0","0","0","53264","","null","","","null","54","","","","","","","","","","","","","","","",""
"","ITI","","html-keyboard-response","362","1109726","0.0-1.0-495.0","0","0","53264","","null","","","null","54","","","","","","","","","","","","","","","NaN",""
"","S1","","html-keyboard-response","363","1109995","0.0-1.0-497.0","0","0","53264","","null","","","null","55","","","","","","","","","","","","","","","",""
"","ISI","","html-keyboard-response","364","1111011","0.0-1.0-498.0","0","0","53264","","null","","","null","55","NaN","","","","","","","","","","","","","","",""
"","S2","","html-keyboard-response","365","1111266","0.0-1.0-499.0","0","0","53264","","null","","","null","55","","NaN","","","","","","","","","","","","","",""
"","response","","html-keyboard-response","366","1111394","0.0-1.0-500.0-0.0","0","0","53264","","126","","","75","55","","","2","55","training","adjacent","DC","4","3","M.jpg","O.jpg","0","0","1","",""
"","feedback","","html-keyboard-response","367","1112411","0.0-1.0-501.0-0.0","0","0","53264","","null","","","null","55","","","","","","","","","","","","","","","",""
"","ITI","","html-keyboard-response","368","1113424","0.0-1.0-504.0","0","0","53264","","null","","","null","55","","","","","","","","","","","","","","","NaN",""
"","S1","","html-keyboard-response","369","1113693","0.0-1.0-506.0","0","0","53264","","null","","","null","56","","","","","","","","","","","","","","","",""
"","ISI","","html-keyboard-response","370","1114706","0.0-1.0-507.0","0","0","53264","","null","","","null","56","NaN","","","","","","","","","","","","","","",""
"","S2","","html-keyboard-response","371","1114976","0.0-1.0-508.0","0","0","53264","","null","","","null","56","","NaN","","","","","","","","","","","","","",""
"","response","","html-keyboard-response","372","1115551","0.0-1.0-509.0-0.0","0","0","53264","","572","","","68","56","","","2","56","training","adjacent","EF","5","6","R.jpg","L.jpg","1","1","1","",""
"","feedback","","html-keyboard-response","373","1116563","0.0-1.0-510.0-0.0","0","0","53264","","null","","","null","56","","","","","","","","","","","","","","","",""
"","ITI","","html-keyboard-response","374","1117578","0.0-1.0-513.0","0","0","53264","","null","","","null","56","","","","","","","","","","","","","","","NaN",""
"","S1","","html-keyboard-response","375","1117847","0.0-1.0-515.0","0","0","53264","","null","","","null","57","","","","","","","","","","","","","","","",""
"","ISI","","html-keyboard-response","376","1118863","0.0-1.0-516.0","0","0","53264","","null","","","null","57","NaN","","","","","","","","","","","","","","",""
"","S2","","html-keyboard-response","377","1119117","0.0-1.0-517.0","0","0","53264","","null","","","null","57","","NaN","","","","","","","","","","","","","",""
"","response","","html-keyboard-response","378","1119533","0.0-1.0-518.0-0.0","0","0","53264","","413","","","68","57","","","2","57","training","adjacent","DC","4","3","M.jpg","O.jpg","1","0","0","",""
"","feedback","","html-keyboard-response","379","1120540","0.0-1.0-519.0-0.0","0","0","53264","","null","","","null","57","","","","","","","","","","","","","","","",""
"","time_out","","html-keyboard-response","380","1122571","0.0-1.0-521.0-0.0","0","0","53264","","null","","","null","57","","","","","","","","","","","","","","","",""
"","ITI","","html-keyboard-response","381","1123587","0.0-1.0-522.0","0","0","53264","","null","","","null","57","","","","","","","","","","","","","","","NaN",""
"","S1","","html-keyboard-response","382","1123856","0.0-1.0-524.0","0","0","53264","","null","","","null","58","","","","","","","","","","","","","","","",""
"","ISI","","html-keyboard-response","383","1124890","0.0-1.0-525.0","0","0","53264","","null","","","null","58","NaN","","","","","","","","","","","","","","",""
"","S2","","html-keyboard-response","384","1125158","0.0-1.0-526.0","0","0","53264","","null","","","null","58","","NaN","","","","","","","","","","","","","",""
"","response","","html-keyboard-response","385","1125324","0.0-1.0-527.0-0.0","0","0","53264","","163","","","75","58","","","2","58","training","adjacent","DE","4","5","M.jpg","R.jpg","0","1","0","",""
"","feedback","","html-keyboard-response","386","1126331","0.0-1.0-528.0-0.0","0","0","53264","","null","","","null","58","","","","","","","","","","","","","","","",""
"","time_out","","html-keyboard-response","387","1128348","0.0-1.0-530.0-0.0","0","0","53264","","null","","","null","58","","","","","","","","","","","","","","","",""
"","ITI","","html-keyboard-response","388","1129365","0.0-1.0-531.0","0","0","53264","","null","","","null","58","","","","","","","","","","","","","","","NaN",""
"","S1","","html-keyboard-response","389","1129620","0.0-1.0-533.0","0","0","53264","","null","","","null","59","","","","","","","","","","","","","","","",""
"","ISI","","html-keyboard-response","390","1130650","0.0-1.0-534.0","0","0","53264","","null","","","null","59","NaN","","","","","","","","","","","","","","",""
"","S2","","html-keyboard-response","391","1130920","0.0-1.0-535.0","0","0","53264","","null","","","null","59","","NaN","","","","","","","","","","","","","",""
"","response","","html-keyboard-response","392","1131629","0.0-1.0-536.0-0.0","0","0","53264","","705","","","68","59","","","2","59","training","adjacent","ED","5","4","R.jpg","M.jpg","1","0","0","",""
"","feedback","","html-keyboard-response","393","1132634","0.0-1.0-537.0-0.0","0","0","53264","","null","","","null","59","","","","","","","","","","","","","","","",""
"","time_out","","html-keyboard-response","394","1134652","0.0-1.0-539.0-0.0","0","0","53264","","null","","","null","59","","","","","","","","","","","","","","","",""
"","ITI","","html-keyboard-response","395","1135670","0.0-1.0-540.0","0","0","53264","","null","","","null","59","","","","","","","","","","","","","","","NaN",""
"","S1","","html-keyboard-response","396","1135938","0.0-1.0-542.0","0","0","53264","","null","","","null","60","","","","","","","","","","","","","","","",""
"","ISI","","html-keyboard-response","397","1136972","0.0-1.0-543.0","0","0","53264","","null","","","null","60","NaN","","","","","","","","","","","","","","",""
"","S2","","html-keyboard-response","398","1137242","0.0-1.0-544.0","0","0","53264","","null","","","null","60","","NaN","","","","","","","","","","","","","",""
"","response","","html-keyboard-response","399","1137316","0.0-1.0-545.0-0.0","0","0","53264","","71","","","75","60","","","2","60","training","adjacent","BC","2","3","N.jpg","O.jpg","0","1","0","",""
"","feedback","","html-keyboard-response","400","1138334","0.0-1.0-546.0-0.0","0","0","53264","","null","","","null","60","","","","","","","","","","","","","","","",""
"","time_out","","html-keyboard-response","401","1140353","0.0-1.0-548.0-0.0","0","0","53264","","null","","","null","60","","","","","","","","","","","","","","","",""
"","ITI","","html-keyboard-response","402","1141367","0.0-1.0-549.0","0","0","53264","","null","","","null","60","","","","","","","","","","","","","","","NaN",""
"","S1","","html-keyboard-response","403","1141622","0.0-1.0-551.0","0","0","53264","","null","","","null","61","","","","","","","","","","","","","","","",""
"","ISI","","html-keyboard-response","404","1142640","0.0-1.0-552.0","0","0","53264","","null","","","null","61","NaN","","","","","","","","","","","","","","",""
"","S2","","html-keyboard-response","405","1142911","0.0-1.0-553.0","0","0","53264","","null","","","null","61","","NaN","","","","","","","","","","","","","",""
"","response","","html-keyboard-response","406","1143379","0.0-1.0-554.0-0.0","0","0","53264","","466","","","68","61","","","2","61","training","adjacent","FG","6","7","L.jpg","P.jpg","1","1","1","",""
"","feedback","","html-keyboard-response","407","1144391","0.0-1.0-555.0-0.0","0","0","53264","","null","","","null","61","","","","","","","","","","","","","","","",""
"","ITI","","html-keyboard-response","408","1145409","0.0-1.0-558.0","0","0","53264","","null","","","null","61","","","","","","","","","","","","","","","NaN",""
"","S1","","html-keyboard-response","409","1145664","0.0-1.0-560.0","0","0","53264","","null","","","null","62","","","","","","","","","","","","","","","",""
"","ISI","","html-keyboard-response","410","1146678","0.0-1.0-561.0","0","0","53264","","null","","","null","62","NaN","","","","","","","","","","","","","","",""
"","S2","","html-keyboard-response","411","1146931","0.0-1.0-562.0","0","0","53264","","null","","","null","62","","NaN","","","","","","","","","","","","","",""
"","response","","html-keyboard-response","412","1147175","0.0-1.0-563.0-0.0","0","0","53264","","241","","","75","62","","","2","62","training","adjacent","FE","6","5","L.jpg","R.jpg","0","0","1","",""
"","feedback","","html-keyboard-response","413","1148194","0.0-1.0-564.0-0.0","0","0","53264","","null","","","null","62","","","","","","","","","","","","","","","",""
"","ITI","","html-keyboard-response","414","1149210","0.0-1.0-567.0","0","0","53264","","null","","","null","62","","","","","","","","","","","","","","","NaN",""
"","S1","","html-keyboard-response","415","1149478","0.0-1.0-569.0","0","0","53264","","null","","","null","63","","","","","","","","","","","","","","","",""
"","ISI","","html-keyboard-response","416","1150510","0.0-1.0-570.0","0","0","53264","","null","","","null","63","NaN","","","","","","","","","","","","","","",""
"","S2","","html-keyboard-response","417","1150779","0.0-1.0-571.0","0","0","53264","","null","","","null","63","","NaN","","","","","","","","","","","","","",""
"","response","","html-keyboard-response","418","1151206","0.0-1.0-572.0-0.0","0","0","53264","","424","","","68","63","","","2","63","training","adjacent","GF","7","6","P.jpg","L.jpg","1","0","0","",""
"","feedback","","html-keyboard-response","419","1152212","0.0-1.0-573.0-0.0","0","0","53264","","null","","","null","63","","","","","","","","","","","","","","","",""
"","time_out","","html-keyboard-response","420","1154218","0.0-1.0-575.0-0.0","0","0","53264","","null","","","null","63","","","","","","","","","","","","","","","",""
"","ITI","","html-keyboard-response","421","1155231","0.0-1.0-576.0","0","0","53264","","null","","","null","63","","","","","","","","","","","","","","","NaN",""
"","S1","","html-keyboard-response","422","1155485","0.0-1.0-578.0","0","0","53264","","null","","","null","64","","","","","","","","","","","","","","","",""
"","ISI","","html-keyboard-response","423","1156502","0.0-1.0-579.0","0","0","53264","","null","","","null","64","NaN","","","","","","","","","","","","","","",""
"","S2","","html-keyboard-response","424","1156771","0.0-1.0-580.0","0","0","53264","","null","","","null","64","","NaN","","","","","","","","","","","","","",""
"","response","","html-keyboard-response","425","1157202","0.0-1.0-581.0-0.0","0","0","53264","","428","","","75","64","","","2","64","training","adjacent","CB","3","2","O.jpg","N.jpg","0","0","1","",""
"","feedback","","html-keyboard-response","426","1158215","0.0-1.0-582.0-0.0","0","0","53264","","null","","","null","64","","","","","","","","","","","","","","","",""
"","ITI","","html-keyboard-response","427","1159229","0.0-1.0-585.0","0","0","53264","","null","","","null","64","","","","","","","","","","","","","","","NaN",""
"","S1","","html-keyboard-response","428","1159482","0.0-1.0-587.0","0","0","53264","","null","","","null","65","","","","","","","","","","","","","","","",""
"","ISI","","html-keyboard-response","429","1160496","0.0-1.0-588.0","0","0","53264","","null","","","null","65","NaN","","","","","","","","","","","","","","",""
"","S2","","html-keyboard-response","430","1160751","0.0-1.0-589.0","0","0","53264","","null","","","null","65","","NaN","","","","","","","","","","","","","",""
"","response","","html-keyboard-response","431","1161195","0.0-1.0-590.0-0.0","0","0","53264","","441","","","68","65","","","2","65","training","adjacent","ED","5","4","R.jpg","M.jpg","1","0","0","",""
"","feedback","","html-keyboard-response","432","1162211","0.0-1.0-591.0-0.0","0","0","53264","","null","","","null","65","","","","","","","","","","","","","","","",""
"","time_out","","html-keyboard-response","433","1164237","0.0-1.0-593.0-0.0","0","0","53264","","null","","","null","65","","","","","","","","","","","","","","","",""
"","ITI","","html-keyboard-response","434","1165268","0.0-1.0-594.0","0","0","53264","","null","","","null","65","","","","","","","","","","","","","","","NaN",""
"","S1","","html-keyboard-response","435","1165538","0.0-1.0-596.0","0","0","53264","","null","","","null","66","","","","","","","","","","","","","","","",""
"","ISI","","html-keyboard-response","436","1166557","0.0-1.0-597.0","0","0","53264","","null","","","null","66","NaN","","","","","","","","","","","","","","",""
"","S2","","html-keyboard-response","437","1166827","0.0-1.0-598.0","0","0","53264","","null","","","null","66","","NaN","","","","","","","","","","","","","",""
"","response","","html-keyboard-response","438","1167312","0.0-1.0-599.0-0.0","0","0","53264","","482","","","75","66","","","2","66","training","adjacent","CD","3","4","O.jpg","M.jpg","0","1","0","",""
"","feedback","","html-keyboard-response","439","1168316","0.0-1.0-600.0-0.0","0","0","53264","","null","","","null","66","","","","","","","","","","","","","","","",""
"","time_out","","html-keyboard-response","440","1170335","0.0-1.0-602.0-0.0","0","0","53264","","null","","","null","66","","","","","","","","","","","","","","","",""
"","ITI","","html-keyboard-response","441","1171338","0.0-1.0-603.0","0","0","53264","","null","","","null","66","","","","","","","","","","","","","","","NaN",""
"","S1","","html-keyboard-response","442","1171592","0.0-1.0-605.0","0","0","53264","","null","","","null","67","","","","","","","","","","","","","","","",""
"","ISI","","html-keyboard-response","443","1172607","0.0-1.0-606.0","0","0","53264","","null","","","null","67","NaN","","","","","","","","","","","","","","",""
"","S2","","html-keyboard-response","444","1172879","0.0-1.0-607.0","0","0","53264","","null","","","null","67","","NaN","","","","","","","","","","","","","",""
"","response","","html-keyboard-response","445","1173430","0.0-1.0-608.0-0.0","0","0","53264","","548","","","68","67","","","2","67","training","adjacent","EF","5","6","R.jpg","L.jpg","1","1","1","",""
"","feedback","","html-keyboard-response","446","1174440","0.0-1.0-609.0-0.0","0","0","53264","","null","","","null","67","","","","","","","","","","","","","","","",""
"","ITI","","html-keyboard-response","447","1175451","0.0-1.0-612.0","0","0","53264","","null","","","null","67","","","","","","","","","","","","","","","NaN",""
"","S1","","html-keyboard-response","448","1175705","0.0-1.0-614.0","0","0","53264","","null","","","null","68","","","","","","","","","","","","","","","",""
"","ISI","","html-keyboard-response","449","1176720","0.0-1.0-615.0","0","0","53264","","null","","","null","68","NaN","","","","","","","","","","","","","","",""
"","S2","","html-keyboard-response","450","1176986","0.0-1.0-616.0","0","0","53264","","null","","","null","68","","NaN","","","","","","","","","","","","","",""
"","response","","html-keyboard-response","451","1177517","0.0-1.0-617.0-0.0","0","0","53264","","528","","","68","68","","","2","68","training","adjacent","CD","3","4","O.jpg","M.jpg","1","1","1","",""
"","feedback","","html-keyboard-response","452","1178556","0.0-1.0-618.0-0.0","0","0","53264","","null","","","null","68","","","","","","","","","","","","","","","",""
"","ITI","","html-keyboard-response","453","1179569","0.0-1.0-621.0","0","0","53264","","null","","","null","68","","","","","","","","","","","","","","","NaN",""
"","S1","","html-keyboard-response","454","1179839","0.0-1.0-623.0","0","0","53264","","null","","","null","69","","","","","","","","","","","","","","","",""
"","ISI","","html-keyboard-response","455","1180871","0.0-1.0-624.0","0","0","53264","","null","","","null","69","NaN","","","","","","","","","","","","","","",""
"","S2","","html-keyboard-response","456","1181141","0.0-1.0-625.0","0","0","53264","","null","","","null","69","","NaN","","","","","","","","","","","","","",""
"","response","","html-keyboard-response","457","1181584","0.0-1.0-626.0-0.0","0","0","53264","","442","","","75","69","","","2","69","training","adjacent","ED","5","4","R.jpg","M.jpg","0","0","1","",""
"","feedback","","html-keyboard-response","458","1182600","0.0-1.0-627.0-0.0","0","0","53264","","null","","","null","69","","","","","","","","","","","","","","","",""
"","ITI","","html-keyboard-response","459","1183612","0.0-1.0-630.0","0","0","53264","","null","","","null","69","","","","","","","","","","","","","","","NaN",""
"","S1","","html-keyboard-response","460","1183866","0.0-1.0-632.0","0","0","53264","","null","","","null","70","","","","","","","","","","","","","","","",""
"","ISI","","html-keyboard-response","461","1184882","0.0-1.0-633.0","0","0","53264","","null","","","null","70","NaN","","","","","","","","","","","","","","",""
"","S2","","html-keyboard-response","462","1185137","0.0-1.0-634.0","0","0","53264","","null","","","null","70","","NaN","","","","","","","","","","","","","",""
"","response","","html-keyboard-response","463","1185540","0.0-1.0-635.0-0.0","0","0","53264","","399","","","68","70","","","2","70","training","adjacent","DE","4","5","M.jpg","R.jpg","1","1","1","",""
"","feedback","","html-keyboard-response","464","1186549","0.0-1.0-636.0-0.0","0","0","53264","","null","","","null","70","","","","","","","","","","","","","","","",""
"","ITI","","html-keyboard-response","465","1187581","0.0-1.0-639.0","0","0","53264","","null","","","null","70","","","","","","","","","","","","","","","NaN",""
"","S1","","html-keyboard-response","466","1187849","0.0-1.0-641.0","0","0","53264","","null","","","null","71","","","","","","","","","","","","","","","",""
"","ISI","","html-keyboard-response","467","1188879","0.0-1.0-642.0","0","0","53264","","null","","","null","71","NaN","","","","","","","","","","","","","","",""
"","S2","","html-keyboard-response","468","1189147","0.0-1.0-643.0","0","0","53264","","null","","","null","71","","NaN","","","","","","","","","","","","","",""
"","response","","html-keyboard-response","469","1189533","0.0-1.0-644.0-0.0","0","0","53264","","383","","","68","71","","","2","71","training","adjacent","DC","4","3","M.jpg","O.jpg","1","0","0","",""
"","feedback","","html-keyboard-response","470","1190538","0.0-1.0-645.0-0.0","0","0","53264","","null","","","null","71","","","","","","","","","","","","","","","",""
"","time_out","","html-keyboard-response","471","1192554","0.0-1.0-647.0-0.0","0","0","53264","","null","","","null","71","","","","","","","","","","","","","","","",""
"","ITI","","html-keyboard-response","472","1193570","0.0-1.0-648.0","0","0","53264","","null","","","null","71","","","","","","","","","","","","","","","NaN",""
"","S1","","html-keyboard-response","473","1193823","0.0-1.0-650.0","0","0","53264","","null","","","null","72","","","","","","","","","","","","","","","",""
"","ISI","","html-keyboard-response","474","1194849","0.0-1.0-651.0","0","0","53264","","null","","","null","72","NaN","","","","","","","","","","","","","","",""
"","S2","","html-keyboard-response","475","1195115","0.0-1.0-652.0","0","0","53264","","null","","","null","72","","NaN","","","","","","","","","","","","","",""
"","response","","html-keyboard-response","476","1195604","0.0-1.0-653.0-0.0","0","0","53264","","486","","","75","72","","","2","72","training","adjacent","GF","7","6","P.jpg","L.jpg","0","0","1","",""
"","feedback","","html-keyboard-response","477","1196622","0.0-1.0-654.0-0.0","0","0","53264","","null","","","null","72","","","","","","","","","","","","","","","",""
"","ITI","","html-keyboard-response","478","1197641","0.0-1.0-657.0","0","0","53264","","null","","","null","72","","","","","","","","","","","","","","","NaN",""
"","S1","","html-keyboard-response","479","1197909","0.0-1.0-659.0","0","0","53264","","null","","","null","73","","","","","","","","","","","","","","","",""
"","ISI","","html-keyboard-response","480","1198925","0.0-1.0-660.0","0","0","53264","","null","","","null","73","NaN","","","","","","","","","","","","","","",""
"","S2","","html-keyboard-response","481","1199181","0.0-1.0-661.0","0","0","53264","","null","","","null","73","","NaN","","","","","","","","","","","","","",""
"","response","","html-keyboard-response","482","1199562","0.0-1.0-662.0-0.0","0","0","53264","","378","","","75","73","","","2","73","training","adjacent","EF","5","6","R.jpg","L.jpg","0","1","0","",""
"","feedback","","html-keyboard-response","483","1200579","0.0-1.0-663.0-0.0","0","0","53264","","null","","","null","73","","","","","","","","","","","","","","","",""
"","time_out","","html-keyboard-response","484","1202608","0.0-1.0-665.0-0.0","0","0","53264","","null","","","null","73","","","","","","","","","","","","","","","",""
"","ITI","","html-keyboard-response","485","1203633","0.0-1.0-666.0","0","0","53264","","null","","","null","73","","","","","","","","","","","","","","","NaN",""
"","S1","","html-keyboard-response","486","1203900","0.0-1.0-668.0","0","0","53264","","null","","","null","74","","","","","","","","","","","","","","","",""
"","ISI","","html-keyboard-response","487","1204924","0.0-1.0-669.0","0","0","53264","","null","","","null","74","NaN","","","","","","","","","","","","","","",""
"","S2","","html-keyboard-response","488","1205193","0.0-1.0-670.0","0","0","53264","","null","","","null","74","","NaN","","","","","","","","","","","","","",""
"","response","","html-keyboard-response","489","1205599","0.0-1.0-671.0-0.0","0","0","53264","","404","","","68","74","","","2","74","training","adjacent","EF","5","6","R.jpg","L.jpg","1","1","1","",""
"","feedback","","html-keyboard-response","490","1206619","0.0-1.0-672.0-0.0","0","0","53264","","null","","","null","74","","","","","","","","","","","","","","","",""
"","ITI","","html-keyboard-response","491","1207636","0.0-1.0-675.0","0","0","53264","","null","","","null","74","","","","","","","","","","","","","","","NaN",""
"","S1","","html-keyboard-response","492","1207905","0.0-1.0-677.0","0","0","53264","","null","","","null","75","","","","","","","","","","","","","","","",""
"","ISI","","html-keyboard-response","493","1208919","0.0-1.0-678.0","0","0","53264","","null","","","null","75","NaN","","","","","","","","","","","","","","",""
"","S2","","html-keyboard-response","494","1209173","0.0-1.0-679.0","0","0","53264","","null","","","null","75","","NaN","","","","","","","","","","","","","",""
"","response","","html-keyboard-response","495","1209653","0.0-1.0-680.0-0.0","0","0","53264","","477","","","75","75","","","2","75","training","adjacent","ED","5","4","R.jpg","M.jpg","0","0","1","",""
"","feedback","","html-keyboard-response","496","1210679","0.0-1.0-681.0-0.0","0","0","53264","","null","","","null","75","","","","","","","","","","","","","","","",""
"","ITI","","html-keyboard-response","497","1211696","0.0-1.0-684.0","0","0","53264","","null","","","null","75","","","","","","","","","","","","","","","NaN",""
"","S1","","html-keyboard-response","498","1211980","0.0-1.0-686.0","0","0","53264","","null","","","null","76","","","","","","","","","","","","","","","",""
"","ISI","","html-keyboard-response","499","1212996","0.0-1.0-687.0","0","0","53264","","null","","","null","76","NaN","","","","","","","","","","","","","","",""
"","S2","","html-keyboard-response","500","1213266","0.0-1.0-688.0","0","0","53264","","null","","","null","76","","NaN","","","","","","","","","","","","","",""
"","response","","html-keyboard-response","501","1213665","0.0-1.0-689.0-0.0","0","0","53264","","396","","","68","76","","","2","76","training","adjacent","BA","2","1","N.jpg","Q.jpg","1","0","0","",""
"","feedback","","html-keyboard-response","502","1214679","0.0-1.0-690.0-0.0","0","0","53264","","null","","","null","76","","","","","","","","","","","","","","","",""
"","time_out","","html-keyboard-response","503","1216691","0.0-1.0-692.0-0.0","0","0","53264","","null","","","null","76","","","","","","","","","","","","","","","",""
"","ITI","","html-keyboard-response","504","1217707","0.0-1.0-693.0","0","0","53264","","null","","","null","76","","","","","","","","","","","","","","","NaN",""
"","S1","","html-keyboard-response","505","1217975","0.0-1.0-695.0","0","0","53264","","null","","","null","77","","","","","","","","","","","","","","","",""
"","ISI","","html-keyboard-response","506","1218995","0.0-1.0-696.0","0","0","53264","","null","","","null","77","NaN","","","","","","","","","","","","","","",""
"","S2","","html-keyboard-response","507","1219263","0.0-1.0-697.0","0","0","53264","","null","","","null","77","","NaN","","","","","","","","","","","","","",""
"","response","","html-keyboard-response","508","1219597","0.0-1.0-698.0-0.0","0","0","53264","","330","","","75","77","","","2","77","training","adjacent","FG","6","7","L.jpg","P.jpg","0","1","0","",""
"","feedback","","html-keyboard-response","509","1220609","0.0-1.0-699.0-0.0","0","0","53264","","null","","","null","77","","","","","","","","","","","","","","","",""
"","time_out","","html-keyboard-response","510","1222627","0.0-1.0-701.0-0.0","0","0","53264","","null","","","null","77","","","","","","","","","","","","","","","",""
"","ITI","","html-keyboard-response","511","1223644","0.0-1.0-702.0","0","0","53264","","null","","","null","77","","","","","","","","","","","","","","","NaN",""
"","S1","","html-keyboard-response","512","1223911","0.0-1.0-704.0","0","0","53264","","null","","","null","78","","","","","","","","","","","","","","","",""
"","ISI","","html-keyboard-response","513","1224930","0.0-1.0-705.0","0","0","53264","","null","","","null","78","NaN","","","","","","","","","","","","","","",""
"","S2","","html-keyboard-response","514","1225201","0.0-1.0-706.0","0","0","53264","","null","","","null","78","","NaN","","","","","","","","","","","","","",""
"","response","","html-keyboard-response","515","1225607","0.0-1.0-707.0-0.0","0","0","53264","","403","","","68","78","","","2","78","training","adjacent","DE","4","5","M.jpg","R.jpg","1","1","1","",""
"","feedback","","html-keyboard-response","516","1226617","0.0-1.0-708.0-0.0","0","0","53264","","null","","","null","78","","","","","","","","","","","","","","","",""
"","ITI","","html-keyboard-response","517","1227632","0.0-1.0-711.0","0","0","53264","","null","","","null","78","","","","","","","","","","","","","","","NaN",""
"","S1","","html-keyboard-response","518","1227886","0.0-1.0-713.0","0","0","53264","","null","","","null","79","","","","","","","","","","","","","","","",""
"","ISI","","html-keyboard-response","519","1228901","0.0-1.0-714.0","0","0","53264","","null","","","null","79","NaN","","","","","","","","","","","","","","",""
"","S2","","html-keyboard-response","520","1229156","0.0-1.0-715.0","0","0","53264","","null","","","null","79","","NaN","","","","","","","","","","","","","",""
"","response","","html-keyboard-response","521","1229610","0.0-1.0-716.0-0.0","0","0","53264","","452","","","75","79","","","2","79","training","adjacent","CD","3","4","O.jpg","M.jpg","0","1","0","",""
"","feedback","","html-keyboard-response","522","1230614","0.0-1.0-717.0-0.0","0","0","53264","","null","","","null","79","","","","","","","","","","","","","","","",""
"","time_out","","html-keyboard-response","523","1232648","0.0-1.0-719.0-0.0","0","0","53264","","null","","","null","79","","","","","","","","","","","","","","","",""
"","ITI","","html-keyboard-response","524","1233663","0.0-1.0-720.0","0","0","53264","","null","","","null","79","","","","","","","","","","","","","","","NaN",""
"","S1","","html-keyboard-response","525","1233933","0.0-1.0-722.0","0","0","53264","","null","","","null","80","","","","","","","","","","","","","","","",""
"","ISI","","html-keyboard-response","526","1234949","0.0-1.0-723.0","0","0","53264","","null","","","null","80","NaN","","","","","","","","","","","","","","",""
"","S2","","html-keyboard-response","527","1235220","0.0-1.0-724.0","0","0","53264","","null","","","null","80","","NaN","","","","","","","","","","","","","",""
"","response","","html-keyboard-response","528","1235610","0.0-1.0-725.0-0.0","0","0","53264","","387","","","75","80","","","2","80","training","adjacent","FE","6","5","L.jpg","R.jpg","0","0","1","",""
"","feedback","","html-keyboard-response","529","1236617","0.0-1.0-726.0-0.0","0","0","53264","","null","","","null","80","","","","","","","","","","","","","","","",""
"","ITI","","html-keyboard-response","530","1237632","0.0-1.0-729.0","0","0","53264","","null","","","null","80","","","","","","","","","","","","","","","NaN",""
"","S1","","html-keyboard-response","531","1237886","0.0-1.0-731.0","0","0","53264","","null","","","null","81","","","","","","","","","","","","","","","",""
"","ISI","","html-keyboard-response","532","1238899","0.0-1.0-732.0","0","0","53264","","null","","","null","81","NaN","","","","","","","","","","","","","","",""
"","S2","","html-keyboard-response","533","1239152","0.0-1.0-733.0","0","0","53264","","null","","","null","81","","NaN","","","","","","","","","","","","","",""
"","response","","html-keyboard-response","534","1239644","0.0-1.0-734.0-0.0","0","0","53264","","489","","","68","81","","","2","81","training","adjacent","BA","2","1","N.jpg","Q.jpg","1","0","0","",""
"","feedback","","html-keyboard-response","535","1240680","0.0-1.0-735.0-0.0","0","0","53264","","null","","","null","81","","","","","","","","","","","","","","","",""
"","time_out","","html-keyboard-response","536","1242697","0.0-1.0-737.0-0.0","0","0","53264","","null","","","null","81","","","","","","","","","","","","","","","",""
"","ITI","","html-keyboard-response","537","1243715","0.0-1.0-738.0","0","0","53264","","null","","","null","81","","","","","","","","","","","","","","","NaN",""
"","S1","","html-keyboard-response","538","1243984","0.0-1.0-740.0","0","0","53264","","null","","","null","82","","","","","","","","","","","","","","","",""
"","ISI","","html-keyboard-response","539","1244998","0.0-1.0-741.0","0","0","53264","","null","","","null","82","NaN","","","","","","","","","","","","","","",""
"","S2","","html-keyboard-response","540","1245266","0.0-1.0-742.0","0","0","53264","","null","","","null","82","","NaN","","","","","","","","","","","","","",""
"","response","","html-keyboard-response","541","1245706","0.0-1.0-743.0-0.0","0","0","53264","","437","","","68","82","","","2","82","training","adjacent","BC","2","3","N.jpg","O.jpg","1","1","1","",""
"","feedback","","html-keyboard-response","542","1246711","0.0-1.0-744.0-0.0","0","0","53264","","null","","","null","82","","","","","","","","","","","","","","","",""
"","ITI","","html-keyboard-response","543","1247729","0.0-1.0-747.0","0","0","53264","","null","","","null","82","","","","","","","","","","","","","","","NaN",""
"","S1","","html-keyboard-response","544","1247983","0.0-1.0-749.0","0","0","53264","","null","","","null","83","","","","","","","","","","","","","","","",""
"","ISI","","html-keyboard-response","545","1248996","0.0-1.0-750.0","0","0","53264","","null","","","null","83","NaN","","","","","","","","","","","","","","",""
"","S2","","html-keyboard-response","546","1249250","0.0-1.0-751.0","0","0","53264","","null","","","null","83","","NaN","","","","","","","","","","","","","",""
"","response","","html-keyboard-response","547","1250069","0.0-1.0-752.0-0.0","0","0","53264","","816","","","75","83","","","2","83","training","adjacent","DE","4","5","M.jpg","R.jpg","0","1","0","",""
"","feedback","","html-keyboard-response","548","1251093","0.0-1.0-753.0-0.0","0","0","53264","","null","","","null","83","","","","","","","","","","","","","","","",""
"","time_out","","html-keyboard-response","549","1253126","0.0-1.0-755.0-0.0","0","0","53264","","null","","","null","83","","","","","","","","","","","","","","","",""
"","ITI","","html-keyboard-response","550","1254153","0.0-1.0-756.0","0","0","53264","","null","","","null","83","","","","","","","","","","","","","","","NaN",""
"","S1","","html-keyboard-response","551","1254424","0.0-1.0-758.0","0","0","53264","","null","","","null","84","","","","","","","","","","","","","","","",""
"","ISI","","html-keyboard-response","552","1255439","0.0-1.0-759.0","0","0","53264","","null","","","null","84","NaN","","","","","","","","","","","","","","",""
"","S2","","html-keyboard-response","553","1255707","0.0-1.0-760.0","0","0","53264","","null","","","null","84","","NaN","","","","","","","","","","","","","",""
"","response","","html-keyboard-response","554","1255774","0.0-1.0-761.0-0.0","0","0","53264","","63","","","68","84","","","2","84","training","adjacent","GF","7","6","P.jpg","L.jpg","1","0","0","",""
"","feedback","","html-keyboard-response","555","1256791","0.0-1.0-762.0-0.0","0","0","53264","","null","","","null","84","","","","","","","","","","","","","","","",""
"","time_out","","html-keyboard-response","556","1258807","0.0-1.0-764.0-0.0","0","0","53264","","null","","","null","84","","","","","","","","","","","","","","","",""
"","ITI","","html-keyboard-response","557","1259815","0.0-1.0-765.0","0","0","53264","","null","","","null","84","","","","","","","","","","","","","","","NaN",""
"","S1","","html-keyboard-response","558","1260082","0.0-1.0-767.0","0","0","53264","","null","","","null","85","","","","","","","","","","","","","","","",""
"","ISI","","html-keyboard-response","559","1261116","0.0-1.0-768.0","0","0","53264","","null","","","null","85","NaN","","","","","","","","","","","","","","",""
"","S2","","html-keyboard-response","560","1261383","0.0-1.0-769.0","0","0","53264","","null","","","null","85","","NaN","","","","","","","","","","","","","",""
"","response","","html-keyboard-response","561","1261811","0.0-1.0-770.0-0.0","0","0","53264","","425","","","75","85","","","2","85","training","adjacent","FG","6","7","L.jpg","P.jpg","0","1","0","",""
"","feedback","","html-keyboard-response","562","1262821","0.0-1.0-771.0-0.0","0","0","53264","","null","","","null","85","","","","","","","","","","","","","","","",""
"","time_out","","html-keyboard-response","563","1264834","0.0-1.0-773.0-0.0","0","0","53264","","null","","","null","85","","","","","","","","","","","","","","","",""
"","ITI","","html-keyboard-response","564","1265851","0.0-1.0-774.0","0","0","53264","","null","","","null","85","","","","","","","","","","","","","","","NaN",""
"","S1","","html-keyboard-response","565","1266105","0.0-1.0-776.0","0","0","53264","","null","","","null","86","","","","","","","","","","","","","","","",""
"","ISI","","html-keyboard-response","566","1267148","0.0-1.0-777.0","0","0","53264","","null","","","null","86","NaN","","","","","","","","","","","","","","",""
"","S2","","html-keyboard-response","567","1267420","0.0-1.0-778.0","0","0","53264","","null","","","null","86","","NaN","","","","","","","","","","","","","",""
"","response","","html-keyboard-response","568","1268281","0.0-1.0-779.0-0.0","0","0","53264","","857","","","68","86","","","2","86","training","adjacent","BC","2","3","N.jpg","O.jpg","1","1","1","",""
"","feedback","","html-keyboard-response","569","1269294","0.0-1.0-780.0-0.0","0","0","53264","","null","","","null","86","","","","","","","","","","","","","","","",""
"","ITI","","html-keyboard-response","570","1270312","0.0-1.0-783.0","0","0","53264","","null","","","null","86","","","","","","","","","","","","","","","NaN",""
"","S1","","html-keyboard-response","571","1270566","0.0-1.0-785.0","0","0","53264","","null","","","null","87","","","","","","","","","","","","","","","",""
"","ISI","","html-keyboard-response","572","1271577","0.0-1.0-786.0","0","0","53264","","null","","","null","87","NaN","","","","","","","","","","","","","","",""
"","S2","","html-keyboard-response","573","1271831","0.0-1.0-787.0","0","0","53264","","null","","","null","87","","NaN","","","","","","","","","","","","","",""
"","response","","html-keyboard-response","574","1272641","0.0-1.0-788.0-0.0","0","0","53264","","808","","","75","87","","","2","87","training","adjacent","CB","3","2","O.jpg","N.jpg","0","0","1","",""
"","feedback","","html-keyboard-response","575","1273657","0.0-1.0-789.0-0.0","0","0","53264","","null","","","null","87","","","","","","","","","","","","","","","",""
"","ITI","","html-keyboard-response","576","1274671","0.0-1.0-792.0","0","0","53264","","null","","","null","87","","","","","","","","","","","","","","","NaN",""
"","S1","","html-keyboard-response","577","1274941","0.0-1.0-794.0","0","0","53264","","null","","","null","88","","","","","","","","","","","","","","","",""
"","ISI","","html-keyboard-response","578","1275957","0.0-1.0-795.0","0","0","53264","","null","","","null","88","NaN","","","","","","","","","","","","","","",""
"","S2","","html-keyboard-response","579","1276227","0.0-1.0-796.0","0","0","53264","","null","","","null","88","","NaN","","","","","","","","","","","","","",""
