"success","ttype","start_time","trial_type","trial_index","time_elapsed","internal_node_id","warning","missed_checkup","PID","view_history","rt","responses","repeat_instructions","key_press","index","keypress_isi","keypress_S2","block","trial_num","phase","group_type","pair_type","S1_stim","S2_stim","S1_img","S2_img","S1_chosen","S1_higher","accuracy","keypress_iti","total_bonus_tally"
"true","full_screen","d03072023hr2103","fullscreen","0","53623","0.0-0.0","0","0","73092","","","","","","","","","","","","","","","","","","","","","",""
"","instructions","","instructions","1","88842","0.0-1.0-0.0-0.0","0","0","73092","[{""page_index"":0,""viewing_time"":7890},{""page_index"":1,""viewing_time"":14779},{""page_index"":2,""viewing_time"":10489},{""page_index"":3,""viewing_time"":2059}]","35218","","","","","","","","","","","","","","","","","","","",""
"","comprehension_check","","survey-multi-choice","2","111403","0.0-1.0-0.0-1.0","0","0","73092","","22556","{""Q0"":""True"",""Q1"":""D"",""Q2"":""Only when the screen 'MAKE A CHOICE' is shown"",""Q3"":""Green mark"",""Q4"":""either D or K""}","1","","","","","","","","","","","","","","","","","",""
"","missed_instruction_checkup","","html-keyboard-response","3","113249","0.0-1.0-0.0-2.0-0.0","0","1","73092","","1843","","","32","","","","","","","","","","","","","","","","",""
"","instructions","","instructions","4","128817","0.0-1.0-0.1-0.1","0","0","73092","[{""page_index"":0,""viewing_time"":3316},{""page_index"":1,""viewing_time"":8868},{""page_index"":2,""viewing_time"":2067},{""page_index"":3,""viewing_time"":1316}]","15567","","","","","","","","","","","","","","","","","","","",""
"","comprehension_check","","survey-multi-choice","5","140546","0.0-1.0-0.1-1.1","0","0","73092","","11726","{""Q0"":""True"",""Q1"":""D"",""Q2"":""Once the second image appears and while the screen 'MAKE A CHOICE' is shown"",""Q3"":""Green mark"",""Q4"":""either D or K""}","0","","","","","","","","","","","","","","","","","",""
"","start_exp","","html-keyboard-response","6","141730","0.0-1.0-1.0","0","0","73092","","1182","","","32","","","","","","","","","","","","","","","","",""
"","S1","","html-keyboard-response","7","141983","0.0-1.0-2.0","0","0","73092","","null","","","null","0","","","","","","","","","","","","","","","",""
"","ISI","","html-keyboard-response","8","142985","0.0-1.0-3.0","0","0","73092","","null","","","null","0","NaN","","","","","","","","","","","","","","",""
"","S2","","html-keyboard-response","9","143237","0.0-1.0-4.0","0","0","73092","","null","","","null","0","","NaN","","","","","","","","","","","","","",""
"","response","","html-keyboard-response","10","143648","0.0-1.0-5.0-0.0","0","0","73092","","410","","","75","0","","","1","0","training","adjacent","AB","1","2","L.jpg","O.jpg","0","1","0","",""
"","feedback","","html-keyboard-response","11","144650","0.0-1.0-6.0-0.0","0","0","73092","","null","","","null","0","","","","","","","","","","","","","","","",""
"","time_out","","html-keyboard-response","12","146653","0.0-1.0-8.0-0.0","0","0","73092","","null","","","null","0","","","","","","","","","","","","","","","",""
"","ITI","","html-keyboard-response","13","147655","0.0-1.0-9.0","0","0","73092","","null","","","null","0","","","","","","","","","","","","","","","NaN",""
"","S1","","html-keyboard-response","14","147908","0.0-1.0-11.0","0","0","73092","","null","","","null","1","","","","","","","","","","","","","","","",""
"","ISI","","html-keyboard-response","15","148910","0.0-1.0-12.0","0","0","73092","","null","","","null","1","NaN","","","","","","","","","","","","","","",""
"","S2","","html-keyboard-response","16","149163","0.0-1.0-13.0","0","0","73092","","null","","","null","1","","NaN","","","","","","","","","","","","","",""
"","response","","html-keyboard-response","17","149497","0.0-1.0-14.0-0.0","0","0","73092","","333","","","68","1","","","1","1","training","adjacent","FG","6","7","P.jpg","R.jpg","1","1","1","",""
"","feedback","","html-keyboard-response","18","150499","0.0-1.0-15.0-0.0","0","0","73092","","null","","","null","1","","","","","","","","","","","","","","","",""
"","ITI","","html-keyboard-response","19","151502","0.0-1.0-18.0","0","0","73092","","null","","","null","1","","","","","","","","","","","","","","","NaN",""
"","S1","","html-keyboard-response","20","151754","0.0-1.0-20.0","0","0","73092","","null","","","null","2","","","","","","","","","","","","","","","",""
"","ISI","","html-keyboard-response","21","152756","0.0-1.0-21.0","0","0","73092","","null","","","null","2","NaN","","","","","","","","","","","","","","",""
"","S2","","html-keyboard-response","22","153009","0.0-1.0-22.0","0","0","73092","","null","","","null","2","","NaN","","","","","","","","","","","","","",""
"","response","","html-keyboard-response","23","153264","0.0-1.0-23.0-0.0","0","0","73092","","254","","","68","2","","","1","2","training","adjacent","BA","2","1","O.jpg","L.jpg","1","0","0","",""
"","feedback","","html-keyboard-response","24","154266","0.0-1.0-24.0-0.0","0","0","73092","","null","","","null","2","","","","","","","","","","","","","","","",""
"","time_out","","html-keyboard-response","25","156269","0.0-1.0-26.0-0.0","0","0","73092","","null","","","null","2","","","","","","","","","","","","","","","",""
"","ITI","","html-keyboard-response","26","157272","0.0-1.0-27.0","0","0","73092","","null","","","null","2","","","","","","","","","","","","","","","NaN",""
"","S1","","html-keyboard-response","27","157524","0.0-1.0-29.0","0","0","73092","","null","","","null","3","","","","","","","","","","","","","","","",""
"","ISI","","html-keyboard-response","28","158526","0.0-1.0-30.0","0","0","73092","","null","","","null","3","NaN","","","","","","","","","","","","","","",""
"","S2","","html-keyboard-response","29","158778","0.0-1.0-31.0","0","0","73092","","null","","","null","3","","NaN","","","","","","","","","","","","","",""
"","response","","html-keyboard-response","30","159352","0.0-1.0-32.0-0.0","0","0","73092","","573","","","68","3","","","1","3","training","adjacent","DE","4","5","N.jpg","M.jpg","1","1","1","",""
"","feedback","","html-keyboard-response","31","160355","0.0-1.0-33.0-0.0","0","0","73092","","null","","","null","3","","","","","","","","","","","","","","","",""
"","ITI","","html-keyboard-response","32","161357","0.0-1.0-36.0","0","0","73092","","null","","","null","3","","","","","","","","","","","","","","","NaN",""
"","S1","","html-keyboard-response","33","161609","0.0-1.0-38.0","0","0","73092","","null","","","null","4","","","","","","","","","","","","","","","",""
"","ISI","","html-keyboard-response","34","162611","0.0-1.0-39.0","0","0","73092","","null","","","null","4","NaN","","","","","","","","","","","","","","",""
"","S2","","html-keyboard-response","35","162863","0.0-1.0-40.0","0","0","73092","","null","","","null","4","","NaN","","","","","","","","","","","","","",""
"","response","","html-keyboard-response","36","163665","0.0-1.0-41.0-0.0","0","0","73092","","800","","","75","4","","","1","4","training","adjacent","BA","2","1","O.jpg","L.jpg","0","0","1","",""
"","feedback","","html-keyboard-response","37","164666","0.0-1.0-42.0-0.0","0","0","73092","","null","","","null","4","","","","","","","","","","","","","","","",""
"","ITI","","html-keyboard-response","38","165668","0.0-1.0-45.0","0","0","73092","","null","","","null","4","","","","","","","","","","","","","","","NaN",""
"","S1","","html-keyboard-response","39","165921","0.0-1.0-47.0","0","0","73092","","null","","","null","5","","","","","","","","","","","","","","","",""
"","ISI","","html-keyboard-response","40","166922","0.0-1.0-48.0","0","0","73092","","null","","","null","5","NaN","","","","","","","","","","","","","","",""
"","S2","","html-keyboard-response","41","167175","0.0-1.0-49.0","0","0","73092","","null","","","null","5","","NaN","","","","","","","","","","","","","",""
"","response","","html-keyboard-response","42","168008","0.0-1.0-50.0-0.0","0","0","73092","","832","","","75","5","","","1","5","training","adjacent","FE","6","5","P.jpg","M.jpg","0","0","1","",""
"","feedback","","html-keyboard-response","43","169011","0.0-1.0-51.0-0.0","0","0","73092","","null","","","null","5","","","","","","","","","","","","","","","",""
"","ITI","","html-keyboard-response","44","170012","0.0-1.0-54.0","0","0","73092","","null","","","null","5","","","","","","","","","","","","","","","NaN",""
"","S1","","html-keyboard-response","45","170265","0.0-1.0-56.0","0","0","73092","","null","","","null","6","","","","","","","","","","","","","","","",""
"","ISI","","html-keyboard-response","46","171267","0.0-1.0-57.0","0","0","73092","","null","","","null","6","NaN","","","","","","","","","","","","","","",""
"","S2","","html-keyboard-response","47","171520","0.0-1.0-58.0","0","0","73092","","null","","","null","6","","NaN","","","","","","","","","","","","","",""
"","response","","html-keyboard-response","48","172048","0.0-1.0-59.0-0.0","0","0","73092","","527","","","68","6","","","1","6","training","adjacent","FG","6","7","P.jpg","R.jpg","1","1","1","",""
"","feedback","","html-keyboard-response","49","173050","0.0-1.0-60.0-0.0","0","0","73092","","null","","","null","6","","","","","","","","","","","","","","","",""
"","ITI","","html-keyboard-response","50","174053","0.0-1.0-63.0","0","0","73092","","null","","","null","6","","","","","","","","","","","","","","","NaN",""
"","S1","","html-keyboard-response","51","174305","0.0-1.0-65.0","0","0","73092","","null","","","null","7","","","","","","","","","","","","","","","",""
"","ISI","","html-keyboard-response","52","175307","0.0-1.0-66.0","0","0","73092","","null","","","null","7","NaN","","","","","","","","","","","","","","",""
"","S2","","html-keyboard-response","53","175559","0.0-1.0-67.0","0","0","73092","","null","","","null","7","","NaN","","","","","","","","","","","","","",""
"","response","","html-keyboard-response","54","175970","0.0-1.0-68.0-0.0","0","0","73092","","410","","","75","7","","","1","7","training","adjacent","CD","3","4","Q.jpg","N.jpg","0","1","0","",""
"","feedback","","html-keyboard-response","55","176973","0.0-1.0-69.0-0.0","0","0","73092","","null","","","null","7","","","","","","","","","","","","","","","",""
"","time_out","","html-keyboard-response","56","178975","0.0-1.0-71.0-0.0","0","0","73092","","null","","","null","7","","","","","","","","","","","","","","","",""
"","ITI","","html-keyboard-response","57","179976","0.0-1.0-72.0","0","0","73092","","null","","","null","7","","","","","","","","","","","","","","","NaN",""
"","S1","","html-keyboard-response","58","180229","0.0-1.0-74.0","0","0","73092","","null","","","null","8","","","","","","","","","","","","","","","",""
"","ISI","","html-keyboard-response","59","181231","0.0-1.0-75.0","0","0","73092","","null","","","null","8","NaN","","","","","","","","","","","","","","",""
"","S2","","html-keyboard-response","60","181483","0.0-1.0-76.0","0","0","73092","","null","","","null","8","","NaN","","","","","","","","","","","","","",""
"","response","","html-keyboard-response","61","181785","0.0-1.0-77.0-0.0","0","0","73092","","301","","","75","8","","","1","8","training","adjacent","CD","3","4","Q.jpg","N.jpg","0","1","0","",""
"","feedback","","html-keyboard-response","62","182788","0.0-1.0-78.0-0.0","0","0","73092","","null","","","null","8","","","","","","","","","","","","","","","",""
"","time_out","","html-keyboard-response","63","184790","0.0-1.0-80.0-0.0","0","0","73092","","null","","","null","8","","","","","","","","","","","","","","","",""
"","ITI","","html-keyboard-response","64","185792","0.0-1.0-81.0","0","0","73092","","null","","","null","8","","","","","","","","","","","","","","","NaN",""
"","S1","","html-keyboard-response","65","186044","0.0-1.0-83.0","0","0","73092","","null","","","null","9","","","","","","","","","","","","","","","",""
"","ISI","","html-keyboard-response","66","187046","0.0-1.0-84.0","0","0","73092","","null","","","null","9","NaN","","","","","","","","","","","","","","",""
"","S2","","html-keyboard-response","67","187298","0.0-1.0-85.0","0","0","73092","","null","","","null","9","","NaN","","","","","","","","","","","","","",""
"","response","","html-keyboard-response","68","187673","0.0-1.0-86.0-0.0","0","0","73092","","374","","","75","9","","","1","9","training","adjacent","AB","1","2","L.jpg","O.jpg","0","1","0","",""
"","feedback","","html-keyboard-response","69","188675","0.0-1.0-87.0-0.0","0","0","73092","","null","","","null","9","","","","","","","","","","","","","","","",""
"","time_out","","html-keyboard-response","70","190677","0.0-1.0-89.0-0.0","0","0","73092","","null","","","null","9","","","","","","","","","","","","","","","",""
"","ITI","","html-keyboard-response","71","191680","0.0-1.0-90.0","0","0","73092","","null","","","null","9","","","","","","","","","","","","","","","NaN",""
"","S1","","html-keyboard-response","72","191933","0.0-1.0-92.0","0","0","73092","","null","","","null","10","","","","","","","","","","","","","","","",""
"","ISI","","html-keyboard-response","73","192935","0.0-1.0-93.0","0","0","73092","","null","","","null","10","NaN","","","","","","","","","","","","","","",""
"","S2","","html-keyboard-response","74","193192","0.0-1.0-94.0","0","0","73092","","null","","","null","10","","NaN","","","","","","","","","","","","","",""
"","response","","html-keyboard-response","75","193920","0.0-1.0-95.0-0.0","0","0","73092","","728","","","75","10","","","1","10","training","adjacent","ED","5","4","M.jpg","N.jpg","0","0","1","",""
"","feedback","","html-keyboard-response","76","194922","0.0-1.0-96.0-0.0","0","0","73092","","null","","","null","10","","","","","","","","","","","","","","","",""
"","ITI","","html-keyboard-response","77","195925","0.0-1.0-99.0","0","0","73092","","null","","","null","10","","","","","","","","","","","","","","","NaN",""
"","S1","","html-keyboard-response","78","196177","0.0-1.0-101.0","0","0","73092","","null","","","null","11","","","","","","","","","","","","","","","",""
"","ISI","","html-keyboard-response","79","197179","0.0-1.0-102.0","0","0","73092","","null","","","null","11","NaN","","","","","","","","","","","","","","",""
"","S2","","html-keyboard-response","80","197431","0.0-1.0-103.0","0","0","73092","","null","","","null","11","","NaN","","","","","","","","","","","","","",""
"","response","","html-keyboard-response","81","198137","0.0-1.0-104.0-0.0","0","0","73092","","704","","","68","11","","","1","11","training","adjacent","CB","3","2","Q.jpg","O.jpg","1","0","0","",""
"","feedback","","html-keyboard-response","82","199139","0.0-1.0-105.0-0.0","0","0","73092","","null","","","null","11","","","","","","","","","","","","","","","",""
"","time_out","","html-keyboard-response","83","201143","0.0-1.0-107.0-0.0","0","0","73092","","null","","","null","11","","","","","","","","","","","","","","","",""
"","ITI","","html-keyboard-response","84","202146","0.0-1.0-108.0","0","0","73092","","null","","","null","11","","","","","","","","","","","","","","","NaN",""
"","S1","","html-keyboard-response","85","202398","0.0-1.0-110.0","0","0","73092","","null","","","null","12","","","","","","","","","","","","","","","",""
"","ISI","","html-keyboard-response","86","203400","0.0-1.0-111.0","0","0","73092","","null","","","null","12","NaN","","","","","","","","","","","","","","",""
"","S2","","html-keyboard-response","87","203653","0.0-1.0-112.0","0","0","73092","","null","","","null","12","","NaN","","","","","","","","","","","","","",""
"","response","","html-keyboard-response","88","204224","0.0-1.0-113.0-0.0","0","0","73092","","570","","","75","12","","","1","12","training","adjacent","FG","6","7","P.jpg","R.jpg","0","1","0","",""
"","feedback","","html-keyboard-response","89","205227","0.0-1.0-114.0-0.0","0","0","73092","","null","","","null","12","","","","","","","","","","","","","","","",""
"","time_out","","html-keyboard-response","90","207229","0.0-1.0-116.0-0.0","0","0","73092","","null","","","null","12","","","","","","","","","","","","","","","",""
"","ITI","","html-keyboard-response","91","208230","0.0-1.0-117.0","0","0","73092","","null","","","null","12","","","","","","","","","","","","","","","NaN",""
"","S1","","html-keyboard-response","92","208482","0.0-1.0-119.0","0","0","73092","","null","","","null","13","","","","","","","","","","","","","","","",""
"","ISI","","html-keyboard-response","93","209484","0.0-1.0-120.0","0","0","73092","","null","","","null","13","NaN","","","","","","","","","","","","","","",""
"","S2","","html-keyboard-response","94","209751","0.0-1.0-121.0","0","0","73092","","null","","","null","13","","NaN","","","","","","","","","","","","","",""
"","response","","html-keyboard-response","95","210457","0.0-1.0-122.0-0.0","0","0","73092","","705","","","68","13","","","1","13","training","adjacent","EF","5","6","M.jpg","P.jpg","1","1","1","",""
"","feedback","","html-keyboard-response","96","211459","0.0-1.0-123.0-0.0","0","0","73092","","null","","","null","13","","","","","","","","","","","","","","","",""
"","ITI","","html-keyboard-response","97","212462","0.0-1.0-126.0","0","0","73092","","null","","","null","13","","","","","","","","","","","","","","","NaN",""
"","S1","","html-keyboard-response","98","212714","0.0-1.0-128.0","0","0","73092","","null","","","null","14","","","","","","","","","","","","","","","",""
"","ISI","","html-keyboard-response","99","213717","0.0-1.0-129.0","0","0","73092","","null","","","null","14","NaN","","","","","","","","","","","","","","",""
"","S2","","html-keyboard-response","100","213969","0.0-1.0-130.0","0","0","73092","","null","","","null","14","","NaN","","","","","","","","","","","","","",""
"","response","","html-keyboard-response","101","214417","0.0-1.0-131.0-0.0","0","0","73092","","446","","","75","14","","","1","14","training","adjacent","BC","2","3","O.jpg","Q.jpg","0","1","0","",""
"","feedback","","html-keyboard-response","102","215420","0.0-1.0-132.0-0.0","0","0","73092","","null","","","null","14","","","","","","","","","","","","","","","",""
"","time_out","","html-keyboard-response","103","217422","0.0-1.0-134.0-0.0","0","0","73092","","null","","","null","14","","","","","","","","","","","","","","","",""
"","ITI","","html-keyboard-response","104","218423","0.0-1.0-135.0","0","0","73092","","null","","","null","14","","","","","","","","","","","","","","","NaN",""
"","S1","","html-keyboard-response","105","218676","0.0-1.0-137.0","0","0","73092","","null","","","null","15","","","","","","","","","","","","","","","",""
"","ISI","","html-keyboard-response","106","219678","0.0-1.0-138.0","0","0","73092","","null","","","null","15","NaN","","","","","","","","","","","","","","",""
"","S2","","html-keyboard-response","107","219930","0.0-1.0-139.0","0","0","73092","","null","","","null","15","","NaN","","","","","","","","","","","","","",""
"","response","","html-keyboard-response","108","220561","0.0-1.0-140.0-0.0","0","0","73092","","630","","","75","15","","","1","15","training","adjacent","GF","7","6","R.jpg","P.jpg","0","0","1","",""
"","feedback","","html-keyboard-response","109","221563","0.0-1.0-141.0-0.0","0","0","73092","","null","","","null","15","","","","","","","","","","","","","","","",""
"","ITI","","html-keyboard-response","110","222565","0.0-1.0-144.0","0","0","73092","","null","","","null","15","","","","","","","","","","","","","","","NaN",""
"","S1","","html-keyboard-response","111","222818","0.0-1.0-146.0","0","0","73092","","null","","","null","16","","","","","","","","","","","","","","","",""
"","ISI","","html-keyboard-response","112","223820","0.0-1.0-147.0","0","0","73092","","null","","","null","16","NaN","","","","","","","","","","","","","","",""
"","S2","","html-keyboard-response","113","224073","0.0-1.0-148.0","0","0","73092","","null","","","null","16","","NaN","","","","","","","","","","","","","",""
"","response","","html-keyboard-response","114","224553","0.0-1.0-149.0-0.0","0","0","73092","","479","","","75","16","","","1","16","training","adjacent","EF","5","6","M.jpg","P.jpg","0","1","0","",""
"","feedback","","html-keyboard-response","115","225554","0.0-1.0-150.0-0.0","0","0","73092","","null","","","null","16","","","","","","","","","","","","","","","",""
"","time_out","","html-keyboard-response","116","227556","0.0-1.0-152.0-0.0","0","0","73092","","null","","","null","16","","","","","","","","","","","","","","","",""
"","ITI","","html-keyboard-response","117","228558","0.0-1.0-153.0","0","0","73092","","null","","","null","16","","","","","","","","","","","","","","","NaN",""
"","S1","","html-keyboard-response","118","228811","0.0-1.0-155.0","0","0","73092","","null","","","null","17","","","","","","","","","","","","","","","",""
"","ISI","","html-keyboard-response","119","229813","0.0-1.0-156.0","0","0","73092","","null","","","null","17","NaN","","","","","","","","","","","","","","",""
"","S2","","html-keyboard-response","120","230065","0.0-1.0-157.0","0","0","73092","","null","","","null","17","","NaN","","","","","","","","","","","","","",""
"","response","","html-keyboard-response","121","230648","0.0-1.0-158.0-0.0","0","0","73092","","582","","","68","17","","","1","17","training","adjacent","CB","3","2","Q.jpg","O.jpg","1","0","0","",""
"","feedback","","html-keyboard-response","122","231651","0.0-1.0-159.0-0.0","0","0","73092","","null","","","null","17","","","","","","","","","","","","","","","",""
"","time_out","","html-keyboard-response","123","233653","0.0-1.0-161.0-0.0","0","0","73092","","null","","","null","17","","","","","","","","","","","","","","","",""
"","ITI","","html-keyboard-response","124","234655","0.0-1.0-162.0","0","0","73092","","null","","","null","17","","","","","","","","","","","","","","","NaN",""
"","S1","","html-keyboard-response","125","234907","0.0-1.0-164.0","0","0","73092","","null","","","null","18","","","","","","","","","","","","","","","",""
"","ISI","","html-keyboard-response","126","235910","0.0-1.0-165.0","0","0","73092","","null","","","null","18","NaN","","","","","","","","","","","","","","",""
"","S2","","html-keyboard-response","127","236162","0.0-1.0-166.0","0","0","73092","","null","","","null","18","","NaN","","","","","","","","","","","","","",""
"","response","","html-keyboard-response","128","236577","0.0-1.0-167.0-0.0","0","0","73092","","414","","","68","18","","","1","18","training","adjacent","BC","2","3","O.jpg","Q.jpg","1","1","1","",""
"","feedback","","html-keyboard-response","129","237579","0.0-1.0-168.0-0.0","0","0","73092","","null","","","null","18","","","","","","","","","","","","","","","",""
"","ITI","","html-keyboard-response","130","238582","0.0-1.0-171.0","0","0","73092","","null","","","null","18","","","","","","","","","","","","","","","NaN",""
"","S1","","html-keyboard-response","131","238834","0.0-1.0-173.0","0","0","73092","","null","","","null","19","","","","","","","","","","","","","","","",""
"","ISI","","html-keyboard-response","132","239836","0.0-1.0-174.0","0","0","73092","","null","","","null","19","NaN","","","","","","","","","","","","","","",""
"","S2","","html-keyboard-response","133","240088","0.0-1.0-175.0","0","0","73092","","null","","","null","19","","NaN","","","","","","","","","","","","","",""
"","response","","html-keyboard-response","134","240264","0.0-1.0-176.0-0.0","0","0","73092","","176","","","75","19","","","1","19","training","adjacent","DE","4","5","N.jpg","M.jpg","0","1","0","",""
"","feedback","","html-keyboard-response","135","241267","0.0-1.0-177.0-0.0","0","0","73092","","null","","","null","19","","","","","","","","","","","","","","","",""
"","time_out","","html-keyboard-response","136","243269","0.0-1.0-179.0-0.0","0","0","73092","","null","","","null","19","","","","","","","","","","","","","","","",""
"","ITI","","html-keyboard-response","137","244272","0.0-1.0-180.0","0","0","73092","","null","","","null","19","","","","","","","","","","","","","","","NaN",""
"","S1","","html-keyboard-response","138","244524","0.0-1.0-182.0","0","0","73092","","null","","","null","20","","","","","","","","","","","","","","","",""
"","ISI","","html-keyboard-response","139","245531","0.0-1.0-183.0","0","0","73092","","null","","","null","20","NaN","","","","","","","","","","","","","","",""
"","S2","","html-keyboard-response","140","245784","0.0-1.0-184.0","0","0","73092","","null","","","null","20","","NaN","","","","","","","","","","","","","",""
"","response","","html-keyboard-response","141","246697","0.0-1.0-185.0-0.0","0","0","73092","","912","","","68","20","","","1","20","training","adjacent","FG","6","7","P.jpg","R.jpg","1","1","1","",""
"","feedback","","html-keyboard-response","142","247699","0.0-1.0-186.0-0.0","0","0","73092","","null","","","null","20","","","","","","","","","","","","","","","",""
"","ITI","","html-keyboard-response","143","248701","0.0-1.0-189.0","0","0","73092","","null","","","null","20","","","","","","","","","","","","","","","NaN",""
"","S1","","html-keyboard-response","144","248954","0.0-1.0-191.0","0","0","73092","","null","","","null","21","","","","","","","","","","","","","","","",""
"","ISI","","html-keyboard-response","145","249956","0.0-1.0-192.0","0","0","73092","","null","","","null","21","NaN","","","","","","","","","","","","","","",""
"","S2","","html-keyboard-response","146","250208","0.0-1.0-193.0","0","0","73092","","null","","","null","21","","NaN","","","","","","","","","","","","","",""
"","response","","html-keyboard-response","147","251096","0.0-1.0-194.0-0.0","0","0","73092","","887","","","68","21","","","1","21","training","adjacent","ED","5","4","M.jpg","N.jpg","1","0","0","",""
"","feedback","","html-keyboard-response","148","252099","0.0-1.0-195.0-0.0","0","0","73092","","null","","","null","21","","","","","","","","","","","","","","","",""
"","time_out","","html-keyboard-response","149","254101","0.0-1.0-197.0-0.0","0","0","73092","","null","","","null","21","","","","","","","","","","","","","","","",""
"","ITI","","html-keyboard-response","150","255103","0.0-1.0-198.0","0","0","73092","","null","","","null","21","","","","","","","","","","","","","","","NaN",""
"","S1","","html-keyboard-response","151","255355","0.0-1.0-200.0","0","0","73092","","null","","","null","22","","","","","","","","","","","","","","","",""
"","ISI","","html-keyboard-response","152","256357","0.0-1.0-201.0","0","0","73092","","null","","","null","22","NaN","","","","","","","","","","","","","","",""
"","S2","","html-keyboard-response","153","256610","0.0-1.0-202.0","0","0","73092","","null","","","null","22","","NaN","","","","","","","","","","","","","",""
"","response","","html-keyboard-response","154","257137","0.0-1.0-203.0-0.0","0","0","73092","","526","","","75","22","","","1","22","training","adjacent","AB","1","2","L.jpg","O.jpg","0","1","0","",""
"","feedback","","html-keyboard-response","155","258139","0.0-1.0-204.0-0.0","0","0","73092","","null","","","null","22","","","","","","","","","","","","","","","",""
"","time_out","","html-keyboard-response","156","260140","0.0-1.0-206.0-0.0","0","0","73092","","null","","","null","22","","","","","","","","","","","","","","","",""
"","ITI","","html-keyboard-response","157","261142","0.0-1.0-207.0","0","0","73092","","null","","","null","22","","","","","","","","","","","","","","","NaN",""
"","S1","","html-keyboard-response","158","261394","0.0-1.0-209.0","0","0","73092","","null","","","null","23","","","","","","","","","","","","","","","",""
"","ISI","","html-keyboard-response","159","262397","0.0-1.0-210.0","0","0","73092","","null","","","null","23","NaN","","","","","","","","","","","","","","",""
"","S2","","html-keyboard-response","160","262649","0.0-1.0-211.0","0","0","73092","","null","","","null","23","","NaN","","","","","","","","","","","","","",""
"","response","","html-keyboard-response","161","263752","0.0-1.0-212.0-0.0","0","0","73092","","1103","","","75","23","","","1","23","training","adjacent","CD","3","4","Q.jpg","N.jpg","0","1","0","",""
"","feedback","","html-keyboard-response","162","264755","0.0-1.0-213.0-0.0","0","0","73092","","null","","","null","23","","","","","","","","","","","","","","","",""
"","time_out","","html-keyboard-response","163","266757","0.0-1.0-215.0-0.0","0","0","73092","","null","","","null","23","","","","","","","","","","","","","","","",""
"","ITI","","html-keyboard-response","164","267759","0.0-1.0-216.0","0","0","73092","","null","","","null","23","","","","","","","","","","","","","","","NaN",""
"","S1","","html-keyboard-response","165","268012","0.0-1.0-218.0","0","0","73092","","null","","","null","24","","","","","","","","","","","","","","","",""
"","ISI","","html-keyboard-response","166","269014","0.0-1.0-219.0","0","0","73092","","null","","","null","24","NaN","","","","","","","","","","","","","","",""
"","S2","","html-keyboard-response","167","269266","0.0-1.0-220.0","0","0","73092","","null","","","null","24","","NaN","","","","","","","","","","","","","",""
"","response","","html-keyboard-response","168","270081","0.0-1.0-221.0-0.0","0","0","73092","","813","","","68","24","","","1","24","training","adjacent","BC","2","3","O.jpg","Q.jpg","1","1","1","",""
"","feedback","","html-keyboard-response","169","271083","0.0-1.0-222.0-0.0","0","0","73092","","null","","","null","24","","","","","","","","","","","","","","","",""
"","ITI","","html-keyboard-response","170","272085","0.0-1.0-225.0","0","0","73092","","null","","","null","24","","","","","","","","","","","","","","","NaN",""
"","S1","","html-keyboard-response","171","272338","0.0-1.0-227.0","0","0","73092","","null","","","null","25","","","","","","","","","","","","","","","",""
"","ISI","","html-keyboard-response","172","273339","0.0-1.0-228.0","0","0","73092","","null","","","null","25","NaN","","","","","","","","","","","","","","",""
"","S2","","html-keyboard-response","173","273592","0.0-1.0-229.0","0","0","73092","","null","","","null","25","","NaN","","","","","","","","","","","","","",""
"","response","","html-keyboard-response","174","274481","0.0-1.0-230.0-0.0","0","0","73092","","888","","","68","25","","","1","25","training","adjacent","AB","1","2","L.jpg","O.jpg","1","1","1","",""
"","feedback","","html-keyboard-response","175","275483","0.0-1.0-231.0-0.0","0","0","73092","","null","","","null","25","","","","","","","","","","","","","","","",""
"","ITI","","html-keyboard-response","176","276486","0.0-1.0-234.0","0","0","73092","","null","","","null","25","","","","","","","","","","","","","","","NaN",""
"","S1","","html-keyboard-response","177","276738","0.0-1.0-236.0","0","0","73092","","null","","","null","26","","","","","","","","","","","","","","","",""
"","ISI","","html-keyboard-response","178","277740","0.0-1.0-237.0","0","0","73092","","null","","","null","26","NaN","","","","","","","","","","","","","","",""
"","S2","","html-keyboard-response","179","277992","0.0-1.0-238.0","0","0","73092","","null","","","null","26","","NaN","","","","","","","","","","","","","",""
"","response","","html-keyboard-response","180","278697","0.0-1.0-239.0-0.0","0","0","73092","","704","","","68","26","","","1","26","training","adjacent","DC","4","3","N.jpg","Q.jpg","1","0","0","",""
"","feedback","","html-keyboard-response","181","279699","0.0-1.0-240.0-0.0","0","0","73092","","null","","","null","26","","","","","","","","","","","","","","","",""
"","time_out","","html-keyboard-response","182","281701","0.0-1.0-242.0-0.0","0","0","73092","","null","","","null","26","","","","","","","","","","","","","","","",""
"","ITI","","html-keyboard-response","183","282704","0.0-1.0-243.0","0","0","73092","","null","","","null","26","","","","","","","","","","","","","","","NaN",""
"","S1","","html-keyboard-response","184","282956","0.0-1.0-245.0","0","0","73092","","null","","","null","27","","","","","","","","","","","","","","","",""
"","ISI","","html-keyboard-response","185","283959","0.0-1.0-246.0","0","0","73092","","null","","","null","27","NaN","","","","","","","","","","","","","","",""
"","S2","","html-keyboard-response","186","284211","0.0-1.0-247.0","0","0","73092","","null","","","null","27","","NaN","","","","","","","","","","","","","",""
"","response","","html-keyboard-response","187","285009","0.0-1.0-248.0-0.0","0","0","73092","","796","","","68","27","","","1","27","training","adjacent","GF","7","6","R.jpg","P.jpg","1","0","0","",""
"","feedback","","html-keyboard-response","188","286011","0.0-1.0-249.0-0.0","0","0","73092","","null","","","null","27","","","","","","","","","","","","","","","",""
"","time_out","","html-keyboard-response","189","288013","0.0-1.0-251.0-0.0","0","0","73092","","null","","","null","27","","","","","","","","","","","","","","","",""
"","ITI","","html-keyboard-response","190","289015","0.0-1.0-252.0","0","0","73092","","null","","","null","27","","","","","","","","","","","","","","","NaN",""
"","S1","","html-keyboard-response","191","289267","0.0-1.0-254.0","0","0","73092","","null","","","null","28","","","","","","","","","","","","","","","",""
"","ISI","","html-keyboard-response","192","290269","0.0-1.0-255.0","0","0","73092","","null","","","null","28","NaN","","","","","","","","","","","","","","",""
"","S2","","html-keyboard-response","193","290521","0.0-1.0-256.0","0","0","73092","","null","","","null","28","","NaN","","","","","","","","","","","","","",""
"","response","","html-keyboard-response","194","290880","0.0-1.0-257.0-0.0","0","0","73092","","357","","","75","28","","","1","28","training","adjacent","DE","4","5","N.jpg","M.jpg","0","1","0","",""
"","feedback","","html-keyboard-response","195","291883","0.0-1.0-258.0-0.0","0","0","73092","","null","","","null","28","","","","","","","","","","","","","","","",""
"","time_out","","html-keyboard-response","196","293885","0.0-1.0-260.0-0.0","0","0","73092","","null","","","null","28","","","","","","","","","","","","","","","",""
"","ITI","","html-keyboard-response","197","294887","0.0-1.0-261.0","0","0","73092","","null","","","null","28","","","","","","","","","","","","","","","NaN",""
"","S1","","html-keyboard-response","198","295139","0.0-1.0-263.0","0","0","73092","","null","","","null","29","","","","","","","","","","","","","","","",""
"","ISI","","html-keyboard-response","199","296141","0.0-1.0-264.0","0","0","73092","","null","","","null","29","NaN","","","","","","","","","","","","","","",""
"","S2","","html-keyboard-response","200","296393","0.0-1.0-265.0","0","0","73092","","null","","","null","29","","NaN","","","","","","","","","","","","","",""
"","response","","html-keyboard-response","201","297081","0.0-1.0-266.0-0.0","0","0","73092","","686","","","68","29","","","1","29","training","adjacent","EF","5","6","M.jpg","P.jpg","1","1","1","",""
"","feedback","","html-keyboard-response","202","298086","0.0-1.0-267.0-0.0","0","0","73092","","null","","","null","29","","","","","","","","","","","","","","","",""
"","ITI","","html-keyboard-response","203","299088","0.0-1.0-270.0","0","0","73092","","null","","","null","29","","","","","","","","","","","","","","","NaN",""
"","S1","","html-keyboard-response","204","299340","0.0-1.0-272.0","0","0","73092","","null","","","null","30","","","","","","","","","","","","","","","",""
"","ISI","","html-keyboard-response","205","300342","0.0-1.0-273.0","0","0","73092","","null","","","null","30","NaN","","","","","","","","","","","","","","",""
"","S2","","html-keyboard-response","206","300594","0.0-1.0-274.0","0","0","73092","","null","","","null","30","","NaN","","","","","","","","","","","","","",""
"","response","","html-keyboard-response","207","301777","0.0-1.0-275.0-0.0","0","0","73092","","1181","","","75","30","","","1","30","training","adjacent","DC","4","3","N.jpg","Q.jpg","0","0","1","",""
"","feedback","","html-keyboard-response","208","302778","0.0-1.0-276.0-0.0","0","0","73092","","null","","","null","30","","","","","","","","","","","","","","","",""
"","ITI","","html-keyboard-response","209","303781","0.0-1.0-279.0","0","0","73092","","null","","","null","30","","","","","","","","","","","","","","","NaN",""
"","S1","","html-keyboard-response","210","304033","0.0-1.0-281.0","0","0","73092","","null","","","null","31","","","","","","","","","","","","","","","",""
"","ISI","","html-keyboard-response","211","305035","0.0-1.0-282.0","0","0","73092","","null","","","null","31","NaN","","","","","","","","","","","","","","",""
"","S2","","html-keyboard-response","212","305288","0.0-1.0-283.0","0","0","73092","","null","","","null","31","","NaN","","","","","","","","","","","","","",""
"","response","","html-keyboard-response","213","306153","0.0-1.0-284.0-0.0","0","0","73092","","864","","","68","31","","","1","31","training","adjacent","BA","2","1","O.jpg","L.jpg","1","0","0","",""
"","feedback","","html-keyboard-response","214","307156","0.0-1.0-285.0-0.0","0","0","73092","","null","","","null","31","","","","","","","","","","","","","","","",""
"","time_out","","html-keyboard-response","215","309157","0.0-1.0-287.0-0.0","0","0","73092","","null","","","null","31","","","","","","","","","","","","","","","",""
"","ITI","","html-keyboard-response","216","310159","0.0-1.0-288.0","0","0","73092","","null","","","null","31","","","","","","","","","","","","","","","NaN",""
"","S1","","html-keyboard-response","217","310412","0.0-1.0-290.0","0","0","73092","","null","","","null","32","","","","","","","","","","","","","","","",""
"","ISI","","html-keyboard-response","218","311414","0.0-1.0-291.0","0","0","73092","","null","","","null","32","NaN","","","","","","","","","","","","","","",""
"","S2","","html-keyboard-response","219","311666","0.0-1.0-292.0","0","0","73092","","null","","","null","32","","NaN","","","","","","","","","","","","","",""
"","response","","html-keyboard-response","220","312049","0.0-1.0-293.0-0.0","0","0","73092","","382","","","75","32","","","1","32","training","adjacent","EF","5","6","M.jpg","P.jpg","0","1","0","",""
"","feedback","","html-keyboard-response","221","313052","0.0-1.0-294.0-0.0","0","0","73092","","null","","","null","32","","","","","","","","","","","","","","","",""
"","time_out","","html-keyboard-response","222","315054","0.0-1.0-296.0-0.0","0","0","73092","","null","","","null","32","","","","","","","","","","","","","","","",""
"","ITI","","html-keyboard-response","223","316057","0.0-1.0-297.0","0","0","73092","","null","","","null","32","","","","","","","","","","","","","","","NaN",""
"","S1","","html-keyboard-response","224","316309","0.0-1.0-299.0","0","0","73092","","null","","","null","33","","","","","","","","","","","","","","","",""
"","ISI","","html-keyboard-response","225","317311","0.0-1.0-300.0","0","0","73092","","null","","","null","33","NaN","","","","","","","","","","","","","","",""
"","S2","","html-keyboard-response","226","317563","0.0-1.0-301.0","0","0","73092","","null","","","null","33","","NaN","","","","","","","","","","","","","",""
"","response","","html-keyboard-response","227","318600","0.0-1.0-302.0-0.0","0","0","73092","","1036","","","68","33","","","1","33","training","adjacent","ED","5","4","M.jpg","N.jpg","1","0","0","",""
"","feedback","","html-keyboard-response","228","319603","0.0-1.0-303.0-0.0","0","0","73092","","null","","","null","33","","","","","","","","","","","","","","","",""
"","time_out","","html-keyboard-response","229","321605","0.0-1.0-305.0-0.0","0","0","73092","","null","","","null","33","","","","","","","","","","","","","","","",""
"","ITI","","html-keyboard-response","230","322607","0.0-1.0-306.0","0","0","73092","","null","","","null","33","","","","","","","","","","","","","","","NaN",""
"","S1","","html-keyboard-response","231","322859","0.0-1.0-308.0","0","0","73092","","null","","","null","34","","","","","","","","","","","","","","","",""
"","ISI","","html-keyboard-response","232","323861","0.0-1.0-309.0","0","0","73092","","null","","","null","34","NaN","","","","","","","","","","","","","","",""
"","S2","","html-keyboard-response","233","324113","0.0-1.0-310.0","0","0","73092","","null","","","null","34","","NaN","","","","","","","","","","","","","",""
"","response","","html-keyboard-response","234","324569","0.0-1.0-311.0-0.0","0","0","73092","","454","","","75","34","","","1","34","training","adjacent","BA","2","1","O.jpg","L.jpg","0","0","1","",""
"","feedback","","html-keyboard-response","235","325571","0.0-1.0-312.0-0.0","0","0","73092","","null","","","null","34","","","","","","","","","","","","","","","",""
"","ITI","","html-keyboard-response","236","326573","0.0-1.0-315.0","0","0","73092","","null","","","null","34","","","","","","","","","","","","","","","NaN",""
"","S1","","html-keyboard-response","237","326825","0.0-1.0-317.0","0","0","73092","","null","","","null","35","","","","","","","","","","","","","","","",""
"","ISI","","html-keyboard-response","238","327827","0.0-1.0-318.0","0","0","73092","","null","","","null","35","NaN","","","","","","","","","","","","","","",""
"","S2","","html-keyboard-response","239","328080","0.0-1.0-319.0","0","0","73092","","null","","","null","35","","NaN","","","","","","","","","","","","","",""
"","response","","html-keyboard-response","240","328209","0.0-1.0-320.0-0.0","0","0","73092","","128","","","68","35","","","1","35","training","adjacent","DC","4","3","N.jpg","Q.jpg","1","0","0","",""
"","feedback","","html-keyboard-response","241","329211","0.0-1.0-321.0-0.0","0","0","73092","","null","","","null","35","","","","","","","","","","","","","","","",""
"","time_out","","html-keyboard-response","242","331212","0.0-1.0-323.0-0.0","0","0","73092","","null","","","null","35","","","","","","","","","","","","","","","",""
"","ITI","","html-keyboard-response","243","332223","0.0-1.0-324.0","0","0","73092","","null","","","null","35","","","","","","","","","","","","","","","NaN",""
"","S1","","html-keyboard-response","244","332475","0.0-1.0-326.0","0","0","73092","","null","","","null","36","","","","","","","","","","","","","","","",""
"","ISI","","html-keyboard-response","245","333477","0.0-1.0-327.0","0","0","73092","","null","","","null","36","NaN","","","","","","","","","","","","","","",""
"","S2","","html-keyboard-response","246","333729","0.0-1.0-328.0","0","0","73092","","null","","","null","36","","NaN","","","","","","","","","","","","","",""
"","response","","html-keyboard-response","247","334601","0.0-1.0-329.0-0.0","0","0","73092","","871","","","75","36","","","1","36","training","adjacent","CD","3","4","Q.jpg","N.jpg","0","1","0","",""
"","feedback","","html-keyboard-response","248","335603","0.0-1.0-330.0-0.0","0","0","73092","","null","","","null","36","","","","","","","","","","","","","","","",""
"","time_out","","html-keyboard-response","249","337606","0.0-1.0-332.0-0.0","0","0","73092","","null","","","null","36","","","","","","","","","","","","","","","",""
"","ITI","","html-keyboard-response","250","338608","0.0-1.0-333.0","0","0","73092","","null","","","null","36","","","","","","","","","","","","","","","NaN",""
"","S1","","html-keyboard-response","251","338860","0.0-1.0-335.0","0","0","73092","","null","","","null","37","","","","","","","","","","","","","","","",""
"","ISI","","html-keyboard-response","252","339862","0.0-1.0-336.0","0","0","73092","","null","","","null","37","NaN","","","","","","","","","","","","","","",""
"","S2","","html-keyboard-response","253","340115","0.0-1.0-337.0","0","0","73092","","null","","","null","37","","NaN","","","","","","","","","","","","","",""
"","response","","html-keyboard-response","254","340288","0.0-1.0-338.0-0.0","0","0","73092","","172","","","75","37","","","1","37","training","adjacent","ED","5","4","M.jpg","N.jpg","0","0","1","",""
"","feedback","","html-keyboard-response","255","341291","0.0-1.0-339.0-0.0","0","0","73092","","null","","","null","37","","","","","","","","","","","","","","","",""
"","ITI","","html-keyboard-response","256","342293","0.0-1.0-342.0","0","0","73092","","null","","","null","37","","","","","","","","","","","","","","","NaN",""
"","S1","","html-keyboard-response","257","342546","0.0-1.0-344.0","0","0","73092","","null","","","null","38","","","","","","","","","","","","","","","",""
"","ISI","","html-keyboard-response","258","343548","0.0-1.0-345.0","0","0","73092","","null","","","null","38","NaN","","","","","","","","","","","","","","",""
"","S2","","html-keyboard-response","259","343800","0.0-1.0-346.0","0","0","73092","","null","","","null","38","","NaN","","","","","","","","","","","","","",""
"","response","","html-keyboard-response","260","344313","0.0-1.0-347.0-0.0","0","0","73092","","511","","","68","38","","","1","38","training","adjacent","CB","3","2","Q.jpg","O.jpg","1","0","0","",""
"","feedback","","html-keyboard-response","261","345316","0.0-1.0-348.0-0.0","0","0","73092","","null","","","null","38","","","","","","","","","","","","","","","",""
"","time_out","","html-keyboard-response","262","347318","0.0-1.0-350.0-0.0","0","0","73092","","null","","","null","38","","","","","","","","","","","","","","","",""
"","ITI","","html-keyboard-response","263","348321","0.0-1.0-351.0","0","0","73092","","null","","","null","38","","","","","","","","","","","","","","","NaN",""
"","S1","","html-keyboard-response","264","348573","0.0-1.0-353.0","0","0","73092","","null","","","null","39","","","","","","","","","","","","","","","",""
"","ISI","","html-keyboard-response","265","349575","0.0-1.0-354.0","0","0","73092","","null","","","null","39","NaN","","","","","","","","","","","","","","",""
"","S2","","html-keyboard-response","266","349828","0.0-1.0-355.0","0","0","73092","","null","","","null","39","","NaN","","","","","","","","","","","","","",""
"","response","","html-keyboard-response","267","349937","0.0-1.0-356.0-0.0","0","0","73092","","107","","","68","39","","","1","39","training","adjacent","DC","4","3","N.jpg","Q.jpg","1","0","0","",""
"","feedback","","html-keyboard-response","268","350940","0.0-1.0-357.0-0.0","0","0","73092","","null","","","null","39","","","","","","","","","","","","","","","",""
"","time_out","","html-keyboard-response","269","352942","0.0-1.0-359.0-0.0","0","0","73092","","null","","","null","39","","","","","","","","","","","","","","","",""
"","ITI","","html-keyboard-response","270","353944","0.0-1.0-360.0","0","0","73092","","null","","","null","39","","","","","","","","","","","","","","","NaN",""
"","S1","","html-keyboard-response","271","354196","0.0-1.0-362.0","0","0","73092","","null","","","null","40","","","","","","","","","","","","","","","",""
"","ISI","","html-keyboard-response","272","355198","0.0-1.0-363.0","0","0","73092","","null","","","null","40","NaN","","","","","","","","","","","","","","",""
"","S2","","html-keyboard-response","273","355451","0.0-1.0-364.0","0","0","73092","","null","","","null","40","","NaN","","","","","","","","","","","","","",""
"","response","","html-keyboard-response","274","356216","0.0-1.0-365.0-0.0","0","0","73092","","764","","","68","40","","","1","40","training","adjacent","BC","2","3","O.jpg","Q.jpg","1","1","1","",""
"","feedback","","html-keyboard-response","275","357224","0.0-1.0-366.0-0.0","0","0","73092","","null","","","null","40","","","","","","","","","","","","","","","",""
"","ITI","","html-keyboard-response","276","358226","0.0-1.0-369.0","0","0","73092","","null","","","null","40","","","","","","","","","","","","","","","NaN",""
"","S1","","html-keyboard-response","277","358479","0.0-1.0-371.0","0","0","73092","","null","","","null","41","","","","","","","","","","","","","","","",""
"","ISI","","html-keyboard-response","278","359481","0.0-1.0-372.0","0","0","73092","","null","","","null","41","NaN","","","","","","","","","","","","","","",""
"","S2","","html-keyboard-response","279","359733","0.0-1.0-373.0","0","0","73092","","null","","","null","41","","NaN","","","","","","","","","","","","","",""
"","response","","html-keyboard-response","280","360561","0.0-1.0-374.0-0.0","0","0","73092","","825","","","75","41","","","1","41","training","adjacent","GF","7","6","R.jpg","P.jpg","0","0","1","",""
"","feedback","","html-keyboard-response","281","361564","0.0-1.0-375.0-0.0","0","0","73092","","null","","","null","41","","","","","","","","","","","","","","","",""
"","ITI","","html-keyboard-response","282","362566","0.0-1.0-378.0","0","0","73092","","null","","","null","41","","","","","","","","","","","","","","","NaN",""
"","S1","","html-keyboard-response","283","362818","0.0-1.0-380.0","0","0","73092","","null","","","null","42","","","","","","","","","","","","","","","",""
"","ISI","","html-keyboard-response","284","363820","0.0-1.0-381.0","0","0","73092","","null","","","null","42","NaN","","","","","","","","","","","","","","",""
"","S2","","html-keyboard-response","285","364072","0.0-1.0-382.0","0","0","73092","","null","","","null","42","","NaN","","","","","","","","","","","","","",""
"","response","","html-keyboard-response","286","365625","0.0-1.0-383.0-0.0","0","0","73092","","1550","","","75","42","","","1","42","training","adjacent","GF","7","6","R.jpg","P.jpg","0","0","1","",""
"","feedback","","html-keyboard-response","287","366627","0.0-1.0-384.0-0.0","0","0","73092","","null","","","null","42","","","","","","","","","","","","","","","",""
"","ITI","","html-keyboard-response","288","367629","0.0-1.0-387.0","0","0","73092","","null","","","null","42","","","","","","","","","","","","","","","NaN",""
"","S1","","html-keyboard-response","289","367881","0.0-1.0-389.0","0","0","73092","","null","","","null","43","","","","","","","","","","","","","","","",""
"","ISI","","html-keyboard-response","290","368883","0.0-1.0-390.0","0","0","73092","","null","","","null","43","NaN","","","","","","","","","","","","","","",""
"","S2","","html-keyboard-response","291","369136","0.0-1.0-391.0","0","0","73092","","null","","","null","43","","NaN","","","","","","","","","","","","","",""
"","response","","html-keyboard-response","292","369816","0.0-1.0-392.0-0.0","0","0","73092","","679","","","68","43","","","1","43","training","adjacent","FE","6","5","P.jpg","M.jpg","1","0","0","",""
"","feedback","","html-keyboard-response","293","370818","0.0-1.0-393.0-0.0","0","0","73092","","null","","","null","43","","","","","","","","","","","","","","","",""
"","time_out","","html-keyboard-response","294","372820","0.0-1.0-395.0-0.0","0","0","73092","","null","","","null","43","","","","","","","","","","","","","","","",""
"","ITI","","html-keyboard-response","295","373823","0.0-1.0-396.0","0","0","73092","","null","","","null","43","","","","","","","","","","","","","","","NaN",""
"","S1","","html-keyboard-response","296","374075","0.0-1.0-398.0","0","0","73092","","null","","","null","44","","","","","","","","","","","","","","","",""
"","ISI","","html-keyboard-response","297","375078","0.0-1.0-399.0","0","0","73092","","null","","","null","44","NaN","","","","","","","","","","","","","","",""
"","S2","","html-keyboard-response","298","375331","0.0-1.0-400.0","0","0","73092","","null","","","null","44","","NaN","","","","","","","","","","","","","",""
"","response","","html-keyboard-response","299","375577","0.0-1.0-401.0-0.0","0","0","73092","","245","","","68","44","","","1","44","training","adjacent","FE","6","5","P.jpg","M.jpg","1","0","0","",""
"","feedback","","html-keyboard-response","300","376579","0.0-1.0-402.0-0.0","0","0","73092","","null","","","null","44","","","","","","","","","","","","","","","",""
"","time_out","","html-keyboard-response","301","378582","0.0-1.0-404.0-0.0","0","0","73092","","null","","","null","44","","","","","","","","","","","","","","","",""
"","ITI","","html-keyboard-response","302","379585","0.0-1.0-405.0","0","0","73092","","null","","","null","44","","","","","","","","","","","","","","","NaN",""
"","S1","","html-keyboard-response","303","379838","0.0-1.0-407.0","0","0","73092","","null","","","null","45","","","","","","","","","","","","","","","",""
"","ISI","","html-keyboard-response","304","380840","0.0-1.0-408.0","0","0","73092","","null","","","null","45","NaN","","","","","","","","","","","","","","",""
"","S2","","html-keyboard-response","305","381093","0.0-1.0-409.0","0","0","73092","","null","","","null","45","","NaN","","","","","","","","","","","","","",""
"","response","","html-keyboard-response","306","381224","0.0-1.0-410.0-0.0","0","0","73092","","130","","","75","45","","","1","45","training","adjacent","DE","4","5","N.jpg","M.jpg","0","1","0","",""
"","feedback","","html-keyboard-response","307","382227","0.0-1.0-411.0-0.0","0","0","73092","","null","","","null","45","","","","","","","","","","","","","","","",""
"","time_out","","html-keyboard-response","308","384229","0.0-1.0-413.0-0.0","0","0","73092","","null","","","null","45","","","","","","","","","","","","","","","",""
"","ITI","","html-keyboard-response","309","385231","0.0-1.0-414.0","0","0","73092","","null","","","null","45","","","","","","","","","","","","","","","NaN",""
"","S1","","html-keyboard-response","310","385484","0.0-1.0-416.0","0","0","73092","","null","","","null","46","","","","","","","","","","","","","","","",""
"","ISI","","html-keyboard-response","311","386487","0.0-1.0-417.0","0","0","73092","","null","","","null","46","NaN","","","","","","","","","","","","","","",""
"","S2","","html-keyboard-response","312","386739","0.0-1.0-418.0","0","0","73092","","null","","","null","46","","NaN","","","","","","","","","","","","","",""
"","response","","html-keyboard-response","313","387320","0.0-1.0-419.0-0.0","0","0","73092","","580","","","68","46","","","1","46","training","adjacent","CB","3","2","Q.jpg","O.jpg","1","0","0","",""
"","feedback","","html-keyboard-response","314","388323","0.0-1.0-420.0-0.0","0","0","73092","","null","","","null","46","","","","","","","","","","","","","","","",""
"","time_out","","html-keyboard-response","315","390326","0.0-1.0-422.0-0.0","0","0","73092","","null","","","null","46","","","","","","","","","","","","","","","",""
"","ITI","","html-keyboard-response","316","391328","0.0-1.0-423.0","0","0","73092","","null","","","null","46","","","","","","","","","","","","","","","NaN",""
"","S1","","html-keyboard-response","317","391581","0.0-1.0-425.0","0","0","73092","","null","","","null","47","","","","","","","","","","","","","","","",""
"","ISI","","html-keyboard-response","318","392583","0.0-1.0-426.0","0","0","73092","","null","","","null","47","NaN","","","","","","","","","","","","","","",""
"","S2","","html-keyboard-response","319","392836","0.0-1.0-427.0","0","0","73092","","null","","","null","47","","NaN","","","","","","","","","","","","","",""
"","response","","html-keyboard-response","320","393448","0.0-1.0-428.0-0.0","0","0","73092","","611","","","75","47","","","1","47","training","adjacent","FE","6","5","P.jpg","M.jpg","0","0","1","",""
"","feedback","","html-keyboard-response","321","394451","0.0-1.0-429.0-0.0","0","0","73092","","null","","","null","47","","","","","","","","","","","","","","","",""
"","ITI","","html-keyboard-response","322","395453","0.0-1.0-432.0","0","0","73092","","null","","","null","47","","","","","","","","","","","","","","","NaN",""
"","block_over","","html-keyboard-response","323","400296","0.0-1.0-433.0-0.0","0","0","73092","","4841","","","32","47","","","","","","","","","","","","","","","",""
"","S1","","html-keyboard-response","324","400549","0.0-1.0-434.0","0","0","73092","","null","","","null","48","","","","","","","","","","","","","","","",""
"","ISI","","html-keyboard-response","325","401551","0.0-1.0-435.0","0","0","73092","","null","","","null","48","NaN","","","","","","","","","","","","","","",""
"","S2","","html-keyboard-response","326","401804","0.0-1.0-436.0","0","0","73092","","null","","","null","48","","NaN","","","","","","","","","","","","","",""
"","response","","html-keyboard-response","327","401888","0.0-1.0-437.0-0.0","0","0","73092","","83","","","68","48","","","2","48","training","adjacent","DC","4","3","N.jpg","Q.jpg","1","0","0","",""
"","feedback","","html-keyboard-response","328","402891","0.0-1.0-438.0-0.0","0","0","73092","","null","","","null","48","","","","","","","","","","","","","","","",""
"","time_out","","html-keyboard-response","329","404893","0.0-1.0-440.0-0.0","0","0","73092","","null","","","null","48","","","","","","","","","","","","","","","",""
"","ITI","","html-keyboard-response","330","405895","0.0-1.0-441.0","0","0","73092","","null","","","null","48","","","","","","","","","","","","","","","NaN",""
"","S1","","html-keyboard-response","331","406147","0.0-1.0-443.0","0","0","73092","","null","","","null","49","","","","","","","","","","","","","","","",""
"","ISI","","html-keyboard-response","332","407149","0.0-1.0-444.0","0","0","73092","","null","","","null","49","NaN","","","","","","","","","","","","","","",""
"","S2","","html-keyboard-response","333","407401","0.0-1.0-445.0","0","0","73092","","null","","","null","49","","NaN","","","","","","","","","","","","","",""
"","response","","html-keyboard-response","334","407840","0.0-1.0-446.0-0.0","0","0","73092","","437","","","75","49","","","2","49","training","adjacent","EF","5","6","M.jpg","P.jpg","0","1","0","",""
"","feedback","","html-keyboard-response","335","408843","0.0-1.0-447.0-0.0","0","0","73092","","null","","","null","49","","","","","","","","","","","","","","","",""
"","time_out","","html-keyboard-response","336","410846","0.0-1.0-449.0-0.0","0","0","73092","","null","","","null","49","","","","","","","","","","","","","","","",""
"","ITI","","html-keyboard-response","337","411848","0.0-1.0-450.0","0","0","73092","","null","","","null","49","","","","","","","","","","","","","","","NaN",""
"","S1","","html-keyboard-response","338","412100","0.0-1.0-452.0","0","0","73092","","null","","","null","50","","","","","","","","","","","","","","","",""
"","ISI","","html-keyboard-response","339","413102","0.0-1.0-453.0","0","0","73092","","null","","","null","50","NaN","","","","","","","","","","","","","","",""
"","S2","","html-keyboard-response","340","413355","0.0-1.0-454.0","0","0","73092","","null","","","null","50","","NaN","","","","","","","","","","","","","",""
"","response","","html-keyboard-response","341","413808","0.0-1.0-455.0-0.0","0","0","73092","","452","","","68","50","","","2","50","training","adjacent","CB","3","2","Q.jpg","O.jpg","1","0","0","",""
"","feedback","","html-keyboard-response","342","414810","0.0-1.0-456.0-0.0","0","0","73092","","null","","","null","50","","","","","","","","","","","","","","","",""
"","time_out","","html-keyboard-response","343","416812","0.0-1.0-458.0-0.0","0","0","73092","","null","","","null","50","","","","","","","","","","","","","","","",""
"","ITI","","html-keyboard-response","344","417815","0.0-1.0-459.0","0","0","73092","","null","","","null","50","","","","","","","","","","","","","","","NaN",""
"","S1","","html-keyboard-response","345","418067","0.0-1.0-461.0","0","0","73092","","null","","","null","51","","","","","","","","","","","","","","","",""
"","ISI","","html-keyboard-response","346","419069","0.0-1.0-462.0","0","0","73092","","null","","","null","51","NaN","","","","","","","","","","","","","","",""
"","S2","","html-keyboard-response","347","419322","0.0-1.0-463.0","0","0","73092","","null","","","null","51","","NaN","","","","","","","","","","","","","",""
"","response","","html-keyboard-response","348","420120","0.0-1.0-464.0-0.0","0","0","73092","","797","","","75","51","","","2","51","training","adjacent","FE","6","5","P.jpg","M.jpg","0","0","1","",""
"","feedback","","html-keyboard-response","349","421122","0.0-1.0-465.0-0.0","0","0","73092","","null","","","null","51","","","","","","","","","","","","","","","",""
"","ITI","","html-keyboard-response","350","422124","0.0-1.0-468.0","0","0","73092","","null","","","null","51","","","","","","","","","","","","","","","NaN",""
"","S1","","html-keyboard-response","351","422376","0.0-1.0-470.0","0","0","73092","","null","","","null","52","","","","","","","","","","","","","","","",""
"","ISI","","html-keyboard-response","352","423378","0.0-1.0-471.0","0","0","73092","","null","","","null","52","NaN","","","","","","","","","","","","","","",""
"","S2","","html-keyboard-response","353","423630","0.0-1.0-472.0","0","0","73092","","null","","","null","52","","NaN","","","","","","","","","","","","","",""
"","response","","html-keyboard-response","354","424705","0.0-1.0-473.0-0.0","0","0","73092","","1072","","","68","52","","","2","52","training","adjacent","AB","1","2","L.jpg","O.jpg","1","1","1","",""
"","feedback","","html-keyboard-response","355","425707","0.0-1.0-474.0-0.0","0","0","73092","","null","","","null","52","","","","","","","","","","","","","","","",""
"","ITI","","html-keyboard-response","356","426710","0.0-1.0-477.0","0","0","73092","","null","","","null","52","","","","","","","","","","","","","","","NaN",""
"","S1","","html-keyboard-response","357","426962","0.0-1.0-479.0","0","0","73092","","null","","","null","53","","","","","","","","","","","","","","","",""
"","ISI","","html-keyboard-response","358","427964","0.0-1.0-480.0","0","0","73092","","null","","","null","53","NaN","","","","","","","","","","","","","","",""
"","S2","","html-keyboard-response","359","428216","0.0-1.0-481.0","0","0","73092","","null","","","null","53","","NaN","","","","","","","","","","","","","",""
"","response","","html-keyboard-response","360","428704","0.0-1.0-482.0-0.0","0","0","73092","","487","","","75","53","","","2","53","training","adjacent","BA","2","1","O.jpg","L.jpg","0","0","1","",""
"","feedback","","html-keyboard-response","361","429706","0.0-1.0-483.0-0.0","0","0","73092","","null","","","null","53","","","","","","","","","","","","","","","",""
"","ITI","","html-keyboard-response","362","430708","0.0-1.0-486.0","0","0","73092","","null","","","null","53","","","","","","","","","","","","","","","NaN",""
"","S1","","html-keyboard-response","363","430960","0.0-1.0-488.0","0","0","73092","","null","","","null","54","","","","","","","","","","","","","","","",""
"","ISI","","html-keyboard-response","364","431963","0.0-1.0-489.0","0","0","73092","","null","","","null","54","NaN","","","","","","","","","","","","","","",""
"","S2","","html-keyboard-response","365","432216","0.0-1.0-490.0","0","0","73092","","null","","","null","54","","NaN","","","","","","","","","","","","","",""
"","response","","html-keyboard-response","366","432577","0.0-1.0-491.0-0.0","0","0","73092","","359","","","68","54","","","2","54","training","adjacent","AB","1","2","L.jpg","O.jpg","1","1","1","",""
"","feedback","","html-keyboard-response","367","433579","0.0-1.0-492.0-0.0","0","0","73092","","null","","","null","54","","","","","","","","","","","","","","","",""
"","ITI","","html-keyboard-response","368","434581","0.0-1.0-495.0","0","0","73092","","null","","","null","54","","","","","","","","","","","","","","","NaN",""
"","S1","","html-keyboard-response","369","434834","0.0-1.0-497.0","0","0","73092","","null","","","null","55","","","","","","","","","","","","","","","",""
"","ISI","","html-keyboard-response","370","435836","0.0-1.0-498.0","0","0","73092","","null","","","null","55","NaN","","","","","","","","","","","","","","",""
"","S2","","html-keyboard-response","371","436089","0.0-1.0-499.0","0","0","73092","","null","","","null","55","","NaN","","","","","","","","","","","","","",""
"","response","","html-keyboard-response","372","436432","0.0-1.0-500.0-0.0","0","0","73092","","342","","","75","55","","","2","55","training","adjacent","BA","2","1","O.jpg","L.jpg","0","0","1","",""
"","feedback","","html-keyboard-response","373","437435","0.0-1.0-501.0-0.0","0","0","73092","","null","","","null","55","","","","","","","","","","","","","","","",""
"","ITI","","html-keyboard-response","374","438437","0.0-1.0-504.0","0","0","73092","","null","","","null","55","","","","","","","","","","","","","","","NaN",""
"","S1","","html-keyboard-response","375","438689","0.0-1.0-506.0","0","0","73092","","null","","","null","56","","","","","","","","","","","","","","","",""
"","ISI","","html-keyboard-response","376","439690","0.0-1.0-507.0","0","0","73092","","null","","","null","56","NaN","","","","","","","","","","","","","","",""
"","S2","","html-keyboard-response","377","439942","0.0-1.0-508.0","0","0","73092","","null","","","null","56","","NaN","","","","","","","","","","","","","",""
"","response","","html-keyboard-response","378","440624","0.0-1.0-509.0-0.0","0","0","73092","","680","","","75","56","","","2","56","training","adjacent","CD","3","4","Q.jpg","N.jpg","0","1","0","",""
"","feedback","","html-keyboard-response","379","441627","0.0-1.0-510.0-0.0","0","0","73092","","null","","","null","56","","","","","","","","","","","","","","","",""
"","time_out","","html-keyboard-response","380","443630","0.0-1.0-512.0-0.0","0","0","73092","","null","","","null","56","","","","","","","","","","","","","","","",""
"","ITI","","html-keyboard-response","381","444633","0.0-1.0-513.0","0","0","73092","","null","","","null","56","","","","","","","","","","","","","","","NaN",""
"","S1","","html-keyboard-response","382","444886","0.0-1.0-515.0","0","0","73092","","null","","","null","57","","","","","","","","","","","","","","","",""
"","ISI","","html-keyboard-response","383","445888","0.0-1.0-516.0","0","0","73092","","null","","","null","57","NaN","","","","","","","","","","","","","","",""
"","S2","","html-keyboard-response","384","446140","0.0-1.0-517.0","0","0","73092","","null","","","null","57","","NaN","","","","","","","","","","","","","",""
"","response","","html-keyboard-response","385","446640","0.0-1.0-518.0-0.0","0","0","73092","","499","","","75","57","","","2","57","training","adjacent","DE","4","5","N.jpg","M.jpg","0","1","0","",""
"","feedback","","html-keyboard-response","386","447643","0.0-1.0-519.0-0.0","0","0","73092","","null","","","null","57","","","","","","","","","","","","","","","",""
"","time_out","","html-keyboard-response","387","449645","0.0-1.0-521.0-0.0","0","0","73092","","null","","","null","57","","","","","","","","","","","","","","","",""
"","ITI","","html-keyboard-response","388","450648","0.0-1.0-522.0","0","0","73092","","null","","","null","57","","","","","","","","","","","","","","","NaN",""
"","S1","","html-keyboard-response","389","450900","0.0-1.0-524.0","0","0","73092","","null","","","null","58","","","","","","","","","","","","","","","",""
"","ISI","","html-keyboard-response","390","451902","0.0-1.0-525.0","0","0","73092","","null","","","null","58","NaN","","","","","","","","","","","","","","",""
"","S2","","html-keyboard-response","391","452154","0.0-1.0-526.0","0","0","73092","","null","","","null","58","","NaN","","","","","","","","","","","","","",""
"","response","","html-keyboard-response","392","452640","0.0-1.0-527.0-0.0","0","0","73092","","484","","","68","58","","","2","58","training","adjacent","GF","7","6","R.jpg","P.jpg","1","0","0","",""
"","feedback","","html-keyboard-response","393","453643","0.0-1.0-528.0-0.0","0","0","73092","","null","","","null","58","","","","","","","","","","","","","","","",""
"","time_out","","html-keyboard-response","394","455645","0.0-1.0-530.0-0.0","0","0","73092","","null","","","null","58","","","","","","","","","","","","","","","",""
"","ITI","","html-keyboard-response","395","456648","0.0-1.0-531.0","0","0","73092","","null","","","null","58","","","","","","","","","","","","","","","NaN",""
"","S1","","html-keyboard-response","396","456900","0.0-1.0-533.0","0","0","73092","","null","","","null","59","","","","","","","","","","","","","","","",""
"","ISI","","html-keyboard-response","397","457902","0.0-1.0-534.0","0","0","73092","","null","","","null","59","NaN","","","","","","","","","","","","","","",""
"","S2","","html-keyboard-response","398","458154","0.0-1.0-535.0","0","0","73092","","null","","","null","59","","NaN","","","","","","","","","","","","","",""
"","response","","html-keyboard-response","399","458744","0.0-1.0-536.0-0.0","0","0","73092","","589","","","75","59","","","2","59","training","adjacent","FG","6","7","P.jpg","R.jpg","0","1","0","",""
"","feedback","","html-keyboard-response","400","459747","0.0-1.0-537.0-0.0","0","0","73092","","null","","","null","59","","","","","","","","","","","","","","","",""
"","time_out","","html-keyboard-response","401","461750","0.0-1.0-539.0-0.0","0","0","73092","","null","","","null","59","","","","","","","","","","","","","","","",""
"","ITI","","html-keyboard-response","402","462752","0.0-1.0-540.0","0","0","73092","","null","","","null","59","","","","","","","","","","","","","","","NaN",""
"","S1","","html-keyboard-response","403","463005","0.0-1.0-542.0","0","0","73092","","null","","","null","60","","","","","","","","","","","","","","","",""
"","ISI","","html-keyboard-response","404","464007","0.0-1.0-543.0","0","0","73092","","null","","","null","60","NaN","","","","","","","","","","","","","","",""
"","S2","","html-keyboard-response","405","464259","0.0-1.0-544.0","0","0","73092","","null","","","null","60","","NaN","","","","","","","","","","","","","",""
"","response","","html-keyboard-response","406","464689","0.0-1.0-545.0-0.0","0","0","73092","","428","","","68","60","","","2","60","training","adjacent","FG","6","7","P.jpg","R.jpg","1","1","1","",""
"","feedback","","html-keyboard-response","407","465691","0.0-1.0-546.0-0.0","0","0","73092","","null","","","null","60","","","","","","","","","","","","","","","",""
"","ITI","","html-keyboard-response","408","466693","0.0-1.0-549.0","0","0","73092","","null","","","null","60","","","","","","","","","","","","","","","NaN",""
"","S1","","html-keyboard-response","409","466946","0.0-1.0-551.0","0","0","73092","","null","","","null","61","","","","","","","","","","","","","","","",""
"","ISI","","html-keyboard-response","410","467949","0.0-1.0-552.0","0","0","73092","","null","","","null","61","NaN","","","","","","","","","","","","","","",""
"","S2","","html-keyboard-response","411","468201","0.0-1.0-553.0","0","0","73092","","null","","","null","61","","NaN","","","","","","","","","","","","","",""
"","response","","html-keyboard-response","412","468448","0.0-1.0-554.0-0.0","0","0","73092","","246","","","68","61","","","2","61","training","adjacent","DC","4","3","N.jpg","Q.jpg","1","0","0","",""
"","feedback","","html-keyboard-response","413","469451","0.0-1.0-555.0-0.0","0","0","73092","","null","","","null","61","","","","","","","","","","","","","","","",""
"","time_out","","html-keyboard-response","414","471453","0.0-1.0-557.0-0.0","0","0","73092","","null","","","null","61","","","","","","","","","","","","","","","",""
"","ITI","","html-keyboard-response","415","472456","0.0-1.0-558.0","0","0","73092","","null","","","null","61","","","","","","","","","","","","","","","NaN",""
"","S1","","html-keyboard-response","416","472707","0.0-1.0-560.0","0","0","73092","","null","","","null","62","","","","","","","","","","","","","","","",""
"","ISI","","html-keyboard-response","417","473709","0.0-1.0-561.0","0","0","73092","","null","","","null","62","NaN","","","","","","","","","","","","","","",""
"","S2","","html-keyboard-response","418","473962","0.0-1.0-562.0","0","0","73092","","null","","","null","62","","NaN","","","","","","","","","","","","","",""
"","response","","html-keyboard-response","419","474641","0.0-1.0-563.0-0.0","0","0","73092","","677","","","68","62","","","2","62","training","adjacent","ED","5","4","M.jpg","N.jpg","1","0","0","",""
"","feedback","","html-keyboard-response","420","475644","0.0-1.0-564.0-0.0","0","0","73092","","null","","","null","62","","","","","","","","","","","","","","","",""
"","time_out","","html-keyboard-response","421","477646","0.0-1.0-566.0-0.0","0","0","73092","","null","","","null","62","","","","","","","","","","","","","","","",""
"","ITI","","html-keyboard-response","422","478648","0.0-1.0-567.0","0","0","73092","","null","","","null","62","","","","","","","","","","","","","","","NaN",""
"","S1","","html-keyboard-response","423","478900","0.0-1.0-569.0","0","0","73092","","null","","","null","63","","","","","","","","","","","","","","","",""
"","ISI","","html-keyboard-response","424","479903","0.0-1.0-570.0","0","0","73092","","null","","","null","63","NaN","","","","","","","","","","","","","","",""
"","S2","","html-keyboard-response","425","480155","0.0-1.0-571.0","0","0","73092","","null","","","null","63","","NaN","","","","","","","","","","","","","",""
"","response","","html-keyboard-response","426","481369","0.0-1.0-572.0-0.0","0","0","73092","","1212","","","75","63","","","2","63","training","adjacent","EF","5","6","M.jpg","P.jpg","0","1","0","",""
"","feedback","","html-keyboard-response","427","482371","0.0-1.0-573.0-0.0","0","0","73092","","null","","","null","63","","","","","","","","","","","","","","","",""
"","time_out","","html-keyboard-response","428","484373","0.0-1.0-575.0-0.0","0","0","73092","","null","","","null","63","","","","","","","","","","","","","","","",""
"","ITI","","html-keyboard-response","429","485375","0.0-1.0-576.0","0","0","73092","","null","","","null","63","","","","","","","","","","","","","","","NaN",""
"","S1","","html-keyboard-response","430","485628","0.0-1.0-578.0","0","0","73092","","null","","","null","64","","","","","","","","","","","","","","","",""
"","ISI","","html-keyboard-response","431","486630","0.0-1.0-579.0","0","0","73092","","null","","","null","64","NaN","","","","","","","","","","","","","","",""
"","S2","","html-keyboard-response","432","486882","0.0-1.0-580.0","0","0","73092","","null","","","null","64","","NaN","","","","","","","","","","","","","",""
"","response","","html-keyboard-response","433","487624","0.0-1.0-581.0-0.0","0","0","73092","","741","","","68","64","","","2","64","training","adjacent","BC","2","3","O.jpg","Q.jpg","1","1","1","",""
"","feedback","","html-keyboard-response","434","488626","0.0-1.0-582.0-0.0","0","0","73092","","null","","","null","64","","","","","","","","","","","","","","","",""
"","ITI","","html-keyboard-response","435","489629","0.0-1.0-585.0","0","0","73092","","null","","","null","64","","","","","","","","","","","","","","","NaN",""
"","S1","","html-keyboard-response","436","489881","0.0-1.0-587.0","0","0","73092","","null","","","null","65","","","","","","","","","","","","","","","",""
"","ISI","","html-keyboard-response","437","490883","0.0-1.0-588.0","0","0","73092","","null","","","null","65","NaN","","","","","","","","","","","","","","",""
"","S2","","html-keyboard-response","438","491135","0.0-1.0-589.0","0","0","73092","","null","","","null","65","","NaN","","","","","","","","","","","","","",""
"","response","","html-keyboard-response","439","492168","0.0-1.0-590.0-0.0","0","0","73092","","1032","","","75","65","","","2","65","training","adjacent","EF","5","6","M.jpg","P.jpg","0","1","0","",""
"","feedback","","html-keyboard-response","440","493171","0.0-1.0-591.0-0.0","0","0","73092","","null","","","null","65","","","","","","","","","","","","","","","",""
"","time_out","","html-keyboard-response","441","495173","0.0-1.0-593.0-0.0","0","0","73092","","null","","","null","65","","","","","","","","","","","","","","","",""
"","ITI","","html-keyboard-response","442","496175","0.0-1.0-594.0","0","0","73092","","null","","","null","65","","","","","","","","","","","","","","","NaN",""
"","S1","","html-keyboard-response","443","496427","0.0-1.0-596.0","0","0","73092","","null","","","null","66","","","","","","","","","","","","","","","",""
"","ISI","","html-keyboard-response","444","497429","0.0-1.0-597.0","0","0","73092","","null","","","null","66","NaN","","","","","","","","","","","","","","",""
"","S2","","html-keyboard-response","445","497681","0.0-1.0-598.0","0","0","73092","","null","","","null","66","","NaN","","","","","","","","","","","","","",""
"","response","","html-keyboard-response","446","498768","0.0-1.0-599.0-0.0","0","0","73092","","1085","","","68","66","","","2","66","training","adjacent","ED","5","4","M.jpg","N.jpg","1","0","0","",""
"","feedback","","html-keyboard-response","447","499771","0.0-1.0-600.0-0.0","0","0","73092","","null","","","null","66","","","","","","","","","","","","","","","",""
"","time_out","","html-keyboard-response","448","501773","0.0-1.0-602.0-0.0","0","0","73092","","null","","","null","66","","","","","","","","","","","","","","","",""
"","ITI","","html-keyboard-response","449","502774","0.0-1.0-603.0","0","0","73092","","null","","","null","66","","","","","","","","","","","","","","","NaN",""
"","S1","","html-keyboard-response","450","503027","0.0-1.0-605.0","0","0","73092","","null","","","null","67","","","","","","","","","","","","","","","",""
"","ISI","","html-keyboard-response","451","504029","0.0-1.0-606.0","0","0","73092","","null","","","null","67","NaN","","","","","","","","","","","","","","",""
"","S2","","html-keyboard-response","452","504282","0.0-1.0-607.0","0","0","73092","","null","","","null","67","","NaN","","","","","","","","","","","","","",""
"","response","","html-keyboard-response","453","504968","0.0-1.0-608.0-0.0","0","0","73092","","685","","","68","67","","","2","67","training","adjacent","BC","2","3","O.jpg","Q.jpg","1","1","1","",""
"","feedback","","html-keyboard-response","454","505971","0.0-1.0-609.0-0.0","0","0","73092","","null","","","null","67","","","","","","","","","","","","","","","",""
"","ITI","","html-keyboard-response","455","506973","0.0-1.0-612.0","0","0","73092","","null","","","null","67","","","","","","","","","","","","","","","NaN",""
"","S1","","html-keyboard-response","456","507225","0.0-1.0-614.0","0","0","73092","","null","","","null","68","","","","","","","","","","","","","","","",""
"","ISI","","html-keyboard-response","457","508228","0.0-1.0-615.0","0","0","73092","","null","","","null","68","NaN","","","","","","","","","","","","","","",""
"","S2","","html-keyboard-response","458","508480","0.0-1.0-616.0","0","0","73092","","null","","","null","68","","NaN","","","","","","","","","","","","","",""
"","response","","html-keyboard-response","459","509568","0.0-1.0-617.0-0.0","0","0","73092","","1086","","","75","68","","","2","68","training","adjacent","FE","6","5","P.jpg","M.jpg","0","0","1","",""
"","feedback","","html-keyboard-response","460","510571","0.0-1.0-618.0-0.0","0","0","73092","","null","","","null","68","","","","","","","","","","","","","","","",""
"","ITI","","html-keyboard-response","461","511575","0.0-1.0-621.0","0","0","73092","","null","","","null","68","","","","","","","","","","","","","","","NaN",""
"","S1","","html-keyboard-response","462","511827","0.0-1.0-623.0","0","0","73092","","null","","","null","69","","","","","","","","","","","","","","","",""
"","ISI","","html-keyboard-response","463","512830","0.0-1.0-624.0","0","0","73092","","null","","","null","69","NaN","","","","","","","","","","","","","","",""
"","S2","","html-keyboard-response","464","513082","0.0-1.0-625.0","0","0","73092","","null","","","null","69","","NaN","","","","","","","","","","","","","",""
"","response","","html-keyboard-response","465","513264","0.0-1.0-626.0-0.0","0","0","73092","","180","","","68","69","","","2","69","training","adjacent","DC","4","3","N.jpg","Q.jpg","1","0","0","",""
"","feedback","","html-keyboard-response","466","514267","0.0-1.0-627.0-0.0","0","0","73092","","null","","","null","69","","","","","","","","","","","","","","","",""
"","time_out","","html-keyboard-response","467","516269","0.0-1.0-629.0-0.0","0","0","73092","","null","","","null","69","","","","","","","","","","","","","","","",""
"","ITI","","html-keyboard-response","468","517271","0.0-1.0-630.0","0","0","73092","","null","","","null","69","","","","","","","","","","","","","","","NaN",""
"","S1","","html-keyboard-response","469","517523","0.0-1.0-632.0","0","0","73092","","null","","","null","70","","","","","","","","","","","","","","","",""
"","ISI","","html-keyboard-response","470","518525","0.0-1.0-633.0","0","0","73092","","null","","","null","70","NaN","","","","","","","","","","","","","","",""
"","S2","","html-keyboard-response","471","518778","0.0-1.0-634.0","0","0","73092","","null","","","null","70","","NaN","","","","","","","","","","","","","",""
"","response","","html-keyboard-response","472","519760","0.0-1.0-635.0-0.0","0","0","73092","","981","","","68","70","","","2","70","training","adjacent","ED","5","4","M.jpg","N.jpg","1","0","0","",""
"","feedback","","html-keyboard-response","473","520763","0.0-1.0-636.0-0.0","0","0","73092","","null","","","null","70","","","","","","","","","","","","","","","",""
"","time_out","","html-keyboard-response","474","522764","0.0-1.0-638.0-0.0","0","0","73092","","null","","","null","70","","","","","","","","","","","","","","","",""
"","ITI","","html-keyboard-response","475","523766","0.0-1.0-639.0","0","0","73092","","null","","","null","70","","","","","","","","","","","","","","","NaN",""
"","S1","","html-keyboard-response","476","524019","0.0-1.0-641.0","0","0","73092","","null","","","null","71","","","","","","","","","","","","","","","",""
"","ISI","","html-keyboard-response","477","525021","0.0-1.0-642.0","0","0","73092","","null","","","null","71","NaN","","","","","","","","","","","","","","",""
"","S2","","html-keyboard-response","478","525273","0.0-1.0-643.0","0","0","73092","","null","","","null","71","","NaN","","","","","","","","","","","","","",""
"","response","","html-keyboard-response","479","526008","0.0-1.0-644.0-0.0","0","0","73092","","734","","","68","71","","","2","71","training","adjacent","GF","7","6","R.jpg","P.jpg","1","0","0","",""
"","feedback","","html-keyboard-response","480","527011","0.0-1.0-645.0-0.0","0","0","73092","","null","","","null","71","","","","","","","","","","","","","","","",""
"","time_out","","html-keyboard-response","481","529013","0.0-1.0-647.0-0.0","0","0","73092","","null","","","null","71","","","","","","","","","","","","","","","",""
"","ITI","","html-keyboard-response","482","530016","0.0-1.0-648.0","0","0","73092","","null","","","null","71","","","","","","","","","","","","","","","NaN",""
"","S1","","html-keyboard-response","483","530268","0.0-1.0-650.0","0","0","73092","","null","","","null","72","","","","","","","","","","","","","","","",""
"","ISI","","html-keyboard-response","484","531271","0.0-1.0-651.0","0","0","73092","","null","","","null","72","NaN","","","","","","","","","","","","","","",""
"","S2","","html-keyboard-response","485","531523","0.0-1.0-652.0","0","0","73092","","null","","","null","72","","NaN","","","","","","","","","","","","","",""
"","response","","html-keyboard-response","486","532017","0.0-1.0-653.0-0.0","0","0","73092","","492","","","75","72","","","2","72","training","adjacent","ED","5","4","M.jpg","N.jpg","0","0","1","",""
"","feedback","","html-keyboard-response","487","533020","0.0-1.0-654.0-0.0","0","0","73092","","null","","","null","72","","","","","","","","","","","","","","","",""
"","ITI","","html-keyboard-response","488","534022","0.0-1.0-657.0","0","0","73092","","null","","","null","72","","","","","","","","","","","","","","","NaN",""
"","S1","","html-keyboard-response","489","534274","0.0-1.0-659.0","0","0","73092","","null","","","null","73","","","","","","","","","","","","","","","",""
"","ISI","","html-keyboard-response","490","535276","0.0-1.0-660.0","0","0","73092","","null","","","null","73","NaN","","","","","","","","","","","","","","",""
"","S2","","html-keyboard-response","491","535528","0.0-1.0-661.0","0","0","73092","","null","","","null","73","","NaN","","","","","","","","","","","","","",""
"","response","","html-keyboard-response","492","535880","0.0-1.0-662.0-0.0","0","0","73092","","351","","","68","73","","","2","73","training","adjacent","CB","3","2","Q.jpg","O.jpg","1","0","0","",""
"","feedback","","html-keyboard-response","493","536883","0.0-1.0-663.0-0.0","0","0","73092","","null","","","null","73","","","","","","","","","","","","","","","",""
"","time_out","","html-keyboard-response","494","538884","0.0-1.0-665.0-0.0","0","0","73092","","null","","","null","73","","","","","","","","","","","","","","","",""
"","ITI","","html-keyboard-response","495","539887","0.0-1.0-666.0","0","0","73092","","null","","","null","73","","","","","","","","","","","","","","","NaN",""
"","S1","","html-keyboard-response","496","540139","0.0-1.0-668.0","0","0","73092","","null","","","null","74","","","","","","","","","","","","","","","",""
"","ISI","","html-keyboard-response","497","541141","0.0-1.0-669.0","0","0","73092","","null","","","null","74","NaN","","","","","","","","","","","","","","",""
"","S2","","html-keyboard-response","498","541394","0.0-1.0-670.0","0","0","73092","","null","","","null","74","","NaN","","","","","","","","","","","","","",""
"","response","","html-keyboard-response","499","541681","0.0-1.0-671.0-0.0","0","0","73092","","285","","","75","74","","","2","74","training","adjacent","GF","7","6","R.jpg","P.jpg","0","0","1","",""
"","feedback","","html-keyboard-response","500","542683","0.0-1.0-672.0-0.0","0","0","73092","","null","","","null","74","","","","","","","","","","","","","","","",""
"","ITI","","html-keyboard-response","501","543686","0.0-1.0-675.0","0","0","73092","","null","","","null","74","","","","","","","","","","","","","","","NaN",""
"","S1","","html-keyboard-response","502","543938","0.0-1.0-677.0","0","0","73092","","null","","","null","75","","","","","","","","","","","","","","","",""
"","ISI","","html-keyboard-response","503","544940","0.0-1.0-678.0","0","0","73092","","null","","","null","75","NaN","","","","","","","","","","","","","","",""
"","S2","","html-keyboard-response","504","545193","0.0-1.0-679.0","0","0","73092","","null","","","null","75","","NaN","","","","","","","","","","","","","",""
"","response","","html-keyboard-response","505","545552","0.0-1.0-680.0-0.0","0","0","73092","","357","","","75","75","","","2","75","training","adjacent","CB","3","2","Q.jpg","O.jpg","0","0","1","",""
"","feedback","","html-keyboard-response","506","546555","0.0-1.0-681.0-0.0","0","0","73092","","null","","","null","75","","","","","","","","","","","","","","","",""
"","ITI","","html-keyboard-response","507","547557","0.0-1.0-684.0","0","0","73092","","null","","","null","75","","","","","","","","","","","","","","","NaN",""
"","S1","","html-keyboard-response","508","547809","0.0-1.0-686.0","0","0","73092","","null","","","null","76","","","","","","","","","","","","","","","",""
"","ISI","","html-keyboard-response","509","548811","0.0-1.0-687.0","0","0","73092","","null","","","null","76","NaN","","","","","","","","","","","","","","",""
"","S2","","html-keyboard-response","510","549064","0.0-1.0-688.0","0","0","73092","","null","","","null","76","","NaN","","","","","","","","","","","","","",""
"","response","","html-keyboard-response","511","549634","0.0-1.0-689.0-0.0","0","0","73092","","569","","","68","76","","","2","76","training","adjacent","FE","6","5","P.jpg","M.jpg","1","0","0","",""
"","feedback","","html-keyboard-response","512","550636","0.0-1.0-690.0-0.0","0","0","73092","","null","","","null","76","","","","","","","","","","","","","","","",""
"","time_out","","html-keyboard-response","513","552638","0.0-1.0-692.0-0.0","0","0","73092","","null","","","null","76","","","","","","","","","","","","","","","",""
"","ITI","","html-keyboard-response","514","553641","0.0-1.0-693.0","0","0","73092","","null","","","null","76","","","","","","","","","","","","","","","NaN",""
"","S1","","html-keyboard-response","515","553893","0.0-1.0-695.0","0","0","73092","","null","","","null","77","","","","","","","","","","","","","","","",""
"","ISI","","html-keyboard-response","516","554895","0.0-1.0-696.0","0","0","73092","","null","","","null","77","NaN","","","","","","","","","","","","","","",""
"","S2","","html-keyboard-response","517","555147","0.0-1.0-697.0","0","0","73092","","null","","","null","77","","NaN","","","","","","","","","","","","","",""
"","response","","html-keyboard-response","518","555520","0.0-1.0-698.0-0.0","0","0","73092","","371","","","75","77","","","2","77","training","adjacent","GF","7","6","R.jpg","P.jpg","0","0","1","",""
"","feedback","","html-keyboard-response","519","556528","0.0-1.0-699.0-0.0","0","0","73092","","null","","","null","77","","","","","","","","","","","","","","","",""
"","ITI","","html-keyboard-response","520","557529","0.0-1.0-702.0","0","0","73092","","null","","","null","77","","","","","","","","","","","","","","","NaN",""
"","S1","","html-keyboard-response","521","557782","0.0-1.0-704.0","0","0","73092","","null","","","null","78","","","","","","","","","","","","","","","",""
"","ISI","","html-keyboard-response","522","558785","0.0-1.0-705.0","0","0","73092","","null","","","null","78","NaN","","","","","","","","","","","","","","",""
"","S2","","html-keyboard-response","523","559037","0.0-1.0-706.0","0","0","73092","","null","","","null","78","","NaN","","","","","","","","","","","","","",""
"","response","","html-keyboard-response","524","559929","0.0-1.0-707.0-0.0","0","0","73092","","891","","","68","78","","","2","78","training","adjacent","DE","4","5","N.jpg","M.jpg","1","1","1","",""
"","feedback","","html-keyboard-response","525","560931","0.0-1.0-708.0-0.0","0","0","73092","","null","","","null","78","","","","","","","","","","","","","","","",""
"","ITI","","html-keyboard-response","526","561934","0.0-1.0-711.0","0","0","73092","","null","","","null","78","","","","","","","","","","","","","","","NaN",""
"","S1","","html-keyboard-response","527","562187","0.0-1.0-713.0","0","0","73092","","null","","","null","79","","","","","","","","","","","","","","","",""
"","ISI","","html-keyboard-response","528","563188","0.0-1.0-714.0","0","0","73092","","null","","","null","79","NaN","","","","","","","","","","","","","","",""
"","S2","","html-keyboard-response","529","563441","0.0-1.0-715.0","0","0","73092","","null","","","null","79","","NaN","","","","","","","","","","","","","",""
"","response","","html-keyboard-response","530","563817","0.0-1.0-716.0-0.0","0","0","73092","","375","","","68","79","","","2","79","training","adjacent","FE","6","5","P.jpg","M.jpg","1","0","0","",""
"","feedback","","html-keyboard-response","531","564819","0.0-1.0-717.0-0.0","0","0","73092","","null","","","null","79","","","","","","","","","","","","","","","",""
"","time_out","","html-keyboard-response","532","566821","0.0-1.0-719.0-0.0","0","0","73092","","null","","","null","79","","","","","","","","","","","","","","","",""
"","ITI","","html-keyboard-response","533","567822","0.0-1.0-720.0","0","0","73092","","null","","","null","79","","","","","","","","","","","","","","","NaN",""
"","S1","","html-keyboard-response","534","568074","0.0-1.0-722.0","0","0","73092","","null","","","null","80","","","","","","","","","","","","","","","",""
"","ISI","","html-keyboard-response","535","569076","0.0-1.0-723.0","0","0","73092","","null","","","null","80","NaN","","","","","","","","","","","","","","",""
"","S2","","html-keyboard-response","536","569329","0.0-1.0-724.0","0","0","73092","","null","","","null","80","","NaN","","","","","","","","","","","","","",""
"","response","","html-keyboard-response","537","570025","0.0-1.0-725.0-0.0","0","0","73092","","695","","","68","80","","","2","80","training","adjacent","CD","3","4","Q.jpg","N.jpg","1","1","1","",""
"","feedback","","html-keyboard-response","538","571027","0.0-1.0-726.0-0.0","0","0","73092","","null","","","null","80","","","","","","","","","","","","","","","",""
"","ITI","","html-keyboard-response","539","572030","0.0-1.0-729.0","0","0","73092","","null","","","null","80","","","","","","","","","","","","","","","NaN",""
"","S1","","html-keyboard-response","540","572282","0.0-1.0-731.0","0","0","73092","","null","","","null","81","","","","","","","","","","","","","","","",""
"","ISI","","html-keyboard-response","541","573284","0.0-1.0-732.0","0","0","73092","","null","","","null","81","NaN","","","","","","","","","","","","","","",""
"","S2","","html-keyboard-response","542","573537","0.0-1.0-733.0","0","0","73092","","null","","","null","81","","NaN","","","","","","","","","","","","","",""
"","response","","html-keyboard-response","543","574128","0.0-1.0-734.0-0.0","0","0","73092","","590","","","75","81","","","2","81","training","adjacent","AB","1","2","L.jpg","O.jpg","0","1","0","",""
"","feedback","","html-keyboard-response","544","575131","0.0-1.0-735.0-0.0","0","0","73092","","null","","","null","81","","","","","","","","","","","","","","","",""
"","time_out","","html-keyboard-response","545","577134","0.0-1.0-737.0-0.0","0","0","73092","","null","","","null","81","","","","","","","","","","","","","","","",""
"","ITI","","html-keyboard-response","546","578136","0.0-1.0-738.0","0","0","73092","","null","","","null","81","","","","","","","","","","","","","","","NaN",""
"","S1","","html-keyboard-response","547","578389","0.0-1.0-740.0","0","0","73092","","null","","","null","82","","","","","","","","","","","","","","","",""
"","ISI","","html-keyboard-response","548","579392","0.0-1.0-741.0","0","0","73092","","null","","","null","82","NaN","","","","","","","","","","","","","","",""
"","S2","","html-keyboard-response","549","579645","0.0-1.0-742.0","0","0","73092","","null","","","null","82","","NaN","","","","","","","","","","","","","",""
"","response","","html-keyboard-response","550","579985","0.0-1.0-743.0-0.0","0","0","73092","","339","","","75","82","","","2","82","training","adjacent","CD","3","4","Q.jpg","N.jpg","0","1","0","",""
"","feedback","","html-keyboard-response","551","580987","0.0-1.0-744.0-0.0","0","0","73092","","null","","","null","82","","","","","","","","","","","","","","","",""
"","time_out","","html-keyboard-response","552","582990","0.0-1.0-746.0-0.0","0","0","73092","","null","","","null","82","","","","","","","","","","","","","","","",""
"","ITI","","html-keyboard-response","553","583992","0.0-1.0-747.0","0","0","73092","","null","","","null","82","","","","","","","","","","","","","","","NaN",""
"","S1","","html-keyboard-response","554","584243","0.0-1.0-749.0","0","0","73092","","null","","","null","83","","","","","","","","","","","","","","","",""
"","ISI","","html-keyboard-response","555","585245","0.0-1.0-750.0","0","0","73092","","null","","","null","83","NaN","","","","","","","","","","","","","","",""
"","S2","","html-keyboard-response","556","585497","0.0-1.0-751.0","0","0","73092","","null","","","null","83","","NaN","","","","","","","","","","","","","",""
"","response","","html-keyboard-response","557","586192","0.0-1.0-752.0-0.0","0","0","73092","","694","","","68","83","","","2","83","training","adjacent","DE","4","5","N.jpg","M.jpg","1","1","1","",""
"","feedback","","html-keyboard-response","558","587195","0.0-1.0-753.0-0.0","0","0","73092","","null","","","null","83","","","","","","","","","","","","","","","",""
"","ITI","","html-keyboard-response","559","588197","0.0-1.0-756.0","0","0","73092","","null","","","null","83","","","","","","","","","","","","","","","NaN",""
"","S1","","html-keyboard-response","560","588449","0.0-1.0-758.0","0","0","73092","","null","","","null","84","","","","","","","","","","","","","","","",""
"","ISI","","html-keyboard-response","561","589451","0.0-1.0-759.0","0","0","73092","","null","","","null","84","NaN","","","","","","","","","","","","","","",""
"","S2","","html-keyboard-response","562","589704","0.0-1.0-760.0","0","0","73092","","null","","","null","84","","NaN","","","","","","","","","","","","","",""
"","response","","html-keyboard-response","563","590200","0.0-1.0-761.0-0.0","0","0","73092","","495","","","68","84","","","2","84","training","adjacent","FG","6","7","P.jpg","R.jpg","1","1","1","",""
"","feedback","","html-keyboard-response","564","591203","0.0-1.0-762.0-0.0","0","0","73092","","null","","","null","84","","","","","","","","","","","","","","","",""
"","ITI","","html-keyboard-response","565","592206","0.0-1.0-765.0","0","0","73092","","null","","","null","84","","","","","","","","","","","","","","","NaN",""
"","S1","","html-keyboard-response","566","592458","0.0-1.0-767.0","0","0","73092","","null","","","null","85","","","","","","","","","","","","","","","",""
"","ISI","","html-keyboard-response","567","593460","0.0-1.0-768.0","0","0","73092","","null","","","null","85","NaN","","","","","","","","","","","","","","",""
"","S2","","html-keyboard-response","568","593712","0.0-1.0-769.0","0","0","73092","","null","","","null","85","","NaN","","","","","","","","","","","","","",""
"","response","","html-keyboard-response","569","594360","0.0-1.0-770.0-0.0","0","0","73092","","647","","","75","85","","","2","85","training","adjacent","BA","2","1","O.jpg","L.jpg","0","0","1","",""
"","feedback","","html-keyboard-response","570","595363","0.0-1.0-771.0-0.0","0","0","73092","","null","","","null","85","","","","","","","","","","","","","","","",""
"","ITI","","html-keyboard-response","571","596365","0.0-1.0-774.0","0","0","73092","","null","","","null","85","","","","","","","","","","","","","","","NaN",""
"","S1","","html-keyboard-response","572","596618","0.0-1.0-776.0","0","0","73092","","null","","","null","86","","","","","","","","","","","","","","","",""
"","ISI","","html-keyboard-response","573","597620","0.0-1.0-777.0","0","0","73092","","null","","","null","86","NaN","","","","","","","","","","","","","","",""
"","S2","","html-keyboard-response","574","597872","0.0-1.0-778.0","0","0","73092","","null","","","null","86","","NaN","","","","","","","","","","","","","",""
"","response","","html-keyboard-response","575","598856","0.0-1.0-779.0-0.0","0","0","73092","","982","","","68","86","","","2","86","training","adjacent","DE","4","5","N.jpg","M.jpg","1","1","1","",""
"","feedback","","html-keyboard-response","576","599859","0.0-1.0-780.0-0.0","0","0","73092","","null","","","null","86","","","","","","","","","","","","","","","",""
"","ITI","","html-keyboard-response","577","600861","0.0-1.0-783.0","0","0","73092","","null","","","null","86","","","","","","","","","","","","","","","NaN",""
"","S1","","html-keyboard-response","578","601113","0.0-1.0-785.0","0","0","73092","","null","","","null","87","","","","","","","","","","","","","","","",""
"","ISI","","html-keyboard-response","579","602115","0.0-1.0-786.0","0","0","73092","","null","","","null","87","NaN","","","","","","","","","","","","","","",""
"","S2","","html-keyboard-response","580","602368","0.0-1.0-787.0","0","0","73092","","null","","","null","87","","NaN","","","","","","","","","","","","","",""
