"success","ttype","start_time","trial_type","trial_index","time_elapsed","internal_node_id","warning","missed_checkup","PID","view_history","rt","responses","repeat_instructions","key_press","index","keypress_isi","keypress_S2","block","trial_num","phase","group_type","pair_type","S1_stim","S2_stim","S1_img","S2_img","S1_chosen","S1_higher","accuracy","keypress_iti","total_bonus_tally"
"true","full_screen","d04132023hr1719","fullscreen","0","32977","0.0-0.0","0","0","90802","","","","","","","","","","","","","","","","","","","","","",""
"","instructions","","instructions","1","110629","0.0-1.0-0.0-0.0","0","0","90802","[{""page_index"":0,""viewing_time"":8157},{""page_index"":1,""viewing_time"":46104},{""page_index"":2,""viewing_time"":18701},{""page_index"":3,""viewing_time"":4684}]","77649","","","","","","","","","","","","","","","","","","","",""
"","comprehension_check","","survey-multi-choice","2","152410","0.0-1.0-0.0-1.0","0","0","90802","","41737","{""Q0"":""True"",""Q1"":""D"",""Q2"":""Once the second image appears and while the screen 'MAKE A CHOICE' is shown"",""Q3"":""Green mark"",""Q4"":""either D or K""}","0","","","","","","","","","","","","","","","","","",""
"","start_exp","","html-keyboard-response","3","157576","0.0-1.0-1.0","0","0","90802","","5151","","","32","","","","","","","","","","","","","","","","",""
"","S1","","html-keyboard-response","4","157842","0.0-1.0-2.0","0","0","90802","","null","","","null","0","","","","","","","","","","","","","","","",""
"","ISI","","html-keyboard-response","5","158852","0.0-1.0-3.0","0","0","90802","","null","","","null","0","NaN","","","","","","","","","","","","","","",""
"","S2","","html-keyboard-response","6","159114","0.0-1.0-4.0","0","0","90802","","null","","","null","0","","NaN","","","","","","","","","","","","","",""
"","response","","html-keyboard-response","7","160190","0.0-1.0-5.0-0.0","0","0","90802","","1073","","","68","0","","","1","0","training","adjacent","FE","6","5","R.jpg","Q.jpg","1","0","0","",""
"","feedback","","html-keyboard-response","8","161202","0.0-1.0-6.0-0.0","0","0","90802","","null","","","null","0","","","","","","","","","","","","","","","",""
"","time_out","","html-keyboard-response","9","163212","0.0-1.0-8.0-0.0","0","0","90802","","null","","","null","0","","","","","","","","","","","","","","","",""
"","ITI","","html-keyboard-response","10","164216","0.0-1.0-9.0","0","0","90802","","null","","","null","0","","","","","","","","","","","","","","","NaN",""
"","S1","","html-keyboard-response","11","164473","0.0-1.0-11.0","0","0","90802","","null","","","null","1","","","","","","","","","","","","","","","",""
"","ISI","","html-keyboard-response","12","165481","0.0-1.0-12.0","0","0","90802","","null","","","null","1","NaN","","","","","","","","","","","","","","",""
"","S2","","html-keyboard-response","13","165737","0.0-1.0-13.0","0","0","90802","","null","","","null","1","","NaN","","","","","","","","","","","","","",""
"","response","","html-keyboard-response","14","165952","0.0-1.0-14.0-0.0","0","0","90802","","214","","","75","1","","","1","1","training","adjacent","EF","5","6","Q.jpg","R.jpg","0","1","0","",""
"","feedback","","html-keyboard-response","15","166961","0.0-1.0-15.0-0.0","0","0","90802","","null","","","null","1","","","","","","","","","","","","","","","",""
"","time_out","","html-keyboard-response","16","168970","0.0-1.0-17.0-0.0","0","0","90802","","null","","","null","1","","","","","","","","","","","","","","","",""
"","ITI","","html-keyboard-response","17","169980","0.0-1.0-18.0","0","0","90802","","null","","","null","1","","","","","","","","","","","","","","","NaN",""
"","S1","","html-keyboard-response","18","170242","0.0-1.0-20.0","0","0","90802","","null","","","null","2","","","","","","","","","","","","","","","",""
"","ISI","","html-keyboard-response","19","171251","0.0-1.0-21.0","0","0","90802","","null","","","null","2","NaN","","","","","","","","","","","","","","",""
"","S2","","html-keyboard-response","20","171512","0.0-1.0-22.0","0","0","90802","","null","","","null","2","","NaN","","","","","","","","","","","","","",""
"","response","","html-keyboard-response","21","171907","0.0-1.0-23.0-0.0","0","0","90802","","392","","","68","2","","","1","2","training","adjacent","DC","4","3","P.jpg","M.jpg","1","0","0","",""
"","feedback","","html-keyboard-response","22","172915","0.0-1.0-24.0-0.0","0","0","90802","","null","","","null","2","","","","","","","","","","","","","","","",""
"","time_out","","html-keyboard-response","23","174921","0.0-1.0-26.0-0.0","0","0","90802","","null","","","null","2","","","","","","","","","","","","","","","",""
"","ITI","","html-keyboard-response","24","175930","0.0-1.0-27.0","0","0","90802","","null","","","null","2","","","","","","","","","","","","","","","NaN",""
"","S1","","html-keyboard-response","25","176185","0.0-1.0-29.0","0","0","90802","","null","","","null","3","","","","","","","","","","","","","","","",""
"","ISI","","html-keyboard-response","26","177195","0.0-1.0-30.0","0","0","90802","","null","","","null","3","NaN","","","","","","","","","","","","","","",""
"","S2","","html-keyboard-response","27","177458","0.0-1.0-31.0","0","0","90802","","null","","","null","3","","NaN","","","","","","","","","","","","","",""
"","response","","html-keyboard-response","28","177629","0.0-1.0-32.0-0.0","0","0","90802","","169","","","68","3","","","1","3","training","adjacent","ED","5","4","Q.jpg","P.jpg","1","0","0","",""
"","feedback","","html-keyboard-response","29","178642","0.0-1.0-33.0-0.0","0","0","90802","","null","","","null","3","","","","","","","","","","","","","","","",""
"","time_out","","html-keyboard-response","30","180649","0.0-1.0-35.0-0.0","0","0","90802","","null","","","null","3","","","","","","","","","","","","","","","",""
"","ITI","","html-keyboard-response","31","181660","0.0-1.0-36.0","0","0","90802","","null","","","null","3","","","","","","","","","","","","","","","NaN",""
"","S1","","html-keyboard-response","32","181921","0.0-1.0-38.0","0","0","90802","","null","","","null","4","","","","","","","","","","","","","","","",""
"","ISI","","html-keyboard-response","33","182931","0.0-1.0-39.0","0","0","90802","","null","","","null","4","NaN","","","","","","","","","","","","","","",""
"","S2","","html-keyboard-response","34","183185","0.0-1.0-40.0","0","0","90802","","null","","","null","4","","NaN","","","","","","","","","","","","","",""
"","response","","html-keyboard-response","35","183749","0.0-1.0-41.0-0.0","0","0","90802","","562","","","75","4","","","1","4","training","adjacent","CD","3","4","M.jpg","P.jpg","0","1","0","",""
"","feedback","","html-keyboard-response","36","184755","0.0-1.0-42.0-0.0","0","0","90802","","null","","","null","4","","","","","","","","","","","","","","","",""
"","time_out","","html-keyboard-response","37","186762","0.0-1.0-44.0-0.0","0","0","90802","","null","","","null","4","","","","","","","","","","","","","","","",""
"","ITI","","html-keyboard-response","38","187772","0.0-1.0-45.0","0","0","90802","","null","","","null","4","","","","","","","","","","","","","","","NaN",""
"","S1","","html-keyboard-response","39","188033","0.0-1.0-47.0","0","0","90802","","null","","","null","5","","","","","","","","","","","","","","","",""
"","ISI","","html-keyboard-response","40","189043","0.0-1.0-48.0","0","0","90802","","null","","","null","5","NaN","","","","","","","","","","","","","","",""
"","S2","","html-keyboard-response","41","189298","0.0-1.0-49.0","0","0","90802","","null","","","null","5","","NaN","","","","","","","","","","","","","",""
"","response","","html-keyboard-response","42","189959","0.0-1.0-50.0-0.0","0","0","90802","","659","","","75","5","","","1","5","training","adjacent","BC","2","3","O.jpg","M.jpg","0","1","0","",""
"","feedback","","html-keyboard-response","43","190971","0.0-1.0-51.0-0.0","0","0","90802","","null","","","null","5","","","","","","","","","","","","","","","",""
"","time_out","","html-keyboard-response","44","192980","0.0-1.0-53.0-0.0","0","0","90802","","null","","","null","5","","","","","","","","","","","","","","","",""
"","ITI","","html-keyboard-response","45","193984","0.0-1.0-54.0","0","0","90802","","null","","","null","5","","","","","","","","","","","","","","","NaN",""
"","S1","","html-keyboard-response","46","194243","0.0-1.0-56.0","0","0","90802","","null","","","null","6","","","","","","","","","","","","","","","",""
"","ISI","","html-keyboard-response","47","195252","0.0-1.0-57.0","0","0","90802","","null","","","null","6","NaN","","","","","","","","","","","","","","",""
"","S2","","html-keyboard-response","48","195517","0.0-1.0-58.0","0","0","90802","","null","","","null","6","","NaN","","","","","","","","","","","","","",""
"","response","","html-keyboard-response","49","196200","0.0-1.0-59.0-0.0","0","0","90802","","681","","","75","6","","","1","6","training","adjacent","FE","6","5","R.jpg","Q.jpg","0","0","1","",""
"","feedback","","html-keyboard-response","50","197211","0.0-1.0-60.0-0.0","0","0","90802","","null","","","null","6","","","","","","","","","","","","","","","",""
"","ITI","","html-keyboard-response","51","198218","0.0-1.0-63.0","0","0","90802","","null","","","null","6","","","","","","","","","","","","","","","NaN",""
"","S1","","html-keyboard-response","52","198476","0.0-1.0-65.0","0","0","90802","","null","","","null","7","","","","","","","","","","","","","","","",""
"","ISI","","html-keyboard-response","53","199482","0.0-1.0-66.0","0","0","90802","","null","","","null","7","NaN","","","","","","","","","","","","","","",""
"","S2","","html-keyboard-response","54","199737","0.0-1.0-67.0","0","0","90802","","null","","","null","7","","NaN","","","","","","","","","","","","","",""
"","response","","html-keyboard-response","55","200373","0.0-1.0-68.0-0.0","0","0","90802","","634","","","68","7","","","1","7","training","adjacent","CD","3","4","M.jpg","P.jpg","1","1","1","",""
"","feedback","","html-keyboard-response","56","201379","0.0-1.0-69.0-0.0","0","0","90802","","null","","","null","7","","","","","","","","","","","","","","","",""
"","ITI","","html-keyboard-response","57","202385","0.0-1.0-72.0","0","0","90802","","null","","","null","7","","","","","","","","","","","","","","","NaN",""
"","S1","","html-keyboard-response","58","202645","0.0-1.0-74.0","0","0","90802","","null","","","null","8","","","","","","","","","","","","","","","",""
"","ISI","","html-keyboard-response","59","203649","0.0-1.0-75.0","0","0","90802","","null","","","null","8","NaN","","","","","","","","","","","","","","",""
"","S2","","html-keyboard-response","60","203904","0.0-1.0-76.0","0","0","90802","","null","","","null","8","","NaN","","","","","","","","","","","","","",""
"","response","","html-keyboard-response","61","204339","0.0-1.0-77.0-0.0","0","0","90802","","431","","","68","8","","","1","8","training","adjacent","BC","2","3","O.jpg","M.jpg","1","1","1","",""
"","feedback","","html-keyboard-response","62","205345","0.0-1.0-78.0-0.0","0","0","90802","","null","","","null","8","","","","","","","","","","","","","","","",""
"","ITI","","html-keyboard-response","63","206354","0.0-1.0-81.0","0","0","90802","","null","","","null","8","","","","","","","","","","","","","","","NaN",""
"","S1","","html-keyboard-response","64","206609","0.0-1.0-83.0","0","0","90802","","null","","","null","9","","","","","","","","","","","","","","","",""
"","ISI","","html-keyboard-response","65","207620","0.0-1.0-84.0","0","0","90802","","null","","","null","9","NaN","","","","","","","","","","","","","","",""
"","S2","","html-keyboard-response","66","207882","0.0-1.0-85.0","0","0","90802","","null","","","null","9","","NaN","","","","","","","","","","","","","",""
"","response","","html-keyboard-response","67","208057","0.0-1.0-86.0-0.0","0","0","90802","","172","","","68","9","","","1","9","training","adjacent","EF","5","6","Q.jpg","R.jpg","1","1","1","",""
"","feedback","","html-keyboard-response","68","209065","0.0-1.0-87.0-0.0","0","0","90802","","null","","","null","9","","","","","","","","","","","","","","","",""
"","ITI","","html-keyboard-response","69","210076","0.0-1.0-90.0","0","0","90802","","null","","","null","9","","","","","","","","","","","","","","","NaN",""
"","S1","","html-keyboard-response","70","210337","0.0-1.0-92.0","0","0","90802","","null","","","null","10","","","","","","","","","","","","","","","",""
"","ISI","","html-keyboard-response","71","211347","0.0-1.0-93.0","0","0","90802","","null","","","null","10","NaN","","","","","","","","","","","","","","",""
"","S2","","html-keyboard-response","72","211602","0.0-1.0-94.0","0","0","90802","","null","","","null","10","","NaN","","","","","","","","","","","","","",""
"","response","","html-keyboard-response","73","212038","0.0-1.0-95.0-0.0","0","0","90802","","434","","","68","10","","","1","10","training","adjacent","CB","3","2","M.jpg","O.jpg","1","0","0","",""
"","feedback","","html-keyboard-response","74","213050","0.0-1.0-96.0-0.0","0","0","90802","","null","","","null","10","","","","","","","","","","","","","","","",""
"","time_out","","html-keyboard-response","75","215058","0.0-1.0-98.0-0.0","0","0","90802","","null","","","null","10","","","","","","","","","","","","","","","",""
"","ITI","","html-keyboard-response","76","216066","0.0-1.0-99.0","0","0","90802","","null","","","null","10","","","","","","","","","","","","","","","NaN",""
"","S1","","html-keyboard-response","77","216321","0.0-1.0-101.0","0","0","90802","","null","","","null","11","","","","","","","","","","","","","","","",""
"","ISI","","html-keyboard-response","78","217331","0.0-1.0-102.0","0","0","90802","","null","","","null","11","NaN","","","","","","","","","","","","","","",""
"","S2","","html-keyboard-response","79","217586","0.0-1.0-103.0","0","0","90802","","252","","","75","11","","k","1","11","training","adjacent","FE","6","5","R.jpg","Q.jpg","0","0","1","",""
"","feedback","","html-keyboard-response","80","218603","0.0-1.0-105.0-0.0","0","0","90802","","null","","","null","11","","","","","","","","","","","","","","","",""
"","ITI","","html-keyboard-response","81","219608","0.0-1.0-108.0","0","0","90802","","null","","","null","11","","","","","","","","","","","","","","","NaN",""
"","S1","","html-keyboard-response","82","219868","0.0-1.0-110.0","0","0","90802","","null","","","null","12","","","","","","","","","","","","","","","",""
"","ISI","","html-keyboard-response","83","220873","0.0-1.0-111.0","0","0","90802","","null","","","null","12","NaN","","","","","","","","","","","","","","",""
"","S2","","html-keyboard-response","84","221128","0.0-1.0-112.0","0","0","90802","","null","","","null","12","","NaN","","","","","","","","","","","","","",""
"","response","","html-keyboard-response","85","221453","0.0-1.0-113.0-0.0","0","0","90802","","323","","","68","12","","","1","12","training","adjacent","CD","3","4","M.jpg","P.jpg","1","1","1","",""
"","feedback","","html-keyboard-response","86","222464","0.0-1.0-114.0-0.0","0","0","90802","","null","","","null","12","","","","","","","","","","","","","","","",""
"","ITI","","html-keyboard-response","87","223473","0.0-1.0-117.0","0","0","90802","","null","","","null","12","","","","","","","","","","","","","","","NaN",""
"","S1","","html-keyboard-response","88","223728","0.0-1.0-119.0","0","0","90802","","null","","","null","13","","","","","","","","","","","","","","","",""
"","ISI","","html-keyboard-response","89","224739","0.0-1.0-120.0","0","0","90802","","null","","","null","13","NaN","","","","","","","","","","","","","","",""
"","S2","","html-keyboard-response","90","224996","0.0-1.0-121.0","0","0","90802","","null","","","null","13","","NaN","","","","","","","","","","","","","",""
"","response","","html-keyboard-response","91","225196","0.0-1.0-122.0-0.0","0","0","90802","","197","","","75","13","","","1","13","training","adjacent","AB","1","2","L.jpg","O.jpg","0","1","0","",""
"","feedback","","html-keyboard-response","92","226201","0.0-1.0-123.0-0.0","0","0","90802","","null","","","null","13","","","","","","","","","","","","","","","",""
"","time_out","","html-keyboard-response","93","228210","0.0-1.0-125.0-0.0","0","0","90802","","null","","","null","13","","","","","","","","","","","","","","","",""
"","ITI","","html-keyboard-response","94","229220","0.0-1.0-126.0","0","0","90802","","null","","","null","13","","","","","","","","","","","","","","","NaN",""
"","S1","","html-keyboard-response","95","229481","0.0-1.0-128.0","0","0","90802","","null","","","null","14","","","","","","","","","","","","","","","",""
"","ISI","","html-keyboard-response","96","230491","0.0-1.0-129.0","0","0","90802","","null","","","null","14","NaN","","","","","","","","","","","","","","",""
"","S2","","html-keyboard-response","97","230752","0.0-1.0-130.0","0","0","90802","","null","","","null","14","","NaN","","","","","","","","","","","","","",""
"","response","","html-keyboard-response","98","231183","0.0-1.0-131.0-0.0","0","0","90802","","428","","","68","14","","","1","14","training","adjacent","BC","2","3","O.jpg","M.jpg","1","1","1","",""
"","feedback","","html-keyboard-response","99","232193","0.0-1.0-132.0-0.0","0","0","90802","","null","","","null","14","","","","","","","","","","","","","","","",""
"","ITI","","html-keyboard-response","100","233202","0.0-1.0-135.0","0","0","90802","","null","","","null","14","","","","","","","","","","","","","","","NaN",""
"","S1","","html-keyboard-response","101","233458","0.0-1.0-137.0","0","0","90802","","null","","","null","15","","","","","","","","","","","","","","","",""
"","ISI","","html-keyboard-response","102","234467","0.0-1.0-138.0","0","0","90802","","null","","","null","15","NaN","","","","","","","","","","","","","","",""
"","S2","","html-keyboard-response","103","234723","0.0-1.0-139.0","0","0","90802","","null","","","null","15","","NaN","","","","","","","","","","","","","",""
"","response","","html-keyboard-response","104","234875","0.0-1.0-140.0-0.0","0","0","90802","","149","","","75","15","","","1","15","training","adjacent","DE","4","5","P.jpg","Q.jpg","0","1","0","",""
"","feedback","","html-keyboard-response","105","235885","0.0-1.0-141.0-0.0","0","0","90802","","null","","","null","15","","","","","","","","","","","","","","","",""
"","time_out","","html-keyboard-response","106","237893","0.0-1.0-143.0-0.0","0","0","90802","","null","","","null","15","","","","","","","","","","","","","","","",""
"","ITI","","html-keyboard-response","107","238897","0.0-1.0-144.0","0","0","90802","","null","","","null","15","","","","","","","","","","","","","","","NaN",""
"","S1","","html-keyboard-response","108","239153","0.0-1.0-146.0","0","0","90802","","null","","","null","16","","","","","","","","","","","","","","","",""
"","ISI","","html-keyboard-response","109","240163","0.0-1.0-147.0","0","0","90802","","377","","","68","16","d","","","","","","","","","","","","","","",""
"","S2","","html-keyboard-response","110","240418","0.0-1.0-148.0","0","0","90802","","null","","","null","16","","NaN","","","","","","","","","","","","","",""
"","response","","html-keyboard-response","111","241061","0.0-1.0-149.0-0.0","0","0","90802","","640","","","68","16","","","1","16","training","adjacent","GF","7","6","N.jpg","R.jpg","1","0","0","",""
"","feedback","","html-keyboard-response","112","242067","0.0-1.0-150.0-0.0","0","0","90802","","null","","","null","16","","","","","","","","","","","","","","","",""
"","time_out","","html-keyboard-response","113","244075","0.0-1.0-152.0-0.0","0","0","90802","","null","","","null","16","","","","","","","","","","","","","","","",""
"","ITI","","html-keyboard-response","114","245081","0.0-1.0-153.0","0","0","90802","","null","","","null","16","","","","","","","","","","","","","","","NaN",""
"","S1","","html-keyboard-response","115","245340","0.0-1.0-155.0","0","0","90802","","null","","","null","17","","","","","","","","","","","","","","","",""
"","ISI","","html-keyboard-response","116","246348","0.0-1.0-156.0","0","0","90802","","null","","","null","17","NaN","","","","","","","","","","","","","","",""
"","S2","","html-keyboard-response","117","246611","0.0-1.0-157.0","0","0","90802","","null","","","null","17","","NaN","","","","","","","","","","","","","",""
"","response","","html-keyboard-response","118","246613","0.0-1.0-158.0-0.0","0","0","90802","","1","","","75","17","","","1","17","training","adjacent","DC","4","3","P.jpg","M.jpg","0","0","1","",""
"","feedback","","html-keyboard-response","119","247616","0.0-1.0-159.0-0.0","0","0","90802","","null","","","null","17","","","","","","","","","","","","","","","",""
"","ITI","","html-keyboard-response","120","248626","0.0-1.0-162.0","0","0","90802","","null","","","null","17","","","","","","","","","","","","","","","NaN",""
"","S1","","html-keyboard-response","121","248885","0.0-1.0-164.0","0","0","90802","","null","","","null","18","","","","","","","","","","","","","","","",""
"","ISI","","html-keyboard-response","122","249891","0.0-1.0-165.0","0","0","90802","","null","","","null","18","NaN","","","","","","","","","","","","","","",""
"","S2","","html-keyboard-response","123","250147","0.0-1.0-166.0","0","0","90802","","null","","","null","18","","NaN","","","","","","","","","","","","","",""
"","response","","html-keyboard-response","124","250202","0.0-1.0-167.0-0.0","0","0","90802","","53","","","75","18","","","1","18","training","adjacent","BA","2","1","O.jpg","L.jpg","0","0","1","",""
"","feedback","","html-keyboard-response","125","251210","0.0-1.0-168.0-0.0","0","0","90802","","null","","","null","18","","","","","","","","","","","","","","","",""
"","ITI","","html-keyboard-response","126","252219","0.0-1.0-171.0","0","0","90802","","null","","","null","18","","","","","","","","","","","","","","","NaN",""
"","S1","","html-keyboard-response","127","252481","0.0-1.0-173.0","0","0","90802","","null","","","null","19","","","","","","","","","","","","","","","",""
"","ISI","","html-keyboard-response","128","253491","0.0-1.0-174.0","0","0","90802","","null","","","null","19","NaN","","","","","","","","","","","","","","",""
"","S2","","html-keyboard-response","129","253753","0.0-1.0-175.0","0","0","90802","","null","","","null","19","","NaN","","","","","","","","","","","","","",""
"","response","","html-keyboard-response","130","253755","0.0-1.0-176.0-0.0","0","0","90802","","1","","","75","19","","","1","19","training","adjacent","ED","5","4","Q.jpg","P.jpg","0","0","1","",""
"","feedback","","html-keyboard-response","131","254763","0.0-1.0-177.0-0.0","0","0","90802","","null","","","null","19","","","","","","","","","","","","","","","",""
"","ITI","","html-keyboard-response","132","255771","0.0-1.0-180.0","0","0","90802","","null","","","null","19","","","","","","","","","","","","","","","NaN",""
"","S1","","html-keyboard-response","133","256033","0.0-1.0-182.0","0","0","90802","","null","","","null","20","","","","","","","","","","","","","","","",""
"","ISI","","html-keyboard-response","134","257044","0.0-1.0-183.0","0","0","90802","","null","","","null","20","NaN","","","","","","","","","","","","","","",""
"","S2","","html-keyboard-response","135","257308","0.0-1.0-184.0","0","0","90802","","null","","","null","20","","NaN","","","","","","","","","","","","","",""
"","response","","html-keyboard-response","136","259007","0.0-1.0-185.0-0.0","0","0","90802","","1696","","","68","20","","","1","20","training","adjacent","DC","4","3","P.jpg","M.jpg","1","0","0","",""
"","feedback","","html-keyboard-response","137","260016","0.0-1.0-186.0-0.0","0","0","90802","","null","","","null","20","","","","","","","","","","","","","","","",""
"","time_out","","html-keyboard-response","138","262024","0.0-1.0-188.0-0.0","0","0","90802","","null","","","null","20","","","","","","","","","","","","","","","",""
"","ITI","","html-keyboard-response","139","263034","0.0-1.0-189.0","0","0","90802","","null","","","null","20","","","","","","","","","","","","","","","NaN",""
"","S1","","html-keyboard-response","140","263289","0.0-1.0-191.0","0","0","90802","","null","","","null","21","","","","","","","","","","","","","","","",""
"","ISI","","html-keyboard-response","141","264300","0.0-1.0-192.0","0","0","90802","","null","","","null","21","NaN","","","","","","","","","","","","","","",""
"","S2","","html-keyboard-response","142","264561","0.0-1.0-193.0","0","0","90802","","null","","","null","21","","NaN","","","","","","","","","","","","","",""
"","response","","html-keyboard-response","143","264684","0.0-1.0-194.0-0.0","0","0","90802","","121","","","75","21","","","1","21","training","adjacent","AB","1","2","L.jpg","O.jpg","0","1","0","",""
"","feedback","","html-keyboard-response","144","265692","0.0-1.0-195.0-0.0","0","0","90802","","null","","","null","21","","","","","","","","","","","","","","","",""
"","time_out","","html-keyboard-response","145","267697","0.0-1.0-197.0-0.0","0","0","90802","","null","","","null","21","","","","","","","","","","","","","","","",""
"","ITI","","html-keyboard-response","146","268705","0.0-1.0-198.0","0","0","90802","","null","","","null","21","","","","","","","","","","","","","","","NaN",""
"","S1","","html-keyboard-response","147","268961","0.0-1.0-200.0","0","0","90802","","null","","","null","22","","","","","","","","","","","","","","","",""
"","ISI","","html-keyboard-response","148","269971","0.0-1.0-201.0","0","0","90802","","null","","","null","22","NaN","","","","","","","","","","","","","","",""
"","S2","","html-keyboard-response","149","270235","0.0-1.0-202.0","0","0","90802","","null","","","null","22","","NaN","","","","","","","","","","","","","",""
"","response","","html-keyboard-response","150","270314","0.0-1.0-203.0-0.0","0","0","90802","","76","","","68","22","","","1","22","training","adjacent","BA","2","1","O.jpg","L.jpg","1","0","0","",""
"","feedback","","html-keyboard-response","151","271324","0.0-1.0-204.0-0.0","0","0","90802","","null","","","null","22","","","","","","","","","","","","","","","",""
"","time_out","","html-keyboard-response","152","273333","0.0-1.0-206.0-0.0","0","0","90802","","null","","","null","22","","","","","","","","","","","","","","","",""
"","ITI","","html-keyboard-response","153","274336","0.0-1.0-207.0","0","0","90802","","null","","","null","22","","","","","","","","","","","","","","","NaN",""
"","S1","","html-keyboard-response","154","274593","0.0-1.0-209.0","0","0","90802","","null","","","null","23","","","","","","","","","","","","","","","",""
"","ISI","","html-keyboard-response","155","275603","0.0-1.0-210.0","0","0","90802","","null","","","null","23","NaN","","","","","","","","","","","","","","",""
"","S2","","html-keyboard-response","156","275857","0.0-1.0-211.0","0","0","90802","","null","","","null","23","","NaN","","","","","","","","","","","","","",""
"","response","","html-keyboard-response","157","276142","0.0-1.0-212.0-0.0","0","0","90802","","283","","","68","23","","","1","23","training","adjacent","ED","5","4","Q.jpg","P.jpg","1","0","0","",""
"","feedback","","html-keyboard-response","158","277152","0.0-1.0-213.0-0.0","0","0","90802","","null","","","null","23","","","","","","","","","","","","","","","",""
"","time_out","","html-keyboard-response","159","279161","0.0-1.0-215.0-0.0","0","0","90802","","null","","","null","23","","","","","","","","","","","","","","","",""
"","ITI","","html-keyboard-response","160","280171","0.0-1.0-216.0","0","0","90802","","null","","","null","23","","","","","","","","","","","","","","","NaN",""
"","S1","","html-keyboard-response","161","280426","0.0-1.0-218.0","0","0","90802","","null","","","null","24","","","","","","","","","","","","","","","",""
"","ISI","","html-keyboard-response","162","281436","0.0-1.0-219.0","0","0","90802","","null","","","null","24","NaN","","","","","","","","","","","","","","",""
"","S2","","html-keyboard-response","163","281697","0.0-1.0-220.0","0","0","90802","","null","","","null","24","","NaN","","","","","","","","","","","","","",""
"","response","","html-keyboard-response","164","282170","0.0-1.0-221.0-0.0","0","0","90802","","469","","","75","24","","","1","24","training","adjacent","GF","7","6","N.jpg","R.jpg","0","0","1","",""
"","feedback","","html-keyboard-response","165","283177","0.0-1.0-222.0-0.0","0","0","90802","","null","","","null","24","","","","","","","","","","","","","","","",""
"","ITI","","html-keyboard-response","166","284187","0.0-1.0-225.0","0","0","90802","","null","","","null","24","","","","","","","","","","","","","","","NaN",""
"","S1","","html-keyboard-response","167","284442","0.0-1.0-227.0","0","0","90802","","null","","","null","25","","","","","","","","","","","","","","","",""
"","ISI","","html-keyboard-response","168","285449","0.0-1.0-228.0","0","0","90802","","null","","","null","25","NaN","","","","","","","","","","","","","","",""
"","S2","","html-keyboard-response","169","285708","0.0-1.0-229.0","0","0","90802","","null","","","null","25","","NaN","","","","","","","","","","","","","",""
"","response","","html-keyboard-response","170","286060","0.0-1.0-230.0-0.0","0","0","90802","","349","","","68","25","","","1","25","training","adjacent","FG","6","7","R.jpg","N.jpg","1","1","1","",""
"","feedback","","html-keyboard-response","171","287067","0.0-1.0-231.0-0.0","0","0","90802","","null","","","null","25","","","","","","","","","","","","","","","",""
"","ITI","","html-keyboard-response","172","288077","0.0-1.0-234.0","0","0","90802","","null","","","null","25","","","","","","","","","","","","","","","NaN",""
"","S1","","html-keyboard-response","173","288338","0.0-1.0-236.0","0","0","90802","","null","","","null","26","","","","","","","","","","","","","","","",""
"","ISI","","html-keyboard-response","174","289349","0.0-1.0-237.0","0","0","90802","","null","","","null","26","NaN","","","","","","","","","","","","","","",""
"","S2","","html-keyboard-response","175","289609","0.0-1.0-238.0","0","0","90802","","null","","","null","26","","NaN","","","","","","","","","","","","","",""
"","response","","html-keyboard-response","176","289988","0.0-1.0-239.0-0.0","0","0","90802","","376","","","68","26","","","1","26","training","adjacent","GF","7","6","N.jpg","R.jpg","1","0","0","",""
"","feedback","","html-keyboard-response","177","290996","0.0-1.0-240.0-0.0","0","0","90802","","null","","","null","26","","","","","","","","","","","","","","","",""
"","time_out","","html-keyboard-response","178","293005","0.0-1.0-242.0-0.0","0","0","90802","","null","","","null","26","","","","","","","","","","","","","","","",""
"","ITI","","html-keyboard-response","179","294010","0.0-1.0-243.0","0","0","90802","","null","","","null","26","","","","","","","","","","","","","","","NaN",""
"","S1","","html-keyboard-response","180","294266","0.0-1.0-245.0","0","0","90802","","null","","","null","27","","","","","","","","","","","","","","","",""
"","ISI","","html-keyboard-response","181","295275","0.0-1.0-246.0","0","0","90802","","null","","","null","27","NaN","","","","","","","","","","","","","","",""
"","S2","","html-keyboard-response","182","295531","0.0-1.0-247.0","0","0","90802","","null","","","null","27","","NaN","","","","","","","","","","","","","",""
"","response","","html-keyboard-response","183","295907","0.0-1.0-248.0-0.0","0","0","90802","","375","","","75","27","","","1","27","training","adjacent","EF","5","6","Q.jpg","R.jpg","0","1","0","",""
"","feedback","","html-keyboard-response","184","296912","0.0-1.0-249.0-0.0","0","0","90802","","null","","","null","27","","","","","","","","","","","","","","","",""
"","time_out","","html-keyboard-response","185","298921","0.0-1.0-251.0-0.0","0","0","90802","","null","","","null","27","","","","","","","","","","","","","","","",""
"","ITI","","html-keyboard-response","186","299931","0.0-1.0-252.0","0","0","90802","","null","","","null","27","","","","","","","","","","","","","","","NaN",""
"","S1","","html-keyboard-response","187","300186","0.0-1.0-254.0","0","0","90802","","null","","","null","28","","","","","","","","","","","","","","","",""
"","ISI","","html-keyboard-response","188","301195","0.0-1.0-255.0","0","0","90802","","null","","","null","28","NaN","","","","","","","","","","","","","","",""
"","S2","","html-keyboard-response","189","301458","0.0-1.0-256.0","0","0","90802","","null","","","null","28","","NaN","","","","","","","","","","","","","",""
"","response","","html-keyboard-response","190","301698","0.0-1.0-257.0-0.0","0","0","90802","","237","","","68","28","","","1","28","training","adjacent","CD","3","4","M.jpg","P.jpg","1","1","1","",""
"","feedback","","html-keyboard-response","191","302706","0.0-1.0-258.0-0.0","0","0","90802","","null","","","null","28","","","","","","","","","","","","","","","",""
"","ITI","","html-keyboard-response","192","303715","0.0-1.0-261.0","0","0","90802","","null","","","null","28","","","","","","","","","","","","","","","NaN",""
"","S1","","html-keyboard-response","193","303969","0.0-1.0-263.0","0","0","90802","","null","","","null","29","","","","","","","","","","","","","","","",""
"","ISI","","html-keyboard-response","194","304976","0.0-1.0-264.0","0","0","90802","","null","","","null","29","NaN","","","","","","","","","","","","","","",""
"","S2","","html-keyboard-response","195","305236","0.0-1.0-265.0","0","0","90802","","null","","","null","29","","NaN","","","","","","","","","","","","","",""
"","response","","html-keyboard-response","196","305353","0.0-1.0-266.0-0.0","0","0","90802","","114","","","68","29","","","1","29","training","adjacent","FG","6","7","R.jpg","N.jpg","1","1","1","",""
"","feedback","","html-keyboard-response","197","306362","0.0-1.0-267.0-0.0","0","0","90802","","null","","","null","29","","","","","","","","","","","","","","","",""
"","ITI","","html-keyboard-response","198","307372","0.0-1.0-270.0","0","0","90802","","null","","","null","29","","","","","","","","","","","","","","","NaN",""
"","S1","","html-keyboard-response","199","307636","0.0-1.0-272.0","0","0","90802","","null","","","null","30","","","","","","","","","","","","","","","",""
"","ISI","","html-keyboard-response","200","308644","0.0-1.0-273.0","0","0","90802","","null","","","null","30","NaN","","","","","","","","","","","","","","",""
"","S2","","html-keyboard-response","201","308905","0.0-1.0-274.0","0","0","90802","","null","","","null","30","","NaN","","","","","","","","","","","","","",""
"","response","","html-keyboard-response","202","308975","0.0-1.0-275.0-0.0","0","0","90802","","68","","","75","30","","","1","30","training","adjacent","FG","6","7","R.jpg","N.jpg","0","1","0","",""
"","feedback","","html-keyboard-response","203","309984","0.0-1.0-276.0-0.0","0","0","90802","","null","","","null","30","","","","","","","","","","","","","","","",""
"","time_out","","html-keyboard-response","204","311993","0.0-1.0-278.0-0.0","0","0","90802","","null","","","null","30","","","","","","","","","","","","","","","",""
"","ITI","","html-keyboard-response","205","313004","0.0-1.0-279.0","0","0","90802","","null","","","null","30","","","","","","","","","","","","","","","NaN",""
"","S1","","html-keyboard-response","206","313265","0.0-1.0-281.0","0","0","90802","","null","","","null","31","","","","","","","","","","","","","","","",""
"","ISI","","html-keyboard-response","207","314275","0.0-1.0-282.0","0","0","90802","","null","","","null","31","NaN","","","","","","","","","","","","","","",""
"","S2","","html-keyboard-response","208","314529","0.0-1.0-283.0","0","0","90802","","null","","","null","31","","NaN","","","","","","","","","","","","","",""
"","response","","html-keyboard-response","209","314893","0.0-1.0-284.0-0.0","0","0","90802","","362","","","75","31","","","1","31","training","adjacent","BA","2","1","O.jpg","L.jpg","0","0","1","",""
"","feedback","","html-keyboard-response","210","315906","0.0-1.0-285.0-0.0","0","0","90802","","null","","","null","31","","","","","","","","","","","","","","","",""
"","ITI","","html-keyboard-response","211","316917","0.0-1.0-288.0","0","0","90802","","null","","","null","31","","","","","","","","","","","","","","","NaN",""
"","S1","","html-keyboard-response","212","317177","0.0-1.0-290.0","0","0","90802","","null","","","null","32","","","","","","","","","","","","","","","",""
"","ISI","","html-keyboard-response","213","318187","0.0-1.0-291.0","0","0","90802","","null","","","null","32","NaN","","","","","","","","","","","","","","",""
"","S2","","html-keyboard-response","214","318449","0.0-1.0-292.0","0","0","90802","","null","","","null","32","","NaN","","","","","","","","","","","","","",""
"","response","","html-keyboard-response","215","318502","0.0-1.0-293.0-0.0","0","0","90802","","51","","","75","32","","","1","32","training","adjacent","BA","2","1","O.jpg","L.jpg","0","0","1","",""
"","feedback","","html-keyboard-response","216","319516","0.0-1.0-294.0-0.0","0","0","90802","","null","","","null","32","","","","","","","","","","","","","","","",""
"","ITI","","html-keyboard-response","217","320521","0.0-1.0-297.0","0","0","90802","","null","","","null","32","","","","","","","","","","","","","","","NaN",""
"","S1","","html-keyboard-response","218","320776","0.0-1.0-299.0","0","0","90802","","null","","","null","33","","","","","","","","","","","","","","","",""
"","ISI","","html-keyboard-response","219","321785","0.0-1.0-300.0","0","0","90802","","null","","","null","33","NaN","","","","","","","","","","","","","","",""
"","S2","","html-keyboard-response","220","322042","0.0-1.0-301.0","0","0","90802","","null","","","null","33","","NaN","","","","","","","","","","","","","",""
"","response","","html-keyboard-response","221","322056","0.0-1.0-302.0-0.0","0","0","90802","","12","","","68","33","","","1","33","training","adjacent","FE","6","5","R.jpg","Q.jpg","1","0","0","",""
"","feedback","","html-keyboard-response","222","323066","0.0-1.0-303.0-0.0","0","0","90802","","null","","","null","33","","","","","","","","","","","","","","","",""
"","time_out","","html-keyboard-response","223","325074","0.0-1.0-305.0-0.0","0","0","90802","","null","","","null","33","","","","","","","","","","","","","","","",""
"","ITI","","html-keyboard-response","224","326082","0.0-1.0-306.0","0","0","90802","","null","","","null","33","","","","","","","","","","","","","","","NaN",""
"","S1","","html-keyboard-response","225","326338","0.0-1.0-308.0","0","0","90802","","null","","","null","34","","","","","","","","","","","","","","","",""
"","ISI","","html-keyboard-response","226","327348","0.0-1.0-309.0","0","0","90802","","null","","","null","34","NaN","","","","","","","","","","","","","","",""
"","S2","","html-keyboard-response","227","327611","0.0-1.0-310.0","0","0","90802","","null","","","null","34","","NaN","","","","","","","","","","","","","",""
"","response","","html-keyboard-response","228","327775","0.0-1.0-311.0-0.0","0","0","90802","","162","","","75","34","","","1","34","training","adjacent","DE","4","5","P.jpg","Q.jpg","0","1","0","",""
"","feedback","","html-keyboard-response","229","328788","0.0-1.0-312.0-0.0","0","0","90802","","null","","","null","34","","","","","","","","","","","","","","","",""
"","time_out","","html-keyboard-response","230","330796","0.0-1.0-314.0-0.0","0","0","90802","","null","","","null","34","","","","","","","","","","","","","","","",""
"","ITI","","html-keyboard-response","231","331804","0.0-1.0-315.0","0","0","90802","","null","","","null","34","","","","","","","","","","","","","","","NaN",""
"","S1","","html-keyboard-response","232","332068","0.0-1.0-317.0","0","0","90802","","null","","","null","35","","","","","","","","","","","","","","","",""
"","ISI","","html-keyboard-response","233","333072","0.0-1.0-318.0","0","0","90802","","null","","","null","35","NaN","","","","","","","","","","","","","","",""
"","S2","","html-keyboard-response","234","333331","0.0-1.0-319.0","0","0","90802","","null","","","null","35","","NaN","","","","","","","","","","","","","",""
"","response","","html-keyboard-response","235","333571","0.0-1.0-320.0-0.0","0","0","90802","","238","","","68","35","","","1","35","training","adjacent","CB","3","2","M.jpg","O.jpg","1","0","0","",""
"","feedback","","html-keyboard-response","236","334581","0.0-1.0-321.0-0.0","0","0","90802","","null","","","null","35","","","","","","","","","","","","","","","",""
"","time_out","","html-keyboard-response","237","336590","0.0-1.0-323.0-0.0","0","0","90802","","null","","","null","35","","","","","","","","","","","","","","","",""
"","ITI","","html-keyboard-response","238","337597","0.0-1.0-324.0","0","0","90802","","null","","","null","35","","","","","","","","","","","","","","","NaN",""
"","S1","","html-keyboard-response","239","337861","0.0-1.0-326.0","0","0","90802","","null","","","null","36","","","","","","","","","","","","","","","",""
"","ISI","","html-keyboard-response","240","338865","0.0-1.0-327.0","0","0","90802","","null","","","null","36","NaN","","","","","","","","","","","","","","",""
"","S2","","html-keyboard-response","241","339120","0.0-1.0-328.0","0","0","90802","","null","","","null","36","","NaN","","","","","","","","","","","","","",""
"","response","","html-keyboard-response","242","339665","0.0-1.0-329.0-0.0","0","0","90802","","543","","","68","36","","","1","36","training","adjacent","DC","4","3","P.jpg","M.jpg","1","0","0","",""
"","feedback","","html-keyboard-response","243","340675","0.0-1.0-330.0-0.0","0","0","90802","","null","","","null","36","","","","","","","","","","","","","","","",""
"","time_out","","html-keyboard-response","244","342684","0.0-1.0-332.0-0.0","0","0","90802","","null","","","null","36","","","","","","","","","","","","","","","",""
"","ITI","","html-keyboard-response","245","343689","0.0-1.0-333.0","0","0","90802","","null","","","null","36","","","","","","","","","","","","","","","NaN",""
"","S1","","html-keyboard-response","246","343944","0.0-1.0-335.0","0","0","90802","","null","","","null","37","","","","","","","","","","","","","","","",""
"","ISI","","html-keyboard-response","247","344954","0.0-1.0-336.0","0","0","90802","","null","","","null","37","NaN","","","","","","","","","","","","","","",""
"","S2","","html-keyboard-response","248","345210","0.0-1.0-337.0","0","0","90802","","254","","","68","37","","d","1","37","training","adjacent","AB","1","2","L.jpg","O.jpg","1","1","1","",""
"","feedback","","html-keyboard-response","249","346220","0.0-1.0-339.0-0.0","0","0","90802","","null","","","null","37","","","","","","","","","","","","","","","",""
"","ITI","","html-keyboard-response","250","347224","0.0-1.0-342.0","0","0","90802","","null","","","null","37","","","","","","","","","","","","","","","NaN",""
"","S1","","html-keyboard-response","251","347486","0.0-1.0-344.0","0","0","90802","","null","","","null","38","","","","","","","","","","","","","","","",""
"","ISI","","html-keyboard-response","252","348489","0.0-1.0-345.0","0","0","90802","","null","","","null","38","NaN","","","","","","","","","","","","","","",""
"","S2","","html-keyboard-response","253","348745","0.0-1.0-346.0","0","0","90802","","null","","","null","38","","NaN","","","","","","","","","","","","","",""
"","response","","html-keyboard-response","254","348789","0.0-1.0-347.0-0.0","0","0","90802","","42","","","75","38","","","1","38","training","adjacent","DE","4","5","P.jpg","Q.jpg","0","1","0","",""
"","feedback","","html-keyboard-response","255","349795","0.0-1.0-348.0-0.0","0","0","90802","","null","","","null","38","","","","","","","","","","","","","","","",""
"","time_out","","html-keyboard-response","256","351804","0.0-1.0-350.0-0.0","0","0","90802","","null","","","null","38","","","","","","","","","","","","","","","",""
"","ITI","","html-keyboard-response","257","352810","0.0-1.0-351.0","0","0","90802","","null","","","null","38","","","","","","","","","","","","","","","NaN",""
"","S1","","html-keyboard-response","258","353065","0.0-1.0-353.0","0","0","90802","","null","","","null","39","","","","","","","","","","","","","","","",""
"","ISI","","html-keyboard-response","259","354074","0.0-1.0-354.0","0","0","90802","","null","","","null","39","NaN","","","","","","","","","","","","","","",""
"","S2","","html-keyboard-response","260","354330","0.0-1.0-355.0","0","0","90802","","null","","","null","39","","NaN","","","","","","","","","","","","","",""
"","response","","html-keyboard-response","261","354341","0.0-1.0-356.0-0.0","0","0","90802","","9","","","68","39","","","1","39","training","adjacent","CB","3","2","M.jpg","O.jpg","1","0","0","",""
"","feedback","","html-keyboard-response","262","355345","0.0-1.0-357.0-0.0","0","0","90802","","null","","","null","39","","","","","","","","","","","","","","","",""
"","time_out","","html-keyboard-response","263","357353","0.0-1.0-359.0-0.0","0","0","90802","","null","","","null","39","","","","","","","","","","","","","","","",""
"","ITI","","html-keyboard-response","264","358363","0.0-1.0-360.0","0","0","90802","","null","","","null","39","","","","","","","","","","","","","","","NaN",""
"","S1","","html-keyboard-response","265","358625","0.0-1.0-362.0","0","0","90802","","null","","","null","40","","","","","","","","","","","","","","","",""
"","ISI","","html-keyboard-response","266","359635","0.0-1.0-363.0","0","0","90802","","null","","","null","40","NaN","","","","","","","","","","","","","","",""
"","S2","","html-keyboard-response","267","359896","0.0-1.0-364.0","0","0","90802","","null","","","null","40","","NaN","","","","","","","","","","","","","",""
"","response","","html-keyboard-response","268","359921","0.0-1.0-365.0-0.0","0","0","90802","","22","","","68","40","","","1","40","training","adjacent","FG","6","7","R.jpg","N.jpg","1","1","1","",""
"","feedback","","html-keyboard-response","269","360930","0.0-1.0-366.0-0.0","0","0","90802","","null","","","null","40","","","","","","","","","","","","","","","",""
"","ITI","","html-keyboard-response","270","361940","0.0-1.0-369.0","0","0","90802","","null","","","null","40","","","","","","","","","","","","","","","NaN",""
"","S1","","html-keyboard-response","271","362203","0.0-1.0-371.0","0","0","90802","","null","","","null","41","","","","","","","","","","","","","","","",""
"","ISI","","html-keyboard-response","272","363209","0.0-1.0-372.0","0","0","90802","","null","","","null","41","NaN","","","","","","","","","","","","","","",""
"","S2","","html-keyboard-response","273","363466","0.0-1.0-373.0","0","0","90802","","null","","","null","41","","NaN","","","","","","","","","","","","","",""
"","response","","html-keyboard-response","274","363495","0.0-1.0-374.0-0.0","0","0","90802","","26","","","68","41","","","1","41","training","adjacent","BC","2","3","O.jpg","M.jpg","1","1","1","",""
"","feedback","","html-keyboard-response","275","364505","0.0-1.0-375.0-0.0","0","0","90802","","null","","","null","41","","","","","","","","","","","","","","","",""
"","ITI","","html-keyboard-response","276","365515","0.0-1.0-378.0","0","0","90802","","null","","","null","41","","","","","","","","","","","","","","","NaN",""
"","S1","","html-keyboard-response","277","365771","0.0-1.0-380.0","0","0","90802","","null","","","null","42","","","","","","","","","","","","","","","",""
"","ISI","","html-keyboard-response","278","366781","0.0-1.0-381.0","0","0","90802","","null","","","null","42","NaN","","","","","","","","","","","","","","",""
"","S2","","html-keyboard-response","279","367042","0.0-1.0-382.0","0","0","90802","","null","","","null","42","","NaN","","","","","","","","","","","","","",""
"","response","","html-keyboard-response","280","367138","0.0-1.0-383.0-0.0","0","0","90802","","94","","","68","42","","","1","42","training","adjacent","CB","3","2","M.jpg","O.jpg","1","0","0","",""
"","feedback","","html-keyboard-response","281","368145","0.0-1.0-384.0-0.0","0","0","90802","","null","","","null","42","","","","","","","","","","","","","","","",""
"","time_out","","html-keyboard-response","282","370154","0.0-1.0-386.0-0.0","0","0","90802","","null","","","null","42","","","","","","","","","","","","","","","",""
"","ITI","","html-keyboard-response","283","371163","0.0-1.0-387.0","0","0","90802","","null","","","null","42","","","","","","","","","","","","","","","NaN",""
"","S1","","html-keyboard-response","284","371420","0.0-1.0-389.0","0","0","90802","","null","","","null","43","","","","","","","","","","","","","","","",""
"","ISI","","html-keyboard-response","285","372425","0.0-1.0-390.0","0","0","90802","","null","","","null","43","NaN","","","","","","","","","","","","","","",""
"","S2","","html-keyboard-response","286","372684","0.0-1.0-391.0","0","0","90802","","null","","","null","43","","NaN","","","","","","","","","","","","","",""
"","response","","html-keyboard-response","287","372888","0.0-1.0-392.0-0.0","0","0","90802","","201","","","75","43","","","1","43","training","adjacent","AB","1","2","L.jpg","O.jpg","0","1","0","",""
"","feedback","","html-keyboard-response","288","373897","0.0-1.0-393.0-0.0","0","0","90802","","null","","","null","43","","","","","","","","","","","","","","","",""
"","time_out","","html-keyboard-response","289","375907","0.0-1.0-395.0-0.0","0","0","90802","","null","","","null","43","","","","","","","","","","","","","","","",""
"","ITI","","html-keyboard-response","290","376916","0.0-1.0-396.0","0","0","90802","","null","","","null","43","","","","","","","","","","","","","","","NaN",""
"","S1","","html-keyboard-response","291","377177","0.0-1.0-398.0","0","0","90802","","null","","","null","44","","","","","","","","","","","","","","","",""
"","ISI","","html-keyboard-response","292","378188","0.0-1.0-399.0","0","0","90802","","null","","","null","44","NaN","","","","","","","","","","","","","","",""
"","S2","","html-keyboard-response","293","378449","0.0-1.0-400.0","0","0","90802","","null","","","null","44","","NaN","","","","","","","","","","","","","",""
"","response","","html-keyboard-response","294","379088","0.0-1.0-401.0-0.0","0","0","90802","","637","","","75","44","","","1","44","training","adjacent","GF","7","6","N.jpg","R.jpg","0","0","1","",""
"","feedback","","html-keyboard-response","295","380097","0.0-1.0-402.0-0.0","0","0","90802","","null","","","null","44","","","","","","","","","","","","","","","",""
"","ITI","","html-keyboard-response","296","381108","0.0-1.0-405.0","0","0","90802","","null","","","null","44","","","","","","","","","","","","","","","NaN",""
"","S1","","html-keyboard-response","297","381368","0.0-1.0-407.0","0","0","90802","","null","","","null","45","","","","","","","","","","","","","","","",""
"","ISI","","html-keyboard-response","298","382379","0.0-1.0-408.0","0","0","90802","","null","","","null","45","NaN","","","","","","","","","","","","","","",""
"","S2","","html-keyboard-response","299","382635","0.0-1.0-409.0","0","0","90802","","null","","","null","45","","NaN","","","","","","","","","","","","","",""
"","response","","html-keyboard-response","300","383151","0.0-1.0-410.0-0.0","0","0","90802","","514","","","75","45","","","1","45","training","adjacent","DE","4","5","P.jpg","Q.jpg","0","1","0","",""
"","feedback","","html-keyboard-response","301","384161","0.0-1.0-411.0-0.0","0","0","90802","","null","","","null","45","","","","","","","","","","","","","","","",""
"","time_out","","html-keyboard-response","302","386170","0.0-1.0-413.0-0.0","0","0","90802","","null","","","null","45","","","","","","","","","","","","","","","",""
"","ITI","","html-keyboard-response","303","387180","0.0-1.0-414.0","0","0","90802","","null","","","null","45","","","","","","","","","","","","","","","NaN",""
"","S1","","html-keyboard-response","304","387441","0.0-1.0-416.0","0","0","90802","","null","","","null","46","","","","","","","","","","","","","","","",""
"","ISI","","html-keyboard-response","305","388451","0.0-1.0-417.0","0","0","90802","","null","","","null","46","NaN","","","","","","","","","","","","","","",""
"","S2","","html-keyboard-response","306","388707","0.0-1.0-418.0","0","0","90802","","null","","","null","46","","NaN","","","","","","","","","","","","","",""
"","response","","html-keyboard-response","307","388865","0.0-1.0-419.0-0.0","0","0","90802","","157","","","68","46","","","1","46","training","adjacent","ED","5","4","Q.jpg","P.jpg","1","0","0","",""
"","feedback","","html-keyboard-response","308","389872","0.0-1.0-420.0-0.0","0","0","90802","","null","","","null","46","","","","","","","","","","","","","","","",""
"","time_out","","html-keyboard-response","309","391881","0.0-1.0-422.0-0.0","0","0","90802","","null","","","null","46","","","","","","","","","","","","","","","",""
"","ITI","","html-keyboard-response","310","392892","0.0-1.0-423.0","0","0","90802","","null","","","null","46","","","","","","","","","","","","","","","NaN",""
"","S1","","html-keyboard-response","311","393153","0.0-1.0-425.0","0","0","90802","","null","","","null","47","","","","","","","","","","","","","","","",""
"","ISI","","html-keyboard-response","312","394163","0.0-1.0-426.0","0","0","90802","","null","","","null","47","NaN","","","","","","","","","","","","","","",""
"","S2","","html-keyboard-response","313","394424","0.0-1.0-427.0","0","0","90802","","null","","","null","47","","NaN","","","","","","","","","","","","","",""
"","response","","html-keyboard-response","314","394600","0.0-1.0-428.0-0.0","0","0","90802","","173","","","75","47","","","1","47","training","adjacent","EF","5","6","Q.jpg","R.jpg","0","1","0","",""
"","feedback","","html-keyboard-response","315","395609","0.0-1.0-429.0-0.0","0","0","90802","","null","","","null","47","","","","","","","","","","","","","","","",""
"","time_out","","html-keyboard-response","316","397617","0.0-1.0-431.0-0.0","0","0","90802","","null","","","null","47","","","","","","","","","","","","","","","",""
"","ITI","","html-keyboard-response","317","398627","0.0-1.0-432.0","0","0","90802","","null","","","null","47","","","","","","","","","","","","","","","NaN",""
"","block_over","","html-keyboard-response","318","405095","0.0-1.0-433.0-0.0","0","0","90802","","6464","","","32","47","","","","","","","","","","","","","","","",""
"","S1","","html-keyboard-response","319","405355","0.0-1.0-434.0","0","0","90802","","null","","","null","48","","","","","","","","","","","","","","","",""
"","ISI","","html-keyboard-response","320","406365","0.0-1.0-435.0","0","0","90802","","null","","","null","48","NaN","","","","","","","","","","","","","","",""
"","S2","","html-keyboard-response","321","406627","0.0-1.0-436.0","0","0","90802","","null","","","null","48","","NaN","","","","","","","","","","","","","",""
"","response","","html-keyboard-response","322","407060","0.0-1.0-437.0-0.0","0","0","90802","","431","","","68","48","","","2","48","training","adjacent","DE","4","5","P.jpg","Q.jpg","1","1","1","",""
"","feedback","","html-keyboard-response","323","408066","0.0-1.0-438.0-0.0","0","0","90802","","null","","","null","48","","","","","","","","","","","","","","","",""
"","ITI","","html-keyboard-response","324","409076","0.0-1.0-441.0","0","0","90802","","null","","","null","48","","","","","","","","","","","","","","","NaN",""
"","S1","","html-keyboard-response","325","409339","0.0-1.0-443.0","0","0","90802","","null","","","null","49","","","","","","","","","","","","","","","",""
"","ISI","","html-keyboard-response","326","410347","0.0-1.0-444.0","0","0","90802","","null","","","null","49","NaN","","","","","","","","","","","","","","",""
"","S2","","html-keyboard-response","327","410603","0.0-1.0-445.0","0","0","90802","","null","","","null","49","","NaN","","","","","","","","","","","","","",""
"","response","","html-keyboard-response","328","410846","0.0-1.0-446.0-0.0","0","0","90802","","241","","","68","49","","","2","49","training","adjacent","GF","7","6","N.jpg","R.jpg","1","0","0","",""
"","feedback","","html-keyboard-response","329","411857","0.0-1.0-447.0-0.0","0","0","90802","","null","","","null","49","","","","","","","","","","","","","","","",""
"","time_out","","html-keyboard-response","330","413868","0.0-1.0-449.0-0.0","0","0","90802","","null","","","null","49","","","","","","","","","","","","","","","",""
"","ITI","","html-keyboard-response","331","414875","0.0-1.0-450.0","0","0","90802","","null","","","null","49","","","","","","","","","","","","","","","NaN",""
"","S1","","html-keyboard-response","332","415131","0.0-1.0-452.0","0","0","90802","","null","","","null","50","","","","","","","","","","","","","","","",""
"","ISI","","html-keyboard-response","333","416141","0.0-1.0-453.0","0","0","90802","","null","","","null","50","NaN","","","","","","","","","","","","","","",""
"","S2","","html-keyboard-response","334","416402","0.0-1.0-454.0","0","0","90802","","null","","","null","50","","NaN","","","","","","","","","","","","","",""
"","response","","html-keyboard-response","335","416802","0.0-1.0-455.0-0.0","0","0","90802","","398","","","68","50","","","2","50","training","adjacent","DC","4","3","P.jpg","M.jpg","1","0","0","",""
"","feedback","","html-keyboard-response","336","417813","0.0-1.0-456.0-0.0","0","0","90802","","null","","","null","50","","","","","","","","","","","","","","","",""
"","time_out","","html-keyboard-response","337","419817","0.0-1.0-458.0-0.0","0","0","90802","","null","","","null","50","","","","","","","","","","","","","","","",""
"","ITI","","html-keyboard-response","338","420826","0.0-1.0-459.0","0","0","90802","","null","","","null","50","","","","","","","","","","","","","","","NaN",""
"","S1","","html-keyboard-response","339","421081","0.0-1.0-461.0","0","0","90802","","null","","","null","51","","","","","","","","","","","","","","","",""
"","ISI","","html-keyboard-response","340","422092","0.0-1.0-462.0","0","0","90802","","null","","","null","51","NaN","","","","","","","","","","","","","","",""
"","S2","","html-keyboard-response","341","422352","0.0-1.0-463.0","0","0","90802","","null","","","null","51","","NaN","","","","","","","","","","","","","",""
"","response","","html-keyboard-response","342","422689","0.0-1.0-464.0-0.0","0","0","90802","","334","","","75","51","","","2","51","training","adjacent","CB","3","2","M.jpg","O.jpg","0","0","1","",""
"","feedback","","html-keyboard-response","343","423699","0.0-1.0-465.0-0.0","0","0","90802","","null","","","null","51","","","","","","","","","","","","","","","",""
"","ITI","","html-keyboard-response","344","424709","0.0-1.0-468.0","0","0","90802","","null","","","null","51","","","","","","","","","","","","","","","NaN",""
"","S1","","html-keyboard-response","345","424970","0.0-1.0-470.0","0","0","90802","","null","","","null","52","","","","","","","","","","","","","","","",""
"","ISI","","html-keyboard-response","346","425980","0.0-1.0-471.0","0","0","90802","","null","","","null","52","NaN","","","","","","","","","","","","","","",""
"","S2","","html-keyboard-response","347","426241","0.0-1.0-472.0","0","0","90802","","null","","","null","52","","NaN","","","","","","","","","","","","","",""
"","response","","html-keyboard-response","348","426613","0.0-1.0-473.0-0.0","0","0","90802","","368","","","68","52","","","2","52","training","adjacent","FG","6","7","R.jpg","N.jpg","1","1","1","",""
"","feedback","","html-keyboard-response","349","427618","0.0-1.0-474.0-0.0","0","0","90802","","null","","","null","52","","","","","","","","","","","","","","","",""
"","ITI","","html-keyboard-response","350","428628","0.0-1.0-477.0","0","0","90802","","null","","","null","52","","","","","","","","","","","","","","","NaN",""
"","S1","","html-keyboard-response","351","428889","0.0-1.0-479.0","0","0","90802","","null","","","null","53","","","","","","","","","","","","","","","",""
"","ISI","","html-keyboard-response","352","429899","0.0-1.0-480.0","0","0","90802","","null","","","null","53","NaN","","","","","","","","","","","","","","",""
"","S2","","html-keyboard-response","353","430154","0.0-1.0-481.0","0","0","90802","","null","","","null","53","","NaN","","","","","","","","","","","","","",""
"","response","","html-keyboard-response","354","430443","0.0-1.0-482.0-0.0","0","0","90802","","286","","","75","53","","","2","53","training","adjacent","AB","1","2","L.jpg","O.jpg","0","1","0","",""
"","feedback","","html-keyboard-response","355","431452","0.0-1.0-483.0-0.0","0","0","90802","","null","","","null","53","","","","","","","","","","","","","","","",""
"","time_out","","html-keyboard-response","356","433459","0.0-1.0-485.0-0.0","0","0","90802","","null","","","null","53","","","","","","","","","","","","","","","",""
"","ITI","","html-keyboard-response","357","434466","0.0-1.0-486.0","0","0","90802","","null","","","null","53","","","","","","","","","","","","","","","NaN",""
"","S1","","html-keyboard-response","358","434723","0.0-1.0-488.0","0","0","90802","","null","","","null","54","","","","","","","","","","","","","","","",""
"","ISI","","html-keyboard-response","359","435733","0.0-1.0-489.0","0","0","90802","","null","","","null","54","NaN","","","","","","","","","","","","","","",""
"","S2","","html-keyboard-response","360","435993","0.0-1.0-490.0","0","0","90802","","null","","","null","54","","NaN","","","","","","","","","","","","","",""
"","response","","html-keyboard-response","361","436382","0.0-1.0-491.0-0.0","0","0","90802","","387","","","75","54","","","2","54","training","adjacent","GF","7","6","N.jpg","R.jpg","0","0","1","",""
"","feedback","","html-keyboard-response","362","437393","0.0-1.0-492.0-0.0","0","0","90802","","null","","","null","54","","","","","","","","","","","","","","","",""
"","ITI","","html-keyboard-response","363","438402","0.0-1.0-495.0","0","0","90802","","null","","","null","54","","","","","","","","","","","","","","","NaN",""
"","S1","","html-keyboard-response","364","438658","0.0-1.0-497.0","0","0","90802","","null","","","null","55","","","","","","","","","","","","","","","",""
"","ISI","","html-keyboard-response","365","439667","0.0-1.0-498.0","0","0","90802","","null","","","null","55","NaN","","","","","","","","","","","","","","",""
"","S2","","html-keyboard-response","366","439929","0.0-1.0-499.0","0","0","90802","","null","","","null","55","","NaN","","","","","","","","","","","","","",""
"","response","","html-keyboard-response","367","440361","0.0-1.0-500.0-0.0","0","0","90802","","429","","","75","55","","","2","55","training","adjacent","CB","3","2","M.jpg","O.jpg","0","0","1","",""
"","feedback","","html-keyboard-response","368","441369","0.0-1.0-501.0-0.0","0","0","90802","","null","","","null","55","","","","","","","","","","","","","","","",""
"","ITI","","html-keyboard-response","369","442380","0.0-1.0-504.0","0","0","90802","","null","","","null","55","","","","","","","","","","","","","","","NaN",""
"","S1","","html-keyboard-response","370","442641","0.0-1.0-506.0","0","0","90802","","null","","","null","56","","","","","","","","","","","","","","","",""
"","ISI","","html-keyboard-response","371","443651","0.0-1.0-507.0","0","0","90802","","null","","","null","56","NaN","","","","","","","","","","","","","","",""
"","S2","","html-keyboard-response","372","443906","0.0-1.0-508.0","0","0","90802","","null","","","null","56","","NaN","","","","","","","","","","","","","",""
"","response","","html-keyboard-response","373","444311","0.0-1.0-509.0-0.0","0","0","90802","","402","","","75","56","","","2","56","training","adjacent","ED","5","4","Q.jpg","P.jpg","0","0","1","",""
"","feedback","","html-keyboard-response","374","445323","0.0-1.0-510.0-0.0","0","0","90802","","null","","","null","56","","","","","","","","","","","","","","","",""
"","ITI","","html-keyboard-response","375","446333","0.0-1.0-513.0","0","0","90802","","null","","","null","56","","","","","","","","","","","","","","","NaN",""
"","S1","","html-keyboard-response","376","446594","0.0-1.0-515.0","0","0","90802","","null","","","null","57","","","","","","","","","","","","","","","",""
"","ISI","","html-keyboard-response","377","447603","0.0-1.0-516.0","0","0","90802","","null","","","null","57","NaN","","","","","","","","","","","","","","",""
"","S2","","html-keyboard-response","378","447865","0.0-1.0-517.0","0","0","90802","","null","","","null","57","","NaN","","","","","","","","","","","","","",""
"","response","","html-keyboard-response","379","447979","0.0-1.0-518.0-0.0","0","0","90802","","111","","","68","57","","","2","57","training","adjacent","DC","4","3","P.jpg","M.jpg","1","0","0","",""
"","feedback","","html-keyboard-response","380","448985","0.0-1.0-519.0-0.0","0","0","90802","","null","","","null","57","","","","","","","","","","","","","","","",""
"","time_out","","html-keyboard-response","381","450994","0.0-1.0-521.0-0.0","0","0","90802","","null","","","null","57","","","","","","","","","","","","","","","",""
"","ITI","","html-keyboard-response","382","452003","0.0-1.0-522.0","0","0","90802","","null","","","null","57","","","","","","","","","","","","","","","NaN",""
"","S1","","html-keyboard-response","383","452265","0.0-1.0-524.0","0","0","90802","","null","","","null","58","","","","","","","","","","","","","","","",""
"","ISI","","html-keyboard-response","384","453274","0.0-1.0-525.0","0","0","90802","","null","","","null","58","NaN","","","","","","","","","","","","","","",""
"","S2","","html-keyboard-response","385","453530","0.0-1.0-526.0","0","0","90802","","null","","","null","58","","NaN","","","","","","","","","","","","","",""
"","response","","html-keyboard-response","386","453703","0.0-1.0-527.0-0.0","0","0","90802","","170","","","75","58","","","2","58","training","adjacent","GF","7","6","N.jpg","R.jpg","0","0","1","",""
"","feedback","","html-keyboard-response","387","454715","0.0-1.0-528.0-0.0","0","0","90802","","null","","","null","58","","","","","","","","","","","","","","","",""
"","ITI","","html-keyboard-response","388","455725","0.0-1.0-531.0","0","0","90802","","null","","","null","58","","","","","","","","","","","","","","","NaN",""
"","S1","","html-keyboard-response","389","455986","0.0-1.0-533.0","0","0","90802","","null","","","null","59","","","","","","","","","","","","","","","",""
"","ISI","","html-keyboard-response","390","456997","0.0-1.0-534.0","0","0","90802","","null","","","null","59","NaN","","","","","","","","","","","","","","",""
"","S2","","html-keyboard-response","391","457258","0.0-1.0-535.0","0","0","90802","","null","","","null","59","","NaN","","","","","","","","","","","","","",""
"","response","","html-keyboard-response","392","457364","0.0-1.0-536.0-0.0","0","0","90802","","104","","","68","59","","","2","59","training","adjacent","CD","3","4","M.jpg","P.jpg","1","1","1","",""
"","feedback","","html-keyboard-response","393","458372","0.0-1.0-537.0-0.0","0","0","90802","","null","","","null","59","","","","","","","","","","","","","","","",""
"","ITI","","html-keyboard-response","394","459376","0.0-1.0-540.0","0","0","90802","","null","","","null","59","","","","","","","","","","","","","","","NaN",""
"","S1","","html-keyboard-response","395","459632","0.0-1.0-542.0","0","0","90802","","null","","","null","60","","","","","","","","","","","","","","","",""
"","ISI","","html-keyboard-response","396","460642","0.0-1.0-543.0","0","0","90802","","null","","","null","60","NaN","","","","","","","","","","","","","","",""
"","S2","","html-keyboard-response","397","460897","0.0-1.0-544.0","0","0","90802","","null","","","null","60","","NaN","","","","","","","","","","","","","",""
"","response","","html-keyboard-response","398","461232","0.0-1.0-545.0-0.0","0","0","90802","","333","","","68","60","","","2","60","training","adjacent","FE","6","5","R.jpg","Q.jpg","1","0","0","",""
"","feedback","","html-keyboard-response","399","462244","0.0-1.0-546.0-0.0","0","0","90802","","null","","","null","60","","","","","","","","","","","","","","","",""
"","time_out","","html-keyboard-response","400","464252","0.0-1.0-548.0-0.0","0","0","90802","","null","","","null","60","","","","","","","","","","","","","","","",""
"","ITI","","html-keyboard-response","401","465257","0.0-1.0-549.0","0","0","90802","","null","","","null","60","","","","","","","","","","","","","","","NaN",""
"","S1","","html-keyboard-response","402","465513","0.0-1.0-551.0","0","0","90802","","null","","","null","61","","","","","","","","","","","","","","","",""
"","ISI","","html-keyboard-response","403","466522","0.0-1.0-552.0","0","0","90802","","null","","","null","61","NaN","","","","","","","","","","","","","","",""
"","S2","","html-keyboard-response","404","466778","0.0-1.0-553.0","0","0","90802","","null","","","null","61","","NaN","","","","","","","","","","","","","",""
"","response","","html-keyboard-response","405","467081","0.0-1.0-554.0-0.0","0","0","90802","","302","","","68","61","","","2","61","training","adjacent","GF","7","6","N.jpg","R.jpg","1","0","0","",""
"","feedback","","html-keyboard-response","406","468090","0.0-1.0-555.0-0.0","0","0","90802","","null","","","null","61","","","","","","","","","","","","","","","",""
"","time_out","","html-keyboard-response","407","470099","0.0-1.0-557.0-0.0","0","0","90802","","null","","","null","61","","","","","","","","","","","","","","","",""
"","ITI","","html-keyboard-response","408","471109","0.0-1.0-558.0","0","0","90802","","null","","","null","61","","","","","","","","","","","","","","","NaN",""
"","S1","","html-keyboard-response","409","471368","0.0-1.0-560.0","0","0","90802","","null","","","null","62","","","","","","","","","","","","","","","",""
"","ISI","","html-keyboard-response","410","472379","0.0-1.0-561.0","0","0","90802","","null","","","null","62","NaN","","","","","","","","","","","","","","",""
"","S2","","html-keyboard-response","411","472641","0.0-1.0-562.0","0","0","90802","","null","","","null","62","","NaN","","","","","","","","","","","","","",""
"","response","","html-keyboard-response","412","472763","0.0-1.0-563.0-0.0","0","0","90802","","120","","","68","62","","","2","62","training","adjacent","DE","4","5","P.jpg","Q.jpg","1","1","1","",""
"","feedback","","html-keyboard-response","413","473773","0.0-1.0-564.0-0.0","0","0","90802","","null","","","null","62","","","","","","","","","","","","","","","",""
"","ITI","","html-keyboard-response","414","474777","0.0-1.0-567.0","0","0","90802","","null","","","null","62","","","","","","","","","","","","","","","NaN",""
"","S1","","html-keyboard-response","415","475033","0.0-1.0-569.0","0","0","90802","","null","","","null","63","","","","","","","","","","","","","","","",""
"","ISI","","html-keyboard-response","416","476043","0.0-1.0-570.0","0","0","90802","","686","","","68","63","d","","","","","","","","","","","","","","",""
"","S2","","html-keyboard-response","417","476298","0.0-1.0-571.0","0","0","90802","","null","","","null","63","","NaN","","","","","","","","","","","","","",""
"","response","","html-keyboard-response","418","477289","0.0-1.0-572.0-0.0","0","0","90802","","989","","","68","63","","","2","63","training","adjacent","BC","2","3","O.jpg","M.jpg","1","1","1","",""
"","feedback","","html-keyboard-response","419","478300","0.0-1.0-573.0-0.0","0","0","90802","","null","","","null","63","","","","","","","","","","","","","","","",""
"","ITI","","html-keyboard-response","420","479305","0.0-1.0-576.0","0","0","90802","","null","","","null","63","","","","","","","","","","","","","","","NaN",""
"","S1","","html-keyboard-response","421","479564","0.0-1.0-578.0","0","0","90802","","null","","","null","64","","","","","","","","","","","","","","","",""
"","ISI","","html-keyboard-response","422","480570","0.0-1.0-579.0","0","0","90802","","null","","","null","64","NaN","","","","","","","","","","","","","","",""
"","S2","","html-keyboard-response","423","480826","0.0-1.0-580.0","0","0","90802","","null","","","null","64","","NaN","","","","","","","","","","","","","",""
"","response","","html-keyboard-response","424","480997","0.0-1.0-581.0-0.0","0","0","90802","","169","","","75","64","","","2","64","training","adjacent","BA","2","1","O.jpg","L.jpg","0","0","1","",""
"","feedback","","html-keyboard-response","425","482010","0.0-1.0-582.0-0.0","0","0","90802","","null","","","null","64","","","","","","","","","","","","","","","",""
"","ITI","","html-keyboard-response","426","483020","0.0-1.0-585.0","0","0","90802","","null","","","null","64","","","","","","","","","","","","","","","NaN",""
"","S1","","html-keyboard-response","427","483281","0.0-1.0-587.0","0","0","90802","","null","","","null","65","","","","","","","","","","","","","","","",""
"","ISI","","html-keyboard-response","428","484290","0.0-1.0-588.0","0","0","90802","","null","","","null","65","NaN","","","","","","","","","","","","","","",""
"","S2","","html-keyboard-response","429","484547","0.0-1.0-589.0","0","0","90802","","null","","","null","65","","NaN","","","","","","","","","","","","","",""
"","response","","html-keyboard-response","430","484713","0.0-1.0-590.0-0.0","0","0","90802","","164","","","68","65","","","2","65","training","adjacent","AB","1","2","L.jpg","O.jpg","1","1","1","",""
"","feedback","","html-keyboard-response","431","485720","0.0-1.0-591.0-0.0","0","0","90802","","null","","","null","65","","","","","","","","","","","","","","","",""
"","ITI","","html-keyboard-response","432","486730","0.0-1.0-594.0","0","0","90802","","null","","","null","65","","","","","","","","","","","","","","","NaN",""
"","S1","","html-keyboard-response","433","486984","0.0-1.0-596.0","0","0","90802","","null","","","null","66","","","","","","","","","","","","","","","",""
"","ISI","","html-keyboard-response","434","487995","0.0-1.0-597.0","0","0","90802","","null","","","null","66","NaN","","","","","","","","","","","","","","",""
"","S2","","html-keyboard-response","435","488256","0.0-1.0-598.0","0","0","90802","","null","","","null","66","","NaN","","","","","","","","","","","","","",""
"","response","","html-keyboard-response","436","488376","0.0-1.0-599.0-0.0","0","0","90802","","118","","","75","66","","","2","66","training","adjacent","ED","5","4","Q.jpg","P.jpg","0","0","1","",""
"","feedback","","html-keyboard-response","437","489387","0.0-1.0-600.0-0.0","0","0","90802","","null","","","null","66","","","","","","","","","","","","","","","",""
"","ITI","","html-keyboard-response","438","490392","0.0-1.0-603.0","0","0","90802","","null","","","null","66","","","","","","","","","","","","","","","NaN",""
"","S1","","html-keyboard-response","439","490648","0.0-1.0-605.0","0","0","90802","","null","","","null","67","","","","","","","","","","","","","","","",""
"","ISI","","html-keyboard-response","440","491658","0.0-1.0-606.0","0","0","90802","","null","","","null","67","NaN","","","","","","","","","","","","","","",""
"","S2","","html-keyboard-response","441","491913","0.0-1.0-607.0","0","0","90802","","null","","","null","67","","NaN","","","","","","","","","","","","","",""
"","response","","html-keyboard-response","442","492347","0.0-1.0-608.0-0.0","0","0","90802","","431","","","75","67","","","2","67","training","adjacent","CD","3","4","M.jpg","P.jpg","0","1","0","",""
"","feedback","","html-keyboard-response","443","493353","0.0-1.0-609.0-0.0","0","0","90802","","null","","","null","67","","","","","","","","","","","","","","","",""
"","time_out","","html-keyboard-response","444","495361","0.0-1.0-611.0-0.0","0","0","90802","","null","","","null","67","","","","","","","","","","","","","","","",""
"","ITI","","html-keyboard-response","445","496372","0.0-1.0-612.0","0","0","90802","","null","","","null","67","","","","","","","","","","","","","","","NaN",""
"","S1","","html-keyboard-response","446","496633","0.0-1.0-614.0","0","0","90802","","null","","","null","68","","","","","","","","","","","","","","","",""
"","ISI","","html-keyboard-response","447","497643","0.0-1.0-615.0","0","0","90802","","null","","","null","68","NaN","","","","","","","","","","","","","","",""
"","S2","","html-keyboard-response","448","497906","0.0-1.0-616.0","0","0","90802","","null","","","null","68","","NaN","","","","","","","","","","","","","",""
"","response","","html-keyboard-response","449","498341","0.0-1.0-617.0-0.0","0","0","90802","","434","","","68","68","","","2","68","training","adjacent","FE","6","5","R.jpg","Q.jpg","1","0","0","",""
"","feedback","","html-keyboard-response","450","499355","0.0-1.0-618.0-0.0","0","0","90802","","null","","","null","68","","","","","","","","","","","","","","","",""
"","time_out","","html-keyboard-response","451","501364","0.0-1.0-620.0-0.0","0","0","90802","","null","","","null","68","","","","","","","","","","","","","","","",""
"","ITI","","html-keyboard-response","452","502370","0.0-1.0-621.0","0","0","90802","","null","","","null","68","","","","","","","","","","","","","","","NaN",""
"","S1","","html-keyboard-response","453","502626","0.0-1.0-623.0","0","0","90802","","null","","","null","69","","","","","","","","","","","","","","","",""
"","ISI","","html-keyboard-response","454","503633","0.0-1.0-624.0","0","0","90802","","null","","","null","69","NaN","","","","","","","","","","","","","","",""
"","S2","","html-keyboard-response","455","503891","0.0-1.0-625.0","0","0","90802","","null","","","null","69","","NaN","","","","","","","","","","","","","",""
"","response","","html-keyboard-response","456","503951","0.0-1.0-626.0-0.0","0","0","90802","","58","","","68","69","","","2","69","training","adjacent","CB","3","2","M.jpg","O.jpg","1","0","0","",""
"","feedback","","html-keyboard-response","457","504963","0.0-1.0-627.0-0.0","0","0","90802","","null","","","null","69","","","","","","","","","","","","","","","",""
"","time_out","","html-keyboard-response","458","506971","0.0-1.0-629.0-0.0","0","0","90802","","null","","","null","69","","","","","","","","","","","","","","","",""
"","ITI","","html-keyboard-response","459","507978","0.0-1.0-630.0","0","0","90802","","null","","","null","69","","","","","","","","","","","","","","","NaN",""
"","S1","","html-keyboard-response","460","508232","0.0-1.0-632.0","0","0","90802","","null","","","null","70","","","","","","","","","","","","","","","",""
"","ISI","","html-keyboard-response","461","509241","0.0-1.0-633.0","0","0","90802","","null","","","null","70","NaN","","","","","","","","","","","","","","",""
"","S2","","html-keyboard-response","462","509497","0.0-1.0-634.0","0","0","90802","","null","","","null","70","","NaN","","","","","","","","","","","","","",""
"","response","","html-keyboard-response","463","509517","0.0-1.0-635.0-0.0","0","0","90802","","19","","","75","70","","","2","70","training","adjacent","DE","4","5","P.jpg","Q.jpg","0","1","0","",""
"","feedback","","html-keyboard-response","464","510530","0.0-1.0-636.0-0.0","0","0","90802","","null","","","null","70","","","","","","","","","","","","","","","",""
"","time_out","","html-keyboard-response","465","512539","0.0-1.0-638.0-0.0","0","0","90802","","null","","","null","70","","","","","","","","","","","","","","","",""
"","ITI","","html-keyboard-response","466","513548","0.0-1.0-639.0","0","0","90802","","null","","","null","70","","","","","","","","","","","","","","","NaN",""
"","S1","","html-keyboard-response","467","513809","0.0-1.0-641.0","0","0","90802","","null","","","null","71","","","","","","","","","","","","","","","",""
"","ISI","","html-keyboard-response","468","514818","0.0-1.0-642.0","0","0","90802","","null","","","null","71","NaN","","","","","","","","","","","","","","",""
"","S2","","html-keyboard-response","469","515076","0.0-1.0-643.0","0","0","90802","","null","","","null","71","","NaN","","","","","","","","","","","","","",""
"","response","","html-keyboard-response","470","515124","0.0-1.0-644.0-0.0","0","0","90802","","45","","","68","71","","","2","71","training","adjacent","EF","5","6","Q.jpg","R.jpg","1","1","1","",""
"","feedback","","html-keyboard-response","471","516133","0.0-1.0-645.0-0.0","0","0","90802","","null","","","null","71","","","","","","","","","","","","","","","",""
"","ITI","","html-keyboard-response","472","517140","0.0-1.0-648.0","0","0","90802","","null","","","null","71","","","","","","","","","","","","","","","NaN",""
"","S1","","html-keyboard-response","473","517403","0.0-1.0-650.0","0","0","90802","","null","","","null","72","","","","","","","","","","","","","","","",""
"","ISI","","html-keyboard-response","474","518408","0.0-1.0-651.0","0","0","90802","","null","","","null","72","NaN","","","","","","","","","","","","","","",""
"","S2","","html-keyboard-response","475","518668","0.0-1.0-652.0","0","0","90802","","null","","","null","72","","NaN","","","","","","","","","","","","","",""
"","response","","html-keyboard-response","476","518741","0.0-1.0-653.0-0.0","0","0","90802","","70","","","75","72","","","2","72","training","adjacent","BA","2","1","O.jpg","L.jpg","0","0","1","",""
"","feedback","","html-keyboard-response","477","519754","0.0-1.0-654.0-0.0","0","0","90802","","null","","","null","72","","","","","","","","","","","","","","","",""
"","ITI","","html-keyboard-response","478","520763","0.0-1.0-657.0","0","0","90802","","null","","","null","72","","","","","","","","","","","","","","","NaN",""
"","S1","","html-keyboard-response","479","521025","0.0-1.0-659.0","0","0","90802","","null","","","null","73","","","","","","","","","","","","","","","",""
"","ISI","","html-keyboard-response","480","522036","0.0-1.0-660.0","0","0","90802","","null","","","null","73","NaN","","","","","","","","","","","","","","",""
"","S2","","html-keyboard-response","481","522296","0.0-1.0-661.0","0","0","90802","","null","","","null","73","","NaN","","","","","","","","","","","","","",""
"","response","","html-keyboard-response","482","522385","0.0-1.0-662.0-0.0","0","0","90802","","86","","","75","73","","","2","73","training","adjacent","AB","1","2","L.jpg","O.jpg","0","1","0","",""
"","feedback","","html-keyboard-response","483","523393","0.0-1.0-663.0-0.0","0","0","90802","","null","","","null","73","","","","","","","","","","","","","","","",""
"","time_out","","html-keyboard-response","484","525402","0.0-1.0-665.0-0.0","0","0","90802","","null","","","null","73","","","","","","","","","","","","","","","",""
"","ITI","","html-keyboard-response","485","526413","0.0-1.0-666.0","0","0","90802","","null","","","null","73","","","","","","","","","","","","","","","NaN",""
"","S1","","html-keyboard-response","486","526674","0.0-1.0-668.0","0","0","90802","","null","","","null","74","","","","","","","","","","","","","","","",""
"","ISI","","html-keyboard-response","487","527683","0.0-1.0-669.0","0","0","90802","","null","","","null","74","NaN","","","","","","","","","","","","","","",""
"","S2","","html-keyboard-response","488","527944","0.0-1.0-670.0","0","0","90802","","null","","","null","74","","NaN","","","","","","","","","","","","","",""
"","response","","html-keyboard-response","489","527998","0.0-1.0-671.0-0.0","0","0","90802","","51","","","68","74","","","2","74","training","adjacent","DE","4","5","P.jpg","Q.jpg","1","1","1","",""
"","feedback","","html-keyboard-response","490","529013","0.0-1.0-672.0-0.0","0","0","90802","","null","","","null","74","","","","","","","","","","","","","","","",""
"","ITI","","html-keyboard-response","491","530017","0.0-1.0-675.0","0","0","90802","","null","","","null","74","","","","","","","","","","","","","","","NaN",""
"","S1","","html-keyboard-response","492","530273","0.0-1.0-677.0","0","0","90802","","null","","","null","75","","","","","","","","","","","","","","","",""
"","ISI","","html-keyboard-response","493","531282","0.0-1.0-678.0","0","0","90802","","null","","","null","75","NaN","","","","","","","","","","","","","","",""
"","S2","","html-keyboard-response","494","531538","0.0-1.0-679.0","0","0","90802","","null","","","null","75","","NaN","","","","","","","","","","","","","",""
"","response","","html-keyboard-response","495","531673","0.0-1.0-680.0-0.0","0","0","90802","","133","","","75","75","","","2","75","training","adjacent","ED","5","4","Q.jpg","P.jpg","0","0","1","",""
"","feedback","","html-keyboard-response","496","532682","0.0-1.0-681.0-0.0","0","0","90802","","null","","","null","75","","","","","","","","","","","","","","","",""
"","ITI","","html-keyboard-response","497","533692","0.0-1.0-684.0","0","0","90802","","null","","","null","75","","","","","","","","","","","","","","","NaN",""
"","S1","","html-keyboard-response","498","533956","0.0-1.0-686.0","0","0","90802","","null","","","null","76","","","","","","","","","","","","","","","",""
"","ISI","","html-keyboard-response","499","534965","0.0-1.0-687.0","0","0","90802","","null","","","null","76","NaN","","","","","","","","","","","","","","",""
"","S2","","html-keyboard-response","500","535225","0.0-1.0-688.0","0","0","90802","","null","","","null","76","","NaN","","","","","","","","","","","","","",""
"","response","","html-keyboard-response","501","535695","0.0-1.0-689.0-0.0","0","0","90802","","467","","","68","76","","","2","76","training","adjacent","EF","5","6","Q.jpg","R.jpg","1","1","1","",""
"","feedback","","html-keyboard-response","502","536704","0.0-1.0-690.0-0.0","0","0","90802","","null","","","null","76","","","","","","","","","","","","","","","",""
"","ITI","","html-keyboard-response","503","537715","0.0-1.0-693.0","0","0","90802","","null","","","null","76","","","","","","","","","","","","","","","NaN",""
"","S1","","html-keyboard-response","504","537970","0.0-1.0-695.0","0","0","90802","","null","","","null","77","","","","","","","","","","","","","","","",""
"","ISI","","html-keyboard-response","505","538980","0.0-1.0-696.0","0","0","90802","","null","","","null","77","NaN","","","","","","","","","","","","","","",""
"","S2","","html-keyboard-response","506","539241","0.0-1.0-697.0","0","0","90802","","null","","","null","77","","NaN","","","","","","","","","","","","","",""
"","response","","html-keyboard-response","507","539424","0.0-1.0-698.0-0.0","0","0","90802","","181","","","68","77","","","2","77","training","adjacent","BC","2","3","O.jpg","M.jpg","1","1","1","",""
"","feedback","","html-keyboard-response","508","540437","0.0-1.0-699.0-0.0","0","0","90802","","null","","","null","77","","","","","","","","","","","","","","","",""
"","ITI","","html-keyboard-response","509","541441","0.0-1.0-702.0","0","0","90802","","null","","","null","77","","","","","","","","","","","","","","","NaN",""
"","S1","","html-keyboard-response","510","541696","0.0-1.0-704.0","0","0","90802","","null","","","null","78","","","","","","","","","","","","","","","",""
"","ISI","","html-keyboard-response","511","542707","0.0-1.0-705.0","0","0","90802","","null","","","null","78","NaN","","","","","","","","","","","","","","",""
"","S2","","html-keyboard-response","512","542968","0.0-1.0-706.0","0","0","90802","","null","","","null","78","","NaN","","","","","","","","","","","","","",""
"","response","","html-keyboard-response","513","543041","0.0-1.0-707.0-0.0","0","0","90802","","70","","","75","78","","","2","78","training","adjacent","BC","2","3","O.jpg","M.jpg","0","1","0","",""
"","feedback","","html-keyboard-response","514","544048","0.0-1.0-708.0-0.0","0","0","90802","","null","","","null","78","","","","","","","","","","","","","","","",""
"","time_out","","html-keyboard-response","515","546056","0.0-1.0-710.0-0.0","0","0","90802","","null","","","null","78","","","","","","","","","","","","","","","",""
"","ITI","","html-keyboard-response","516","547066","0.0-1.0-711.0","0","0","90802","","null","","","null","78","","","","","","","","","","","","","","","NaN",""
"","S1","","html-keyboard-response","517","547322","0.0-1.0-713.0","0","0","90802","","null","","","null","79","","","","","","","","","","","","","","","",""
"","ISI","","html-keyboard-response","518","548332","0.0-1.0-714.0","0","0","90802","","null","","","null","79","NaN","","","","","","","","","","","","","","",""
"","S2","","html-keyboard-response","519","548593","0.0-1.0-715.0","0","0","90802","","null","","","null","79","","NaN","","","","","","","","","","","","","",""
"","response","","html-keyboard-response","520","548969","0.0-1.0-716.0-0.0","0","0","90802","","373","","","75","79","","","2","79","training","adjacent","CD","3","4","M.jpg","P.jpg","0","1","0","",""
"","feedback","","html-keyboard-response","521","549979","0.0-1.0-717.0-0.0","0","0","90802","","null","","","null","79","","","","","","","","","","","","","","","",""
"","time_out","","html-keyboard-response","522","551989","0.0-1.0-719.0-0.0","0","0","90802","","null","","","null","79","","","","","","","","","","","","","","","",""
"","ITI","","html-keyboard-response","523","552994","0.0-1.0-720.0","0","0","90802","","null","","","null","79","","","","","","","","","","","","","","","NaN",""
"","S1","","html-keyboard-response","524","553249","0.0-1.0-722.0","0","0","90802","","null","","","null","80","","","","","","","","","","","","","","","",""
"","ISI","","html-keyboard-response","525","554260","0.0-1.0-723.0","0","0","90802","","179","","","68","80","d","","","","","","","","","","","","","","",""
"","S2","","html-keyboard-response","526","554521","0.0-1.0-724.0","0","0","90802","","null","","","null","80","","NaN","","","","","","","","","","","","","",""
"","response","","html-keyboard-response","527","554607","0.0-1.0-725.0-0.0","0","0","90802","","84","","","68","80","","","2","80","training","adjacent","DC","4","3","P.jpg","M.jpg","1","0","0","",""
"","feedback","","html-keyboard-response","528","555618","0.0-1.0-726.0-0.0","0","0","90802","","null","","","null","80","","","","","","","","","","","","","","","",""
"","time_out","","html-keyboard-response","529","557626","0.0-1.0-728.0-0.0","0","0","90802","","null","","","null","80","","","","","","","","","","","","","","","",""
"","ITI","","html-keyboard-response","530","558636","0.0-1.0-729.0","0","0","90802","","null","","","null","80","","","","","","","","","","","","","","","NaN",""
"","S1","","html-keyboard-response","531","558897","0.0-1.0-731.0","0","0","90802","","null","","","null","81","","","","","","","","","","","","","","","",""
"","ISI","","html-keyboard-response","532","559907","0.0-1.0-732.0","0","0","90802","","null","","","null","81","NaN","","","","","","","","","","","","","","",""
"","S2","","html-keyboard-response","533","560163","0.0-1.0-733.0","0","0","90802","","null","","","null","81","","NaN","","","","","","","","","","","","","",""
"","response","","html-keyboard-response","534","560721","0.0-1.0-734.0-0.0","0","0","90802","","556","","","75","81","","","2","81","training","adjacent","BA","2","1","O.jpg","L.jpg","0","0","1","",""
"","feedback","","html-keyboard-response","535","561730","0.0-1.0-735.0-0.0","0","0","90802","","null","","","null","81","","","","","","","","","","","","","","","",""
"","ITI","","html-keyboard-response","536","562739","0.0-1.0-738.0","0","0","90802","","null","","","null","81","","","","","","","","","","","","","","","NaN",""
"","S1","","html-keyboard-response","537","563002","0.0-1.0-740.0","0","0","90802","","null","","","null","82","","","","","","","","","","","","","","","",""
"","ISI","","html-keyboard-response","538","564011","0.0-1.0-741.0","0","0","90802","","null","","","null","82","NaN","","","","","","","","","","","","","","",""
"","S2","","html-keyboard-response","539","564276","0.0-1.0-742.0","0","0","90802","","null","","","null","82","","NaN","","","","","","","","","","","","","",""
"","response","","html-keyboard-response","540","564745","0.0-1.0-743.0-0.0","0","0","90802","","467","","","68","82","","","2","82","training","adjacent","FG","6","7","R.jpg","N.jpg","1","1","1","",""
"","feedback","","html-keyboard-response","541","565752","0.0-1.0-744.0-0.0","0","0","90802","","null","","","null","82","","","","","","","","","","","","","","","",""
"","ITI","","html-keyboard-response","542","566763","0.0-1.0-747.0","0","0","90802","","null","","","null","82","","","","","","","","","","","","","","","NaN",""
"","S1","","html-keyboard-response","543","567020","0.0-1.0-749.0","0","0","90802","","null","","","null","83","","","","","","","","","","","","","","","",""
"","ISI","","html-keyboard-response","544","568028","0.0-1.0-750.0","0","0","90802","","null","","","null","83","NaN","","","","","","","","","","","","","","",""
"","S2","","html-keyboard-response","545","568289","0.0-1.0-751.0","0","0","90802","","null","","","null","83","","NaN","","","","","","","","","","","","","",""
"","response","","html-keyboard-response","546","568495","0.0-1.0-752.0-0.0","0","0","90802","","203","","","75","83","","","2","83","training","adjacent","ED","5","4","Q.jpg","P.jpg","0","0","1","",""
"","feedback","","html-keyboard-response","547","569509","0.0-1.0-753.0-0.0","0","0","90802","","null","","","null","83","","","","","","","","","","","","","","","",""
"","ITI","","html-keyboard-response","548","570513","0.0-1.0-756.0","0","0","90802","","null","","","null","83","","","","","","","","","","","","","","","NaN",""
"","S1","","html-keyboard-response","549","570768","0.0-1.0-758.0","0","0","90802","","null","","","null","84","","","","","","","","","","","","","","","",""
"","ISI","","html-keyboard-response","550","571778","0.0-1.0-759.0","0","0","90802","","null","","","null","84","NaN","","","","","","","","","","","","","","",""
"","S2","","html-keyboard-response","551","572034","0.0-1.0-760.0","0","0","90802","","null","","","null","84","","NaN","","","","","","","","","","","","","",""
"","response","","html-keyboard-response","552","572326","0.0-1.0-761.0-0.0","0","0","90802","","289","","","75","84","","","2","84","training","adjacent","EF","5","6","Q.jpg","R.jpg","0","1","0","",""
"","feedback","","html-keyboard-response","553","573340","0.0-1.0-762.0-0.0","0","0","90802","","null","","","null","84","","","","","","","","","","","","","","","",""
"","time_out","","html-keyboard-response","554","575348","0.0-1.0-764.0-0.0","0","0","90802","","null","","","null","84","","","","","","","","","","","","","","","",""
"","ITI","","html-keyboard-response","555","576353","0.0-1.0-765.0","0","0","90802","","null","","","null","84","","","","","","","","","","","","","","","NaN",""
"","S1","","html-keyboard-response","556","576608","0.0-1.0-767.0","0","0","90802","","null","","","null","85","","","","","","","","","","","","","","","",""
"","ISI","","html-keyboard-response","557","577619","0.0-1.0-768.0","0","0","90802","","null","","","null","85","NaN","","","","","","","","","","","","","","",""
"","S2","","html-keyboard-response","558","577873","0.0-1.0-769.0","0","0","90802","","null","","","null","85","","NaN","","","","","","","","","","","","","",""
"","response","","html-keyboard-response","559","578270","0.0-1.0-770.0-0.0","0","0","90802","","394","","","75","85","","","2","85","training","adjacent","AB","1","2","L.jpg","O.jpg","0","1","0","",""
"","feedback","","html-keyboard-response","560","579285","0.0-1.0-771.0-0.0","0","0","90802","","null","","","null","85","","","","","","","","","","","","","","","",""
"","time_out","","html-keyboard-response","561","581292","0.0-1.0-773.0-0.0","0","0","90802","","null","","","null","85","","","","","","","","","","","","","","","",""
"","ITI","","html-keyboard-response","562","582297","0.0-1.0-774.0","0","0","90802","","null","","","null","85","","","","","","","","","","","","","","","NaN",""
"","S1","","html-keyboard-response","563","582556","0.0-1.0-776.0","0","0","90802","","null","","","null","86","","","","","","","","","","","","","","","",""
"","ISI","","html-keyboard-response","564","583562","0.0-1.0-777.0","0","0","90802","","null","","","null","86","NaN","","","","","","","","","","","","","","",""
"","S2","","html-keyboard-response","565","583818","0.0-1.0-778.0","0","0","90802","","null","","","null","86","","NaN","","","","","","","","","","","","","",""
"","response","","html-keyboard-response","566","584109","0.0-1.0-779.0-0.0","0","0","90802","","289","","","68","86","","","2","86","training","adjacent","CB","3","2","M.jpg","O.jpg","1","0","0","",""
"","feedback","","html-keyboard-response","567","585112","0.0-1.0-780.0-0.0","0","0","90802","","null","","","null","86","","","","","","","","","","","","","","","",""
"","time_out","","html-keyboard-response","568","587121","0.0-1.0-782.0-0.0","0","0","90802","","null","","","null","86","","","","","","","","","","","","","","","",""
"","ITI","","html-keyboard-response","569","588131","0.0-1.0-783.0","0","0","90802","","null","","","null","86","","","","","","","","","","","","","","","NaN",""
"","S1","","html-keyboard-response","570","588392","0.0-1.0-785.0","0","0","90802","","null","","","null","87","","","","","","","","","","","","","","","",""
"","ISI","","html-keyboard-response","571","589403","0.0-1.0-786.0","0","0","90802","","null","","","null","87","NaN","","","","","","","","","","","","","","",""
"","S2","","html-keyboard-response","572","589658","0.0-1.0-787.0","0","0","90802","","null","","","null","87","","NaN","","","","","","","","","","","","","",""
"","response","","html-keyboard-response","573","590173","0.0-1.0-788.0-0.0","0","0","90802","","513","","","68","87","","","2","87","training","adjacent","FE","6","5","R.jpg","Q.jpg","1","0","0","",""
"","feedback","","html-keyboard-response","574","591179","0.0-1.0-789.0-0.0","0","0","90802","","null","","","null","87","","","","","","","","","","","","","","","",""
"","time_out","","html-keyboard-response","575","593186","0.0-1.0-791.0-0.0","0","0","90802","","null","","","null","87","","","","","","","","","","","","","","","",""
"","ITI","","html-keyboard-response","576","594195","0.0-1.0-792.0","0","0","90802","","null","","","null","87","","","","","","","","","","","","","","","NaN",""
"","S1","","html-keyboard-response","577","594458","0.0-1.0-794.0","0","0","90802","","null","","","null","88","","","","","","","","","","","","","","","",""
"","ISI","","html-keyboard-response","578","595468","0.0-1.0-795.0","0","0","90802","","null","","","null","88","NaN","","","","","","","","","","","","","","",""
"","S2","","html-keyboard-response","579","595730","0.0-1.0-796.0","0","0","90802","","null","","","null","88","","NaN","","","","","","","","","","","","","",""
"","response","","html-keyboard-response","580","596212","0.0-1.0-797.0-0.0","0","0","90802","","480","","","68","88","","","2","88","training","adjacent","BC","2","3","O.jpg","M.jpg","1","1","1","",""
"","feedback","","html-keyboard-response","581","597220","0.0-1.0-798.0-0.0","0","0","90802","","null","","","null","88","","","","","","","","","","","","","","","",""
"","ITI","","html-keyboard-response","582","598226","0.0-1.0-801.0","0","0","90802","","null","","","null","88","","","","","","","","","","","","","","","NaN",""
