"success","ttype","start_time","trial_type","trial_index","time_elapsed","internal_node_id","warning","missed_checkup","PID","view_history","rt","responses","repeat_instructions","key_press","index","keypress_isi","keypress_S2","block","trial_num","phase","group_type","pair_type","S1_stim","S2_stim","S1_img","S2_img","S1_chosen","S1_higher","accuracy","keypress_iti","total_bonus_tally"
"true","full_screen","d04132023hr2323","fullscreen","0","9941","0.0-0.0","0","0","34978","","","","","","","","","","","","","","","","","","","","","",""
"","instructions","","instructions","1","18264","0.0-1.0-0.0-0.0","0","0","34978","[{""page_index"":0,""viewing_time"":2150},{""page_index"":1,""viewing_time"":1494},{""page_index"":2,""viewing_time"":3127},{""page_index"":3,""viewing_time"":1550}]","8321","","","","","","","","","","","","","","","","","","","",""
"","comprehension_check","","survey-multi-choice","2","42716","0.0-1.0-0.0-1.0","0","0","34978","","24445","{""Q0"":""True"",""Q1"":""D"",""Q2"":""Only when the screen 'MAKE A CHOICE' is shown"",""Q3"":""Green mark"",""Q4"":""either D or K""}","1","","","","","","","","","","","","","","","","","",""
"","missed_instruction_checkup","","html-keyboard-response","3","44641","0.0-1.0-0.0-2.0-0.0","0","1","34978","","1920","","","32","","","","","","","","","","","","","","","","",""
"","instructions","","instructions","4","65922","0.0-1.0-0.1-0.1","0","0","34978","[{""page_index"":0,""viewing_time"":2857},{""page_index"":1,""viewing_time"":9834},{""page_index"":2,""viewing_time"":7109},{""page_index"":3,""viewing_time"":1478}]","21278","","","","","","","","","","","","","","","","","","","",""
"","comprehension_check","","survey-multi-choice","5","75749","0.0-1.0-0.1-1.1","0","0","34978","","9819","{""Q0"":""True"",""Q1"":""D"",""Q2"":""Once the second image appears and while the screen 'MAKE A CHOICE' is shown"",""Q3"":""Green mark"",""Q4"":""either D or K""}","0","","","","","","","","","","","","","","","","","",""
"","start_exp","","html-keyboard-response","6","76994","0.0-1.0-1.0","0","0","34978","","1242","","","32","","","","","","","","","","","","","","","","",""
"","S1","","html-keyboard-response","7","77255","0.0-1.0-2.0","0","0","34978","","null","","","null","0","","","","","","","","","","","","","","","",""
"","ISI","","html-keyboard-response","8","78263","0.0-1.0-3.0","0","0","34978","","null","","","null","0","NaN","","","","","","","","","","","","","","",""
"","S2","","html-keyboard-response","9","78522","0.0-1.0-4.0","0","0","34978","","null","","","null","0","","NaN","","","","","","","","","","","","","",""
"","response","","html-keyboard-response","10","79371","0.0-1.0-5.0-0.0","0","0","34978","","845","","","75","0","","","1","0","training","adjacent","CD","3","4","Q.jpg","L.jpg","0","1","0","",""
"","feedback","","html-keyboard-response","11","80385","0.0-1.0-6.0-0.0","0","0","34978","","null","","","null","0","","","","","","","","","","","","","","","",""
"","time_out","","html-keyboard-response","12","82391","0.0-1.0-8.0-0.0","0","0","34978","","null","","","null","0","","","","","","","","","","","","","","","",""
"","ITI","","html-keyboard-response","13","83398","0.0-1.0-9.0","0","0","34978","","null","","","null","0","","","","","","","","","","","","","","","NaN",""
"","S1","","html-keyboard-response","14","83655","0.0-1.0-11.0","0","0","34978","","null","","","null","1","","","","","","","","","","","","","","","",""
"","ISI","","html-keyboard-response","15","84663","0.0-1.0-12.0","0","0","34978","","null","","","null","1","NaN","","","","","","","","","","","","","","",""
"","S2","","html-keyboard-response","16","84919","0.0-1.0-13.0","0","0","34978","","null","","","null","1","","NaN","","","","","","","","","","","","","",""
"","response","","html-keyboard-response","17","85050","0.0-1.0-14.0-0.0","0","0","34978","","129","","","75","1","","","1","1","training","adjacent","BA","2","1","R.jpg","O.jpg","0","0","1","",""
"","feedback","","html-keyboard-response","18","86055","0.0-1.0-15.0-0.0","0","0","34978","","null","","","null","1","","","","","","","","","","","","","","","",""
"","ITI","","html-keyboard-response","19","87063","0.0-1.0-18.0","0","0","34978","","null","","","null","1","","","","","","","","","","","","","","","NaN",""
"","S1","","html-keyboard-response","20","87319","0.0-1.0-20.0","0","0","34978","","null","","","null","2","","","","","","","","","","","","","","","",""
"","ISI","","html-keyboard-response","21","88327","0.0-1.0-21.0","0","0","34978","","null","","","null","2","NaN","","","","","","","","","","","","","","",""
"","S2","","html-keyboard-response","22","88583","0.0-1.0-22.0","0","0","34978","","null","","","null","2","","NaN","","","","","","","","","","","","","",""
"","response","","html-keyboard-response","23","88624","0.0-1.0-23.0-0.0","0","0","34978","","38","","","75","2","","","1","2","training","adjacent","ED","5","4","M.jpg","L.jpg","0","0","1","",""
"","feedback","","html-keyboard-response","24","89634","0.0-1.0-24.0-0.0","0","0","34978","","null","","","null","2","","","","","","","","","","","","","","","",""
"","ITI","","html-keyboard-response","25","90641","0.0-1.0-27.0","0","0","34978","","null","","","null","2","","","","","","","","","","","","","","","NaN",""
"","S1","","html-keyboard-response","26","90903","0.0-1.0-29.0","0","0","34978","","null","","","null","3","","","","","","","","","","","","","","","",""
"","ISI","","html-keyboard-response","27","91911","0.0-1.0-30.0","0","0","34978","","null","","","null","3","NaN","","","","","","","","","","","","","","",""
"","S2","","html-keyboard-response","28","92168","0.0-1.0-31.0","0","0","34978","","null","","","null","3","","NaN","","","","","","","","","","","","","",""
"","response","","html-keyboard-response","29","92475","0.0-1.0-32.0-0.0","0","0","34978","","305","","","68","3","","","1","3","training","adjacent","GF","7","6","P.jpg","N.jpg","1","0","0","",""
"","feedback","","html-keyboard-response","30","93479","0.0-1.0-33.0-0.0","0","0","34978","","null","","","null","3","","","","","","","","","","","","","","","",""
"","time_out","","html-keyboard-response","31","95490","0.0-1.0-35.0-0.0","0","0","34978","","null","","","null","3","","","","","","","","","","","","","","","",""
"","ITI","","html-keyboard-response","32","96498","0.0-1.0-36.0","0","0","34978","","null","","","null","3","","","","","","","","","","","","","","","NaN",""
"","S1","","html-keyboard-response","33","96759","0.0-1.0-38.0","0","0","34978","","null","","","null","4","","","","","","","","","","","","","","","",""
"","ISI","","html-keyboard-response","34","97767","0.0-1.0-39.0","0","0","34978","","null","","","null","4","NaN","","","","","","","","","","","","","","",""
"","S2","","html-keyboard-response","35","98022","0.0-1.0-40.0","0","0","34978","","null","","","null","4","","NaN","","","","","","","","","","","","","",""
"","response","","html-keyboard-response","36","98290","0.0-1.0-41.0-0.0","0","0","34978","","265","","","75","4","","","1","4","training","adjacent","BA","2","1","R.jpg","O.jpg","0","0","1","",""
"","feedback","","html-keyboard-response","37","99298","0.0-1.0-42.0-0.0","0","0","34978","","null","","","null","4","","","","","","","","","","","","","","","",""
"","ITI","","html-keyboard-response","38","100306","0.0-1.0-45.0","0","0","34978","","null","","","null","4","","","","","","","","","","","","","","","NaN",""
"","S1","","html-keyboard-response","39","100567","0.0-1.0-47.0","0","0","34978","","null","","","null","5","","","","","","","","","","","","","","","",""
"","ISI","","html-keyboard-response","40","101575","0.0-1.0-48.0","0","0","34978","","null","","","null","5","NaN","","","","","","","","","","","","","","",""
"","S2","","html-keyboard-response","41","101831","0.0-1.0-49.0","0","0","34978","","null","","","null","5","","NaN","","","","","","","","","","","","","",""
"","response","","html-keyboard-response","42","101854","0.0-1.0-50.0-0.0","0","0","34978","","20","","","75","5","","","1","5","training","adjacent","BC","2","3","R.jpg","Q.jpg","0","1","0","",""
"","feedback","","html-keyboard-response","43","102866","0.0-1.0-51.0-0.0","0","0","34978","","null","","","null","5","","","","","","","","","","","","","","","",""
"","time_out","","html-keyboard-response","44","104872","0.0-1.0-53.0-0.0","0","0","34978","","null","","","null","5","","","","","","","","","","","","","","","",""
"","ITI","","html-keyboard-response","45","105879","0.0-1.0-54.0","0","0","34978","","null","","","null","5","","","","","","","","","","","","","","","NaN",""
"","S1","","html-keyboard-response","46","106135","0.0-1.0-56.0","0","0","34978","","null","","","null","6","","","","","","","","","","","","","","","",""
"","ISI","","html-keyboard-response","47","107143","0.0-1.0-57.0","0","0","34978","","null","","","null","6","NaN","","","","","","","","","","","","","","",""
"","S2","","html-keyboard-response","48","107399","0.0-1.0-58.0","0","0","34978","","null","","","null","6","","NaN","","","","","","","","","","","","","",""
"","response","","html-keyboard-response","49","107404","0.0-1.0-59.0-0.0","0","0","34978","","2","","","75","6","","","1","6","training","adjacent","BC","2","3","R.jpg","Q.jpg","0","1","0","",""
"","feedback","","html-keyboard-response","50","108418","0.0-1.0-60.0-0.0","0","0","34978","","null","","","null","6","","","","","","","","","","","","","","","",""
"","time_out","","html-keyboard-response","51","110423","0.0-1.0-62.0-0.0","0","0","34978","","null","","","null","6","","","","","","","","","","","","","","","",""
"","ITI","","html-keyboard-response","52","111431","0.0-1.0-63.0","0","0","34978","","null","","","null","6","","","","","","","","","","","","","","","NaN",""
"","S1","","html-keyboard-response","53","111687","0.0-1.0-65.0","0","0","34978","","null","","","null","7","","","","","","","","","","","","","","","",""
"","ISI","","html-keyboard-response","54","112695","0.0-1.0-66.0","0","0","34978","","null","","","null","7","NaN","","","","","","","","","","","","","","",""
"","S2","","html-keyboard-response","55","112951","0.0-1.0-67.0","0","0","34978","","null","","","null","7","","NaN","","","","","","","","","","","","","",""
"","response","","html-keyboard-response","56","112976","0.0-1.0-68.0-0.0","0","0","34978","","22","","","75","7","","","1","7","training","adjacent","CD","3","4","Q.jpg","L.jpg","0","1","0","",""
"","feedback","","html-keyboard-response","57","113986","0.0-1.0-69.0-0.0","0","0","34978","","null","","","null","7","","","","","","","","","","","","","","","",""
"","time_out","","html-keyboard-response","58","115992","0.0-1.0-71.0-0.0","0","0","34978","","null","","","null","7","","","","","","","","","","","","","","","",""
"","ITI","","html-keyboard-response","59","116995","0.0-1.0-72.0","0","0","34978","","null","","","null","7","","","","","","","","","","","","","","","NaN",""
"","S1","","html-keyboard-response","60","117251","0.0-1.0-74.0","0","0","34978","","null","","","null","8","","","","","","","","","","","","","","","",""
"","ISI","","html-keyboard-response","61","118258","0.0-1.0-75.0","0","0","34978","","107","","","68","8","d","","","","","","","","","","","","","","",""
"","S2","","html-keyboard-response","62","118514","0.0-1.0-76.0","0","0","34978","","null","","","null","8","","NaN","","","","","","","","","","","","","",""
"","response","","html-keyboard-response","63","119139","0.0-1.0-77.0-0.0","0","0","34978","","623","","","68","8","","","1","8","training","adjacent","EF","5","6","M.jpg","N.jpg","1","1","1","",""
"","feedback","","html-keyboard-response","64","120144","0.0-1.0-78.0-0.0","0","0","34978","","null","","","null","8","","","","","","","","","","","","","","","",""
"","ITI","","html-keyboard-response","65","121150","0.0-1.0-81.0","0","0","34978","","null","","","null","8","","","","","","","","","","","","","","","NaN",""
"","S1","","html-keyboard-response","66","121407","0.0-1.0-83.0","0","0","34978","","null","","","null","9","","","","","","","","","","","","","","","",""
"","ISI","","html-keyboard-response","67","122414","0.0-1.0-84.0","0","0","34978","","null","","","null","9","NaN","","","","","","","","","","","","","","",""
"","S2","","html-keyboard-response","68","122670","0.0-1.0-85.0","0","0","34978","","null","","","null","9","","NaN","","","","","","","","","","","","","",""
"","response","","html-keyboard-response","69","122718","0.0-1.0-86.0-0.0","0","0","34978","","45","","","68","9","","","1","9","training","adjacent","DE","4","5","L.jpg","M.jpg","1","1","1","",""
"","feedback","","html-keyboard-response","70","123725","0.0-1.0-87.0-0.0","0","0","34978","","null","","","null","9","","","","","","","","","","","","","","","",""
"","ITI","","html-keyboard-response","71","124733","0.0-1.0-90.0","0","0","34978","","null","","","null","9","","","","","","","","","","","","","","","NaN",""
"","S1","","html-keyboard-response","72","124988","0.0-1.0-92.0","0","0","34978","","null","","","null","10","","","","","","","","","","","","","","","",""
"","ISI","","html-keyboard-response","73","125996","0.0-1.0-93.0","0","0","34978","","null","","","null","10","NaN","","","","","","","","","","","","","","",""
"","S2","","html-keyboard-response","74","126251","0.0-1.0-94.0","0","0","34978","","null","","","null","10","","NaN","","","","","","","","","","","","","",""
"","response","","html-keyboard-response","75","126450","0.0-1.0-95.0-0.0","0","0","34978","","196","","","68","10","","","1","10","training","adjacent","CD","3","4","Q.jpg","L.jpg","1","1","1","",""
"","feedback","","html-keyboard-response","76","127461","0.0-1.0-96.0-0.0","0","0","34978","","null","","","null","10","","","","","","","","","","","","","","","",""
"","ITI","","html-keyboard-response","77","128469","0.0-1.0-99.0","0","0","34978","","null","","","null","10","","","","","","","","","","","","","","","NaN",""
"","S1","","html-keyboard-response","78","128730","0.0-1.0-101.0","0","0","34978","","null","","","null","11","","","","","","","","","","","","","","","",""
"","ISI","","html-keyboard-response","79","129738","0.0-1.0-102.0","0","0","34978","","null","","","null","11","NaN","","","","","","","","","","","","","","",""
"","S2","","html-keyboard-response","80","129781","0.0-1.0-103.0","0","0","34978","","40","","","68","11","","d","1","11","training","adjacent","BA","2","1","R.jpg","O.jpg","1","0","0","",""
"","feedback","","html-keyboard-response","81","130793","0.0-1.0-105.0-0.0","0","0","34978","","null","","","null","11","","","","","","","","","","","","","","","",""
"","time_out","","html-keyboard-response","82","132802","0.0-1.0-107.0-0.0","0","0","34978","","null","","","null","11","","","","","","","","","","","","","","","",""
"","ITI","","html-keyboard-response","83","133810","0.0-1.0-108.0","0","0","34978","","null","","","null","11","","","","","","","","","","","","","","","NaN",""
"","S1","","html-keyboard-response","84","134072","0.0-1.0-110.0","0","0","34978","","null","","","null","12","","","","","","","","","","","","","","","",""
"","ISI","","html-keyboard-response","85","135079","0.0-1.0-111.0","0","0","34978","","39","","","68","12","d","","","","","","","","","","","","","","",""
"","S2","","html-keyboard-response","86","135335","0.0-1.0-112.0","0","0","34978","","null","","","null","12","","NaN","","","","","","","","","","","","","",""
"","response","","html-keyboard-response","87","135433","0.0-1.0-113.0-0.0","0","0","34978","","94","","","68","12","","","1","12","training","adjacent","GF","7","6","P.jpg","N.jpg","1","0","0","",""
"","feedback","","html-keyboard-response","88","136439","0.0-1.0-114.0-0.0","0","0","34978","","null","","","null","12","","","","","","","","","","","","","","","",""
"","time_out","","html-keyboard-response","89","138448","0.0-1.0-116.0-0.0","0","0","34978","","null","","","null","12","","","","","","","","","","","","","","","",""
"","ITI","","html-keyboard-response","90","139457","0.0-1.0-117.0","0","0","34978","","null","","","null","12","","","","","","","","","","","","","","","NaN",""
"","S1","","html-keyboard-response","91","139717","0.0-1.0-119.0","0","0","34978","","null","","","null","13","","","","","","","","","","","","","","","",""
"","ISI","","html-keyboard-response","92","140725","0.0-1.0-120.0","0","0","34978","","null","","","null","13","NaN","","","","","","","","","","","","","","",""
"","S2","","html-keyboard-response","93","140959","0.0-1.0-121.0","0","0","34978","","232","","","75","13","","k","1","13","training","adjacent","AB","1","2","O.jpg","R.jpg","0","1","0","",""
"","feedback","","html-keyboard-response","94","141968","0.0-1.0-123.0-0.0","0","0","34978","","null","","","null","13","","","","","","","","","","","","","","","",""
"","time_out","","html-keyboard-response","95","143973","0.0-1.0-125.0-0.0","0","0","34978","","null","","","null","13","","","","","","","","","","","","","","","",""
"","ITI","","html-keyboard-response","96","144981","0.0-1.0-126.0","0","0","34978","","null","","","null","13","","","","","","","","","","","","","","","NaN",""
"","S1","","html-keyboard-response","97","145236","0.0-1.0-128.0","0","0","34978","","null","","","null","14","","","","","","","","","","","","","","","",""
"","ISI","","html-keyboard-response","98","146245","0.0-1.0-129.0","0","0","34978","","451","","","68","14","d","","","","","","","","","","","","","","",""
"","S2","","html-keyboard-response","99","146501","0.0-1.0-130.0","0","0","34978","","null","","","null","14","","NaN","","","","","","","","","","","","","",""
"","response","","html-keyboard-response","100","146963","0.0-1.0-131.0-0.0","0","0","34978","","460","","","68","14","","","1","14","training","adjacent","DC","4","3","L.jpg","Q.jpg","1","0","0","",""
"","feedback","","html-keyboard-response","101","147973","0.0-1.0-132.0-0.0","0","0","34978","","null","","","null","14","","","","","","","","","","","","","","","",""
"","time_out","","html-keyboard-response","102","149983","0.0-1.0-134.0-0.0","0","0","34978","","null","","","null","14","","","","","","","","","","","","","","","",""
"","ITI","","html-keyboard-response","103","150990","0.0-1.0-135.0","0","0","34978","","null","","","null","14","","","","","","","","","","","","","","","NaN",""
"","S1","","html-keyboard-response","104","151252","0.0-1.0-137.0","0","0","34978","","null","","","null","15","","","","","","","","","","","","","","","",""
"","ISI","","html-keyboard-response","105","152259","0.0-1.0-138.0","0","0","34978","","null","","","null","15","NaN","","","","","","","","","","","","","","",""
"","S2","","html-keyboard-response","106","152416","0.0-1.0-139.0","0","0","34978","","155","","","68","15","","d","1","15","training","adjacent","DC","4","3","L.jpg","Q.jpg","1","0","0","",""
"","feedback","","html-keyboard-response","107","153428","0.0-1.0-141.0-0.0","0","0","34978","","null","","","null","15","","","","","","","","","","","","","","","",""
"","time_out","","html-keyboard-response","108","155442","0.0-1.0-143.0-0.0","0","0","34978","","null","","","null","15","","","","","","","","","","","","","","","",""
"","ITI","","html-keyboard-response","109","156451","0.0-1.0-144.0","0","0","34978","","null","","","null","15","","","","","","","","","","","","","","","NaN",""
"","S1","","html-keyboard-response","110","156706","0.0-1.0-146.0","0","0","34978","","null","","","null","16","","","","","","","","","","","","","","","",""
"","ISI","","html-keyboard-response","111","157715","0.0-1.0-147.0","0","0","34978","","null","","","null","16","NaN","","","","","","","","","","","","","","",""
"","S2","","html-keyboard-response","112","157762","0.0-1.0-148.0","0","0","34978","","44","","","75","16","","k","1","16","training","adjacent","DE","4","5","L.jpg","M.jpg","0","1","0","",""
"","feedback","","html-keyboard-response","113","158772","0.0-1.0-150.0-0.0","0","0","34978","","null","","","null","16","","","","","","","","","","","","","","","",""
"","time_out","","html-keyboard-response","114","160783","0.0-1.0-152.0-0.0","0","0","34978","","null","","","null","16","","","","","","","","","","","","","","","",""
"","ITI","","html-keyboard-response","115","161790","0.0-1.0-153.0","0","0","34978","","null","","","null","16","","","","","","","","","","","","","","","NaN",""
"","S1","","html-keyboard-response","116","162051","0.0-1.0-155.0","0","0","34978","","null","","","null","17","","","","","","","","","","","","","","","",""
"","ISI","","html-keyboard-response","117","163060","0.0-1.0-156.0","0","0","34978","","null","","","null","17","NaN","","","","","","","","","","","","","","",""
"","S2","","html-keyboard-response","118","163315","0.0-1.0-157.0","0","0","34978","","null","","","null","17","","NaN","","","","","","","","","","","","","",""
"","response","","html-keyboard-response","119","163757","0.0-1.0-158.0-0.0","0","0","34978","","439","","","68","17","","","1","17","training","adjacent","FE","6","5","N.jpg","M.jpg","1","0","0","",""
"","feedback","","html-keyboard-response","120","164766","0.0-1.0-159.0-0.0","0","0","34978","","null","","","null","17","","","","","","","","","","","","","","","",""
"","time_out","","html-keyboard-response","121","166771","0.0-1.0-161.0-0.0","0","0","34978","","null","","","null","17","","","","","","","","","","","","","","","",""
"","ITI","","html-keyboard-response","122","167779","0.0-1.0-162.0","0","0","34978","","null","","","null","17","","","","","","","","","","","","","","","NaN",""
"","S1","","html-keyboard-response","123","168035","0.0-1.0-164.0","0","0","34978","","null","","","null","18","","","","","","","","","","","","","","","",""
"","ISI","","html-keyboard-response","124","169046","0.0-1.0-165.0","0","0","34978","","null","","","null","18","NaN","","","","","","","","","","","","","","",""
"","S2","","html-keyboard-response","125","169310","0.0-1.0-166.0","0","0","34978","","null","","","null","18","","NaN","","","","","","","","","","","","","",""
"","response","","html-keyboard-response","126","169341","0.0-1.0-167.0-0.0","0","0","34978","","29","","","68","18","","","1","18","training","adjacent","FG","6","7","N.jpg","P.jpg","1","1","1","",""
"","feedback","","html-keyboard-response","127","170350","0.0-1.0-168.0-0.0","0","0","34978","","null","","","null","18","","","","","","","","","","","","","","","",""
"","ITI","","html-keyboard-response","128","171358","0.0-1.0-171.0","0","0","34978","","null","","","null","18","","","","","","","","","","","","","","","NaN",""
"","S1","","html-keyboard-response","129","171619","0.0-1.0-173.0","0","0","34978","","null","","","null","19","","","","","","","","","","","","","","","",""
"","ISI","","html-keyboard-response","130","172627","0.0-1.0-174.0","0","0","34978","","null","","","null","19","NaN","","","","","","","","","","","","","","",""
"","S2","","html-keyboard-response","131","172883","0.0-1.0-175.0","0","0","34978","","null","","","null","19","","NaN","","","","","","","","","","","","","",""
"","response","","html-keyboard-response","132","173119","0.0-1.0-176.0-0.0","0","0","34978","","233","","","68","19","","","1","19","training","adjacent","ED","5","4","M.jpg","L.jpg","1","0","0","",""
"","feedback","","html-keyboard-response","133","174131","0.0-1.0-177.0-0.0","0","0","34978","","null","","","null","19","","","","","","","","","","","","","","","",""
"","time_out","","html-keyboard-response","134","176142","0.0-1.0-179.0-0.0","0","0","34978","","null","","","null","19","","","","","","","","","","","","","","","",""
"","ITI","","html-keyboard-response","135","177150","0.0-1.0-180.0","0","0","34978","","null","","","null","19","","","","","","","","","","","","","","","NaN",""
"","S1","","html-keyboard-response","136","177412","0.0-1.0-182.0","0","0","34978","","null","","","null","20","","","","","","","","","","","","","","","",""
"","ISI","","html-keyboard-response","137","178419","0.0-1.0-183.0","0","0","34978","","104","","","68","20","d","","","","","","","","","","","","","","",""
"","S2","","html-keyboard-response","138","178676","0.0-1.0-184.0","0","0","34978","","null","","","null","20","","NaN","","","","","","","","","","","","","",""
"","response","","html-keyboard-response","139","178790","0.0-1.0-185.0-0.0","0","0","34978","","112","","","68","20","","","1","20","training","adjacent","FE","6","5","N.jpg","M.jpg","1","0","0","",""
"","feedback","","html-keyboard-response","140","179795","0.0-1.0-186.0-0.0","0","0","34978","","null","","","null","20","","","","","","","","","","","","","","","",""
"","time_out","","html-keyboard-response","141","181806","0.0-1.0-188.0-0.0","0","0","34978","","null","","","null","20","","","","","","","","","","","","","","","",""
"","ITI","","html-keyboard-response","142","182814","0.0-1.0-189.0","0","0","34978","","null","","","null","20","","","","","","","","","","","","","","","NaN",""
"","S1","","html-keyboard-response","143","183075","0.0-1.0-191.0","0","0","34978","","null","","","null","21","","","","","","","","","","","","","","","",""
"","ISI","","html-keyboard-response","144","184083","0.0-1.0-192.0","0","0","34978","","null","","","null","21","NaN","","","","","","","","","","","","","","",""
"","S2","","html-keyboard-response","145","184343","0.0-1.0-193.0","0","0","34978","","null","","","null","21","","NaN","","","","","","","","","","","","","",""
"","response","","html-keyboard-response","146","184392","0.0-1.0-194.0-0.0","0","0","34978","","46","","","75","21","","","1","21","training","adjacent","GF","7","6","P.jpg","N.jpg","0","0","1","",""
"","feedback","","html-keyboard-response","147","185406","0.0-1.0-195.0-0.0","0","0","34978","","null","","","null","21","","","","","","","","","","","","","","","",""
"","ITI","","html-keyboard-response","148","186414","0.0-1.0-198.0","0","0","34978","","null","","","null","21","","","","","","","","","","","","","","","NaN",""
"","S1","","html-keyboard-response","149","186675","0.0-1.0-200.0","0","0","34978","","null","","","null","22","","","","","","","","","","","","","","","",""
"","ISI","","html-keyboard-response","150","187683","0.0-1.0-201.0","0","0","34978","","null","","","null","22","NaN","","","","","","","","","","","","","","",""
"","S2","","html-keyboard-response","151","187939","0.0-1.0-202.0","0","0","34978","","null","","","null","22","","NaN","","","","","","","","","","","","","",""
"","response","","html-keyboard-response","152","188332","0.0-1.0-203.0-0.0","0","0","34978","","390","","","75","22","","","1","22","training","adjacent","EF","5","6","M.jpg","N.jpg","0","1","0","",""
"","feedback","","html-keyboard-response","153","189341","0.0-1.0-204.0-0.0","0","0","34978","","null","","","null","22","","","","","","","","","","","","","","","",""
"","time_out","","html-keyboard-response","154","191347","0.0-1.0-206.0-0.0","0","0","34978","","null","","","null","22","","","","","","","","","","","","","","","",""
"","ITI","","html-keyboard-response","155","192355","0.0-1.0-207.0","0","0","34978","","null","","","null","22","","","","","","","","","","","","","","","NaN",""
"","S1","","html-keyboard-response","156","192611","0.0-1.0-209.0","0","0","34978","","null","","","null","23","","","","","","","","","","","","","","","",""
"","ISI","","html-keyboard-response","157","193619","0.0-1.0-210.0","0","0","34978","","620","","","75","23","k","","","","","","","","","","","","","","",""
"","S2","","html-keyboard-response","158","193875","0.0-1.0-211.0","0","0","34978","","null","","","null","23","","NaN","","","","","","","","","","","","","",""
"","response","","html-keyboard-response","159","194753","0.0-1.0-212.0-0.0","0","0","34978","","875","","","75","23","","","1","23","training","adjacent","FG","6","7","N.jpg","P.jpg","0","1","0","",""
"","feedback","","html-keyboard-response","160","195763","0.0-1.0-213.0-0.0","0","0","34978","","null","","","null","23","","","","","","","","","","","","","","","",""
"","time_out","","html-keyboard-response","161","197774","0.0-1.0-215.0-0.0","0","0","34978","","null","","","null","23","","","","","","","","","","","","","","","",""
"","ITI","","html-keyboard-response","162","198781","0.0-1.0-216.0","0","0","34978","","null","","","null","23","","","","","","","","","","","","","","","NaN",""
"","S1","","html-keyboard-response","163","199044","0.0-1.0-218.0","0","0","34978","","null","","","null","24","","","","","","","","","","","","","","","",""
"","ISI","","html-keyboard-response","164","200052","0.0-1.0-219.0","0","0","34978","","125","","","68","24","d","","","","","","","","","","","","","","",""
"","S2","","html-keyboard-response","165","200308","0.0-1.0-220.0","0","0","34978","","null","","","null","24","","NaN","","","","","","","","","","","","","",""
"","response","","html-keyboard-response","166","201254","0.0-1.0-221.0-0.0","0","0","34978","","944","","","68","24","","","1","24","training","adjacent","ED","5","4","M.jpg","L.jpg","1","0","0","",""
"","feedback","","html-keyboard-response","167","202260","0.0-1.0-222.0-0.0","0","0","34978","","null","","","null","24","","","","","","","","","","","","","","","",""
"","time_out","","html-keyboard-response","168","204270","0.0-1.0-224.0-0.0","0","0","34978","","null","","","null","24","","","","","","","","","","","","","","","",""
"","ITI","","html-keyboard-response","169","205278","0.0-1.0-225.0","0","0","34978","","null","","","null","24","","","","","","","","","","","","","","","NaN",""
"","S1","","html-keyboard-response","170","205539","0.0-1.0-227.0","0","0","34978","","null","","","null","25","","","","","","","","","","","","","","","",""
"","ISI","","html-keyboard-response","171","206548","0.0-1.0-228.0","0","0","34978","","null","","","null","25","NaN","","","","","","","","","","","","","","",""
"","S2","","html-keyboard-response","172","206804","0.0-1.0-229.0","0","0","34978","","null","","","null","25","","NaN","","","","","","","","","","","","","",""
"","response","","html-keyboard-response","173","207290","0.0-1.0-230.0-0.0","0","0","34978","","484","","","68","25","","","1","25","training","adjacent","CB","3","2","Q.jpg","R.jpg","1","0","0","",""
"","feedback","","html-keyboard-response","174","208302","0.0-1.0-231.0-0.0","0","0","34978","","null","","","null","25","","","","","","","","","","","","","","","",""
"","time_out","","html-keyboard-response","175","210308","0.0-1.0-233.0-0.0","0","0","34978","","null","","","null","25","","","","","","","","","","","","","","","",""
"","ITI","","html-keyboard-response","176","211316","0.0-1.0-234.0","0","0","34978","","null","","","null","25","","","","","","","","","","","","","","","NaN",""
"","S1","","html-keyboard-response","177","211572","0.0-1.0-236.0","0","0","34978","","null","","","null","26","","","","","","","","","","","","","","","",""
"","ISI","","html-keyboard-response","178","212580","0.0-1.0-237.0","0","0","34978","","null","","","null","26","NaN","","","","","","","","","","","","","","",""
"","S2","","html-keyboard-response","179","212836","0.0-1.0-238.0","0","0","34978","","null","","","null","26","","NaN","","","","","","","","","","","","","",""
"","response","","html-keyboard-response","180","213263","0.0-1.0-239.0-0.0","0","0","34978","","424","","","75","26","","","1","26","training","adjacent","GF","7","6","P.jpg","N.jpg","0","0","1","",""
"","feedback","","html-keyboard-response","181","214270","0.0-1.0-240.0-0.0","0","0","34978","","null","","","null","26","","","","","","","","","","","","","","","",""
"","ITI","","html-keyboard-response","182","215279","0.0-1.0-243.0","0","0","34978","","null","","","null","26","","","","","","","","","","","","","","","NaN",""
"","S1","","html-keyboard-response","183","215543","0.0-1.0-245.0","0","0","34978","","null","","","null","27","","","","","","","","","","","","","","","",""
"","ISI","","html-keyboard-response","184","216550","0.0-1.0-246.0","0","0","34978","","null","","","null","27","NaN","","","","","","","","","","","","","","",""
"","S2","","html-keyboard-response","185","216814","0.0-1.0-247.0","0","0","34978","","null","","","null","27","","NaN","","","","","","","","","","","","","",""
"","response","","html-keyboard-response","186","217681","0.0-1.0-248.0-0.0","0","0","34978","","863","","","75","27","","","1","27","training","adjacent","ED","5","4","M.jpg","L.jpg","0","0","1","",""
"","feedback","","html-keyboard-response","187","218692","0.0-1.0-249.0-0.0","0","0","34978","","null","","","null","27","","","","","","","","","","","","","","","",""
"","ITI","","html-keyboard-response","188","219700","0.0-1.0-252.0","0","0","34978","","null","","","null","27","","","","","","","","","","","","","","","NaN",""
"","S1","","html-keyboard-response","189","219956","0.0-1.0-254.0","0","0","34978","","null","","","null","28","","","","","","","","","","","","","","","",""
"","ISI","","html-keyboard-response","190","220964","0.0-1.0-255.0","0","0","34978","","null","","","null","28","NaN","","","","","","","","","","","","","","",""
"","S2","","html-keyboard-response","191","221220","0.0-1.0-256.0","0","0","34978","","null","","","null","28","","NaN","","","","","","","","","","","","","",""
"","response","","html-keyboard-response","192","221521","0.0-1.0-257.0-0.0","0","0","34978","","298","","","75","28","","","1","28","training","adjacent","FG","6","7","N.jpg","P.jpg","0","1","0","",""
"","feedback","","html-keyboard-response","193","222532","0.0-1.0-258.0-0.0","0","0","34978","","null","","","null","28","","","","","","","","","","","","","","","",""
"","time_out","","html-keyboard-response","194","224543","0.0-1.0-260.0-0.0","0","0","34978","","null","","","null","28","","","","","","","","","","","","","","","",""
"","ITI","","html-keyboard-response","195","225549","0.0-1.0-261.0","0","0","34978","","null","","","null","28","","","","","","","","","","","","","","","NaN",""
"","S1","","html-keyboard-response","196","225807","0.0-1.0-263.0","0","0","34978","","null","","","null","29","","","","","","","","","","","","","","","",""
"","ISI","","html-keyboard-response","197","226815","0.0-1.0-264.0","0","0","34978","","368","","","68","29","d","","","","","","","","","","","","","","",""
"","S2","","html-keyboard-response","198","226821","0.0-1.0-265.0","0","0","34978","","3","","","68","29","","d","1","29","training","adjacent","BC","2","3","R.jpg","Q.jpg","1","1","1","",""
"","feedback","","html-keyboard-response","199","227828","0.0-1.0-267.0-0.0","0","0","34978","","null","","","null","29","","","","","","","","","","","","","","","",""
"","ITI","","html-keyboard-response","200","228836","0.0-1.0-270.0","0","0","34978","","null","","","null","29","","","","","","","","","","","","","","","NaN",""
"","S1","","html-keyboard-response","201","229091","0.0-1.0-272.0","0","0","34978","","null","","","null","30","","","","","","","","","","","","","","","",""
"","ISI","","html-keyboard-response","202","230100","0.0-1.0-273.0","0","0","34978","","null","","","null","30","NaN","","","","","","","","","","","","","","",""
"","S2","","html-keyboard-response","203","230356","0.0-1.0-274.0","0","0","34978","","null","","","null","30","","NaN","","","","","","","","","","","","","",""
"","response","","html-keyboard-response","204","231087","0.0-1.0-275.0-0.0","0","0","34978","","728","","","68","30","","","1","30","training","adjacent","BC","2","3","R.jpg","Q.jpg","1","1","1","",""
"","feedback","","html-keyboard-response","205","232095","0.0-1.0-276.0-0.0","0","0","34978","","null","","","null","30","","","","","","","","","","","","","","","",""
"","ITI","","html-keyboard-response","206","233103","0.0-1.0-279.0","0","0","34978","","null","","","null","30","","","","","","","","","","","","","","","NaN",""
"","S1","","html-keyboard-response","207","233368","0.0-1.0-281.0","0","0","34978","","null","","","null","31","","","","","","","","","","","","","","","",""
"","ISI","","html-keyboard-response","208","234372","0.0-1.0-282.0","0","0","34978","","null","","","null","31","NaN","","","","","","","","","","","","","","",""
"","S2","","html-keyboard-response","209","234598","0.0-1.0-283.0","0","0","34978","","222","","","68","31","","d","1","31","training","adjacent","AB","1","2","O.jpg","R.jpg","1","1","1","",""
"","feedback","","html-keyboard-response","210","235605","0.0-1.0-285.0-0.0","0","0","34978","","null","","","null","31","","","","","","","","","","","","","","","",""
"","ITI","","html-keyboard-response","211","236613","0.0-1.0-288.0","0","0","34978","","null","","","null","31","","","","","","","","","","","","","","","NaN",""
"","S1","","html-keyboard-response","212","236868","0.0-1.0-290.0","0","0","34978","","null","","","null","32","","","","","","","","","","","","","","","",""
"","ISI","","html-keyboard-response","213","237877","0.0-1.0-291.0","0","0","34978","","null","","","null","32","NaN","","","","","","","","","","","","","","",""
"","S2","","html-keyboard-response","214","238133","0.0-1.0-292.0","0","0","34978","","null","","","null","32","","NaN","","","","","","","","","","","","","",""
"","response","","html-keyboard-response","215","239712","0.0-1.0-293.0-0.0","0","0","34978","","1576","","","68","32","","","1","32","training","adjacent","FG","6","7","N.jpg","P.jpg","1","1","1","",""
"","feedback","","html-keyboard-response","216","240719","0.0-1.0-294.0-0.0","0","0","34978","","null","","","null","32","","","","","","","","","","","","","","","",""
"","ITI","","html-keyboard-response","217","241727","0.0-1.0-297.0","0","0","34978","","null","","","null","32","","","","","","","","","","","","","","","NaN",""
"","S1","","html-keyboard-response","218","241988","0.0-1.0-299.0","0","0","34978","","null","","","null","33","","","","","","","","","","","","","","","",""
"","ISI","","html-keyboard-response","219","242998","0.0-1.0-300.0","0","0","34978","","null","","","null","33","NaN","","","","","","","","","","","","","","",""
"","S2","","html-keyboard-response","220","243263","0.0-1.0-301.0","0","0","34978","","null","","","null","33","","NaN","","","","","","","","","","","","","",""
"","response","","html-keyboard-response","221","244154","0.0-1.0-302.0-0.0","0","0","34978","","888","","","68","33","","","1","33","training","adjacent","AB","1","2","O.jpg","R.jpg","1","1","1","",""
"","feedback","","html-keyboard-response","222","245167","0.0-1.0-303.0-0.0","0","0","34978","","null","","","null","33","","","","","","","","","","","","","","","",""
"","ITI","","html-keyboard-response","223","246175","0.0-1.0-306.0","0","0","34978","","null","","","null","33","","","","","","","","","","","","","","","NaN",""
"","S1","","html-keyboard-response","224","246436","0.0-1.0-308.0","0","0","34978","","null","","","null","34","","","","","","","","","","","","","","","",""
"","ISI","","html-keyboard-response","225","247445","0.0-1.0-309.0","0","0","34978","","null","","","null","34","NaN","","","","","","","","","","","","","","",""
"","S2","","html-keyboard-response","226","247700","0.0-1.0-310.0","0","0","34978","","null","","","null","34","","NaN","","","","","","","","","","","","","",""
"","response","","html-keyboard-response","227","248019","0.0-1.0-311.0-0.0","0","0","34978","","315","","","68","34","","","1","34","training","adjacent","CD","3","4","Q.jpg","L.jpg","1","1","1","",""
"","feedback","","html-keyboard-response","228","249029","0.0-1.0-312.0-0.0","0","0","34978","","null","","","null","34","","","","","","","","","","","","","","","",""
"","ITI","","html-keyboard-response","229","250037","0.0-1.0-315.0","0","0","34978","","null","","","null","34","","","","","","","","","","","","","","","NaN",""
"","S1","","html-keyboard-response","230","250293","0.0-1.0-317.0","0","0","34978","","null","","","null","35","","","","","","","","","","","","","","","",""
"","ISI","","html-keyboard-response","231","251301","0.0-1.0-318.0","0","0","34978","","null","","","null","35","NaN","","","","","","","","","","","","","","",""
"","S2","","html-keyboard-response","232","251557","0.0-1.0-319.0","0","0","34978","","null","","","null","35","","NaN","","","","","","","","","","","","","",""
"","response","","html-keyboard-response","233","251723","0.0-1.0-320.0-0.0","0","0","34978","","163","","","68","35","","","1","35","training","adjacent","FE","6","5","N.jpg","M.jpg","1","0","0","",""
"","feedback","","html-keyboard-response","234","252736","0.0-1.0-321.0-0.0","0","0","34978","","null","","","null","35","","","","","","","","","","","","","","","",""
"","time_out","","html-keyboard-response","235","254741","0.0-1.0-323.0-0.0","0","0","34978","","null","","","null","35","","","","","","","","","","","","","","","",""
"","ITI","","html-keyboard-response","236","255749","0.0-1.0-324.0","0","0","34978","","null","","","null","35","","","","","","","","","","","","","","","NaN",""
"","S1","","html-keyboard-response","237","256005","0.0-1.0-326.0","0","0","34978","","null","","","null","36","","","","","","","","","","","","","","","",""
"","ISI","","html-keyboard-response","238","257013","0.0-1.0-327.0","0","0","34978","","92","","","75","36","k","","","","","","","","","","","","","","",""
"","S2","","html-keyboard-response","239","257269","0.0-1.0-328.0","0","0","34978","","null","","","null","36","","NaN","","","","","","","","","","","","","",""
"","response","","html-keyboard-response","240","257713","0.0-1.0-329.0-0.0","0","0","34978","","442","","","75","36","","","1","36","training","adjacent","EF","5","6","M.jpg","N.jpg","0","1","0","",""
"","feedback","","html-keyboard-response","241","258725","0.0-1.0-330.0-0.0","0","0","34978","","null","","","null","36","","","","","","","","","","","","","","","",""
"","time_out","","html-keyboard-response","242","260736","0.0-1.0-332.0-0.0","0","0","34978","","null","","","null","36","","","","","","","","","","","","","","","",""
"","ITI","","html-keyboard-response","243","261744","0.0-1.0-333.0","0","0","34978","","null","","","null","36","","","","","","","","","","","","","","","NaN",""
"","S1","","html-keyboard-response","244","262005","0.0-1.0-335.0","0","0","34978","","null","","","null","37","","","","","","","","","","","","","","","",""
"","ISI","","html-keyboard-response","245","263013","0.0-1.0-336.0","0","0","34978","","null","","","null","37","NaN","","","","","","","","","","","","","","",""
"","S2","","html-keyboard-response","246","263269","0.0-1.0-337.0","0","0","34978","","null","","","null","37","","NaN","","","","","","","","","","","","","",""
"","response","","html-keyboard-response","247","263433","0.0-1.0-338.0-0.0","0","0","34978","","161","","","68","37","","","1","37","training","adjacent","BA","2","1","R.jpg","O.jpg","1","0","0","",""
"","feedback","","html-keyboard-response","248","264448","0.0-1.0-339.0-0.0","0","0","34978","","null","","","null","37","","","","","","","","","","","","","","","",""
"","time_out","","html-keyboard-response","249","266453","0.0-1.0-341.0-0.0","0","0","34978","","null","","","null","37","","","","","","","","","","","","","","","",""
"","ITI","","html-keyboard-response","250","267462","0.0-1.0-342.0","0","0","34978","","null","","","null","37","","","","","","","","","","","","","","","NaN",""
"","S1","","html-keyboard-response","251","267717","0.0-1.0-344.0","0","0","34978","","null","","","null","38","","","","","","","","","","","","","","","",""
"","ISI","","html-keyboard-response","252","268726","0.0-1.0-345.0","0","0","34978","","null","","","null","38","NaN","","","","","","","","","","","","","","",""
"","S2","","html-keyboard-response","253","268982","0.0-1.0-346.0","0","0","34978","","null","","","null","38","","NaN","","","","","","","","","","","","","",""
"","response","","html-keyboard-response","254","269611","0.0-1.0-347.0-0.0","0","0","34978","","627","","","75","38","","","1","38","training","adjacent","CB","3","2","Q.jpg","R.jpg","0","0","1","",""
"","feedback","","html-keyboard-response","255","270624","0.0-1.0-348.0-0.0","0","0","34978","","null","","","null","38","","","","","","","","","","","","","","","",""
"","ITI","","html-keyboard-response","256","271632","0.0-1.0-351.0","0","0","34978","","null","","","null","38","","","","","","","","","","","","","","","NaN",""
"","S1","","html-keyboard-response","257","271894","0.0-1.0-353.0","0","0","34978","","null","","","null","39","","","","","","","","","","","","","","","",""
"","ISI","","html-keyboard-response","258","272902","0.0-1.0-354.0","0","0","34978","","null","","","null","39","NaN","","","","","","","","","","","","","","",""
"","S2","","html-keyboard-response","259","273158","0.0-1.0-355.0","0","0","34978","","null","","","null","39","","NaN","","","","","","","","","","","","","",""
"","response","","html-keyboard-response","260","273823","0.0-1.0-356.0-0.0","0","0","34978","","663","","","75","39","","","1","39","training","adjacent","EF","5","6","M.jpg","N.jpg","0","1","0","",""
"","feedback","","html-keyboard-response","261","274833","0.0-1.0-357.0-0.0","0","0","34978","","null","","","null","39","","","","","","","","","","","","","","","",""
"","time_out","","html-keyboard-response","262","276837","0.0-1.0-359.0-0.0","0","0","34978","","null","","","null","39","","","","","","","","","","","","","","","",""
"","ITI","","html-keyboard-response","263","277845","0.0-1.0-360.0","0","0","34978","","null","","","null","39","","","","","","","","","","","","","","","NaN",""
"","S1","","html-keyboard-response","264","278102","0.0-1.0-362.0","0","0","34978","","null","","","null","40","","","","","","","","","","","","","","","",""
"","ISI","","html-keyboard-response","265","279110","0.0-1.0-363.0","0","0","34978","","null","","","null","40","NaN","","","","","","","","","","","","","","",""
"","S2","","html-keyboard-response","266","279366","0.0-1.0-364.0","0","0","34978","","null","","","null","40","","NaN","","","","","","","","","","","","","",""
"","response","","html-keyboard-response","267","279894","0.0-1.0-365.0-0.0","0","0","34978","","526","","","68","40","","","1","40","training","adjacent","CB","3","2","Q.jpg","R.jpg","1","0","0","",""
"","feedback","","html-keyboard-response","268","280902","0.0-1.0-366.0-0.0","0","0","34978","","null","","","null","40","","","","","","","","","","","","","","","",""
"","time_out","","html-keyboard-response","269","282912","0.0-1.0-368.0-0.0","0","0","34978","","null","","","null","40","","","","","","","","","","","","","","","",""
"","ITI","","html-keyboard-response","270","283920","0.0-1.0-369.0","0","0","34978","","null","","","null","40","","","","","","","","","","","","","","","NaN",""
"","S1","","html-keyboard-response","271","284182","0.0-1.0-371.0","0","0","34978","","null","","","null","41","","","","","","","","","","","","","","","",""
"","ISI","","html-keyboard-response","272","285190","0.0-1.0-372.0","0","0","34978","","null","","","null","41","NaN","","","","","","","","","","","","","","",""
"","S2","","html-keyboard-response","273","285446","0.0-1.0-373.0","0","0","34978","","null","","","null","41","","NaN","","","","","","","","","","","","","",""
"","response","","html-keyboard-response","274","285912","0.0-1.0-374.0-0.0","0","0","34978","","463","","","75","41","","","1","41","training","adjacent","DC","4","3","L.jpg","Q.jpg","0","0","1","",""
"","feedback","","html-keyboard-response","275","286917","0.0-1.0-375.0-0.0","0","0","34978","","null","","","null","41","","","","","","","","","","","","","","","",""
"","ITI","","html-keyboard-response","276","287926","0.0-1.0-378.0","0","0","34978","","null","","","null","41","","","","","","","","","","","","","","","NaN",""
"","S1","","html-keyboard-response","277","288185","0.0-1.0-380.0","0","0","34978","","null","","","null","42","","","","","","","","","","","","","","","",""
"","ISI","","html-keyboard-response","278","289190","0.0-1.0-381.0","0","0","34978","","null","","","null","42","NaN","","","","","","","","","","","","","","",""
"","S2","","html-keyboard-response","279","289446","0.0-1.0-382.0","0","0","34978","","null","","","null","42","","NaN","","","","","","","","","","","","","",""
"","response","","html-keyboard-response","280","289992","0.0-1.0-383.0-0.0","0","0","34978","","543","","","75","42","","","1","42","training","adjacent","AB","1","2","O.jpg","R.jpg","0","1","0","",""
"","feedback","","html-keyboard-response","281","290998","0.0-1.0-384.0-0.0","0","0","34978","","null","","","null","42","","","","","","","","","","","","","","","",""
"","time_out","","html-keyboard-response","282","293008","0.0-1.0-386.0-0.0","0","0","34978","","null","","","null","42","","","","","","","","","","","","","","","",""
"","ITI","","html-keyboard-response","283","294017","0.0-1.0-387.0","0","0","34978","","null","","","null","42","","","","","","","","","","","","","","","NaN",""
"","S1","","html-keyboard-response","284","294278","0.0-1.0-389.0","0","0","34978","","null","","","null","43","","","","","","","","","","","","","","","",""
"","ISI","","html-keyboard-response","285","295286","0.0-1.0-390.0","0","0","34978","","null","","","null","43","NaN","","","","","","","","","","","","","","",""
"","S2","","html-keyboard-response","286","295542","0.0-1.0-391.0","0","0","34978","","null","","","null","43","","NaN","","","","","","","","","","","","","",""
"","response","","html-keyboard-response","287","295967","0.0-1.0-392.0-0.0","0","0","34978","","422","","","68","43","","","1","43","training","adjacent","DE","4","5","L.jpg","M.jpg","1","1","1","",""
"","feedback","","html-keyboard-response","288","296977","0.0-1.0-393.0-0.0","0","0","34978","","null","","","null","43","","","","","","","","","","","","","","","",""
"","ITI","","html-keyboard-response","289","297985","0.0-1.0-396.0","0","0","34978","","null","","","null","43","","","","","","","","","","","","","","","NaN",""
"","S1","","html-keyboard-response","290","298246","0.0-1.0-398.0","0","0","34978","","null","","","null","44","","","","","","","","","","","","","","","",""
"","ISI","","html-keyboard-response","291","299254","0.0-1.0-399.0","0","0","34978","","null","","","null","44","NaN","","","","","","","","","","","","","","",""
"","S2","","html-keyboard-response","292","299510","0.0-1.0-400.0","0","0","34978","","null","","","null","44","","NaN","","","","","","","","","","","","","",""
"","response","","html-keyboard-response","293","300045","0.0-1.0-401.0-0.0","0","0","34978","","532","","","68","44","","","1","44","training","adjacent","DC","4","3","L.jpg","Q.jpg","1","0","0","",""
"","feedback","","html-keyboard-response","294","301057","0.0-1.0-402.0-0.0","0","0","34978","","null","","","null","44","","","","","","","","","","","","","","","",""
"","time_out","","html-keyboard-response","295","303063","0.0-1.0-404.0-0.0","0","0","34978","","null","","","null","44","","","","","","","","","","","","","","","",""
"","ITI","","html-keyboard-response","296","304070","0.0-1.0-405.0","0","0","34978","","null","","","null","44","","","","","","","","","","","","","","","NaN",""
"","S1","","html-keyboard-response","297","304327","0.0-1.0-407.0","0","0","34978","","null","","","null","45","","","","","","","","","","","","","","","",""
"","ISI","","html-keyboard-response","298","305335","0.0-1.0-408.0","0","0","34978","","null","","","null","45","NaN","","","","","","","","","","","","","","",""
"","S2","","html-keyboard-response","299","305590","0.0-1.0-409.0","0","0","34978","","null","","","null","45","","NaN","","","","","","","","","","","","","",""
"","response","","html-keyboard-response","300","305603","0.0-1.0-410.0-0.0","0","0","34978","","11","","","75","45","","","1","45","training","adjacent","DE","4","5","L.jpg","M.jpg","0","1","0","",""
"","feedback","","html-keyboard-response","301","306615","0.0-1.0-411.0-0.0","0","0","34978","","null","","","null","45","","","","","","","","","","","","","","","",""
"","time_out","","html-keyboard-response","302","308625","0.0-1.0-413.0-0.0","0","0","34978","","null","","","null","45","","","","","","","","","","","","","","","",""
"","ITI","","html-keyboard-response","303","309633","0.0-1.0-414.0","0","0","34978","","null","","","null","45","","","","","","","","","","","","","","","NaN",""
"","S1","","html-keyboard-response","304","309895","0.0-1.0-416.0","0","0","34978","","null","","","null","46","","","","","","","","","","","","","","","",""
"","ISI","","html-keyboard-response","305","310903","0.0-1.0-417.0","0","0","34978","","null","","","null","46","NaN","","","","","","","","","","","","","","",""
"","S2","","html-keyboard-response","306","311159","0.0-1.0-418.0","0","0","34978","","null","","","null","46","","NaN","","","","","","","","","","","","","",""
"","response","","html-keyboard-response","307","311754","0.0-1.0-419.0-0.0","0","0","34978","","592","","","68","46","","","1","46","training","adjacent","FE","6","5","N.jpg","M.jpg","1","0","0","",""
"","feedback","","html-keyboard-response","308","312759","0.0-1.0-420.0-0.0","0","0","34978","","null","","","null","46","","","","","","","","","","","","","","","",""
"","time_out","","html-keyboard-response","309","314770","0.0-1.0-422.0-0.0","0","0","34978","","null","","","null","46","","","","","","","","","","","","","","","",""
"","ITI","","html-keyboard-response","310","315777","0.0-1.0-423.0","0","0","34978","","null","","","null","46","","","","","","","","","","","","","","","NaN",""
"","S1","","html-keyboard-response","311","316039","0.0-1.0-425.0","0","0","34978","","null","","","null","47","","","","","","","","","","","","","","","",""
"","ISI","","html-keyboard-response","312","317047","0.0-1.0-426.0","0","0","34978","","null","","","null","47","NaN","","","","","","","","","","","","","","",""
"","S2","","html-keyboard-response","313","317302","0.0-1.0-427.0","0","0","34978","","null","","","null","47","","NaN","","","","","","","","","","","","","",""
"","response","","html-keyboard-response","314","317804","0.0-1.0-428.0-0.0","0","0","34978","","499","","","75","47","","","1","47","training","adjacent","CB","3","2","Q.jpg","R.jpg","0","0","1","",""
"","feedback","","html-keyboard-response","315","318807","0.0-1.0-429.0-0.0","0","0","34978","","null","","","null","47","","","","","","","","","","","","","","","",""
"","ITI","","html-keyboard-response","316","319815","0.0-1.0-432.0","0","0","34978","","null","","","null","47","","","","","","","","","","","","","","","NaN",""
"","block_over","","html-keyboard-response","317","357472","0.0-1.0-433.0-0.0","0","0","34978","","37653","","","32","47","","","","","","","","","","","","","","","",""
"","S1","","html-keyboard-response","318","357731","0.0-1.0-434.0","0","0","34978","","null","","","null","48","","","","","","","","","","","","","","","",""
"","ISI","","html-keyboard-response","319","358739","0.0-1.0-435.0","0","0","34978","","null","","","null","48","NaN","","","","","","","","","","","","","","",""
"","S2","","html-keyboard-response","320","359000","0.0-1.0-436.0","0","0","34978","","null","","","null","48","","NaN","","","","","","","","","","","","","",""
"","response","","html-keyboard-response","321","359526","0.0-1.0-437.0-0.0","0","0","34978","","522","","","68","48","","","2","48","training","adjacent","AB","1","2","O.jpg","R.jpg","1","1","1","",""
"","feedback","","html-keyboard-response","322","360539","0.0-1.0-438.0-0.0","0","0","34978","","null","","","null","48","","","","","","","","","","","","","","","",""
"","ITI","","html-keyboard-response","323","361544","0.0-1.0-441.0","0","0","34978","","null","","","null","48","","","","","","","","","","","","","","","NaN",""
"","S1","","html-keyboard-response","324","361800","0.0-1.0-443.0","0","0","34978","","null","","","null","49","","","","","","","","","","","","","","","",""
"","ISI","","html-keyboard-response","325","362808","0.0-1.0-444.0","0","0","34978","","null","","","null","49","NaN","","","","","","","","","","","","","","",""
"","S2","","html-keyboard-response","326","363064","0.0-1.0-445.0","0","0","34978","","null","","","null","49","","NaN","","","","","","","","","","","","","",""
"","response","","html-keyboard-response","327","363383","0.0-1.0-446.0-0.0","0","0","34978","","315","","","68","49","","","2","49","training","adjacent","CD","3","4","Q.jpg","L.jpg","1","1","1","",""
"","feedback","","html-keyboard-response","328","364392","0.0-1.0-447.0-0.0","0","0","34978","","null","","","null","49","","","","","","","","","","","","","","","",""
"","ITI","","html-keyboard-response","329","365401","0.0-1.0-450.0","0","0","34978","","null","","","null","49","","","","","","","","","","","","","","","NaN",""
"","S1","","html-keyboard-response","330","365657","0.0-1.0-452.0","0","0","34978","","null","","","null","50","","","","","","","","","","","","","","","",""
"","ISI","","html-keyboard-response","331","366665","0.0-1.0-453.0","0","0","34978","","null","","","null","50","NaN","","","","","","","","","","","","","","",""
"","S2","","html-keyboard-response","332","366920","0.0-1.0-454.0","0","0","34978","","null","","","null","50","","NaN","","","","","","","","","","","","","",""
"","response","","html-keyboard-response","333","367386","0.0-1.0-455.0-0.0","0","0","34978","","463","","","68","50","","","2","50","training","adjacent","FG","6","7","N.jpg","P.jpg","1","1","1","",""
"","feedback","","html-keyboard-response","334","368392","0.0-1.0-456.0-0.0","0","0","34978","","null","","","null","50","","","","","","","","","","","","","","","",""
"","ITI","","html-keyboard-response","335","369401","0.0-1.0-459.0","0","0","34978","","null","","","null","50","","","","","","","","","","","","","","","NaN",""
"","S1","","html-keyboard-response","336","369657","0.0-1.0-461.0","0","0","34978","","null","","","null","51","","","","","","","","","","","","","","","",""
"","ISI","","html-keyboard-response","337","370665","0.0-1.0-462.0","0","0","34978","","null","","","null","51","NaN","","","","","","","","","","","","","","",""
"","S2","","html-keyboard-response","338","370921","0.0-1.0-463.0","0","0","34978","","null","","","null","51","","NaN","","","","","","","","","","","","","",""
"","response","","html-keyboard-response","339","371387","0.0-1.0-464.0-0.0","0","0","34978","","465","","","68","51","","","2","51","training","adjacent","CD","3","4","Q.jpg","L.jpg","1","1","1","",""
"","feedback","","html-keyboard-response","340","372393","0.0-1.0-465.0-0.0","0","0","34978","","null","","","null","51","","","","","","","","","","","","","","","",""
"","ITI","","html-keyboard-response","341","373401","0.0-1.0-468.0","0","0","34978","","null","","","null","51","","","","","","","","","","","","","","","NaN",""
"","S1","","html-keyboard-response","342","373657","0.0-1.0-470.0","0","0","34978","","null","","","null","52","","","","","","","","","","","","","","","",""
"","ISI","","html-keyboard-response","343","374665","0.0-1.0-471.0","0","0","34978","","null","","","null","52","NaN","","","","","","","","","","","","","","",""
"","S2","","html-keyboard-response","344","374921","0.0-1.0-472.0","0","0","34978","","null","","","null","52","","NaN","","","","","","","","","","","","","",""
"","response","","html-keyboard-response","345","375251","0.0-1.0-473.0-0.0","0","0","34978","","327","","","68","52","","","2","52","training","adjacent","CD","3","4","Q.jpg","L.jpg","1","1","1","",""
"","feedback","","html-keyboard-response","346","376259","0.0-1.0-474.0-0.0","0","0","34978","","null","","","null","52","","","","","","","","","","","","","","","",""
"","ITI","","html-keyboard-response","347","377267","0.0-1.0-477.0","0","0","34978","","null","","","null","52","","","","","","","","","","","","","","","NaN",""
"","S1","","html-keyboard-response","348","377529","0.0-1.0-479.0","0","0","34978","","null","","","null","53","","","","","","","","","","","","","","","",""
"","ISI","","html-keyboard-response","349","378536","0.0-1.0-480.0","0","0","34978","","null","","","null","53","NaN","","","","","","","","","","","","","","",""
"","S2","","html-keyboard-response","350","378793","0.0-1.0-481.0","0","0","34978","","null","","","null","53","","NaN","","","","","","","","","","","","","",""
"","response","","html-keyboard-response","351","379114","0.0-1.0-482.0-0.0","0","0","34978","","318","","","68","53","","","2","53","training","adjacent","BA","2","1","R.jpg","O.jpg","1","0","0","",""
"","feedback","","html-keyboard-response","352","380121","0.0-1.0-483.0-0.0","0","0","34978","","null","","","null","53","","","","","","","","","","","","","","","",""
"","time_out","","html-keyboard-response","353","382132","0.0-1.0-485.0-0.0","0","0","34978","","null","","","null","53","","","","","","","","","","","","","","","",""
"","ITI","","html-keyboard-response","354","383139","0.0-1.0-486.0","0","0","34978","","null","","","null","53","","","","","","","","","","","","","","","NaN",""
"","S1","","html-keyboard-response","355","383401","0.0-1.0-488.0","0","0","34978","","null","","","null","54","","","","","","","","","","","","","","","",""
"","ISI","","html-keyboard-response","356","384409","0.0-1.0-489.0","0","0","34978","","null","","","null","54","NaN","","","","","","","","","","","","","","",""
"","S2","","html-keyboard-response","357","384665","0.0-1.0-490.0","0","0","34978","","null","","","null","54","","NaN","","","","","","","","","","","","","",""
"","response","","html-keyboard-response","358","385196","0.0-1.0-491.0-0.0","0","0","34978","","528","","","75","54","","","2","54","training","adjacent","FG","6","7","N.jpg","P.jpg","0","1","0","",""
"","feedback","","html-keyboard-response","359","386201","0.0-1.0-492.0-0.0","0","0","34978","","null","","","null","54","","","","","","","","","","","","","","","",""
"","time_out","","html-keyboard-response","360","388212","0.0-1.0-494.0-0.0","0","0","34978","","null","","","null","54","","","","","","","","","","","","","","","",""
"","ITI","","html-keyboard-response","361","389220","0.0-1.0-495.0","0","0","34978","","null","","","null","54","","","","","","","","","","","","","","","NaN",""
"","S1","","html-keyboard-response","362","389481","0.0-1.0-497.0","0","0","34978","","null","","","null","55","","","","","","","","","","","","","","","",""
"","ISI","","html-keyboard-response","363","390489","0.0-1.0-498.0","0","0","34978","","null","","","null","55","NaN","","","","","","","","","","","","","","",""
"","S2","","html-keyboard-response","364","390745","0.0-1.0-499.0","0","0","34978","","null","","","null","55","","NaN","","","","","","","","","","","","","",""
"","response","","html-keyboard-response","365","391184","0.0-1.0-500.0-0.0","0","0","34978","","437","","","68","55","","","2","55","training","adjacent","BC","2","3","R.jpg","Q.jpg","1","1","1","",""
"","feedback","","html-keyboard-response","366","392196","0.0-1.0-501.0-0.0","0","0","34978","","null","","","null","55","","","","","","","","","","","","","","","",""
"","ITI","","html-keyboard-response","367","393204","0.0-1.0-504.0","0","0","34978","","null","","","null","55","","","","","","","","","","","","","","","NaN",""
"","S1","","html-keyboard-response","368","393465","0.0-1.0-506.0","0","0","34978","","null","","","null","56","","","","","","","","","","","","","","","",""
"","ISI","","html-keyboard-response","369","394473","0.0-1.0-507.0","0","0","34978","","null","","","null","56","NaN","","","","","","","","","","","","","","",""
"","S2","","html-keyboard-response","370","394729","0.0-1.0-508.0","0","0","34978","","null","","","null","56","","NaN","","","","","","","","","","","","","",""
"","response","","html-keyboard-response","371","395136","0.0-1.0-509.0-0.0","0","0","34978","","404","","","68","56","","","2","56","training","adjacent","CB","3","2","Q.jpg","R.jpg","1","0","0","",""
"","feedback","","html-keyboard-response","372","396148","0.0-1.0-510.0-0.0","0","0","34978","","null","","","null","56","","","","","","","","","","","","","","","",""
"","time_out","","html-keyboard-response","373","398153","0.0-1.0-512.0-0.0","0","0","34978","","null","","","null","56","","","","","","","","","","","","","","","",""
"","ITI","","html-keyboard-response","374","399161","0.0-1.0-513.0","0","0","34978","","null","","","null","56","","","","","","","","","","","","","","","NaN",""
"","S1","","html-keyboard-response","375","399418","0.0-1.0-515.0","0","0","34978","","null","","","null","57","","","","","","","","","","","","","","","",""
"","ISI","","html-keyboard-response","376","400426","0.0-1.0-516.0","0","0","34978","","null","","","null","57","NaN","","","","","","","","","","","","","","",""
"","S2","","html-keyboard-response","377","400682","0.0-1.0-517.0","0","0","34978","","null","","","null","57","","NaN","","","","","","","","","","","","","",""
"","response","","html-keyboard-response","378","400992","0.0-1.0-518.0-0.0","0","0","34978","","308","","","75","57","","","2","57","training","adjacent","BA","2","1","R.jpg","O.jpg","0","0","1","",""
"","feedback","","html-keyboard-response","379","402004","0.0-1.0-519.0-0.0","0","0","34978","","null","","","null","57","","","","","","","","","","","","","","","",""
"","ITI","","html-keyboard-response","380","403012","0.0-1.0-522.0","0","0","34978","","null","","","null","57","","","","","","","","","","","","","","","NaN",""
"","S1","","html-keyboard-response","381","403274","0.0-1.0-524.0","0","0","34978","","null","","","null","58","","","","","","","","","","","","","","","",""
"","ISI","","html-keyboard-response","382","404282","0.0-1.0-525.0","0","0","34978","","null","","","null","58","NaN","","","","","","","","","","","","","","",""
"","S2","","html-keyboard-response","383","404538","0.0-1.0-526.0","0","0","34978","","null","","","null","58","","NaN","","","","","","","","","","","","","",""
"","response","","html-keyboard-response","384","405420","0.0-1.0-527.0-0.0","0","0","34978","","880","","","75","58","","","2","58","training","adjacent","ED","5","4","M.jpg","L.jpg","0","0","1","",""
"","feedback","","html-keyboard-response","385","406426","0.0-1.0-528.0-0.0","0","0","34978","","null","","","null","58","","","","","","","","","","","","","","","",""
"","ITI","","html-keyboard-response","386","407433","0.0-1.0-531.0","0","0","34978","","null","","","null","58","","","","","","","","","","","","","","","NaN",""
"","S1","","html-keyboard-response","387","407690","0.0-1.0-533.0","0","0","34978","","null","","","null","59","","","","","","","","","","","","","","","",""
"","ISI","","html-keyboard-response","388","408698","0.0-1.0-534.0","0","0","34978","","null","","","null","59","NaN","","","","","","","","","","","","","","",""
"","S2","","html-keyboard-response","389","408954","0.0-1.0-535.0","0","0","34978","","null","","","null","59","","NaN","","","","","","","","","","","","","",""
"","response","","html-keyboard-response","390","409253","0.0-1.0-536.0-0.0","0","0","34978","","296","","","75","59","","","2","59","training","adjacent","FE","6","5","N.jpg","M.jpg","0","0","1","",""
"","feedback","","html-keyboard-response","391","410266","0.0-1.0-537.0-0.0","0","0","34978","","null","","","null","59","","","","","","","","","","","","","","","",""
"","ITI","","html-keyboard-response","392","411274","0.0-1.0-540.0","0","0","34978","","null","","","null","59","","","","","","","","","","","","","","","NaN",""
"","S1","","html-keyboard-response","393","411530","0.0-1.0-542.0","0","0","34978","","null","","","null","60","","","","","","","","","","","","","","","",""
"","ISI","","html-keyboard-response","394","412537","0.0-1.0-543.0","0","0","34978","","null","","","null","60","NaN","","","","","","","","","","","","","","",""
"","S2","","html-keyboard-response","395","412796","0.0-1.0-544.0","0","0","34978","","null","","","null","60","","NaN","","","","","","","","","","","","","",""
"","response","","html-keyboard-response","396","413032","0.0-1.0-545.0-0.0","0","0","34978","","233","","","75","60","","","2","60","training","adjacent","GF","7","6","P.jpg","N.jpg","0","0","1","",""
"","feedback","","html-keyboard-response","397","414042","0.0-1.0-546.0-0.0","0","0","34978","","null","","","null","60","","","","","","","","","","","","","","","",""
"","ITI","","html-keyboard-response","398","415050","0.0-1.0-549.0","0","0","34978","","null","","","null","60","","","","","","","","","","","","","","","NaN",""
"","S1","","html-keyboard-response","399","415306","0.0-1.0-551.0","0","0","34978","","null","","","null","61","","","","","","","","","","","","","","","",""
"","ISI","","html-keyboard-response","400","416314","0.0-1.0-552.0","0","0","34978","","null","","","null","61","NaN","","","","","","","","","","","","","","",""
"","S2","","html-keyboard-response","401","416570","0.0-1.0-553.0","0","0","34978","","null","","","null","61","","NaN","","","","","","","","","","","","","",""
"","response","","html-keyboard-response","402","417080","0.0-1.0-554.0-0.0","0","0","34978","","507","","","75","61","","","2","61","training","adjacent","AB","1","2","O.jpg","R.jpg","0","1","0","",""
"","feedback","","html-keyboard-response","403","418090","0.0-1.0-555.0-0.0","0","0","34978","","null","","","null","61","","","","","","","","","","","","","","","",""
"","time_out","","html-keyboard-response","404","420101","0.0-1.0-557.0-0.0","0","0","34978","","null","","","null","61","","","","","","","","","","","","","","","",""
"","ITI","","html-keyboard-response","405","421108","0.0-1.0-558.0","0","0","34978","","null","","","null","61","","","","","","","","","","","","","","","NaN",""
"","S1","","html-keyboard-response","406","421370","0.0-1.0-560.0","0","0","34978","","null","","","null","62","","","","","","","","","","","","","","","",""
"","ISI","","html-keyboard-response","407","422378","0.0-1.0-561.0","0","0","34978","","null","","","null","62","NaN","","","","","","","","","","","","","","",""
"","S2","","html-keyboard-response","408","422634","0.0-1.0-562.0","0","0","34978","","null","","","null","62","","NaN","","","","","","","","","","","","","",""
"","response","","html-keyboard-response","409","423059","0.0-1.0-563.0-0.0","0","0","34978","","422","","","68","62","","","2","62","training","adjacent","EF","5","6","M.jpg","N.jpg","1","1","1","",""
"","feedback","","html-keyboard-response","410","424069","0.0-1.0-564.0-0.0","0","0","34978","","null","","","null","62","","","","","","","","","","","","","","","",""
"","ITI","","html-keyboard-response","411","425076","0.0-1.0-567.0","0","0","34978","","null","","","null","62","","","","","","","","","","","","","","","NaN",""
"","S1","","html-keyboard-response","412","425338","0.0-1.0-569.0","0","0","34978","","null","","","null","63","","","","","","","","","","","","","","","",""
"","ISI","","html-keyboard-response","413","426346","0.0-1.0-570.0","0","0","34978","","null","","","null","63","NaN","","","","","","","","","","","","","","",""
"","S2","","html-keyboard-response","414","426602","0.0-1.0-571.0","0","0","34978","","null","","","null","63","","NaN","","","","","","","","","","","","","",""
"","response","","html-keyboard-response","415","427118","0.0-1.0-572.0-0.0","0","0","34978","","513","","","68","63","","","2","63","training","adjacent","ED","5","4","M.jpg","L.jpg","1","0","0","",""
"","feedback","","html-keyboard-response","416","428133","0.0-1.0-573.0-0.0","0","0","34978","","null","","","null","63","","","","","","","","","","","","","","","",""
"","time_out","","html-keyboard-response","417","430138","0.0-1.0-575.0-0.0","0","0","34978","","null","","","null","63","","","","","","","","","","","","","","","",""
"","ITI","","html-keyboard-response","418","431146","0.0-1.0-576.0","0","0","34978","","null","","","null","63","","","","","","","","","","","","","","","NaN",""
"","S1","","html-keyboard-response","419","431402","0.0-1.0-578.0","0","0","34978","","null","","","null","64","","","","","","","","","","","","","","","",""
"","ISI","","html-keyboard-response","420","432410","0.0-1.0-579.0","0","0","34978","","null","","","null","64","NaN","","","","","","","","","","","","","","",""
"","S2","","html-keyboard-response","421","432667","0.0-1.0-580.0","0","0","34978","","null","","","null","64","","NaN","","","","","","","","","","","","","",""
"","response","","html-keyboard-response","422","433046","0.0-1.0-581.0-0.0","0","0","34978","","377","","","75","64","","","2","64","training","adjacent","FG","6","7","N.jpg","P.jpg","0","1","0","",""
"","feedback","","html-keyboard-response","423","434057","0.0-1.0-582.0-0.0","0","0","34978","","null","","","null","64","","","","","","","","","","","","","","","",""
"","time_out","","html-keyboard-response","424","436069","0.0-1.0-584.0-0.0","0","0","34978","","null","","","null","64","","","","","","","","","","","","","","","",""
"","ITI","","html-keyboard-response","425","437077","0.0-1.0-585.0","0","0","34978","","null","","","null","64","","","","","","","","","","","","","","","NaN",""
"","S1","","html-keyboard-response","426","437339","0.0-1.0-587.0","0","0","34978","","null","","","null","65","","","","","","","","","","","","","","","",""
"","ISI","","html-keyboard-response","427","438346","0.0-1.0-588.0","0","0","34978","","null","","","null","65","NaN","","","","","","","","","","","","","","",""
"","S2","","html-keyboard-response","428","438603","0.0-1.0-589.0","0","0","34978","","null","","","null","65","","NaN","","","","","","","","","","","","","",""
"","response","","html-keyboard-response","429","439153","0.0-1.0-590.0-0.0","0","0","34978","","548","","","75","65","","","2","65","training","adjacent","FG","6","7","N.jpg","P.jpg","0","1","0","",""
"","feedback","","html-keyboard-response","430","440166","0.0-1.0-591.0-0.0","0","0","34978","","null","","","null","65","","","","","","","","","","","","","","","",""
"","time_out","","html-keyboard-response","431","442180","0.0-1.0-593.0-0.0","0","0","34978","","null","","","null","65","","","","","","","","","","","","","","","",""
"","ITI","","html-keyboard-response","432","443189","0.0-1.0-594.0","0","0","34978","","null","","","null","65","","","","","","","","","","","","","","","NaN",""
"","S1","","html-keyboard-response","433","443451","0.0-1.0-596.0","0","0","34978","","null","","","null","66","","","","","","","","","","","","","","","",""
"","ISI","","html-keyboard-response","434","444459","0.0-1.0-597.0","0","0","34978","","null","","","null","66","NaN","","","","","","","","","","","","","","",""
"","S2","","html-keyboard-response","435","444715","0.0-1.0-598.0","0","0","34978","","null","","","null","66","","NaN","","","","","","","","","","","","","",""
"","response","","html-keyboard-response","436","445227","0.0-1.0-599.0-0.0","0","0","34978","","509","","","68","66","","","2","66","training","adjacent","DC","4","3","L.jpg","Q.jpg","1","0","0","",""
"","feedback","","html-keyboard-response","437","446235","0.0-1.0-600.0-0.0","0","0","34978","","null","","","null","66","","","","","","","","","","","","","","","",""
"","time_out","","html-keyboard-response","438","448242","0.0-1.0-602.0-0.0","0","0","34978","","null","","","null","66","","","","","","","","","","","","","","","",""
"","ITI","","html-keyboard-response","439","449254","0.0-1.0-603.0","0","0","34978","","null","","","null","66","","","","","","","","","","","","","","","NaN",""
"","S1","","html-keyboard-response","440","449515","0.0-1.0-605.0","0","0","34978","","null","","","null","67","","","","","","","","","","","","","","","",""
"","ISI","","html-keyboard-response","441","450523","0.0-1.0-606.0","0","0","34978","","null","","","null","67","NaN","","","","","","","","","","","","","","",""
"","S2","","html-keyboard-response","442","450779","0.0-1.0-607.0","0","0","34978","","null","","","null","67","","NaN","","","","","","","","","","","","","",""
"","response","","html-keyboard-response","443","451256","0.0-1.0-608.0-0.0","0","0","34978","","474","","","75","67","","","2","67","training","adjacent","ED","5","4","M.jpg","L.jpg","0","0","1","",""
"","feedback","","html-keyboard-response","444","452267","0.0-1.0-609.0-0.0","0","0","34978","","null","","","null","67","","","","","","","","","","","","","","","",""
"","ITI","","html-keyboard-response","445","453275","0.0-1.0-612.0","0","0","34978","","null","","","null","67","","","","","","","","","","","","","","","NaN",""
"","S1","","html-keyboard-response","446","453531","0.0-1.0-614.0","0","0","34978","","null","","","null","68","","","","","","","","","","","","","","","",""
"","ISI","","html-keyboard-response","447","454539","0.0-1.0-615.0","0","0","34978","","null","","","null","68","NaN","","","","","","","","","","","","","","",""
"","S2","","html-keyboard-response","448","454795","0.0-1.0-616.0","0","0","34978","","null","","","null","68","","NaN","","","","","","","","","","","","","",""
"","response","","html-keyboard-response","449","456098","0.0-1.0-617.0-0.0","0","0","34978","","1300","","","75","68","","","2","68","training","adjacent","AB","1","2","O.jpg","R.jpg","0","1","0","",""
"","feedback","","html-keyboard-response","450","457110","0.0-1.0-618.0-0.0","0","0","34978","","null","","","null","68","","","","","","","","","","","","","","","",""
"","time_out","","html-keyboard-response","451","459116","0.0-1.0-620.0-0.0","0","0","34978","","null","","","null","68","","","","","","","","","","","","","","","",""
"","ITI","","html-keyboard-response","452","460123","0.0-1.0-621.0","0","0","34978","","null","","","null","68","","","","","","","","","","","","","","","NaN",""
"","S1","","html-keyboard-response","453","460382","0.0-1.0-623.0","0","0","34978","","null","","","null","69","","","","","","","","","","","","","","","",""
"","ISI","","html-keyboard-response","454","461387","0.0-1.0-624.0","0","0","34978","","null","","","null","69","NaN","","","","","","","","","","","","","","",""
"","S2","","html-keyboard-response","455","461643","0.0-1.0-625.0","0","0","34978","","null","","","null","69","","NaN","","","","","","","","","","","","","",""
"","response","","html-keyboard-response","456","462328","0.0-1.0-626.0-0.0","0","0","34978","","682","","","68","69","","","2","69","training","adjacent","DE","4","5","L.jpg","M.jpg","1","1","1","",""
"","feedback","","html-keyboard-response","457","463339","0.0-1.0-627.0-0.0","0","0","34978","","null","","","null","69","","","","","","","","","","","","","","","",""
"","ITI","","html-keyboard-response","458","464347","0.0-1.0-630.0","0","0","34978","","null","","","null","69","","","","","","","","","","","","","","","NaN",""
"","S1","","html-keyboard-response","459","464604","0.0-1.0-632.0","0","0","34978","","null","","","null","70","","","","","","","","","","","","","","","",""
"","ISI","","html-keyboard-response","460","465611","0.0-1.0-633.0","0","0","34978","","null","","","null","70","NaN","","","","","","","","","","","","","","",""
"","S2","","html-keyboard-response","461","465867","0.0-1.0-634.0","0","0","34978","","null","","","null","70","","NaN","","","","","","","","","","","","","",""
"","response","","html-keyboard-response","462","467125","0.0-1.0-635.0-0.0","0","0","34978","","1255","","","75","70","","","2","70","training","adjacent","DE","4","5","L.jpg","M.jpg","0","1","0","",""
"","feedback","","html-keyboard-response","463","468134","0.0-1.0-636.0-0.0","0","0","34978","","null","","","null","70","","","","","","","","","","","","","","","",""
"","time_out","","html-keyboard-response","464","470140","0.0-1.0-638.0-0.0","0","0","34978","","null","","","null","70","","","","","","","","","","","","","","","",""
"","ITI","","html-keyboard-response","465","471148","0.0-1.0-639.0","0","0","34978","","null","","","null","70","","","","","","","","","","","","","","","NaN",""
"","S1","","html-keyboard-response","466","471404","0.0-1.0-641.0","0","0","34978","","null","","","null","71","","","","","","","","","","","","","","","",""
"","ISI","","html-keyboard-response","467","472412","0.0-1.0-642.0","0","0","34978","","null","","","null","71","NaN","","","","","","","","","","","","","","",""
"","S2","","html-keyboard-response","468","472668","0.0-1.0-643.0","0","0","34978","","null","","","null","71","","NaN","","","","","","","","","","","","","",""
"","response","","html-keyboard-response","469","473107","0.0-1.0-644.0-0.0","0","0","34978","","437","","","75","71","","","2","71","training","adjacent","DE","4","5","L.jpg","M.jpg","0","1","0","",""
"","feedback","","html-keyboard-response","470","474118","0.0-1.0-645.0-0.0","0","0","34978","","null","","","null","71","","","","","","","","","","","","","","","",""
"","time_out","","html-keyboard-response","471","476124","0.0-1.0-647.0-0.0","0","0","34978","","null","","","null","71","","","","","","","","","","","","","","","",""
"","ITI","","html-keyboard-response","472","477131","0.0-1.0-648.0","0","0","34978","","null","","","null","71","","","","","","","","","","","","","","","NaN",""
"","S1","","html-keyboard-response","473","477388","0.0-1.0-650.0","0","0","34978","","null","","","null","72","","","","","","","","","","","","","","","",""
"","ISI","","html-keyboard-response","474","478396","0.0-1.0-651.0","0","0","34978","","null","","","null","72","NaN","","","","","","","","","","","","","","",""
"","S2","","html-keyboard-response","475","478652","0.0-1.0-652.0","0","0","34978","","null","","","null","72","","NaN","","","","","","","","","","","","","",""
"","response","","html-keyboard-response","476","478984","0.0-1.0-653.0-0.0","0","0","34978","","330","","","68","72","","","2","72","training","adjacent","GF","7","6","P.jpg","N.jpg","1","0","0","",""
"","feedback","","html-keyboard-response","477","479996","0.0-1.0-654.0-0.0","0","0","34978","","null","","","null","72","","","","","","","","","","","","","","","",""
"","time_out","","html-keyboard-response","478","482007","0.0-1.0-656.0-0.0","0","0","34978","","null","","","null","72","","","","","","","","","","","","","","","",""
"","ITI","","html-keyboard-response","479","483014","0.0-1.0-657.0","0","0","34978","","null","","","null","72","","","","","","","","","","","","","","","NaN",""
"","S1","","html-keyboard-response","480","483276","0.0-1.0-659.0","0","0","34978","","null","","","null","73","","","","","","","","","","","","","","","",""
"","ISI","","html-keyboard-response","481","484284","0.0-1.0-660.0","0","0","34978","","null","","","null","73","NaN","","","","","","","","","","","","","","",""
"","S2","","html-keyboard-response","482","484540","0.0-1.0-661.0","0","0","34978","","null","","","null","73","","NaN","","","","","","","","","","","","","",""
"","response","","html-keyboard-response","483","484865","0.0-1.0-662.0-0.0","0","0","34978","","322","","","75","73","","","2","73","training","adjacent","BA","2","1","R.jpg","O.jpg","0","0","1","",""
"","feedback","","html-keyboard-response","484","485879","0.0-1.0-663.0-0.0","0","0","34978","","null","","","null","73","","","","","","","","","","","","","","","",""
"","ITI","","html-keyboard-response","485","486886","0.0-1.0-666.0","0","0","34978","","null","","","null","73","","","","","","","","","","","","","","","NaN",""
"","S1","","html-keyboard-response","486","487148","0.0-1.0-668.0","0","0","34978","","null","","","null","74","","","","","","","","","","","","","","","",""
"","ISI","","html-keyboard-response","487","488156","0.0-1.0-669.0","0","0","34978","","null","","","null","74","NaN","","","","","","","","","","","","","","",""
"","S2","","html-keyboard-response","488","488412","0.0-1.0-670.0","0","0","34978","","null","","","null","74","","NaN","","","","","","","","","","","","","",""
"","response","","html-keyboard-response","489","488966","0.0-1.0-671.0-0.0","0","0","34978","","550","","","75","74","","","2","74","training","adjacent","CD","3","4","Q.jpg","L.jpg","0","1","0","",""
"","feedback","","html-keyboard-response","490","489975","0.0-1.0-672.0-0.0","0","0","34978","","null","","","null","74","","","","","","","","","","","","","","","",""
"","time_out","","html-keyboard-response","491","491980","0.0-1.0-674.0-0.0","0","0","34978","","null","","","null","74","","","","","","","","","","","","","","","",""
"","ITI","","html-keyboard-response","492","492987","0.0-1.0-675.0","0","0","34978","","null","","","null","74","","","","","","","","","","","","","","","NaN",""
"","S1","","html-keyboard-response","493","493245","0.0-1.0-677.0","0","0","34978","","null","","","null","75","","","","","","","","","","","","","","","",""
"","ISI","","html-keyboard-response","494","494252","0.0-1.0-678.0","0","0","34978","","null","","","null","75","NaN","","","","","","","","","","","","","","",""
"","S2","","html-keyboard-response","495","494508","0.0-1.0-679.0","0","0","34978","","null","","","null","75","","NaN","","","","","","","","","","","","","",""
"","response","","html-keyboard-response","496","494608","0.0-1.0-680.0-0.0","0","0","34978","","97","","","68","75","","","2","75","training","adjacent","BC","2","3","R.jpg","Q.jpg","1","1","1","",""
"","feedback","","html-keyboard-response","497","495623","0.0-1.0-681.0-0.0","0","0","34978","","null","","","null","75","","","","","","","","","","","","","","","",""
"","ITI","","html-keyboard-response","498","496631","0.0-1.0-684.0","0","0","34978","","null","","","null","75","","","","","","","","","","","","","","","NaN",""
"","S1","","html-keyboard-response","499","496892","0.0-1.0-686.0","0","0","34978","","null","","","null","76","","","","","","","","","","","","","","","",""
"","ISI","","html-keyboard-response","500","497900","0.0-1.0-687.0","0","0","34978","","null","","","null","76","NaN","","","","","","","","","","","","","","",""
"","S2","","html-keyboard-response","501","498156","0.0-1.0-688.0","0","0","34978","","null","","","null","76","","NaN","","","","","","","","","","","","","",""
"","response","","html-keyboard-response","502","498451","0.0-1.0-689.0-0.0","0","0","34978","","292","","","68","76","","","2","76","training","adjacent","EF","5","6","M.jpg","N.jpg","1","1","1","",""
"","feedback","","html-keyboard-response","503","499463","0.0-1.0-690.0-0.0","0","0","34978","","null","","","null","76","","","","","","","","","","","","","","","",""
"","ITI","","html-keyboard-response","504","500473","0.0-1.0-693.0","0","0","34978","","null","","","null","76","","","","","","","","","","","","","","","NaN",""
"","S1","","html-keyboard-response","505","500732","0.0-1.0-695.0","0","0","34978","","null","","","null","77","","","","","","","","","","","","","","","",""
"","ISI","","html-keyboard-response","506","501741","0.0-1.0-696.0","0","0","34978","","null","","","null","77","NaN","","","","","","","","","","","","","","",""
"","S2","","html-keyboard-response","507","501997","0.0-1.0-697.0","0","0","34978","","null","","","null","77","","NaN","","","","","","","","","","","","","",""
"","response","","html-keyboard-response","508","503026","0.0-1.0-698.0-0.0","0","0","34978","","1027","","","75","77","","","2","77","training","adjacent","BA","2","1","R.jpg","O.jpg","0","0","1","",""
"","feedback","","html-keyboard-response","509","504040","0.0-1.0-699.0-0.0","0","0","34978","","null","","","null","77","","","","","","","","","","","","","","","",""
"","ITI","","html-keyboard-response","510","505048","0.0-1.0-702.0","0","0","34978","","null","","","null","77","","","","","","","","","","","","","","","NaN",""
"","S1","","html-keyboard-response","511","505309","0.0-1.0-704.0","0","0","34978","","null","","","null","78","","","","","","","","","","","","","","","",""
"","ISI","","html-keyboard-response","512","506317","0.0-1.0-705.0","0","0","34978","","null","","","null","78","NaN","","","","","","","","","","","","","","",""
"","S2","","html-keyboard-response","513","506573","0.0-1.0-706.0","0","0","34978","","null","","","null","78","","NaN","","","","","","","","","","","","","",""
"","response","","html-keyboard-response","514","506620","0.0-1.0-707.0-0.0","0","0","34978","","44","","","75","78","","","2","78","training","adjacent","BC","2","3","R.jpg","Q.jpg","0","1","0","",""
"","feedback","","html-keyboard-response","515","507629","0.0-1.0-708.0-0.0","0","0","34978","","null","","","null","78","","","","","","","","","","","","","","","",""
"","time_out","","html-keyboard-response","516","509639","0.0-1.0-710.0-0.0","0","0","34978","","null","","","null","78","","","","","","","","","","","","","","","",""
"","ITI","","html-keyboard-response","517","510647","0.0-1.0-711.0","0","0","34978","","null","","","null","78","","","","","","","","","","","","","","","NaN",""
"","S1","","html-keyboard-response","518","510909","0.0-1.0-713.0","0","0","34978","","null","","","null","79","","","","","","","","","","","","","","","",""
"","ISI","","html-keyboard-response","519","511916","0.0-1.0-714.0","0","0","34978","","null","","","null","79","NaN","","","","","","","","","","","","","","",""
"","S2","","html-keyboard-response","520","512173","0.0-1.0-715.0","0","0","34978","","null","","","null","79","","NaN","","","","","","","","","","","","","",""
"","response","","html-keyboard-response","521","512236","0.0-1.0-716.0-0.0","0","0","34978","","61","","","75","79","","","2","79","training","adjacent","CB","3","2","Q.jpg","R.jpg","0","0","1","",""
"","feedback","","html-keyboard-response","522","513245","0.0-1.0-717.0-0.0","0","0","34978","","null","","","null","79","","","","","","","","","","","","","","","",""
"","ITI","","html-keyboard-response","523","514253","0.0-1.0-720.0","0","0","34978","","null","","","null","79","","","","","","","","","","","","","","","NaN",""
"","S1","","html-keyboard-response","524","514509","0.0-1.0-722.0","0","0","34978","","null","","","null","80","","","","","","","","","","","","","","","",""
"","ISI","","html-keyboard-response","525","515518","0.0-1.0-723.0","0","0","34978","","null","","","null","80","NaN","","","","","","","","","","","","","","",""
"","S2","","html-keyboard-response","526","515773","0.0-1.0-724.0","0","0","34978","","null","","","null","80","","NaN","","","","","","","","","","","","","",""
"","response","","html-keyboard-response","527","516110","0.0-1.0-725.0-0.0","0","0","34978","","334","","","75","80","","","2","80","training","adjacent","AB","1","2","O.jpg","R.jpg","0","1","0","",""
"","feedback","","html-keyboard-response","528","517117","0.0-1.0-726.0-0.0","0","0","34978","","null","","","null","80","","","","","","","","","","","","","","","",""
"","time_out","","html-keyboard-response","529","519128","0.0-1.0-728.0-0.0","0","0","34978","","null","","","null","80","","","","","","","","","","","","","","","",""
"","ITI","","html-keyboard-response","530","520135","0.0-1.0-729.0","0","0","34978","","null","","","null","80","","","","","","","","","","","","","","","NaN",""
"","S1","","html-keyboard-response","531","520397","0.0-1.0-731.0","0","0","34978","","null","","","null","81","","","","","","","","","","","","","","","",""
"","ISI","","html-keyboard-response","532","521405","0.0-1.0-732.0","0","0","34978","","null","","","null","81","NaN","","","","","","","","","","","","","","",""
"","S2","","html-keyboard-response","533","521661","0.0-1.0-733.0","0","0","34978","","null","","","null","81","","NaN","","","","","","","","","","","","","",""
"","response","","html-keyboard-response","534","521928","0.0-1.0-734.0-0.0","0","0","34978","","265","","","68","81","","","2","81","training","adjacent","ED","5","4","M.jpg","L.jpg","1","0","0","",""
"","feedback","","html-keyboard-response","535","522941","0.0-1.0-735.0-0.0","0","0","34978","","null","","","null","81","","","","","","","","","","","","","","","",""
"","time_out","","html-keyboard-response","536","524952","0.0-1.0-737.0-0.0","0","0","34978","","null","","","null","81","","","","","","","","","","","","","","","",""
"","ITI","","html-keyboard-response","537","525960","0.0-1.0-738.0","0","0","34978","","null","","","null","81","","","","","","","","","","","","","","","NaN",""
"","S1","","html-keyboard-response","538","526221","0.0-1.0-740.0","0","0","34978","","null","","","null","82","","","","","","","","","","","","","","","",""
"","ISI","","html-keyboard-response","539","527229","0.0-1.0-741.0","0","0","34978","","null","","","null","82","NaN","","","","","","","","","","","","","","",""
"","S2","","html-keyboard-response","540","527485","0.0-1.0-742.0","0","0","34978","","null","","","null","82","","NaN","","","","","","","","","","","","","",""
"","response","","html-keyboard-response","541","527568","0.0-1.0-743.0-0.0","0","0","34978","","80","","","75","82","","","2","82","training","adjacent","FE","6","5","N.jpg","M.jpg","0","0","1","",""
"","feedback","","html-keyboard-response","542","528573","0.0-1.0-744.0-0.0","0","0","34978","","null","","","null","82","","","","","","","","","","","","","","","",""
"","ITI","","html-keyboard-response","543","529580","0.0-1.0-747.0","0","0","34978","","null","","","null","82","","","","","","","","","","","","","","","NaN",""
"","S1","","html-keyboard-response","544","529837","0.0-1.0-749.0","0","0","34978","","null","","","null","83","","","","","","","","","","","","","","","",""
"","ISI","","html-keyboard-response","545","530845","0.0-1.0-750.0","0","0","34978","","null","","","null","83","NaN","","","","","","","","","","","","","","",""
"","S2","","html-keyboard-response","546","531101","0.0-1.0-751.0","0","0","34978","","null","","","null","83","","NaN","","","","","","","","","","","","","",""
"","response","","html-keyboard-response","547","531501","0.0-1.0-752.0-0.0","0","0","34978","","397","","","75","83","","","2","83","training","adjacent","CB","3","2","Q.jpg","R.jpg","0","0","1","",""
"","feedback","","html-keyboard-response","548","532509","0.0-1.0-753.0-0.0","0","0","34978","","null","","","null","83","","","","","","","","","","","","","","","",""
"","ITI","","html-keyboard-response","549","533517","0.0-1.0-756.0","0","0","34978","","null","","","null","83","","","","","","","","","","","","","","","NaN",""
"","S1","","html-keyboard-response","550","533773","0.0-1.0-758.0","0","0","34978","","null","","","null","84","","","","","","","","","","","","","","","",""
"","ISI","","html-keyboard-response","551","534782","0.0-1.0-759.0","0","0","34978","","null","","","null","84","NaN","","","","","","","","","","","","","","",""
"","S2","","html-keyboard-response","552","535037","0.0-1.0-760.0","0","0","34978","","null","","","null","84","","NaN","","","","","","","","","","","","","",""
"","response","","html-keyboard-response","553","535457","0.0-1.0-761.0-0.0","0","0","34978","","417","","","75","84","","","2","84","training","adjacent","GF","7","6","P.jpg","N.jpg","0","0","1","",""
"","feedback","","html-keyboard-response","554","536472","0.0-1.0-762.0-0.0","0","0","34978","","null","","","null","84","","","","","","","","","","","","","","","",""
"","ITI","","html-keyboard-response","555","537480","0.0-1.0-765.0","0","0","34978","","null","","","null","84","","","","","","","","","","","","","","","NaN",""
"","S1","","html-keyboard-response","556","537742","0.0-1.0-767.0","0","0","34978","","null","","","null","85","","","","","","","","","","","","","","","",""
"","ISI","","html-keyboard-response","557","538750","0.0-1.0-768.0","0","0","34978","","null","","","null","85","NaN","","","","","","","","","","","","","","",""
"","S2","","html-keyboard-response","558","539006","0.0-1.0-769.0","0","0","34978","","null","","","null","85","","NaN","","","","","","","","","","","","","",""
"","response","","html-keyboard-response","559","539355","0.0-1.0-770.0-0.0","0","0","34978","","347","","","75","85","","","2","85","training","adjacent","EF","5","6","M.jpg","N.jpg","0","1","0","",""
"","feedback","","html-keyboard-response","560","540365","0.0-1.0-771.0-0.0","0","0","34978","","null","","","null","85","","","","","","","","","","","","","","","",""
"","time_out","","html-keyboard-response","561","542376","0.0-1.0-773.0-0.0","0","0","34978","","null","","","null","85","","","","","","","","","","","","","","","",""
"","ITI","","html-keyboard-response","562","543384","0.0-1.0-774.0","0","0","34978","","null","","","null","85","","","","","","","","","","","","","","","NaN",""
"","S1","","html-keyboard-response","563","543646","0.0-1.0-776.0","0","0","34978","","null","","","null","86","","","","","","","","","","","","","","","",""
"","ISI","","html-keyboard-response","564","544654","0.0-1.0-777.0","0","0","34978","","null","","","null","86","NaN","","","","","","","","","","","","","","",""
"","S2","","html-keyboard-response","565","544910","0.0-1.0-778.0","0","0","34978","","null","","","null","86","","NaN","","","","","","","","","","","","","",""
"","response","","html-keyboard-response","566","545213","0.0-1.0-779.0-0.0","0","0","34978","","300","","","68","86","","","2","86","training","adjacent","DC","4","3","L.jpg","Q.jpg","1","0","0","",""
"","feedback","","html-keyboard-response","567","546221","0.0-1.0-780.0-0.0","0","0","34978","","null","","","null","86","","","","","","","","","","","","","","","",""
"","time_out","","html-keyboard-response","568","548231","0.0-1.0-782.0-0.0","0","0","34978","","null","","","null","86","","","","","","","","","","","","","","","",""
"","ITI","","html-keyboard-response","569","549241","0.0-1.0-783.0","0","0","34978","","null","","","null","86","","","","","","","","","","","","","","","NaN",""
"","S1","","html-keyboard-response","570","549502","0.0-1.0-785.0","0","0","34978","","null","","","null","87","","","","","","","","","","","","","","","",""
"","ISI","","html-keyboard-response","571","550510","0.0-1.0-786.0","0","0","34978","","null","","","null","87","NaN","","","","","","","","","","","","","","",""
"","S2","","html-keyboard-response","572","550766","0.0-1.0-787.0","0","0","34978","","null","","","null","87","","NaN","","","","","","","","","","","","","",""
"","response","","html-keyboard-response","573","551335","0.0-1.0-788.0-0.0","0","0","34978","","566","","","75","87","","","2","87","training","adjacent","FE","6","5","N.jpg","M.jpg","0","0","1","",""
"","feedback","","html-keyboard-response","574","552345","0.0-1.0-789.0-0.0","0","0","34978","","null","","","null","87","","","","","","","","","","","","","","","",""
"","ITI","","html-keyboard-response","575","553353","0.0-1.0-792.0","0","0","34978","","null","","","null","87","","","","","","","","","","","","","","","NaN",""
"","S1","","html-keyboard-response","576","553614","0.0-1.0-794.0","0","0","34978","","null","","","null","88","","","","","","","","","","","","","","","",""
"","ISI","","html-keyboard-response","577","554622","0.0-1.0-795.0","0","0","34978","","null","","","null","88","NaN","","","","","","","","","","","","","","",""
"","S2","","html-keyboard-response","578","554878","0.0-1.0-796.0","0","0","34978","","null","","","null","88","","NaN","","","","","","","","","","","","","",""
"","response","","html-keyboard-response","579","555296","0.0-1.0-797.0-0.0","0","0","34978","","415","","","75","88","","","2","88","training","adjacent","EF","5","6","M.jpg","N.jpg","0","1","0","",""
"","feedback","","html-keyboard-response","580","556302","0.0-1.0-798.0-0.0","0","0","34978","","null","","","null","88","","","","","","","","","","","","","","","",""
"","time_out","","html-keyboard-response","581","558313","0.0-1.0-800.0-0.0","0","0","34978","","null","","","null","88","","","","","","","","","","","","","","","",""
