"success","ttype","start_time","trial_type","trial_index","time_elapsed","internal_node_id","warning","missed_checkup","PID","view_history","rt","responses","repeat_instructions","key_press","index","keypress_isi","keypress_S2","block","trial_num","phase","group_type","pair_type","S1_stim","S2_stim","S1_img","S2_img","S1_chosen","S1_higher","accuracy","keypress_iti","total_bonus_tally"
"true","full_screen","d03082023hr1437","fullscreen","0","12158","0.0-0.0","0","0","95965","","","","","","","","","","","","","","","","","","","","","",""
"","instructions","","instructions","1","43404","0.0-1.0-0.0-0.0","0","0","95965","[{""page_index"":0,""viewing_time"":5298},{""page_index"":1,""viewing_time"":18182},{""page_index"":2,""viewing_time"":6414},{""page_index"":3,""viewing_time"":1350}]","31245","","","","","","","","","","","","","","","","","","","",""
"","comprehension_check","","survey-multi-choice","2","65247","0.0-1.0-0.0-1.0","0","0","95965","","21839","{""Q0"":""True"",""Q1"":""K"",""Q2"":""Once the second image appears and while the screen 'MAKE A CHOICE' is shown"",""Q3"":""Green mark"",""Q4"":""either D or K""}","0","","","","","","","","","","","","","","","","","",""
"","start_exp","","html-keyboard-response","3","66811","0.0-1.0-1.0","0","0","95965","","1561","","","32","","","","","","","","","","","","","","","","",""
"","S1","","html-keyboard-response","4","67075","0.0-1.0-2.0","0","0","95965","","null","","","null","0","","","","","","","","","","","","","","","",""
"","ISI","","html-keyboard-response","5","67227","0.0-1.0-3.0","0","0","95965","","null","","","null","0","NaN","","","","","","","","","","","","","","",""
"","S2","","html-keyboard-response","6","67480","0.0-1.0-4.0","0","0","95965","","null","","","null","0","","NaN","","","","","","","","","","","","","",""
"","response","","html-keyboard-response","7","69058","0.0-1.0-5.0-0.0","0","0","95965","","1576","","","75","0","","","1","0","training","adjacent","BC","2","3","Q.jpg","O.jpg","1","1","1","",""
"","feedback","","html-keyboard-response","8","70061","0.0-1.0-6.0-0.0","0","0","95965","","null","","","null","0","","","","","","","","","","","","","","","",""
"","ITI","","html-keyboard-response","9","71063","0.0-1.0-9.0","0","0","95965","","null","","","null","0","","","","","","","","","","","","","","","NaN",""
"","S1","","html-keyboard-response","10","71315","0.0-1.0-11.0","0","0","95965","","null","","","null","1","","","","","","","","","","","","","","","",""
"","ISI","","html-keyboard-response","11","71467","0.0-1.0-12.0","0","0","95965","","null","","","null","1","NaN","","","","","","","","","","","","","","",""
"","S2","","html-keyboard-response","12","71719","0.0-1.0-13.0","0","0","95965","","null","","","null","1","","NaN","","","","","","","","","","","","","",""
"","response","","html-keyboard-response","13","73178","0.0-1.0-14.0-0.0","0","0","95965","","1458","","","75","1","","","1","1","training","adjacent","DC","4","3","P.jpg","O.jpg","1","0","0","",""
"","feedback","","html-keyboard-response","14","74181","0.0-1.0-15.0-0.0","0","0","95965","","null","","","null","1","","","","","","","","","","","","","","","",""
"","time_out","","html-keyboard-response","15","76184","0.0-1.0-17.0-0.0","0","0","95965","","null","","","null","1","","","","","","","","","","","","","","","",""
"","ITI","","html-keyboard-response","16","77187","0.0-1.0-18.0","0","0","95965","","null","","","null","1","","","","","","","","","","","","","","","NaN",""
"","S1","","html-keyboard-response","17","77439","0.0-1.0-20.0","0","0","95965","","null","","","null","2","","","","","","","","","","","","","","","",""
"","ISI","","html-keyboard-response","18","77591","0.0-1.0-21.0","0","0","95965","","null","","","null","2","NaN","","","","","","","","","","","","","","",""
"","S2","","html-keyboard-response","19","77844","0.0-1.0-22.0","0","0","95965","","null","","","null","2","","NaN","","","","","","","","","","","","","",""
"","response","","html-keyboard-response","20","78466","0.0-1.0-23.0-0.0","0","0","95965","","621","","","75","2","","","1","2","training","adjacent","FG","6","7","R.jpg","L.jpg","1","1","1","",""
"","feedback","","html-keyboard-response","21","79469","0.0-1.0-24.0-0.0","0","0","95965","","null","","","null","2","","","","","","","","","","","","","","","",""
"","ITI","","html-keyboard-response","22","80471","0.0-1.0-27.0","0","0","95965","","null","","","null","2","","","","","","","","","","","","","","","NaN",""
"","S1","","html-keyboard-response","23","80724","0.0-1.0-29.0","0","0","95965","","null","","","null","3","","","","","","","","","","","","","","","",""
"","ISI","","html-keyboard-response","24","80876","0.0-1.0-30.0","0","0","95965","","null","","","null","3","NaN","","","","","","","","","","","","","","",""
"","S2","","html-keyboard-response","25","81129","0.0-1.0-31.0","0","0","95965","","null","","","null","3","","NaN","","","","","","","","","","","","","",""
"","response","","html-keyboard-response","26","81522","0.0-1.0-32.0-0.0","0","0","95965","","392","","","68","3","","","1","3","training","adjacent","CD","3","4","O.jpg","P.jpg","0","1","0","",""
"","feedback","","html-keyboard-response","27","82525","0.0-1.0-33.0-0.0","0","0","95965","","null","","","null","3","","","","","","","","","","","","","","","",""
"","time_out","","html-keyboard-response","28","84527","0.0-1.0-35.0-0.0","0","0","95965","","null","","","null","3","","","","","","","","","","","","","","","",""
"","ITI","","html-keyboard-response","29","85529","0.0-1.0-36.0","0","0","95965","","null","","","null","3","","","","","","","","","","","","","","","NaN",""
"","S1","","html-keyboard-response","30","85781","0.0-1.0-38.0","0","0","95965","","null","","","null","4","","","","","","","","","","","","","","","",""
"","ISI","","html-keyboard-response","31","85934","0.0-1.0-39.0","0","0","95965","","null","","","null","4","NaN","","","","","","","","","","","","","","",""
"","S2","","html-keyboard-response","32","86186","0.0-1.0-40.0","0","0","95965","","null","","","null","4","","NaN","","","","","","","","","","","","","",""
"","response","","html-keyboard-response","33","86618","0.0-1.0-41.0-0.0","0","0","95965","","431","","","68","4","","","1","4","training","adjacent","BC","2","3","Q.jpg","O.jpg","0","1","0","",""
"","feedback","","html-keyboard-response","34","87620","0.0-1.0-42.0-0.0","0","0","95965","","null","","","null","4","","","","","","","","","","","","","","","",""
"","time_out","","html-keyboard-response","35","89622","0.0-1.0-44.0-0.0","0","0","95965","","null","","","null","4","","","","","","","","","","","","","","","",""
"","ITI","","html-keyboard-response","36","90626","0.0-1.0-45.0","0","0","95965","","null","","","null","4","","","","","","","","","","","","","","","NaN",""
"","S1","","html-keyboard-response","37","90878","0.0-1.0-47.0","0","0","95965","","null","","","null","5","","","","","","","","","","","","","","","",""
"","ISI","","html-keyboard-response","38","91033","0.0-1.0-48.0","0","0","95965","","null","","","null","5","NaN","","","","","","","","","","","","","","",""
"","S2","","html-keyboard-response","39","91285","0.0-1.0-49.0","0","0","95965","","null","","","null","5","","NaN","","","","","","","","","","","","","",""
"","response","","html-keyboard-response","40","91595","0.0-1.0-50.0-0.0","0","0","95965","","308","","","75","5","","","1","5","training","adjacent","CB","3","2","O.jpg","Q.jpg","1","0","0","",""
"","feedback","","html-keyboard-response","41","92597","0.0-1.0-51.0-0.0","0","0","95965","","null","","","null","5","","","","","","","","","","","","","","","",""
"","time_out","","html-keyboard-response","42","94600","0.0-1.0-53.0-0.0","0","0","95965","","null","","","null","5","","","","","","","","","","","","","","","",""
"","ITI","","html-keyboard-response","43","95603","0.0-1.0-54.0","0","0","95965","","null","","","null","5","","","","","","","","","","","","","","","NaN",""
"","S1","","html-keyboard-response","44","95856","0.0-1.0-56.0","0","0","95965","","null","","","null","6","","","","","","","","","","","","","","","",""
"","ISI","","html-keyboard-response","45","96008","0.0-1.0-57.0","0","0","95965","","null","","","null","6","NaN","","","","","","","","","","","","","","",""
"","S2","","html-keyboard-response","46","96261","0.0-1.0-58.0","0","0","95965","","null","","","null","6","","NaN","","","","","","","","","","","","","",""
"","response","","html-keyboard-response","47","96706","0.0-1.0-59.0-0.0","0","0","95965","","444","","","68","6","","","1","6","training","adjacent","GF","7","6","L.jpg","R.jpg","0","0","1","",""
"","feedback","","html-keyboard-response","48","97709","0.0-1.0-60.0-0.0","0","0","95965","","null","","","null","6","","","","","","","","","","","","","","","",""
"","ITI","","html-keyboard-response","49","98712","0.0-1.0-63.0","0","0","95965","","null","","","null","6","","","","","","","","","","","","","","","NaN",""
"","S1","","html-keyboard-response","50","98964","0.0-1.0-65.0","0","0","95965","","null","","","null","7","","","","","","","","","","","","","","","",""
"","ISI","","html-keyboard-response","51","99116","0.0-1.0-66.0","0","0","95965","","null","","","null","7","NaN","","","","","","","","","","","","","","",""
"","S2","","html-keyboard-response","52","99369","0.0-1.0-67.0","0","0","95965","","null","","","null","7","","NaN","","","","","","","","","","","","","",""
"","response","","html-keyboard-response","53","99586","0.0-1.0-68.0-0.0","0","0","95965","","215","","","68","7","","","1","7","training","adjacent","CB","3","2","O.jpg","Q.jpg","0","0","1","",""
"","feedback","","html-keyboard-response","54","100588","0.0-1.0-69.0-0.0","0","0","95965","","null","","","null","7","","","","","","","","","","","","","","","",""
"","ITI","","html-keyboard-response","55","101589","0.0-1.0-72.0","0","0","95965","","null","","","null","7","","","","","","","","","","","","","","","NaN",""
"","S1","","html-keyboard-response","56","101842","0.0-1.0-74.0","0","0","95965","","null","","","null","8","","","","","","","","","","","","","","","",""
"","ISI","","html-keyboard-response","57","101994","0.0-1.0-75.0","0","0","95965","","null","","","null","8","NaN","","","","","","","","","","","","","","",""
"","S2","","html-keyboard-response","58","102247","0.0-1.0-76.0","0","0","95965","","null","","","null","8","","NaN","","","","","","","","","","","","","",""
"","response","","html-keyboard-response","59","102618","0.0-1.0-77.0-0.0","0","0","95965","","370","","","68","8","","","1","8","training","adjacent","CB","3","2","O.jpg","Q.jpg","0","0","1","",""
"","feedback","","html-keyboard-response","60","103621","0.0-1.0-78.0-0.0","0","0","95965","","null","","","null","8","","","","","","","","","","","","","","","",""
"","ITI","","html-keyboard-response","61","104623","0.0-1.0-81.0","0","0","95965","","null","","","null","8","","","","","","","","","","","","","","","NaN",""
"","S1","","html-keyboard-response","62","104876","0.0-1.0-83.0","0","0","95965","","null","","","null","9","","","","","","","","","","","","","","","",""
"","ISI","","html-keyboard-response","63","105028","0.0-1.0-84.0","0","0","95965","","null","","","null","9","NaN","","","","","","","","","","","","","","",""
"","S2","","html-keyboard-response","64","105280","0.0-1.0-85.0","0","0","95965","","null","","","null","9","","NaN","","","","","","","","","","","","","",""
"","response","","html-keyboard-response","65","105507","0.0-1.0-86.0-0.0","0","0","95965","","226","","","75","9","","","1","9","training","adjacent","FE","6","5","R.jpg","M.jpg","1","0","0","",""
"","feedback","","html-keyboard-response","66","106510","0.0-1.0-87.0-0.0","0","0","95965","","null","","","null","9","","","","","","","","","","","","","","","",""
"","time_out","","html-keyboard-response","67","108511","0.0-1.0-89.0-0.0","0","0","95965","","null","","","null","9","","","","","","","","","","","","","","","",""
"","ITI","","html-keyboard-response","68","109514","0.0-1.0-90.0","0","0","95965","","null","","","null","9","","","","","","","","","","","","","","","NaN",""
"","S1","","html-keyboard-response","69","109765","0.0-1.0-92.0","0","0","95965","","null","","","null","10","","","","","","","","","","","","","","","",""
"","ISI","","html-keyboard-response","70","109919","0.0-1.0-93.0","0","0","95965","","null","","","null","10","NaN","","","","","","","","","","","","","","",""
"","S2","","html-keyboard-response","71","110173","0.0-1.0-94.0","0","0","95965","","null","","","null","10","","NaN","","","","","","","","","","","","","",""
"","response","","html-keyboard-response","72","110546","0.0-1.0-95.0-0.0","0","0","95965","","372","","","75","10","","","1","10","training","adjacent","EF","5","6","M.jpg","R.jpg","1","1","1","",""
"","feedback","","html-keyboard-response","73","111549","0.0-1.0-96.0-0.0","0","0","95965","","null","","","null","10","","","","","","","","","","","","","","","",""
"","ITI","","html-keyboard-response","74","112551","0.0-1.0-99.0","0","0","95965","","null","","","null","10","","","","","","","","","","","","","","","NaN",""
"","S1","","html-keyboard-response","75","112803","0.0-1.0-101.0","0","0","95965","","null","","","null","11","","","","","","","","","","","","","","","",""
"","ISI","","html-keyboard-response","76","112954","0.0-1.0-102.0","0","0","95965","","null","","","null","11","NaN","","","","","","","","","","","","","","",""
"","S2","","html-keyboard-response","77","113206","0.0-1.0-103.0","0","0","95965","","null","","","null","11","","NaN","","","","","","","","","","","","","",""
"","response","","html-keyboard-response","78","113379","0.0-1.0-104.0-0.0","0","0","95965","","171","","","68","11","","","1","11","training","adjacent","DE","4","5","P.jpg","M.jpg","0","1","0","",""
"","feedback","","html-keyboard-response","79","114381","0.0-1.0-105.0-0.0","0","0","95965","","null","","","null","11","","","","","","","","","","","","","","","",""
"","time_out","","html-keyboard-response","80","116382","0.0-1.0-107.0-0.0","0","0","95965","","null","","","null","11","","","","","","","","","","","","","","","",""
"","ITI","","html-keyboard-response","81","117384","0.0-1.0-108.0","0","0","95965","","null","","","null","11","","","","","","","","","","","","","","","NaN",""
"","S1","","html-keyboard-response","82","117637","0.0-1.0-110.0","0","0","95965","","null","","","null","12","","","","","","","","","","","","","","","",""
"","ISI","","html-keyboard-response","83","117789","0.0-1.0-111.0","0","0","95965","","null","","","null","12","NaN","","","","","","","","","","","","","","",""
"","S2","","html-keyboard-response","84","118046","0.0-1.0-112.0","0","0","95965","","null","","","null","12","","NaN","","","","","","","","","","","","","",""
"","response","","html-keyboard-response","85","118466","0.0-1.0-113.0-0.0","0","0","95965","","420","","","75","12","","","1","12","training","adjacent","CD","3","4","O.jpg","P.jpg","1","1","1","",""
"","feedback","","html-keyboard-response","86","119469","0.0-1.0-114.0-0.0","0","0","95965","","null","","","null","12","","","","","","","","","","","","","","","",""
"","ITI","","html-keyboard-response","87","120471","0.0-1.0-117.0","0","0","95965","","null","","","null","12","","","","","","","","","","","","","","","NaN",""
"","S1","","html-keyboard-response","88","120725","0.0-1.0-119.0","0","0","95965","","null","","","null","13","","","","","","","","","","","","","","","",""
"","ISI","","html-keyboard-response","89","120877","0.0-1.0-120.0","0","0","95965","","null","","","null","13","NaN","","","","","","","","","","","","","","",""
"","S2","","html-keyboard-response","90","121129","0.0-1.0-121.0","0","0","95965","","null","","","null","13","","NaN","","","","","","","","","","","","","",""
"","response","","html-keyboard-response","91","121562","0.0-1.0-122.0-0.0","0","0","95965","","432","","","68","13","","","1","13","training","adjacent","BA","2","1","Q.jpg","N.jpg","0","0","1","",""
"","feedback","","html-keyboard-response","92","122565","0.0-1.0-123.0-0.0","0","0","95965","","null","","","null","13","","","","","","","","","","","","","","","",""
"","ITI","","html-keyboard-response","93","123567","0.0-1.0-126.0","0","0","95965","","null","","","null","13","","","","","","","","","","","","","","","NaN",""
"","S1","","html-keyboard-response","94","123821","0.0-1.0-128.0","0","0","95965","","null","","","null","14","","","","","","","","","","","","","","","",""
"","ISI","","html-keyboard-response","95","123973","0.0-1.0-129.0","0","0","95965","","null","","","null","14","NaN","","","","","","","","","","","","","","",""
"","S2","","html-keyboard-response","96","124226","0.0-1.0-130.0","0","0","95965","","null","","","null","14","","NaN","","","","","","","","","","","","","",""
"","response","","html-keyboard-response","97","124731","0.0-1.0-131.0-0.0","0","0","95965","","504","","","68","14","","","1","14","training","adjacent","AB","1","2","N.jpg","Q.jpg","0","1","0","",""
"","feedback","","html-keyboard-response","98","125734","0.0-1.0-132.0-0.0","0","0","95965","","null","","","null","14","","","","","","","","","","","","","","","",""
"","time_out","","html-keyboard-response","99","127735","0.0-1.0-134.0-0.0","0","0","95965","","null","","","null","14","","","","","","","","","","","","","","","",""
"","ITI","","html-keyboard-response","100","128738","0.0-1.0-135.0","0","0","95965","","null","","","null","14","","","","","","","","","","","","","","","NaN",""
"","S1","","html-keyboard-response","101","128997","0.0-1.0-137.0","0","0","95965","","null","","","null","15","","","","","","","","","","","","","","","",""
"","ISI","","html-keyboard-response","102","129149","0.0-1.0-138.0","0","0","95965","","null","","","null","15","NaN","","","","","","","","","","","","","","",""
"","S2","","html-keyboard-response","103","129401","0.0-1.0-139.0","0","0","95965","","null","","","null","15","","NaN","","","","","","","","","","","","","",""
"","response","","html-keyboard-response","104","130011","0.0-1.0-140.0-0.0","0","0","95965","","609","","","75","15","","","1","15","training","adjacent","FE","6","5","R.jpg","M.jpg","1","0","0","",""
"","feedback","","html-keyboard-response","105","131013","0.0-1.0-141.0-0.0","0","0","95965","","null","","","null","15","","","","","","","","","","","","","","","",""
"","time_out","","html-keyboard-response","106","133016","0.0-1.0-143.0-0.0","0","0","95965","","null","","","null","15","","","","","","","","","","","","","","","",""
"","ITI","","html-keyboard-response","107","134018","0.0-1.0-144.0","0","0","95965","","null","","","null","15","","","","","","","","","","","","","","","NaN",""
"","S1","","html-keyboard-response","108","134270","0.0-1.0-146.0","0","0","95965","","null","","","null","16","","","","","","","","","","","","","","","",""
"","ISI","","html-keyboard-response","109","134423","0.0-1.0-147.0","0","0","95965","","null","","","null","16","NaN","","","","","","","","","","","","","","",""
"","S2","","html-keyboard-response","110","134676","0.0-1.0-148.0","0","0","95965","","null","","","null","16","","NaN","","","","","","","","","","","","","",""
"","response","","html-keyboard-response","111","135075","0.0-1.0-149.0-0.0","0","0","95965","","398","","","75","16","","","1","16","training","adjacent","DE","4","5","P.jpg","M.jpg","1","1","1","",""
"","feedback","","html-keyboard-response","112","136077","0.0-1.0-150.0-0.0","0","0","95965","","null","","","null","16","","","","","","","","","","","","","","","",""
"","ITI","","html-keyboard-response","113","137079","0.0-1.0-153.0","0","0","95965","","null","","","null","16","","","","","","","","","","","","","","","NaN",""
"","S1","","html-keyboard-response","114","137332","0.0-1.0-155.0","0","0","95965","","null","","","null","17","","","","","","","","","","","","","","","",""
"","ISI","","html-keyboard-response","115","137484","0.0-1.0-156.0","0","0","95965","","null","","","null","17","NaN","","","","","","","","","","","","","","",""
"","S2","","html-keyboard-response","116","137737","0.0-1.0-157.0","0","0","95965","","null","","","null","17","","NaN","","","","","","","","","","","","","",""
"","response","","html-keyboard-response","117","138098","0.0-1.0-158.0-0.0","0","0","95965","","361","","","68","17","","","1","17","training","adjacent","BA","2","1","Q.jpg","N.jpg","0","0","1","",""
"","feedback","","html-keyboard-response","118","139101","0.0-1.0-159.0-0.0","0","0","95965","","null","","","null","17","","","","","","","","","","","","","","","",""
"","ITI","","html-keyboard-response","119","140103","0.0-1.0-162.0","0","0","95965","","null","","","null","17","","","","","","","","","","","","","","","NaN",""
"","S1","","html-keyboard-response","120","140355","0.0-1.0-164.0","0","0","95965","","null","","","null","18","","","","","","","","","","","","","","","",""
"","ISI","","html-keyboard-response","121","140507","0.0-1.0-165.0","0","0","95965","","null","","","null","18","NaN","","","","","","","","","","","","","","",""
"","S2","","html-keyboard-response","122","140760","0.0-1.0-166.0","0","0","95965","","null","","","null","18","","NaN","","","","","","","","","","","","","",""
"","response","","html-keyboard-response","123","141098","0.0-1.0-167.0-0.0","0","0","95965","","337","","","75","18","","","1","18","training","adjacent","FG","6","7","R.jpg","L.jpg","1","1","1","",""
"","feedback","","html-keyboard-response","124","142101","0.0-1.0-168.0-0.0","0","0","95965","","null","","","null","18","","","","","","","","","","","","","","","",""
"","ITI","","html-keyboard-response","125","143103","0.0-1.0-171.0","0","0","95965","","null","","","null","18","","","","","","","","","","","","","","","NaN",""
"","S1","","html-keyboard-response","126","143355","0.0-1.0-173.0","0","0","95965","","null","","","null","19","","","","","","","","","","","","","","","",""
"","ISI","","html-keyboard-response","127","143507","0.0-1.0-174.0","0","0","95965","","null","","","null","19","NaN","","","","","","","","","","","","","","",""
"","S2","","html-keyboard-response","128","143760","0.0-1.0-175.0","0","0","95965","","null","","","null","19","","NaN","","","","","","","","","","","","","",""
"","response","","html-keyboard-response","129","144122","0.0-1.0-176.0-0.0","0","0","95965","","361","","","68","19","","","1","19","training","adjacent","DE","4","5","P.jpg","M.jpg","0","1","0","",""
"","feedback","","html-keyboard-response","130","145125","0.0-1.0-177.0-0.0","0","0","95965","","null","","","null","19","","","","","","","","","","","","","","","",""
"","time_out","","html-keyboard-response","131","147127","0.0-1.0-179.0-0.0","0","0","95965","","null","","","null","19","","","","","","","","","","","","","","","",""
"","ITI","","html-keyboard-response","132","148130","0.0-1.0-180.0","0","0","95965","","null","","","null","19","","","","","","","","","","","","","","","NaN",""
"","S1","","html-keyboard-response","133","148382","0.0-1.0-182.0","0","0","95965","","null","","","null","20","","","","","","","","","","","","","","","",""
"","ISI","","html-keyboard-response","134","148534","0.0-1.0-183.0","0","0","95965","","null","","","null","20","NaN","","","","","","","","","","","","","","",""
"","S2","","html-keyboard-response","135","148787","0.0-1.0-184.0","0","0","95965","","null","","","null","20","","NaN","","","","","","","","","","","","","",""
"","response","","html-keyboard-response","136","149171","0.0-1.0-185.0-0.0","0","0","95965","","382","","","75","20","","","1","20","training","adjacent","CD","3","4","O.jpg","P.jpg","1","1","1","",""
"","feedback","","html-keyboard-response","137","150173","0.0-1.0-186.0-0.0","0","0","95965","","null","","","null","20","","","","","","","","","","","","","","","",""
"","ITI","","html-keyboard-response","138","151176","0.0-1.0-189.0","0","0","95965","","null","","","null","20","","","","","","","","","","","","","","","NaN",""
"","S1","","html-keyboard-response","139","151427","0.0-1.0-191.0","0","0","95965","","null","","","null","21","","","","","","","","","","","","","","","",""
"","ISI","","html-keyboard-response","140","151579","0.0-1.0-192.0","0","0","95965","","null","","","null","21","NaN","","","","","","","","","","","","","","",""
"","S2","","html-keyboard-response","141","151838","0.0-1.0-193.0","0","0","95965","","null","","","null","21","","NaN","","","","","","","","","","","","","",""
"","response","","html-keyboard-response","142","152426","0.0-1.0-194.0-0.0","0","0","95965","","586","","","68","21","","","1","21","training","adjacent","BA","2","1","Q.jpg","N.jpg","0","0","1","",""
"","feedback","","html-keyboard-response","143","153429","0.0-1.0-195.0-0.0","0","0","95965","","null","","","null","21","","","","","","","","","","","","","","","",""
"","ITI","","html-keyboard-response","144","154430","0.0-1.0-198.0","0","0","95965","","null","","","null","21","","","","","","","","","","","","","","","NaN",""
"","S1","","html-keyboard-response","145","154683","0.0-1.0-200.0","0","0","95965","","null","","","null","22","","","","","","","","","","","","","","","",""
"","ISI","","html-keyboard-response","146","154835","0.0-1.0-201.0","0","0","95965","","null","","","null","22","NaN","","","","","","","","","","","","","","",""
"","S2","","html-keyboard-response","147","155087","0.0-1.0-202.0","0","0","95965","","null","","","null","22","","NaN","","","","","","","","","","","","","",""
"","response","","html-keyboard-response","148","155682","0.0-1.0-203.0-0.0","0","0","95965","","594","","","68","22","","","1","22","training","adjacent","AB","1","2","N.jpg","Q.jpg","0","1","0","",""
"","feedback","","html-keyboard-response","149","156685","0.0-1.0-204.0-0.0","0","0","95965","","null","","","null","22","","","","","","","","","","","","","","","",""
"","time_out","","html-keyboard-response","150","158687","0.0-1.0-206.0-0.0","0","0","95965","","null","","","null","22","","","","","","","","","","","","","","","",""
"","ITI","","html-keyboard-response","151","159690","0.0-1.0-207.0","0","0","95965","","null","","","null","22","","","","","","","","","","","","","","","NaN",""
"","S1","","html-keyboard-response","152","159943","0.0-1.0-209.0","0","0","95965","","null","","","null","23","","","","","","","","","","","","","","","",""
"","ISI","","html-keyboard-response","153","160095","0.0-1.0-210.0","0","0","95965","","null","","","null","23","NaN","","","","","","","","","","","","","","",""
"","S2","","html-keyboard-response","154","160346","0.0-1.0-211.0","0","0","95965","","null","","","null","23","","NaN","","","","","","","","","","","","","",""
"","response","","html-keyboard-response","155","160731","0.0-1.0-212.0-0.0","0","0","95965","","382","","","68","23","","","1","23","training","adjacent","EF","5","6","M.jpg","R.jpg","0","1","0","",""
"","feedback","","html-keyboard-response","156","161733","0.0-1.0-213.0-0.0","0","0","95965","","null","","","null","23","","","","","","","","","","","","","","","",""
"","time_out","","html-keyboard-response","157","163735","0.0-1.0-215.0-0.0","0","0","95965","","null","","","null","23","","","","","","","","","","","","","","","",""
"","ITI","","html-keyboard-response","158","164737","0.0-1.0-216.0","0","0","95965","","null","","","null","23","","","","","","","","","","","","","","","NaN",""
"","S1","","html-keyboard-response","159","164990","0.0-1.0-218.0","0","0","95965","","null","","","null","24","","","","","","","","","","","","","","","",""
"","ISI","","html-keyboard-response","160","165142","0.0-1.0-219.0","0","0","95965","","null","","","null","24","NaN","","","","","","","","","","","","","","",""
"","S2","","html-keyboard-response","161","165395","0.0-1.0-220.0","0","0","95965","","null","","","null","24","","NaN","","","","","","","","","","","","","",""
"","response","","html-keyboard-response","162","165771","0.0-1.0-221.0-0.0","0","0","95965","","374","","","75","24","","","1","24","training","adjacent","FE","6","5","R.jpg","M.jpg","1","0","0","",""
"","feedback","","html-keyboard-response","163","166773","0.0-1.0-222.0-0.0","0","0","95965","","null","","","null","24","","","","","","","","","","","","","","","",""
"","time_out","","html-keyboard-response","164","168776","0.0-1.0-224.0-0.0","0","0","95965","","null","","","null","24","","","","","","","","","","","","","","","",""
"","ITI","","html-keyboard-response","165","169778","0.0-1.0-225.0","0","0","95965","","null","","","null","24","","","","","","","","","","","","","","","NaN",""
"","S1","","html-keyboard-response","166","170030","0.0-1.0-227.0","0","0","95965","","null","","","null","25","","","","","","","","","","","","","","","",""
"","ISI","","html-keyboard-response","167","170183","0.0-1.0-228.0","0","0","95965","","null","","","null","25","NaN","","","","","","","","","","","","","","",""
"","S2","","html-keyboard-response","168","170435","0.0-1.0-229.0","0","0","95965","","null","","","null","25","","NaN","","","","","","","","","","","","","",""
"","response","","html-keyboard-response","169","170907","0.0-1.0-230.0-0.0","0","0","95965","","470","","","68","25","","","1","25","training","adjacent","ED","5","4","M.jpg","P.jpg","0","0","1","",""
"","feedback","","html-keyboard-response","170","171914","0.0-1.0-231.0-0.0","0","0","95965","","null","","","null","25","","","","","","","","","","","","","","","",""
"","ITI","","html-keyboard-response","171","172916","0.0-1.0-234.0","0","0","95965","","null","","","null","25","","","","","","","","","","","","","","","NaN",""
"","S1","","html-keyboard-response","172","173168","0.0-1.0-236.0","0","0","95965","","null","","","null","26","","","","","","","","","","","","","","","",""
"","ISI","","html-keyboard-response","173","173320","0.0-1.0-237.0","0","0","95965","","null","","","null","26","NaN","","","","","","","","","","","","","","",""
"","S2","","html-keyboard-response","174","173572","0.0-1.0-238.0","0","0","95965","","null","","","null","26","","NaN","","","","","","","","","","","","","",""
"","response","","html-keyboard-response","175","174539","0.0-1.0-239.0-0.0","0","0","95965","","965","","","75","26","","","1","26","training","adjacent","ED","5","4","M.jpg","P.jpg","1","0","0","",""
"","feedback","","html-keyboard-response","176","175541","0.0-1.0-240.0-0.0","0","0","95965","","null","","","null","26","","","","","","","","","","","","","","","",""
"","time_out","","html-keyboard-response","177","177543","0.0-1.0-242.0-0.0","0","0","95965","","null","","","null","26","","","","","","","","","","","","","","","",""
"","ITI","","html-keyboard-response","178","178546","0.0-1.0-243.0","0","0","95965","","null","","","null","26","","","","","","","","","","","","","","","NaN",""
"","S1","","html-keyboard-response","179","178799","0.0-1.0-245.0","0","0","95965","","null","","","null","27","","","","","","","","","","","","","","","",""
"","ISI","","html-keyboard-response","180","178951","0.0-1.0-246.0","0","0","95965","","null","","","null","27","NaN","","","","","","","","","","","","","","",""
"","S2","","html-keyboard-response","181","179204","0.0-1.0-247.0","0","0","95965","","null","","","null","27","","NaN","","","","","","","","","","","","","",""
"","response","","html-keyboard-response","182","179555","0.0-1.0-248.0-0.0","0","0","95965","","349","","","75","27","","","1","27","training","adjacent","ED","5","4","M.jpg","P.jpg","1","0","0","",""
"","feedback","","html-keyboard-response","183","180557","0.0-1.0-249.0-0.0","0","0","95965","","null","","","null","27","","","","","","","","","","","","","","","",""
"","time_out","","html-keyboard-response","184","182561","0.0-1.0-251.0-0.0","0","0","95965","","null","","","null","27","","","","","","","","","","","","","","","",""
"","ITI","","html-keyboard-response","185","183562","0.0-1.0-252.0","0","0","95965","","null","","","null","27","","","","","","","","","","","","","","","NaN",""
"","S1","","html-keyboard-response","186","183815","0.0-1.0-254.0","0","0","95965","","null","","","null","28","","","","","","","","","","","","","","","",""
"","ISI","","html-keyboard-response","187","183967","0.0-1.0-255.0","0","0","95965","","null","","","null","28","NaN","","","","","","","","","","","","","","",""
"","S2","","html-keyboard-response","188","184219","0.0-1.0-256.0","0","0","95965","","null","","","null","28","","NaN","","","","","","","","","","","","","",""
"","response","","html-keyboard-response","189","184371","0.0-1.0-257.0-0.0","0","0","95965","","151","","","68","28","","","1","28","training","adjacent","GF","7","6","L.jpg","R.jpg","0","0","1","",""
"","feedback","","html-keyboard-response","190","185373","0.0-1.0-258.0-0.0","0","0","95965","","null","","","null","28","","","","","","","","","","","","","","","",""
"","ITI","","html-keyboard-response","191","186376","0.0-1.0-261.0","0","0","95965","","null","","","null","28","","","","","","","","","","","","","","","NaN",""
"","S1","","html-keyboard-response","192","186629","0.0-1.0-263.0","0","0","95965","","null","","","null","29","","","","","","","","","","","","","","","",""
"","ISI","","html-keyboard-response","193","186783","0.0-1.0-264.0","0","0","95965","","null","","","null","29","NaN","","","","","","","","","","","","","","",""
"","S2","","html-keyboard-response","194","187036","0.0-1.0-265.0","0","0","95965","","null","","","null","29","","NaN","","","","","","","","","","","","","",""
"","response","","html-keyboard-response","195","187155","0.0-1.0-266.0-0.0","0","0","95965","","118","","","68","29","","","1","29","training","adjacent","AB","1","2","N.jpg","Q.jpg","0","1","0","",""
"","feedback","","html-keyboard-response","196","188157","0.0-1.0-267.0-0.0","0","0","95965","","null","","","null","29","","","","","","","","","","","","","","","",""
"","time_out","","html-keyboard-response","197","190160","0.0-1.0-269.0-0.0","0","0","95965","","null","","","null","29","","","","","","","","","","","","","","","",""
"","ITI","","html-keyboard-response","198","191163","0.0-1.0-270.0","0","0","95965","","null","","","null","29","","","","","","","","","","","","","","","NaN",""
"","S1","","html-keyboard-response","199","191415","0.0-1.0-272.0","0","0","95965","","null","","","null","30","","","","","","","","","","","","","","","",""
"","ISI","","html-keyboard-response","200","191568","0.0-1.0-273.0","0","0","95965","","null","","","null","30","NaN","","","","","","","","","","","","","","",""
"","S2","","html-keyboard-response","201","191820","0.0-1.0-274.0","0","0","95965","","null","","","null","30","","NaN","","","","","","","","","","","","","",""
"","response","","html-keyboard-response","202","192179","0.0-1.0-275.0-0.0","0","0","95965","","358","","","68","30","","","1","30","training","adjacent","FG","6","7","R.jpg","L.jpg","0","1","0","",""
"","feedback","","html-keyboard-response","203","193181","0.0-1.0-276.0-0.0","0","0","95965","","null","","","null","30","","","","","","","","","","","","","","","",""
"","time_out","","html-keyboard-response","204","195184","0.0-1.0-278.0-0.0","0","0","95965","","null","","","null","30","","","","","","","","","","","","","","","",""
"","ITI","","html-keyboard-response","205","196199","0.0-1.0-279.0","0","0","95965","","null","","","null","30","","","","","","","","","","","","","","","NaN",""
"","S1","","html-keyboard-response","206","196467","0.0-1.0-281.0","0","0","95965","","null","","","null","31","","","","","","","","","","","","","","","",""
"","ISI","","html-keyboard-response","207","196618","0.0-1.0-282.0","0","0","95965","","null","","","null","31","NaN","","","","","","","","","","","","","","",""
"","S2","","html-keyboard-response","208","196872","0.0-1.0-283.0","0","0","95965","","null","","","null","31","","NaN","","","","","","","","","","","","","",""
"","response","","html-keyboard-response","209","197163","0.0-1.0-284.0-0.0","0","0","95965","","290","","","75","31","","","1","31","training","adjacent","DC","4","3","P.jpg","O.jpg","1","0","0","",""
"","feedback","","html-keyboard-response","210","198165","0.0-1.0-285.0-0.0","0","0","95965","","null","","","null","31","","","","","","","","","","","","","","","",""
"","time_out","","html-keyboard-response","211","200168","0.0-1.0-287.0-0.0","0","0","95965","","null","","","null","31","","","","","","","","","","","","","","","",""
"","ITI","","html-keyboard-response","212","201170","0.0-1.0-288.0","0","0","95965","","null","","","null","31","","","","","","","","","","","","","","","NaN",""
"","S1","","html-keyboard-response","213","201423","0.0-1.0-290.0","0","0","95965","","null","","","null","32","","","","","","","","","","","","","","","",""
"","ISI","","html-keyboard-response","214","201576","0.0-1.0-291.0","0","0","95965","","null","","","null","32","NaN","","","","","","","","","","","","","","",""
"","S2","","html-keyboard-response","215","201828","0.0-1.0-292.0","0","0","95965","","null","","","null","32","","NaN","","","","","","","","","","","","","",""
"","response","","html-keyboard-response","216","202122","0.0-1.0-293.0-0.0","0","0","95965","","293","","","68","32","","","1","32","training","adjacent","GF","7","6","L.jpg","R.jpg","0","0","1","",""
"","feedback","","html-keyboard-response","217","203125","0.0-1.0-294.0-0.0","0","0","95965","","null","","","null","32","","","","","","","","","","","","","","","",""
"","ITI","","html-keyboard-response","218","204126","0.0-1.0-297.0","0","0","95965","","null","","","null","32","","","","","","","","","","","","","","","NaN",""
"","S1","","html-keyboard-response","219","204378","0.0-1.0-299.0","0","0","95965","","null","","","null","33","","","","","","","","","","","","","","","",""
"","ISI","","html-keyboard-response","220","204530","0.0-1.0-300.0","0","0","95965","","null","","","null","33","NaN","","","","","","","","","","","","","","",""
"","S2","","html-keyboard-response","221","204783","0.0-1.0-301.0","0","0","95965","","null","","","null","33","","NaN","","","","","","","","","","","","","",""
"","response","","html-keyboard-response","222","205002","0.0-1.0-302.0-0.0","0","0","95965","","218","","","68","33","","","1","33","training","adjacent","ED","5","4","M.jpg","P.jpg","0","0","1","",""
"","feedback","","html-keyboard-response","223","206005","0.0-1.0-303.0-0.0","0","0","95965","","null","","","null","33","","","","","","","","","","","","","","","",""
"","ITI","","html-keyboard-response","224","207008","0.0-1.0-306.0","0","0","95965","","null","","","null","33","","","","","","","","","","","","","","","NaN",""
"","S1","","html-keyboard-response","225","207261","0.0-1.0-308.0","0","0","95965","","null","","","null","34","","","","","","","","","","","","","","","",""
"","ISI","","html-keyboard-response","226","207413","0.0-1.0-309.0","0","0","95965","","null","","","null","34","NaN","","","","","","","","","","","","","","",""
"","S2","","html-keyboard-response","227","207665","0.0-1.0-310.0","0","0","95965","","null","","","null","34","","NaN","","","","","","","","","","","","","",""
"","response","","html-keyboard-response","228","208003","0.0-1.0-311.0-0.0","0","0","95965","","337","","","75","34","","","1","34","training","adjacent","BA","2","1","Q.jpg","N.jpg","1","0","0","",""
"","feedback","","html-keyboard-response","229","209006","0.0-1.0-312.0-0.0","0","0","95965","","null","","","null","34","","","","","","","","","","","","","","","",""
"","time_out","","html-keyboard-response","230","211009","0.0-1.0-314.0-0.0","0","0","95965","","null","","","null","34","","","","","","","","","","","","","","","",""
"","ITI","","html-keyboard-response","231","212011","0.0-1.0-315.0","0","0","95965","","null","","","null","34","","","","","","","","","","","","","","","NaN",""
"","S1","","html-keyboard-response","232","212263","0.0-1.0-317.0","0","0","95965","","null","","","null","35","","","","","","","","","","","","","","","",""
"","ISI","","html-keyboard-response","233","212415","0.0-1.0-318.0","0","0","95965","","null","","","null","35","NaN","","","","","","","","","","","","","","",""
"","S2","","html-keyboard-response","234","212668","0.0-1.0-319.0","0","0","95965","","null","","","null","35","","NaN","","","","","","","","","","","","","",""
"","response","","html-keyboard-response","235","212971","0.0-1.0-320.0-0.0","0","0","95965","","302","","","68","35","","","1","35","training","adjacent","BC","2","3","Q.jpg","O.jpg","0","1","0","",""
"","feedback","","html-keyboard-response","236","213972","0.0-1.0-321.0-0.0","0","0","95965","","null","","","null","35","","","","","","","","","","","","","","","",""
"","time_out","","html-keyboard-response","237","215974","0.0-1.0-323.0-0.0","0","0","95965","","null","","","null","35","","","","","","","","","","","","","","","",""
"","ITI","","html-keyboard-response","238","216976","0.0-1.0-324.0","0","0","95965","","null","","","null","35","","","","","","","","","","","","","","","NaN",""
"","S1","","html-keyboard-response","239","217228","0.0-1.0-326.0","0","0","95965","","null","","","null","36","","","","","","","","","","","","","","","",""
"","ISI","","html-keyboard-response","240","217381","0.0-1.0-327.0","0","0","95965","","null","","","null","36","NaN","","","","","","","","","","","","","","",""
"","S2","","html-keyboard-response","241","217634","0.0-1.0-328.0","0","0","95965","","null","","","null","36","","NaN","","","","","","","","","","","","","",""
"","response","","html-keyboard-response","242","217811","0.0-1.0-329.0-0.0","0","0","95965","","176","","","75","36","","","1","36","training","adjacent","GF","7","6","L.jpg","R.jpg","1","0","0","",""
"","feedback","","html-keyboard-response","243","218813","0.0-1.0-330.0-0.0","0","0","95965","","null","","","null","36","","","","","","","","","","","","","","","",""
"","time_out","","html-keyboard-response","244","220816","0.0-1.0-332.0-0.0","0","0","95965","","null","","","null","36","","","","","","","","","","","","","","","",""
"","ITI","","html-keyboard-response","245","221818","0.0-1.0-333.0","0","0","95965","","null","","","null","36","","","","","","","","","","","","","","","NaN",""
"","S1","","html-keyboard-response","246","222071","0.0-1.0-335.0","0","0","95965","","null","","","null","37","","","","","","","","","","","","","","","",""
"","ISI","","html-keyboard-response","247","222223","0.0-1.0-336.0","0","0","95965","","null","","","null","37","NaN","","","","","","","","","","","","","","",""
"","S2","","html-keyboard-response","248","222475","0.0-1.0-337.0","0","0","95965","","null","","","null","37","","NaN","","","","","","","","","","","","","",""
"","response","","html-keyboard-response","249","222803","0.0-1.0-338.0-0.0","0","0","95965","","326","","","68","37","","","1","37","training","adjacent","EF","5","6","M.jpg","R.jpg","0","1","0","",""
"","feedback","","html-keyboard-response","250","223812","0.0-1.0-339.0-0.0","0","0","95965","","null","","","null","37","","","","","","","","","","","","","","","",""
"","time_out","","html-keyboard-response","251","225815","0.0-1.0-341.0-0.0","0","0","95965","","null","","","null","37","","","","","","","","","","","","","","","",""
"","ITI","","html-keyboard-response","252","226817","0.0-1.0-342.0","0","0","95965","","null","","","null","37","","","","","","","","","","","","","","","NaN",""
"","S1","","html-keyboard-response","253","227070","0.0-1.0-344.0","0","0","95965","","null","","","null","38","","","","","","","","","","","","","","","",""
"","ISI","","html-keyboard-response","254","227222","0.0-1.0-345.0","0","0","95965","","null","","","null","38","NaN","","","","","","","","","","","","","","",""
"","S2","","html-keyboard-response","255","227474","0.0-1.0-346.0","0","0","95965","","null","","","null","38","","NaN","","","","","","","","","","","","","",""
"","response","","html-keyboard-response","256","227899","0.0-1.0-347.0-0.0","0","0","95965","","423","","","75","38","","","1","38","training","adjacent","CB","3","2","O.jpg","Q.jpg","1","0","0","",""
"","feedback","","html-keyboard-response","257","228902","0.0-1.0-348.0-0.0","0","0","95965","","null","","","null","38","","","","","","","","","","","","","","","",""
"","time_out","","html-keyboard-response","258","230904","0.0-1.0-350.0-0.0","0","0","95965","","null","","","null","38","","","","","","","","","","","","","","","",""
"","ITI","","html-keyboard-response","259","231907","0.0-1.0-351.0","0","0","95965","","null","","","null","38","","","","","","","","","","","","","","","NaN",""
"","S1","","html-keyboard-response","260","232160","0.0-1.0-353.0","0","0","95965","","null","","","null","39","","","","","","","","","","","","","","","",""
"","ISI","","html-keyboard-response","261","232312","0.0-1.0-354.0","0","0","95965","","null","","","null","39","NaN","","","","","","","","","","","","","","",""
"","S2","","html-keyboard-response","262","232565","0.0-1.0-355.0","0","0","95965","","null","","","null","39","","NaN","","","","","","","","","","","","","",""
"","response","","html-keyboard-response","263","233123","0.0-1.0-356.0-0.0","0","0","95965","","557","","","75","39","","","1","39","training","adjacent","CD","3","4","O.jpg","P.jpg","1","1","1","",""
"","feedback","","html-keyboard-response","264","234131","0.0-1.0-357.0-0.0","0","0","95965","","null","","","null","39","","","","","","","","","","","","","","","",""
"","ITI","","html-keyboard-response","265","235133","0.0-1.0-360.0","0","0","95965","","null","","","null","39","","","","","","","","","","","","","","","NaN",""
"","S1","","html-keyboard-response","266","235386","0.0-1.0-362.0","0","0","95965","","null","","","null","40","","","","","","","","","","","","","","","",""
"","ISI","","html-keyboard-response","267","235538","0.0-1.0-363.0","0","0","95965","","null","","","null","40","NaN","","","","","","","","","","","","","","",""
"","S2","","html-keyboard-response","268","235791","0.0-1.0-364.0","0","0","95965","","null","","","null","40","","NaN","","","","","","","","","","","","","",""
"","response","","html-keyboard-response","269","236171","0.0-1.0-365.0-0.0","0","0","95965","","379","","","75","40","","","1","40","training","adjacent","EF","5","6","M.jpg","R.jpg","1","1","1","",""
"","feedback","","html-keyboard-response","270","237173","0.0-1.0-366.0-0.0","0","0","95965","","null","","","null","40","","","","","","","","","","","","","","","",""
"","ITI","","html-keyboard-response","271","238175","0.0-1.0-369.0","0","0","95965","","null","","","null","40","","","","","","","","","","","","","","","NaN",""
"","S1","","html-keyboard-response","272","238427","0.0-1.0-371.0","0","0","95965","","null","","","null","41","","","","","","","","","","","","","","","",""
"","ISI","","html-keyboard-response","273","238579","0.0-1.0-372.0","0","0","95965","","null","","","null","41","NaN","","","","","","","","","","","","","","",""
"","S2","","html-keyboard-response","274","238832","0.0-1.0-373.0","0","0","95965","","null","","","null","41","","NaN","","","","","","","","","","","","","",""
"","response","","html-keyboard-response","275","239523","0.0-1.0-374.0-0.0","0","0","95965","","689","","","75","41","","","1","41","training","adjacent","FG","6","7","R.jpg","L.jpg","1","1","1","",""
"","feedback","","html-keyboard-response","276","240525","0.0-1.0-375.0-0.0","0","0","95965","","null","","","null","41","","","","","","","","","","","","","","","",""
"","ITI","","html-keyboard-response","277","241527","0.0-1.0-378.0","0","0","95965","","null","","","null","41","","","","","","","","","","","","","","","NaN",""
"","S1","","html-keyboard-response","278","241779","0.0-1.0-380.0","0","0","95965","","null","","","null","42","","","","","","","","","","","","","","","",""
"","ISI","","html-keyboard-response","279","241931","0.0-1.0-381.0","0","0","95965","","null","","","null","42","NaN","","","","","","","","","","","","","","",""
"","S2","","html-keyboard-response","280","242184","0.0-1.0-382.0","0","0","95965","","null","","","null","42","","NaN","","","","","","","","","","","","","",""
"","response","","html-keyboard-response","281","242515","0.0-1.0-383.0-0.0","0","0","95965","","330","","","68","42","","","1","42","training","adjacent","DC","4","3","P.jpg","O.jpg","0","0","1","",""
"","feedback","","html-keyboard-response","282","243518","0.0-1.0-384.0-0.0","0","0","95965","","null","","","null","42","","","","","","","","","","","","","","","",""
"","ITI","","html-keyboard-response","283","244520","0.0-1.0-387.0","0","0","95965","","null","","","null","42","","","","","","","","","","","","","","","NaN",""
"","S1","","html-keyboard-response","284","244773","0.0-1.0-389.0","0","0","95965","","null","","","null","43","","","","","","","","","","","","","","","",""
"","ISI","","html-keyboard-response","285","244926","0.0-1.0-390.0","0","0","95965","","null","","","null","43","NaN","","","","","","","","","","","","","","",""
"","S2","","html-keyboard-response","286","245179","0.0-1.0-391.0","0","0","95965","","null","","","null","43","","NaN","","","","","","","","","","","","","",""
"","response","","html-keyboard-response","287","245587","0.0-1.0-392.0-0.0","0","0","95965","","407","","","68","43","","","1","43","training","adjacent","DE","4","5","P.jpg","M.jpg","0","1","0","",""
"","feedback","","html-keyboard-response","288","246590","0.0-1.0-393.0-0.0","0","0","95965","","null","","","null","43","","","","","","","","","","","","","","","",""
"","time_out","","html-keyboard-response","289","248592","0.0-1.0-395.0-0.0","0","0","95965","","null","","","null","43","","","","","","","","","","","","","","","",""
"","ITI","","html-keyboard-response","290","249604","0.0-1.0-396.0","0","0","95965","","null","","","null","43","","","","","","","","","","","","","","","NaN",""
"","S1","","html-keyboard-response","291","249857","0.0-1.0-398.0","0","0","95965","","null","","","null","44","","","","","","","","","","","","","","","",""
"","ISI","","html-keyboard-response","292","250009","0.0-1.0-399.0","0","0","95965","","null","","","null","44","NaN","","","","","","","","","","","","","","",""
"","S2","","html-keyboard-response","293","250261","0.0-1.0-400.0","0","0","95965","","null","","","null","44","","NaN","","","","","","","","","","","","","",""
"","response","","html-keyboard-response","294","250659","0.0-1.0-401.0-0.0","0","0","95965","","396","","","75","44","","","1","44","training","adjacent","FE","6","5","R.jpg","M.jpg","1","0","0","",""
"","feedback","","html-keyboard-response","295","251661","0.0-1.0-402.0-0.0","0","0","95965","","null","","","null","44","","","","","","","","","","","","","","","",""
"","time_out","","html-keyboard-response","296","253664","0.0-1.0-404.0-0.0","0","0","95965","","null","","","null","44","","","","","","","","","","","","","","","",""
"","ITI","","html-keyboard-response","297","254667","0.0-1.0-405.0","0","0","95965","","null","","","null","44","","","","","","","","","","","","","","","NaN",""
"","S1","","html-keyboard-response","298","254919","0.0-1.0-407.0","0","0","95965","","null","","","null","45","","","","","","","","","","","","","","","",""
"","ISI","","html-keyboard-response","299","255071","0.0-1.0-408.0","0","0","95965","","null","","","null","45","NaN","","","","","","","","","","","","","","",""
"","S2","","html-keyboard-response","300","255323","0.0-1.0-409.0","0","0","95965","","null","","","null","45","","NaN","","","","","","","","","","","","","",""
"","response","","html-keyboard-response","301","255947","0.0-1.0-410.0-0.0","0","0","95965","","622","","","68","45","","","1","45","training","adjacent","DC","4","3","P.jpg","O.jpg","0","0","1","",""
"","feedback","","html-keyboard-response","302","256949","0.0-1.0-411.0-0.0","0","0","95965","","null","","","null","45","","","","","","","","","","","","","","","",""
"","ITI","","html-keyboard-response","303","257952","0.0-1.0-414.0","0","0","95965","","null","","","null","45","","","","","","","","","","","","","","","NaN",""
"","S1","","html-keyboard-response","304","258204","0.0-1.0-416.0","0","0","95965","","null","","","null","46","","","","","","","","","","","","","","","",""
"","ISI","","html-keyboard-response","305","258356","0.0-1.0-417.0","0","0","95965","","null","","","null","46","NaN","","","","","","","","","","","","","","",""
"","S2","","html-keyboard-response","306","258609","0.0-1.0-418.0","0","0","95965","","null","","","null","46","","NaN","","","","","","","","","","","","","",""
"","response","","html-keyboard-response","307","259163","0.0-1.0-419.0-0.0","0","0","95965","","552","","","68","46","","","1","46","training","adjacent","AB","1","2","N.jpg","Q.jpg","0","1","0","",""
"","feedback","","html-keyboard-response","308","260166","0.0-1.0-420.0-0.0","0","0","95965","","null","","","null","46","","","","","","","","","","","","","","","",""
"","time_out","","html-keyboard-response","309","262168","0.0-1.0-422.0-0.0","0","0","95965","","null","","","null","46","","","","","","","","","","","","","","","",""
"","ITI","","html-keyboard-response","310","263170","0.0-1.0-423.0","0","0","95965","","null","","","null","46","","","","","","","","","","","","","","","NaN",""
"","S1","","html-keyboard-response","311","263423","0.0-1.0-425.0","0","0","95965","","null","","","null","47","","","","","","","","","","","","","","","",""
"","ISI","","html-keyboard-response","312","263575","0.0-1.0-426.0","0","0","95965","","null","","","null","47","NaN","","","","","","","","","","","","","","",""
"","S2","","html-keyboard-response","313","263828","0.0-1.0-427.0","0","0","95965","","null","","","null","47","","NaN","","","","","","","","","","","","","",""
"","response","","html-keyboard-response","314","264475","0.0-1.0-428.0-0.0","0","0","95965","","645","","","75","47","","","1","47","training","adjacent","BC","2","3","Q.jpg","O.jpg","1","1","1","",""
"","feedback","","html-keyboard-response","315","265477","0.0-1.0-429.0-0.0","0","0","95965","","null","","","null","47","","","","","","","","","","","","","","","",""
"","ITI","","html-keyboard-response","316","266479","0.0-1.0-432.0","0","0","95965","","null","","","null","47","","","","","","","","","","","","","","","NaN",""
"","block_over","","html-keyboard-response","317","270659","0.0-1.0-433.0-0.0","0","0","95965","","4178","","","32","47","","","","","","","","","","","","","","","",""
"","S1","","html-keyboard-response","318","270911","0.0-1.0-434.0","0","0","95965","","null","","","null","48","","","","","","","","","","","","","","","",""
"","ISI","","html-keyboard-response","319","271063","0.0-1.0-435.0","0","0","95965","","null","","","null","48","NaN","","","","","","","","","","","","","","",""
"","S2","","html-keyboard-response","320","271315","0.0-1.0-436.0","0","0","95965","","null","","","null","48","","NaN","","","","","","","","","","","","","",""
"","response","","html-keyboard-response","321","272595","0.0-1.0-437.0-0.0","0","0","95965","","1278","","","75","48","","","2","48","training","adjacent","DC","4","3","P.jpg","O.jpg","1","0","0","",""
"","feedback","","html-keyboard-response","322","273597","0.0-1.0-438.0-0.0","0","0","95965","","null","","","null","48","","","","","","","","","","","","","","","",""
"","time_out","","html-keyboard-response","323","275600","0.0-1.0-440.0-0.0","0","0","95965","","null","","","null","48","","","","","","","","","","","","","","","",""
"","ITI","","html-keyboard-response","324","276602","0.0-1.0-441.0","0","0","95965","","null","","","null","48","","","","","","","","","","","","","","","NaN",""
"","S1","","html-keyboard-response","325","276855","0.0-1.0-443.0","0","0","95965","","null","","","null","49","","","","","","","","","","","","","","","",""
"","ISI","","html-keyboard-response","326","277007","0.0-1.0-444.0","0","0","95965","","null","","","null","49","NaN","","","","","","","","","","","","","","",""
"","S2","","html-keyboard-response","327","277260","0.0-1.0-445.0","0","0","95965","","null","","","null","49","","NaN","","","","","","","","","","","","","",""
"","response","","html-keyboard-response","328","278019","0.0-1.0-446.0-0.0","0","0","95965","","758","","","68","49","","","2","49","training","adjacent","AB","1","2","N.jpg","Q.jpg","0","1","0","",""
"","feedback","","html-keyboard-response","329","279021","0.0-1.0-447.0-0.0","0","0","95965","","null","","","null","49","","","","","","","","","","","","","","","",""
"","time_out","","html-keyboard-response","330","281023","0.0-1.0-449.0-0.0","0","0","95965","","null","","","null","49","","","","","","","","","","","","","","","",""
"","ITI","","html-keyboard-response","331","282025","0.0-1.0-450.0","0","0","95965","","null","","","null","49","","","","","","","","","","","","","","","NaN",""
"","S1","","html-keyboard-response","332","282278","0.0-1.0-452.0","0","0","95965","","null","","","null","50","","","","","","","","","","","","","","","",""
"","ISI","","html-keyboard-response","333","282431","0.0-1.0-453.0","0","0","95965","","null","","","null","50","NaN","","","","","","","","","","","","","","",""
"","S2","","html-keyboard-response","334","282683","0.0-1.0-454.0","0","0","95965","","null","","","null","50","","NaN","","","","","","","","","","","","","",""
"","response","","html-keyboard-response","335","283171","0.0-1.0-455.0-0.0","0","0","95965","","486","","","68","50","","","2","50","training","adjacent","AB","1","2","N.jpg","Q.jpg","0","1","0","",""
"","feedback","","html-keyboard-response","336","284174","0.0-1.0-456.0-0.0","0","0","95965","","null","","","null","50","","","","","","","","","","","","","","","",""
"","time_out","","html-keyboard-response","337","286176","0.0-1.0-458.0-0.0","0","0","95965","","null","","","null","50","","","","","","","","","","","","","","","",""
"","ITI","","html-keyboard-response","338","287178","0.0-1.0-459.0","0","0","95965","","null","","","null","50","","","","","","","","","","","","","","","NaN",""
"","S1","","html-keyboard-response","339","287431","0.0-1.0-461.0","0","0","95965","","null","","","null","51","","","","","","","","","","","","","","","",""
"","ISI","","html-keyboard-response","340","287583","0.0-1.0-462.0","0","0","95965","","null","","","null","51","NaN","","","","","","","","","","","","","","",""
"","S2","","html-keyboard-response","341","287836","0.0-1.0-463.0","0","0","95965","","null","","","null","51","","NaN","","","","","","","","","","","","","",""
"","response","","html-keyboard-response","342","288187","0.0-1.0-464.0-0.0","0","0","95965","","350","","","75","51","","","2","51","training","adjacent","FE","6","5","R.jpg","M.jpg","1","0","0","",""
"","feedback","","html-keyboard-response","343","289198","0.0-1.0-465.0-0.0","0","0","95965","","null","","","null","51","","","","","","","","","","","","","","","",""
"","time_out","","html-keyboard-response","344","291200","0.0-1.0-467.0-0.0","0","0","95965","","null","","","null","51","","","","","","","","","","","","","","","",""
"","ITI","","html-keyboard-response","345","292203","0.0-1.0-468.0","0","0","95965","","null","","","null","51","","","","","","","","","","","","","","","NaN",""
"","S1","","html-keyboard-response","346","292455","0.0-1.0-470.0","0","0","95965","","null","","","null","52","","","","","","","","","","","","","","","",""
"","ISI","","html-keyboard-response","347","292607","0.0-1.0-471.0","0","0","95965","","null","","","null","52","NaN","","","","","","","","","","","","","","",""
"","S2","","html-keyboard-response","348","292859","0.0-1.0-472.0","0","0","95965","","null","","","null","52","","NaN","","","","","","","","","","","","","",""
"","response","","html-keyboard-response","349","293323","0.0-1.0-473.0-0.0","0","0","95965","","462","","","75","52","","","2","52","training","adjacent","BA","2","1","Q.jpg","N.jpg","1","0","0","",""
"","feedback","","html-keyboard-response","350","294326","0.0-1.0-474.0-0.0","0","0","95965","","null","","","null","52","","","","","","","","","","","","","","","",""
"","time_out","","html-keyboard-response","351","296328","0.0-1.0-476.0-0.0","0","0","95965","","null","","","null","52","","","","","","","","","","","","","","","",""
"","ITI","","html-keyboard-response","352","297330","0.0-1.0-477.0","0","0","95965","","null","","","null","52","","","","","","","","","","","","","","","NaN",""
"","S1","","html-keyboard-response","353","297583","0.0-1.0-479.0","0","0","95965","","null","","","null","53","","","","","","","","","","","","","","","",""
"","ISI","","html-keyboard-response","354","297735","0.0-1.0-480.0","0","0","95965","","null","","","null","53","NaN","","","","","","","","","","","","","","",""
"","S2","","html-keyboard-response","355","297988","0.0-1.0-481.0","0","0","95965","","null","","","null","53","","NaN","","","","","","","","","","","","","",""
"","response","","html-keyboard-response","356","298275","0.0-1.0-482.0-0.0","0","0","95965","","286","","","68","53","","","2","53","training","adjacent","ED","5","4","M.jpg","P.jpg","0","0","1","",""
"","feedback","","html-keyboard-response","357","299277","0.0-1.0-483.0-0.0","0","0","95965","","null","","","null","53","","","","","","","","","","","","","","","",""
"","ITI","","html-keyboard-response","358","300285","0.0-1.0-486.0","0","0","95965","","null","","","null","53","","","","","","","","","","","","","","","NaN",""
"","S1","","html-keyboard-response","359","300537","0.0-1.0-488.0","0","0","95965","","null","","","null","54","","","","","","","","","","","","","","","",""
"","ISI","","html-keyboard-response","360","300689","0.0-1.0-489.0","0","0","95965","","null","","","null","54","NaN","","","","","","","","","","","","","","",""
"","S2","","html-keyboard-response","361","300941","0.0-1.0-490.0","0","0","95965","","null","","","null","54","","NaN","","","","","","","","","","","","","",""
"","response","","html-keyboard-response","362","301243","0.0-1.0-491.0-0.0","0","0","95965","","301","","","68","54","","","2","54","training","adjacent","EF","5","6","M.jpg","R.jpg","0","1","0","",""
"","feedback","","html-keyboard-response","363","302246","0.0-1.0-492.0-0.0","0","0","95965","","null","","","null","54","","","","","","","","","","","","","","","",""
"","time_out","","html-keyboard-response","364","304248","0.0-1.0-494.0-0.0","0","0","95965","","null","","","null","54","","","","","","","","","","","","","","","",""
"","ITI","","html-keyboard-response","365","305250","0.0-1.0-495.0","0","0","95965","","null","","","null","54","","","","","","","","","","","","","","","NaN",""
"","S1","","html-keyboard-response","366","305504","0.0-1.0-497.0","0","0","95965","","null","","","null","55","","","","","","","","","","","","","","","",""
"","ISI","","html-keyboard-response","367","305656","0.0-1.0-498.0","0","0","95965","","null","","","null","55","NaN","","","","","","","","","","","","","","",""
"","S2","","html-keyboard-response","368","305908","0.0-1.0-499.0","0","0","95965","","null","","","null","55","","NaN","","","","","","","","","","","","","",""
"","response","","html-keyboard-response","369","306451","0.0-1.0-500.0-0.0","0","0","95965","","542","","","75","55","","","2","55","training","adjacent","EF","5","6","M.jpg","R.jpg","1","1","1","",""
"","feedback","","html-keyboard-response","370","307454","0.0-1.0-501.0-0.0","0","0","95965","","null","","","null","55","","","","","","","","","","","","","","","",""
"","ITI","","html-keyboard-response","371","308456","0.0-1.0-504.0","0","0","95965","","null","","","null","55","","","","","","","","","","","","","","","NaN",""
"","S1","","html-keyboard-response","372","308709","0.0-1.0-506.0","0","0","95965","","null","","","null","56","","","","","","","","","","","","","","","",""
"","ISI","","html-keyboard-response","373","308862","0.0-1.0-507.0","0","0","95965","","null","","","null","56","NaN","","","","","","","","","","","","","","",""
"","S2","","html-keyboard-response","374","309114","0.0-1.0-508.0","0","0","95965","","null","","","null","56","","NaN","","","","","","","","","","","","","",""
"","response","","html-keyboard-response","375","309475","0.0-1.0-509.0-0.0","0","0","95965","","360","","","68","56","","","2","56","training","adjacent","GF","7","6","L.jpg","R.jpg","0","0","1","",""
"","feedback","","html-keyboard-response","376","310477","0.0-1.0-510.0-0.0","0","0","95965","","null","","","null","56","","","","","","","","","","","","","","","",""
"","ITI","","html-keyboard-response","377","311480","0.0-1.0-513.0","0","0","95965","","null","","","null","56","","","","","","","","","","","","","","","NaN",""
"","S1","","html-keyboard-response","378","311733","0.0-1.0-515.0","0","0","95965","","null","","","null","57","","","","","","","","","","","","","","","",""
"","ISI","","html-keyboard-response","379","311885","0.0-1.0-516.0","0","0","95965","","null","","","null","57","NaN","","","","","","","","","","","","","","",""
"","S2","","html-keyboard-response","380","312137","0.0-1.0-517.0","0","0","95965","","null","","","null","57","","NaN","","","","","","","","","","","","","",""
"","response","","html-keyboard-response","381","312411","0.0-1.0-518.0-0.0","0","0","95965","","273","","","68","57","","","2","57","training","adjacent","GF","7","6","L.jpg","R.jpg","0","0","1","",""
"","feedback","","html-keyboard-response","382","313413","0.0-1.0-519.0-0.0","0","0","95965","","null","","","null","57","","","","","","","","","","","","","","","",""
"","ITI","","html-keyboard-response","383","314423","0.0-1.0-522.0","0","0","95965","","null","","","null","57","","","","","","","","","","","","","","","NaN",""
"","S1","","html-keyboard-response","384","314675","0.0-1.0-524.0","0","0","95965","","null","","","null","58","","","","","","","","","","","","","","","",""
"","ISI","","html-keyboard-response","385","314827","0.0-1.0-525.0","0","0","95965","","null","","","null","58","NaN","","","","","","","","","","","","","","",""
"","S2","","html-keyboard-response","386","315080","0.0-1.0-526.0","0","0","95965","","null","","","null","58","","NaN","","","","","","","","","","","","","",""
"","response","","html-keyboard-response","387","315675","0.0-1.0-527.0-0.0","0","0","95965","","594","","","68","58","","","2","58","training","adjacent","BA","2","1","Q.jpg","N.jpg","0","0","1","",""
"","feedback","","html-keyboard-response","388","316677","0.0-1.0-528.0-0.0","0","0","95965","","null","","","null","58","","","","","","","","","","","","","","","",""
"","ITI","","html-keyboard-response","389","317680","0.0-1.0-531.0","0","0","95965","","null","","","null","58","","","","","","","","","","","","","","","NaN",""
"","S1","","html-keyboard-response","390","317933","0.0-1.0-533.0","0","0","95965","","null","","","null","59","","","","","","","","","","","","","","","",""
"","ISI","","html-keyboard-response","391","318086","0.0-1.0-534.0","0","0","95965","","null","","","null","59","NaN","","","","","","","","","","","","","","",""
"","S2","","html-keyboard-response","392","318338","0.0-1.0-535.0","0","0","95965","","null","","","null","59","","NaN","","","","","","","","","","","","","",""
"","response","","html-keyboard-response","393","318851","0.0-1.0-536.0-0.0","0","0","95965","","512","","","68","59","","","2","59","training","adjacent","CB","3","2","O.jpg","Q.jpg","0","0","1","",""
"","feedback","","html-keyboard-response","394","319854","0.0-1.0-537.0-0.0","0","0","95965","","null","","","null","59","","","","","","","","","","","","","","","",""
"","ITI","","html-keyboard-response","395","320856","0.0-1.0-540.0","0","0","95965","","null","","","null","59","","","","","","","","","","","","","","","NaN",""
"","S1","","html-keyboard-response","396","321109","0.0-1.0-542.0","0","0","95965","","null","","","null","60","","","","","","","","","","","","","","","",""
"","ISI","","html-keyboard-response","397","321261","0.0-1.0-543.0","0","0","95965","","null","","","null","60","NaN","","","","","","","","","","","","","","",""
"","S2","","html-keyboard-response","398","321514","0.0-1.0-544.0","0","0","95965","","null","","","null","60","","NaN","","","","","","","","","","","","","",""
"","response","","html-keyboard-response","399","321931","0.0-1.0-545.0-0.0","0","0","95965","","416","","","68","60","","","2","60","training","adjacent","DC","4","3","P.jpg","O.jpg","0","0","1","",""
"","feedback","","html-keyboard-response","400","322934","0.0-1.0-546.0-0.0","0","0","95965","","null","","","null","60","","","","","","","","","","","","","","","",""
"","ITI","","html-keyboard-response","401","323936","0.0-1.0-549.0","0","0","95965","","null","","","null","60","","","","","","","","","","","","","","","NaN",""
"","S1","","html-keyboard-response","402","324189","0.0-1.0-551.0","0","0","95965","","null","","","null","61","","","","","","","","","","","","","","","",""
"","ISI","","html-keyboard-response","403","324341","0.0-1.0-552.0","0","0","95965","","null","","","null","61","NaN","","","","","","","","","","","","","","",""
"","S2","","html-keyboard-response","404","324594","0.0-1.0-553.0","0","0","95965","","null","","","null","61","","NaN","","","","","","","","","","","","","",""
"","response","","html-keyboard-response","405","325187","0.0-1.0-554.0-0.0","0","0","95965","","592","","","75","61","","","2","61","training","adjacent","ED","5","4","M.jpg","P.jpg","1","0","0","",""
"","feedback","","html-keyboard-response","406","326189","0.0-1.0-555.0-0.0","0","0","95965","","null","","","null","61","","","","","","","","","","","","","","","",""
"","time_out","","html-keyboard-response","407","328192","0.0-1.0-557.0-0.0","0","0","95965","","null","","","null","61","","","","","","","","","","","","","","","",""
"","ITI","","html-keyboard-response","408","329194","0.0-1.0-558.0","0","0","95965","","null","","","null","61","","","","","","","","","","","","","","","NaN",""
"","S1","","html-keyboard-response","409","329447","0.0-1.0-560.0","0","0","95965","","null","","","null","62","","","","","","","","","","","","","","","",""
"","ISI","","html-keyboard-response","410","329600","0.0-1.0-561.0","0","0","95965","","null","","","null","62","NaN","","","","","","","","","","","","","","",""
"","S2","","html-keyboard-response","411","329856","0.0-1.0-562.0","0","0","95965","","null","","","null","62","","NaN","","","","","","","","","","","","","",""
"","response","","html-keyboard-response","412","330715","0.0-1.0-563.0-0.0","0","0","95965","","858","","","68","62","","","2","62","training","adjacent","ED","5","4","M.jpg","P.jpg","0","0","1","",""
"","feedback","","html-keyboard-response","413","331717","0.0-1.0-564.0-0.0","0","0","95965","","null","","","null","62","","","","","","","","","","","","","","","",""
"","ITI","","html-keyboard-response","414","332720","0.0-1.0-567.0","0","0","95965","","null","","","null","62","","","","","","","","","","","","","","","NaN",""
"","S1","","html-keyboard-response","415","332973","0.0-1.0-569.0","0","0","95965","","null","","","null","63","","","","","","","","","","","","","","","",""
"","ISI","","html-keyboard-response","416","333125","0.0-1.0-570.0","0","0","95965","","null","","","null","63","NaN","","","","","","","","","","","","","","",""
"","S2","","html-keyboard-response","417","333378","0.0-1.0-571.0","0","0","95965","","null","","","null","63","","NaN","","","","","","","","","","","","","",""
"","response","","html-keyboard-response","418","333763","0.0-1.0-572.0-0.0","0","0","95965","","384","","","68","63","","","2","63","training","adjacent","CD","3","4","O.jpg","P.jpg","0","1","0","",""
"","feedback","","html-keyboard-response","419","334765","0.0-1.0-573.0-0.0","0","0","95965","","null","","","null","63","","","","","","","","","","","","","","","",""
"","time_out","","html-keyboard-response","420","336768","0.0-1.0-575.0-0.0","0","0","95965","","null","","","null","63","","","","","","","","","","","","","","","",""
"","ITI","","html-keyboard-response","421","337770","0.0-1.0-576.0","0","0","95965","","null","","","null","63","","","","","","","","","","","","","","","NaN",""
"","S1","","html-keyboard-response","422","338023","0.0-1.0-578.0","0","0","95965","","null","","","null","64","","","","","","","","","","","","","","","",""
"","ISI","","html-keyboard-response","423","338175","0.0-1.0-579.0","0","0","95965","","null","","","null","64","NaN","","","","","","","","","","","","","","",""
"","S2","","html-keyboard-response","424","338428","0.0-1.0-580.0","0","0","95965","","null","","","null","64","","NaN","","","","","","","","","","","","","",""
"","response","","html-keyboard-response","425","338683","0.0-1.0-581.0-0.0","0","0","95965","","254","","","68","64","","","2","64","training","adjacent","AB","1","2","N.jpg","Q.jpg","0","1","0","",""
"","feedback","","html-keyboard-response","426","339685","0.0-1.0-582.0-0.0","0","0","95965","","null","","","null","64","","","","","","","","","","","","","","","",""
"","time_out","","html-keyboard-response","427","341688","0.0-1.0-584.0-0.0","0","0","95965","","null","","","null","64","","","","","","","","","","","","","","","",""
"","ITI","","html-keyboard-response","428","342690","0.0-1.0-585.0","0","0","95965","","null","","","null","64","","","","","","","","","","","","","","","NaN",""
"","S1","","html-keyboard-response","429","342943","0.0-1.0-587.0","0","0","95965","","null","","","null","65","","","","","","","","","","","","","","","",""
"","ISI","","html-keyboard-response","430","343095","0.0-1.0-588.0","0","0","95965","","null","","","null","65","NaN","","","","","","","","","","","","","","",""
"","S2","","html-keyboard-response","431","343347","0.0-1.0-589.0","0","0","95965","","null","","","null","65","","NaN","","","","","","","","","","","","","",""
"","response","","html-keyboard-response","432","343779","0.0-1.0-590.0-0.0","0","0","95965","","431","","","68","65","","","2","65","training","adjacent","FG","6","7","R.jpg","L.jpg","0","1","0","",""
"","feedback","","html-keyboard-response","433","344783","0.0-1.0-591.0-0.0","0","0","95965","","null","","","null","65","","","","","","","","","","","","","","","",""
"","time_out","","html-keyboard-response","434","346786","0.0-1.0-593.0-0.0","0","0","95965","","null","","","null","65","","","","","","","","","","","","","","","",""
"","ITI","","html-keyboard-response","435","347788","0.0-1.0-594.0","0","0","95965","","null","","","null","65","","","","","","","","","","","","","","","NaN",""
"","S1","","html-keyboard-response","436","348041","0.0-1.0-596.0","0","0","95965","","null","","","null","66","","","","","","","","","","","","","","","",""
"","ISI","","html-keyboard-response","437","348192","0.0-1.0-597.0","0","0","95965","","null","","","null","66","NaN","","","","","","","","","","","","","","",""
"","S2","","html-keyboard-response","438","348445","0.0-1.0-598.0","0","0","95965","","null","","","null","66","","NaN","","","","","","","","","","","","","",""
"","response","","html-keyboard-response","439","348867","0.0-1.0-599.0-0.0","0","0","95965","","421","","","68","66","","","2","66","training","adjacent","DE","4","5","P.jpg","M.jpg","0","1","0","",""
"","feedback","","html-keyboard-response","440","349875","0.0-1.0-600.0-0.0","0","0","95965","","null","","","null","66","","","","","","","","","","","","","","","",""
"","time_out","","html-keyboard-response","441","351877","0.0-1.0-602.0-0.0","0","0","95965","","null","","","null","66","","","","","","","","","","","","","","","",""
"","ITI","","html-keyboard-response","442","352880","0.0-1.0-603.0","0","0","95965","","null","","","null","66","","","","","","","","","","","","","","","NaN",""
"","S1","","html-keyboard-response","443","353132","0.0-1.0-605.0","0","0","95965","","null","","","null","67","","","","","","","","","","","","","","","",""
"","ISI","","html-keyboard-response","444","353284","0.0-1.0-606.0","0","0","95965","","null","","","null","67","NaN","","","","","","","","","","","","","","",""
"","S2","","html-keyboard-response","445","353536","0.0-1.0-607.0","0","0","95965","","null","","","null","67","","NaN","","","","","","","","","","","","","",""
"","response","","html-keyboard-response","446","354363","0.0-1.0-608.0-0.0","0","0","95965","","825","","","68","67","","","2","67","training","adjacent","BC","2","3","Q.jpg","O.jpg","0","1","0","",""
"","feedback","","html-keyboard-response","447","355365","0.0-1.0-609.0-0.0","0","0","95965","","null","","","null","67","","","","","","","","","","","","","","","",""
"","time_out","","html-keyboard-response","448","357368","0.0-1.0-611.0-0.0","0","0","95965","","null","","","null","67","","","","","","","","","","","","","","","",""
"","ITI","","html-keyboard-response","449","358370","0.0-1.0-612.0","0","0","95965","","null","","","null","67","","","","","","","","","","","","","","","NaN",""
"","S1","","html-keyboard-response","450","358623","0.0-1.0-614.0","0","0","95965","","null","","","null","68","","","","","","","","","","","","","","","",""
"","ISI","","html-keyboard-response","451","358776","0.0-1.0-615.0","0","0","95965","","null","","","null","68","NaN","","","","","","","","","","","","","","",""
"","S2","","html-keyboard-response","452","359028","0.0-1.0-616.0","0","0","95965","","null","","","null","68","","NaN","","","","","","","","","","","","","",""
"","response","","html-keyboard-response","453","359259","0.0-1.0-617.0-0.0","0","0","95965","","230","","","68","68","","","2","68","training","adjacent","BC","2","3","Q.jpg","O.jpg","0","1","0","",""
"","feedback","","html-keyboard-response","454","360262","0.0-1.0-618.0-0.0","0","0","95965","","null","","","null","68","","","","","","","","","","","","","","","",""
"","time_out","","html-keyboard-response","455","362265","0.0-1.0-620.0-0.0","0","0","95965","","null","","","null","68","","","","","","","","","","","","","","","",""
"","ITI","","html-keyboard-response","456","363267","0.0-1.0-621.0","0","0","95965","","null","","","null","68","","","","","","","","","","","","","","","NaN",""
"","S1","","html-keyboard-response","457","363520","0.0-1.0-623.0","0","0","95965","","null","","","null","69","","","","","","","","","","","","","","","",""
"","ISI","","html-keyboard-response","458","363678","0.0-1.0-624.0","0","0","95965","","null","","","null","69","NaN","","","","","","","","","","","","","","",""
"","S2","","html-keyboard-response","459","363930","0.0-1.0-625.0","0","0","95965","","null","","","null","69","","NaN","","","","","","","","","","","","","",""
"","response","","html-keyboard-response","460","364363","0.0-1.0-626.0-0.0","0","0","95965","","432","","","68","69","","","2","69","training","adjacent","FE","6","5","R.jpg","M.jpg","0","0","1","",""
"","feedback","","html-keyboard-response","461","365367","0.0-1.0-627.0-0.0","0","0","95965","","null","","","null","69","","","","","","","","","","","","","","","",""
"","ITI","","html-keyboard-response","462","366370","0.0-1.0-630.0","0","0","95965","","null","","","null","69","","","","","","","","","","","","","","","NaN",""
"","S1","","html-keyboard-response","463","366623","0.0-1.0-632.0","0","0","95965","","null","","","null","70","","","","","","","","","","","","","","","",""
"","ISI","","html-keyboard-response","464","366776","0.0-1.0-633.0","0","0","95965","","null","","","null","70","NaN","","","","","","","","","","","","","","",""
"","S2","","html-keyboard-response","465","367029","0.0-1.0-634.0","0","0","95965","","null","","","null","70","","NaN","","","","","","","","","","","","","",""
"","response","","html-keyboard-response","466","367411","0.0-1.0-635.0-0.0","0","0","95965","","381","","","68","70","","","2","70","training","adjacent","DE","4","5","P.jpg","M.jpg","0","1","0","",""
"","feedback","","html-keyboard-response","467","368414","0.0-1.0-636.0-0.0","0","0","95965","","null","","","null","70","","","","","","","","","","","","","","","",""
"","time_out","","html-keyboard-response","468","370416","0.0-1.0-638.0-0.0","0","0","95965","","null","","","null","70","","","","","","","","","","","","","","","",""
"","ITI","","html-keyboard-response","469","371418","0.0-1.0-639.0","0","0","95965","","null","","","null","70","","","","","","","","","","","","","","","NaN",""
"","S1","","html-keyboard-response","470","371671","0.0-1.0-641.0","0","0","95965","","null","","","null","71","","","","","","","","","","","","","","","",""
"","ISI","","html-keyboard-response","471","371823","0.0-1.0-642.0","0","0","95965","","null","","","null","71","NaN","","","","","","","","","","","","","","",""
"","S2","","html-keyboard-response","472","372076","0.0-1.0-643.0","0","0","95965","","null","","","null","71","","NaN","","","","","","","","","","","","","",""
"","response","","html-keyboard-response","473","372539","0.0-1.0-644.0-0.0","0","0","95965","","462","","","68","71","","","2","71","training","adjacent","BC","2","3","Q.jpg","O.jpg","0","1","0","",""
"","feedback","","html-keyboard-response","474","373541","0.0-1.0-645.0-0.0","0","0","95965","","null","","","null","71","","","","","","","","","","","","","","","",""
"","time_out","","html-keyboard-response","475","375544","0.0-1.0-647.0-0.0","0","0","95965","","null","","","null","71","","","","","","","","","","","","","","","",""
"","ITI","","html-keyboard-response","476","376546","0.0-1.0-648.0","0","0","95965","","null","","","null","71","","","","","","","","","","","","","","","NaN",""
"","S1","","html-keyboard-response","477","376798","0.0-1.0-650.0","0","0","95965","","null","","","null","72","","","","","","","","","","","","","","","",""
"","ISI","","html-keyboard-response","478","376951","0.0-1.0-651.0","0","0","95965","","null","","","null","72","NaN","","","","","","","","","","","","","","",""
"","S2","","html-keyboard-response","479","377203","0.0-1.0-652.0","0","0","95965","","null","","","null","72","","NaN","","","","","","","","","","","","","",""
"","response","","html-keyboard-response","480","377595","0.0-1.0-653.0-0.0","0","0","95965","","391","","","75","72","","","2","72","training","adjacent","EF","5","6","M.jpg","R.jpg","1","1","1","",""
"","feedback","","html-keyboard-response","481","378598","0.0-1.0-654.0-0.0","0","0","95965","","null","","","null","72","","","","","","","","","","","","","","","",""
"","ITI","","html-keyboard-response","482","379600","0.0-1.0-657.0","0","0","95965","","null","","","null","72","","","","","","","","","","","","","","","NaN",""
"","S1","","html-keyboard-response","483","379853","0.0-1.0-659.0","0","0","95965","","null","","","null","73","","","","","","","","","","","","","","","",""
"","ISI","","html-keyboard-response","484","380005","0.0-1.0-660.0","0","0","95965","","null","","","null","73","NaN","","","","","","","","","","","","","","",""
"","S2","","html-keyboard-response","485","380258","0.0-1.0-661.0","0","0","95965","","null","","","null","73","","NaN","","","","","","","","","","","","","",""
"","response","","html-keyboard-response","486","380571","0.0-1.0-662.0-0.0","0","0","95965","","312","","","68","73","","","2","73","training","adjacent","DE","4","5","P.jpg","M.jpg","0","1","0","",""
"","feedback","","html-keyboard-response","487","381573","0.0-1.0-663.0-0.0","0","0","95965","","null","","","null","73","","","","","","","","","","","","","","","",""
"","time_out","","html-keyboard-response","488","383575","0.0-1.0-665.0-0.0","0","0","95965","","null","","","null","73","","","","","","","","","","","","","","","",""
"","ITI","","html-keyboard-response","489","384578","0.0-1.0-666.0","0","0","95965","","null","","","null","73","","","","","","","","","","","","","","","NaN",""
"","S1","","html-keyboard-response","490","384830","0.0-1.0-668.0","0","0","95965","","null","","","null","74","","","","","","","","","","","","","","","",""
"","ISI","","html-keyboard-response","491","384982","0.0-1.0-669.0","0","0","95965","","null","","","null","74","NaN","","","","","","","","","","","","","","",""
"","S2","","html-keyboard-response","492","385234","0.0-1.0-670.0","0","0","95965","","null","","","null","74","","NaN","","","","","","","","","","","","","",""
"","response","","html-keyboard-response","493","385459","0.0-1.0-671.0-0.0","0","0","95965","","224","","","68","74","","","2","74","training","adjacent","BA","2","1","Q.jpg","N.jpg","0","0","1","",""
"","feedback","","html-keyboard-response","494","386462","0.0-1.0-672.0-0.0","0","0","95965","","null","","","null","74","","","","","","","","","","","","","","","",""
"","ITI","","html-keyboard-response","495","387477","0.0-1.0-675.0","0","0","95965","","null","","","null","74","","","","","","","","","","","","","","","NaN",""
"","S1","","html-keyboard-response","496","387729","0.0-1.0-677.0","0","0","95965","","null","","","null","75","","","","","","","","","","","","","","","",""
"","ISI","","html-keyboard-response","497","387882","0.0-1.0-678.0","0","0","95965","","null","","","null","75","NaN","","","","","","","","","","","","","","",""
"","S2","","html-keyboard-response","498","388134","0.0-1.0-679.0","0","0","95965","","null","","","null","75","","NaN","","","","","","","","","","","","","",""
"","response","","html-keyboard-response","499","388427","0.0-1.0-680.0-0.0","0","0","95965","","292","","","75","75","","","2","75","training","adjacent","CB","3","2","O.jpg","Q.jpg","1","0","0","",""
"","feedback","","html-keyboard-response","500","389429","0.0-1.0-681.0-0.0","0","0","95965","","null","","","null","75","","","","","","","","","","","","","","","",""
"","time_out","","html-keyboard-response","501","391432","0.0-1.0-683.0-0.0","0","0","95965","","null","","","null","75","","","","","","","","","","","","","","","",""
"","ITI","","html-keyboard-response","502","392434","0.0-1.0-684.0","0","0","95965","","null","","","null","75","","","","","","","","","","","","","","","NaN",""
"","S1","","html-keyboard-response","503","392687","0.0-1.0-686.0","0","0","95965","","null","","","null","76","","","","","","","","","","","","","","","",""
"","ISI","","html-keyboard-response","504","392840","0.0-1.0-687.0","0","0","95965","","null","","","null","76","NaN","","","","","","","","","","","","","","",""
"","S2","","html-keyboard-response","505","393103","0.0-1.0-688.0","0","0","95965","","null","","","null","76","","NaN","","","","","","","","","","","","","",""
"","response","","html-keyboard-response","506","393259","0.0-1.0-689.0-0.0","0","0","95965","","154","","","68","76","","","2","76","training","adjacent","CD","3","4","O.jpg","P.jpg","0","1","0","",""
"","feedback","","html-keyboard-response","507","394262","0.0-1.0-690.0-0.0","0","0","95965","","null","","","null","76","","","","","","","","","","","","","","","",""
"","time_out","","html-keyboard-response","508","396265","0.0-1.0-692.0-0.0","0","0","95965","","null","","","null","76","","","","","","","","","","","","","","","",""
"","ITI","","html-keyboard-response","509","397267","0.0-1.0-693.0","0","0","95965","","null","","","null","76","","","","","","","","","","","","","","","NaN",""
"","S1","","html-keyboard-response","510","397520","0.0-1.0-695.0","0","0","95965","","null","","","null","77","","","","","","","","","","","","","","","",""
"","ISI","","html-keyboard-response","511","397672","0.0-1.0-696.0","0","0","95965","","null","","","null","77","NaN","","","","","","","","","","","","","","",""
"","S2","","html-keyboard-response","512","397924","0.0-1.0-697.0","0","0","95965","","null","","","null","77","","NaN","","","","","","","","","","","","","",""
"","response","","html-keyboard-response","513","398739","0.0-1.0-698.0-0.0","0","0","95965","","814","","","68","77","","","2","77","training","adjacent","CB","3","2","O.jpg","Q.jpg","0","0","1","",""
"","feedback","","html-keyboard-response","514","399741","0.0-1.0-699.0-0.0","0","0","95965","","null","","","null","77","","","","","","","","","","","","","","","",""
"","ITI","","html-keyboard-response","515","400756","0.0-1.0-702.0","0","0","95965","","null","","","null","77","","","","","","","","","","","","","","","NaN",""
"","S1","","html-keyboard-response","516","401008","0.0-1.0-704.0","0","0","95965","","null","","","null","78","","","","","","","","","","","","","","","",""
"","ISI","","html-keyboard-response","517","401161","0.0-1.0-705.0","0","0","95965","","null","","","null","78","NaN","","","","","","","","","","","","","","",""
"","S2","","html-keyboard-response","518","401413","0.0-1.0-706.0","0","0","95965","","null","","","null","78","","NaN","","","","","","","","","","","","","",""
"","response","","html-keyboard-response","519","401803","0.0-1.0-707.0-0.0","0","0","95965","","389","","","68","78","","","2","78","training","adjacent","GF","7","6","L.jpg","R.jpg","0","0","1","",""
"","feedback","","html-keyboard-response","520","402805","0.0-1.0-708.0-0.0","0","0","95965","","null","","","null","78","","","","","","","","","","","","","","","",""
"","ITI","","html-keyboard-response","521","403808","0.0-1.0-711.0","0","0","95965","","null","","","null","78","","","","","","","","","","","","","","","NaN",""
"","S1","","html-keyboard-response","522","404061","0.0-1.0-713.0","0","0","95965","","null","","","null","79","","","","","","","","","","","","","","","",""
"","ISI","","html-keyboard-response","523","404215","0.0-1.0-714.0","0","0","95965","","null","","","null","79","NaN","","","","","","","","","","","","","","",""
"","S2","","html-keyboard-response","524","404467","0.0-1.0-715.0","0","0","95965","","null","","","null","79","","NaN","","","","","","","","","","","","","",""
"","response","","html-keyboard-response","525","404779","0.0-1.0-716.0-0.0","0","0","95965","","310","","","75","79","","","2","79","training","adjacent","FG","6","7","R.jpg","L.jpg","1","1","1","",""
"","feedback","","html-keyboard-response","526","405782","0.0-1.0-717.0-0.0","0","0","95965","","null","","","null","79","","","","","","","","","","","","","","","",""
"","ITI","","html-keyboard-response","527","406785","0.0-1.0-720.0","0","0","95965","","null","","","null","79","","","","","","","","","","","","","","","NaN",""
"","S1","","html-keyboard-response","528","407038","0.0-1.0-722.0","0","0","95965","","null","","","null","80","","","","","","","","","","","","","","","",""
"","ISI","","html-keyboard-response","529","407190","0.0-1.0-723.0","0","0","95965","","null","","","null","80","NaN","","","","","","","","","","","","","","",""
"","S2","","html-keyboard-response","530","407443","0.0-1.0-724.0","0","0","95965","","null","","","null","80","","NaN","","","","","","","","","","","","","",""
"","response","","html-keyboard-response","531","407732","0.0-1.0-725.0-0.0","0","0","95965","","287","","","68","80","","","2","80","training","adjacent","FG","6","7","R.jpg","L.jpg","0","1","0","",""
"","feedback","","html-keyboard-response","532","408735","0.0-1.0-726.0-0.0","0","0","95965","","null","","","null","80","","","","","","","","","","","","","","","",""
"","time_out","","html-keyboard-response","533","410737","0.0-1.0-728.0-0.0","0","0","95965","","null","","","null","80","","","","","","","","","","","","","","","",""
"","ITI","","html-keyboard-response","534","411739","0.0-1.0-729.0","0","0","95965","","null","","","null","80","","","","","","","","","","","","","","","NaN",""
"","S1","","html-keyboard-response","535","411991","0.0-1.0-731.0","0","0","95965","","null","","","null","81","","","","","","","","","","","","","","","",""
"","ISI","","html-keyboard-response","536","412144","0.0-1.0-732.0","0","0","95965","","null","","","null","81","NaN","","","","","","","","","","","","","","",""
"","S2","","html-keyboard-response","537","412396","0.0-1.0-733.0","0","0","95965","","null","","","null","81","","NaN","","","","","","","","","","","","","",""
"","response","","html-keyboard-response","538","413020","0.0-1.0-734.0-0.0","0","0","95965","","623","","","75","81","","","2","81","training","adjacent","ED","5","4","M.jpg","P.jpg","1","0","0","",""
"","feedback","","html-keyboard-response","539","414022","0.0-1.0-735.0-0.0","0","0","95965","","null","","","null","81","","","","","","","","","","","","","","","",""
"","time_out","","html-keyboard-response","540","416024","0.0-1.0-737.0-0.0","0","0","95965","","null","","","null","81","","","","","","","","","","","","","","","",""
"","ITI","","html-keyboard-response","541","417026","0.0-1.0-738.0","0","0","95965","","null","","","null","81","","","","","","","","","","","","","","","NaN",""
"","S1","","html-keyboard-response","542","417278","0.0-1.0-740.0","0","0","95965","","null","","","null","82","","","","","","","","","","","","","","","",""
"","ISI","","html-keyboard-response","543","417430","0.0-1.0-741.0","0","0","95965","","null","","","null","82","NaN","","","","","","","","","","","","","","",""
"","S2","","html-keyboard-response","544","417682","0.0-1.0-742.0","0","0","95965","","null","","","null","82","","NaN","","","","","","","","","","","","","",""
"","response","","html-keyboard-response","545","417883","0.0-1.0-743.0-0.0","0","0","95965","","199","","","75","82","","","2","82","training","adjacent","FG","6","7","R.jpg","L.jpg","1","1","1","",""
"","feedback","","html-keyboard-response","546","418886","0.0-1.0-744.0-0.0","0","0","95965","","null","","","null","82","","","","","","","","","","","","","","","",""
"","ITI","","html-keyboard-response","547","419889","0.0-1.0-747.0","0","0","95965","","null","","","null","82","","","","","","","","","","","","","","","NaN",""
"","S1","","html-keyboard-response","548","420141","0.0-1.0-749.0","0","0","95965","","null","","","null","83","","","","","","","","","","","","","","","",""
"","ISI","","html-keyboard-response","549","420296","0.0-1.0-750.0","0","0","95965","","null","","","null","83","NaN","","","","","","","","","","","","","","",""
"","S2","","html-keyboard-response","550","420549","0.0-1.0-751.0","0","0","95965","","null","","","null","83","","NaN","","","","","","","","","","","","","",""
"","response","","html-keyboard-response","551","420948","0.0-1.0-752.0-0.0","0","0","95965","","397","","","68","83","","","2","83","training","adjacent","FE","6","5","R.jpg","M.jpg","0","0","1","",""
"","feedback","","html-keyboard-response","552","421949","0.0-1.0-753.0-0.0","0","0","95965","","null","","","null","83","","","","","","","","","","","","","","","",""
"","ITI","","html-keyboard-response","553","422953","0.0-1.0-756.0","0","0","95965","","null","","","null","83","","","","","","","","","","","","","","","NaN",""
"","S1","","html-keyboard-response","554","423205","0.0-1.0-758.0","0","0","95965","","null","","","null","84","","","","","","","","","","","","","","","",""
"","ISI","","html-keyboard-response","555","423357","0.0-1.0-759.0","0","0","95965","","null","","","null","84","NaN","","","","","","","","","","","","","","",""
"","S2","","html-keyboard-response","556","423609","0.0-1.0-760.0","0","0","95965","","null","","","null","84","","NaN","","","","","","","","","","","","","",""
"","response","","html-keyboard-response","557","424244","0.0-1.0-761.0-0.0","0","0","95965","","633","","","75","84","","","2","84","training","adjacent","DE","4","5","P.jpg","M.jpg","1","1","1","",""
"","feedback","","html-keyboard-response","558","425253","0.0-1.0-762.0-0.0","0","0","95965","","null","","","null","84","","","","","","","","","","","","","","","",""
"","ITI","","html-keyboard-response","559","426255","0.0-1.0-765.0","0","0","95965","","null","","","null","84","","","","","","","","","","","","","","","NaN",""
"","S1","","html-keyboard-response","560","426508","0.0-1.0-767.0","0","0","95965","","null","","","null","85","","","","","","","","","","","","","","","",""
"","ISI","","html-keyboard-response","561","426660","0.0-1.0-768.0","0","0","95965","","null","","","null","85","NaN","","","","","","","","","","","","","","",""
"","S2","","html-keyboard-response","562","426912","0.0-1.0-769.0","0","0","95965","","null","","","null","85","","NaN","","","","","","","","","","","","","",""
"","response","","html-keyboard-response","563","427484","0.0-1.0-770.0-0.0","0","0","95965","","570","","","75","85","","","2","85","training","adjacent","CD","3","4","O.jpg","P.jpg","1","1","1","",""
"","feedback","","html-keyboard-response","564","428486","0.0-1.0-771.0-0.0","0","0","95965","","null","","","null","85","","","","","","","","","","","","","","","",""
"","ITI","","html-keyboard-response","565","429490","0.0-1.0-774.0","0","0","95965","","null","","","null","85","","","","","","","","","","","","","","","NaN",""
"","S1","","html-keyboard-response","566","429756","0.0-1.0-776.0","0","0","95965","","null","","","null","86","","","","","","","","","","","","","","","",""
"","ISI","","html-keyboard-response","567","429909","0.0-1.0-777.0","0","0","95965","","null","","","null","86","NaN","","","","","","","","","","","","","","",""
"","S2","","html-keyboard-response","568","430161","0.0-1.0-778.0","0","0","95965","","null","","","null","86","","NaN","","","","","","","","","","","","","",""
"","response","","html-keyboard-response","569","430651","0.0-1.0-779.0-0.0","0","0","95965","","489","","","75","86","","","2","86","training","adjacent","BC","2","3","Q.jpg","O.jpg","1","1","1","",""
"","feedback","","html-keyboard-response","570","431654","0.0-1.0-780.0-0.0","0","0","95965","","null","","","null","86","","","","","","","","","","","","","","","",""
"","ITI","","html-keyboard-response","571","432657","0.0-1.0-783.0","0","0","95965","","null","","","null","86","","","","","","","","","","","","","","","NaN",""
"","S1","","html-keyboard-response","572","432908","0.0-1.0-785.0","0","0","95965","","null","","","null","87","","","","","","","","","","","","","","","",""
"","ISI","","html-keyboard-response","573","433061","0.0-1.0-786.0","0","0","95965","","null","","","null","87","NaN","","","","","","","","","","","","","","",""
"","S2","","html-keyboard-response","574","433314","0.0-1.0-787.0","0","0","95965","","null","","","null","87","","NaN","","","","","","","","","","","","","",""
"","response","","html-keyboard-response","575","433699","0.0-1.0-788.0-0.0","0","0","95965","","384","","","75","87","","","2","87","training","adjacent","CD","3","4","O.jpg","P.jpg","1","1","1","",""
"","feedback","","html-keyboard-response","576","434702","0.0-1.0-789.0-0.0","0","0","95965","","null","","","null","87","","","","","","","","","","","","","","","",""
"","ITI","","html-keyboard-response","577","435705","0.0-1.0-792.0","0","0","95965","","null","","","null","87","","","","","","","","","","","","","","","NaN",""
"","S1","","html-keyboard-response","578","435957","0.0-1.0-794.0","0","0","95965","","null","","","null","88","","","","","","","","","","","","","","","",""
"","ISI","","html-keyboard-response","579","436110","0.0-1.0-795.0","0","0","95965","","null","","","null","88","NaN","","","","","","","","","","","","","","",""
"","S2","","html-keyboard-response","580","436362","0.0-1.0-796.0","0","0","95965","","null","","","null","88","","NaN","","","","","","","","","","","","","",""
"","response","","html-keyboard-response","581","436739","0.0-1.0-797.0-0.0","0","0","95965","","376","","","68","88","","","2","88","training","adjacent","DC","4","3","P.jpg","O.jpg","0","0","1","",""
"","feedback","","html-keyboard-response","582","437743","0.0-1.0-798.0-0.0","0","0","95965","","null","","","null","88","","","","","","","","","","","","","","","",""
