"success","ttype","start_time","trial_type","trial_index","time_elapsed","internal_node_id","warning","missed_checkup","PID","view_history","rt","responses","repeat_instructions","key_press","index","keypress_isi","keypress_S2","block","trial_num","phase","group_type","pair_type","S1_stim","S2_stim","S1_img","S2_img","S1_chosen","S1_higher","accuracy","keypress_iti","total_bonus_tally"
"true","full_screen","d08052022hr1223","fullscreen","0","9801","0.0-0.0","0","0","12286","","","","","","","","","","","","","","","","","","","","","",""
"","instructions","","instructions","1","79714","0.0-1.0-0.0-0.0","0","0","12286","[{""page_index"":0,""viewing_time"":5367},{""page_index"":1,""viewing_time"":12793},{""page_index"":2,""viewing_time"":49447},{""page_index"":3,""viewing_time"":2305}]","69912","","","","","","","","","","","","","","","","","","","",""
"","comprehension_check","","survey-multi-choice","2","106758","0.0-1.0-0.0-1.0","0","0","12286","","27041","{""Q0"":""True"",""Q1"":""D"",""Q2"":""Once the second image appears and while the screen 'MAKE A CHOICE' is shown"",""Q3"":""Green mark"",""Q4"":""either D or K""}","0","","","","","","","","","","","","","","","","","",""
"","start_exp","","html-keyboard-response","3","116296","0.0-1.0-1.0","0","0","12286","","9536","","","32","","","","","","","","","","","","","","","","",""
"","S1","","html-keyboard-response","4","116548","0.0-1.0-2.0","0","0","12286","","null","","","null","0","","","","","","","","","","","","","","","",""
"","ISI","","html-keyboard-response","5","118549","0.0-1.0-3.0","0","0","12286","","null","","","null","0","NaN","","","","","","","","","","","","","","",""
"","S2","","html-keyboard-response","6","118801","0.0-1.0-4.0","0","0","12286","","null","","","null","0","","NaN","","","","","","","","","","","","","",""
"","response","","html-keyboard-response","7","120558","0.0-1.0-5.0-0.0","0","0","12286","","null","","","null","0","","","1","0","training","adjacent","DC","4","3","P.jpg","M.jpg","NaN","0","0","",""
"","too_slow_prompt","","html-keyboard-response","8","121559","0.0-1.0-7.0-0.0","1","0","12286","","null","","","null","","","","","","","","","","","","","","","","",""
"","time_out","","html-keyboard-response","9","123560","0.0-1.0-8.0-0.0","0","0","12286","","null","","","null","0","","","","","","","","","","","","","","","",""
"","ITI","","html-keyboard-response","10","124562","0.0-1.0-9.0","0","0","12286","","null","","","null","0","","","","","","","","","","","","","","","NaN",""
"","S1","","html-keyboard-response","11","124813","0.0-1.0-11.0","0","0","12286","","null","","","null","1","","","","","","","","","","","","","","","",""
"","ISI","","html-keyboard-response","12","126814","0.0-1.0-12.0","0","0","12286","","null","","","null","1","NaN","","","","","","","","","","","","","","",""
"","S2","","html-keyboard-response","13","127065","0.0-1.0-13.0","0","0","12286","","null","","","null","1","","NaN","","","","","","","","","","","","","",""
"","response","","html-keyboard-response","14","127513","0.0-1.0-14.0-0.0","0","0","12286","","447","","","75","1","","","1","1","training","adjacent","CD","3","4","M.jpg","P.jpg","0","1","0","",""
"","feedback","","html-keyboard-response","15","128515","0.0-1.0-15.0-0.0","0","0","12286","","null","","","null","1","","","","","","","","","","","","","","","",""
"","time_out","","html-keyboard-response","16","130517","0.0-1.0-17.0-0.0","0","0","12286","","null","","","null","1","","","","","","","","","","","","","","","",""
"","ITI","","html-keyboard-response","17","131518","0.0-1.0-18.0","0","0","12286","","null","","","null","1","","","","","","","","","","","","","","","NaN",""
"","S1","","html-keyboard-response","18","131770","0.0-1.0-20.0","0","0","12286","","null","","","null","2","","","","","","","","","","","","","","","",""
"","ISI","","html-keyboard-response","19","133772","0.0-1.0-21.0","0","0","12286","","null","","","null","2","NaN","","","","","","","","","","","","","","",""
"","S2","","html-keyboard-response","20","134024","0.0-1.0-22.0","0","0","12286","","null","","","null","2","","NaN","","","","","","","","","","","","","",""
"","response","","html-keyboard-response","21","134874","0.0-1.0-23.0-0.0","0","0","12286","","849","","","68","2","","","1","2","training","adjacent","FE","6","5","N.jpg","R.jpg","1","0","0","",""
"","feedback","","html-keyboard-response","22","135877","0.0-1.0-24.0-0.0","0","0","12286","","null","","","null","2","","","","","","","","","","","","","","","",""
"","time_out","","html-keyboard-response","23","137878","0.0-1.0-26.0-0.0","0","0","12286","","null","","","null","2","","","","","","","","","","","","","","","",""
"","ITI","","html-keyboard-response","24","138880","0.0-1.0-27.0","0","0","12286","","null","","","null","2","","","","","","","","","","","","","","","NaN",""
"","S1","","html-keyboard-response","25","139131","0.0-1.0-29.0","0","0","12286","","null","","","null","3","","","","","","","","","","","","","","","",""
"","ISI","","html-keyboard-response","26","141132","0.0-1.0-30.0","0","0","12286","","null","","","null","3","NaN","","","","","","","","","","","","","","",""
"","S2","","html-keyboard-response","27","141385","0.0-1.0-31.0","0","0","12286","","null","","","null","3","","NaN","","","","","","","","","","","","","",""
"","response","","html-keyboard-response","28","142140","0.0-1.0-32.0-0.0","0","0","12286","","754","","","68","3","","","1","3","training","adjacent","CB","3","2","M.jpg","Q.jpg","1","0","0","",""
"","feedback","","html-keyboard-response","29","143143","0.0-1.0-33.0-0.0","0","0","12286","","null","","","null","3","","","","","","","","","","","","","","","",""
"","time_out","","html-keyboard-response","30","145144","0.0-1.0-35.0-0.0","0","0","12286","","null","","","null","3","","","","","","","","","","","","","","","",""
"","ITI","","html-keyboard-response","31","146145","0.0-1.0-36.0","0","0","12286","","null","","","null","3","","","","","","","","","","","","","","","NaN",""
"","S1","","html-keyboard-response","32","146397","0.0-1.0-38.0","0","0","12286","","null","","","null","4","","","","","","","","","","","","","","","",""
"","ISI","","html-keyboard-response","33","148398","0.0-1.0-39.0","0","0","12286","","null","","","null","4","NaN","","","","","","","","","","","","","","",""
"","S2","","html-keyboard-response","34","148650","0.0-1.0-40.0","0","0","12286","","null","","","null","4","","NaN","","","","","","","","","","","","","",""
"","response","","html-keyboard-response","35","149516","0.0-1.0-41.0-0.0","0","0","12286","","865","","","75","4","","","1","4","training","adjacent","DC","4","3","P.jpg","M.jpg","0","0","1","",""
"","feedback","","html-keyboard-response","36","150524","0.0-1.0-42.0-0.0","0","0","12286","","null","","","null","4","","","","","","","","","","","","","","","",""
"","ITI","","html-keyboard-response","37","151525","0.0-1.0-45.0","0","0","12286","","null","","","null","4","","","","","","","","","","","","","","","NaN",""
"","S1","","html-keyboard-response","38","151777","0.0-1.0-47.0","0","0","12286","","null","","","null","5","","","","","","","","","","","","","","","",""
"","ISI","","html-keyboard-response","39","153779","0.0-1.0-48.0","0","0","12286","","null","","","null","5","NaN","","","","","","","","","","","","","","",""
"","S2","","html-keyboard-response","40","154041","0.0-1.0-49.0","0","0","12286","","null","","","null","5","","NaN","","","","","","","","","","","","","",""
"","response","","html-keyboard-response","41","154829","0.0-1.0-50.0-0.0","0","0","12286","","788","","","68","5","","","1","5","training","adjacent","AB","1","2","L.jpg","Q.jpg","1","1","1","",""
"","feedback","","html-keyboard-response","42","155831","0.0-1.0-51.0-0.0","0","0","12286","","null","","","null","5","","","","","","","","","","","","","","","",""
"","ITI","","html-keyboard-response","43","156833","0.0-1.0-54.0","0","0","12286","","null","","","null","5","","","","","","","","","","","","","","","NaN",""
"","S1","","html-keyboard-response","44","157085","0.0-1.0-56.0","0","0","12286","","null","","","null","6","","","","","","","","","","","","","","","",""
"","ISI","","html-keyboard-response","45","159086","0.0-1.0-57.0","0","0","12286","","null","","","null","6","NaN","","","","","","","","","","","","","","",""
"","S2","","html-keyboard-response","46","159337","0.0-1.0-58.0","0","0","12286","","null","","","null","6","","NaN","","","","","","","","","","","","","",""
"","response","","html-keyboard-response","47","160221","0.0-1.0-59.0-0.0","0","0","12286","","883","","","75","6","","","1","6","training","adjacent","DE","4","5","P.jpg","R.jpg","0","1","0","",""
"","feedback","","html-keyboard-response","48","161222","0.0-1.0-60.0-0.0","0","0","12286","","null","","","null","6","","","","","","","","","","","","","","","",""
"","time_out","","html-keyboard-response","49","163224","0.0-1.0-62.0-0.0","0","0","12286","","null","","","null","6","","","","","","","","","","","","","","","",""
"","ITI","","html-keyboard-response","50","164226","0.0-1.0-63.0","0","0","12286","","null","","","null","6","","","","","","","","","","","","","","","NaN",""
"","S1","","html-keyboard-response","51","164478","0.0-1.0-65.0","0","0","12286","","null","","","null","7","","","","","","","","","","","","","","","",""
"","ISI","","html-keyboard-response","52","166479","0.0-1.0-66.0","0","0","12286","","null","","","null","7","NaN","","","","","","","","","","","","","","",""
"","S2","","html-keyboard-response","53","166731","0.0-1.0-67.0","0","0","12286","","null","","","null","7","","NaN","","","","","","","","","","","","","",""
"","response","","html-keyboard-response","54","168483","0.0-1.0-68.0-0.0","0","0","12286","","null","","","null","7","","","1","7","training","adjacent","ED","5","4","R.jpg","P.jpg","NaN","0","0","",""
"","too_slow_prompt","","html-keyboard-response","55","169484","0.0-1.0-70.0-0.0","1","0","12286","","null","","","null","","","","","","","","","","","","","","","","",""
"","time_out","","html-keyboard-response","56","171485","0.0-1.0-71.0-0.0","0","0","12286","","null","","","null","7","","","","","","","","","","","","","","","",""
"","ITI","","html-keyboard-response","57","172487","0.0-1.0-72.0","0","0","12286","","null","","","null","7","","","","","","","","","","","","","","","NaN",""
"","S1","","html-keyboard-response","58","172738","0.0-1.0-74.0","0","0","12286","","null","","","null","8","","","","","","","","","","","","","","","",""
"","ISI","","html-keyboard-response","59","174741","0.0-1.0-75.0","0","0","12286","","null","","","null","8","NaN","","","","","","","","","","","","","","",""
"","S2","","html-keyboard-response","60","174994","0.0-1.0-76.0","0","0","12286","","null","","","null","8","","NaN","","","","","","","","","","","","","",""
"","response","","html-keyboard-response","61","175344","0.0-1.0-77.0-0.0","0","0","12286","","349","","","68","8","","","1","8","training","adjacent","BC","2","3","Q.jpg","M.jpg","1","1","1","",""
"","feedback","","html-keyboard-response","62","176345","0.0-1.0-78.0-0.0","0","0","12286","","null","","","null","8","","","","","","","","","","","","","","","",""
"","ITI","","html-keyboard-response","63","177347","0.0-1.0-81.0","0","0","12286","","null","","","null","8","","","","","","","","","","","","","","","NaN",""
"","S1","","html-keyboard-response","64","177599","0.0-1.0-83.0","0","0","12286","","null","","","null","9","","","","","","","","","","","","","","","",""
"","ISI","","html-keyboard-response","65","179601","0.0-1.0-84.0","0","0","12286","","null","","","null","9","NaN","","","","","","","","","","","","","","",""
"","S2","","html-keyboard-response","66","179852","0.0-1.0-85.0","0","0","12286","","null","","","null","9","","NaN","","","","","","","","","","","","","",""
"","response","","html-keyboard-response","67","180801","0.0-1.0-86.0-0.0","0","0","12286","","948","","","68","9","","","1","9","training","adjacent","CB","3","2","M.jpg","Q.jpg","1","0","0","",""
"","feedback","","html-keyboard-response","68","181803","0.0-1.0-87.0-0.0","0","0","12286","","null","","","null","9","","","","","","","","","","","","","","","",""
"","time_out","","html-keyboard-response","69","183805","0.0-1.0-89.0-0.0","0","0","12286","","null","","","null","9","","","","","","","","","","","","","","","",""
"","ITI","","html-keyboard-response","70","184805","0.0-1.0-90.0","0","0","12286","","null","","","null","9","","","","","","","","","","","","","","","NaN",""
"","S1","","html-keyboard-response","71","185057","0.0-1.0-92.0","0","0","12286","","null","","","null","10","","","","","","","","","","","","","","","",""
"","ISI","","html-keyboard-response","72","187059","0.0-1.0-93.0","0","0","12286","","null","","","null","10","NaN","","","","","","","","","","","","","","",""
"","S2","","html-keyboard-response","73","187311","0.0-1.0-94.0","0","0","12286","","null","","","null","10","","NaN","","","","","","","","","","","","","",""
"","response","","html-keyboard-response","74","187697","0.0-1.0-95.0-0.0","0","0","12286","","386","","","75","10","","","1","10","training","adjacent","ED","5","4","R.jpg","P.jpg","0","0","1","",""
"","feedback","","html-keyboard-response","75","188699","0.0-1.0-96.0-0.0","0","0","12286","","null","","","null","10","","","","","","","","","","","","","","","",""
"","ITI","","html-keyboard-response","76","189702","0.0-1.0-99.0","0","0","12286","","null","","","null","10","","","","","","","","","","","","","","","NaN",""
"","S1","","html-keyboard-response","77","189953","0.0-1.0-101.0","0","0","12286","","null","","","null","11","","","","","","","","","","","","","","","",""
"","ISI","","html-keyboard-response","78","191954","0.0-1.0-102.0","0","0","12286","","336","","","75","11","k","","","","","","","","","","","","","","",""
"","S2","","html-keyboard-response","79","192207","0.0-1.0-103.0","0","0","12286","","null","","","null","11","","NaN","","","","","","","","","","","","","",""
"","response","","html-keyboard-response","80","192547","0.0-1.0-104.0-0.0","0","0","12286","","339","","","68","11","","","1","11","training","adjacent","DE","4","5","P.jpg","R.jpg","1","1","1","",""
"","feedback","","html-keyboard-response","81","193549","0.0-1.0-105.0-0.0","0","0","12286","","null","","","null","11","","","","","","","","","","","","","","","",""
"","ITI","","html-keyboard-response","82","194551","0.0-1.0-108.0","0","0","12286","","null","","","null","11","","","","","","","","","","","","","","","NaN",""
"","S1","","html-keyboard-response","83","194803","0.0-1.0-110.0","0","0","12286","","null","","","null","12","","","","","","","","","","","","","","","",""
"","ISI","","html-keyboard-response","84","196804","0.0-1.0-111.0","0","0","12286","","null","","","null","12","NaN","","","","","","","","","","","","","","",""
"","S2","","html-keyboard-response","85","197055","0.0-1.0-112.0","0","0","12286","","null","","","null","12","","NaN","","","","","","","","","","","","","",""
"","response","","html-keyboard-response","86","197747","0.0-1.0-113.0-0.0","0","0","12286","","691","","","75","12","","","1","12","training","adjacent","AB","1","2","L.jpg","Q.jpg","0","1","0","",""
"","feedback","","html-keyboard-response","87","198748","0.0-1.0-114.0-0.0","0","0","12286","","null","","","null","12","","","","","","","","","","","","","","","",""
"","time_out","","html-keyboard-response","88","200750","0.0-1.0-116.0-0.0","0","0","12286","","null","","","null","12","","","","","","","","","","","","","","","",""
"","ITI","","html-keyboard-response","89","201751","0.0-1.0-117.0","0","0","12286","","null","","","null","12","","","","","","","","","","","","","","","NaN",""
"","S1","","html-keyboard-response","90","202002","0.0-1.0-119.0","0","0","12286","","null","","","null","13","","","","","","","","","","","","","","","",""
"","ISI","","html-keyboard-response","91","204003","0.0-1.0-120.0","0","0","12286","","null","","","null","13","NaN","","","","","","","","","","","","","","",""
"","S2","","html-keyboard-response","92","204254","0.0-1.0-121.0","0","0","12286","","null","","","null","13","","NaN","","","","","","","","","","","","","",""
"","response","","html-keyboard-response","93","204933","0.0-1.0-122.0-0.0","0","0","12286","","678","","","68","13","","","1","13","training","adjacent","FG","6","7","N.jpg","O.jpg","1","1","1","",""
"","feedback","","html-keyboard-response","94","205936","0.0-1.0-123.0-0.0","0","0","12286","","null","","","null","13","","","","","","","","","","","","","","","",""
"","ITI","","html-keyboard-response","95","206938","0.0-1.0-126.0","0","0","12286","","null","","","null","13","","","","","","","","","","","","","","","NaN",""
"","S1","","html-keyboard-response","96","207189","0.0-1.0-128.0","0","0","12286","","null","","","null","14","","","","","","","","","","","","","","","",""
"","ISI","","html-keyboard-response","97","209190","0.0-1.0-129.0","0","0","12286","","null","","","null","14","NaN","","","","","","","","","","","","","","",""
"","S2","","html-keyboard-response","98","209441","0.0-1.0-130.0","0","0","12286","","null","","","null","14","","NaN","","","","","","","","","","","","","",""
"","response","","html-keyboard-response","99","210005","0.0-1.0-131.0-0.0","0","0","12286","","563","","","68","14","","","1","14","training","adjacent","CB","3","2","M.jpg","Q.jpg","1","0","0","",""
"","feedback","","html-keyboard-response","100","211006","0.0-1.0-132.0-0.0","0","0","12286","","null","","","null","14","","","","","","","","","","","","","","","",""
"","time_out","","html-keyboard-response","101","213007","0.0-1.0-134.0-0.0","0","0","12286","","null","","","null","14","","","","","","","","","","","","","","","",""
"","ITI","","html-keyboard-response","102","214009","0.0-1.0-135.0","0","0","12286","","null","","","null","14","","","","","","","","","","","","","","","NaN",""
"","S1","","html-keyboard-response","103","214261","0.0-1.0-137.0","0","0","12286","","null","","","null","15","","","","","","","","","","","","","","","",""
"","ISI","","html-keyboard-response","104","216263","0.0-1.0-138.0","0","0","12286","","null","","","null","15","NaN","","","","","","","","","","","","","","",""
"","S2","","html-keyboard-response","105","216514","0.0-1.0-139.0","0","0","12286","","null","","","null","15","","NaN","","","","","","","","","","","","","",""
"","response","","html-keyboard-response","106","217479","0.0-1.0-140.0-0.0","0","0","12286","","964","","","75","15","","","1","15","training","adjacent","FG","6","7","N.jpg","O.jpg","0","1","0","",""
"","feedback","","html-keyboard-response","107","218480","0.0-1.0-141.0-0.0","0","0","12286","","null","","","null","15","","","","","","","","","","","","","","","",""
"","time_out","","html-keyboard-response","108","220481","0.0-1.0-143.0-0.0","0","0","12286","","null","","","null","15","","","","","","","","","","","","","","","",""
"","ITI","","html-keyboard-response","109","221482","0.0-1.0-144.0","0","0","12286","","null","","","null","15","","","","","","","","","","","","","","","NaN",""
"","S1","","html-keyboard-response","110","221734","0.0-1.0-146.0","0","0","12286","","null","","","null","16","","","","","","","","","","","","","","","",""
"","ISI","","html-keyboard-response","111","223736","0.0-1.0-147.0","0","0","12286","","null","","","null","16","NaN","","","","","","","","","","","","","","",""
"","S2","","html-keyboard-response","112","223987","0.0-1.0-148.0","0","0","12286","","null","","","null","16","","NaN","","","","","","","","","","","","","",""
"","response","","html-keyboard-response","113","224535","0.0-1.0-149.0-0.0","0","0","12286","","546","","","68","16","","","1","16","training","adjacent","CB","3","2","M.jpg","Q.jpg","1","0","0","",""
"","feedback","","html-keyboard-response","114","225536","0.0-1.0-150.0-0.0","0","0","12286","","null","","","null","16","","","","","","","","","","","","","","","",""
"","time_out","","html-keyboard-response","115","227538","0.0-1.0-152.0-0.0","0","0","12286","","null","","","null","16","","","","","","","","","","","","","","","",""
"","ITI","","html-keyboard-response","116","228540","0.0-1.0-153.0","0","0","12286","","null","","","null","16","","","","","","","","","","","","","","","NaN",""
"","S1","","html-keyboard-response","117","228792","0.0-1.0-155.0","0","0","12286","","null","","","null","17","","","","","","","","","","","","","","","",""
"","ISI","","html-keyboard-response","118","230793","0.0-1.0-156.0","0","0","12286","","null","","","null","17","NaN","","","","","","","","","","","","","","",""
"","S2","","html-keyboard-response","119","231045","0.0-1.0-157.0","0","0","12286","","null","","","null","17","","NaN","","","","","","","","","","","","","",""
"","response","","html-keyboard-response","120","232265","0.0-1.0-158.0-0.0","0","0","12286","","1219","","","68","17","","","1","17","training","adjacent","FG","6","7","N.jpg","O.jpg","1","1","1","",""
"","feedback","","html-keyboard-response","121","233266","0.0-1.0-159.0-0.0","0","0","12286","","null","","","null","17","","","","","","","","","","","","","","","",""
"","ITI","","html-keyboard-response","122","234267","0.0-1.0-162.0","0","0","12286","","null","","","null","17","","","","","","","","","","","","","","","NaN",""
"","S1","","html-keyboard-response","123","234519","0.0-1.0-164.0","0","0","12286","","null","","","null","18","","","","","","","","","","","","","","","",""
"","ISI","","html-keyboard-response","124","236520","0.0-1.0-165.0","0","0","12286","","null","","","null","18","NaN","","","","","","","","","","","","","","",""
"","S2","","html-keyboard-response","125","236772","0.0-1.0-166.0","0","0","12286","","null","","","null","18","","NaN","","","","","","","","","","","","","",""
"","response","","html-keyboard-response","126","237401","0.0-1.0-167.0-0.0","0","0","12286","","629","","","68","18","","","1","18","training","adjacent","FG","6","7","N.jpg","O.jpg","1","1","1","",""
"","feedback","","html-keyboard-response","127","238403","0.0-1.0-168.0-0.0","0","0","12286","","null","","","null","18","","","","","","","","","","","","","","","",""
"","ITI","","html-keyboard-response","128","239405","0.0-1.0-171.0","0","0","12286","","null","","","null","18","","","","","","","","","","","","","","","NaN",""
"","S1","","html-keyboard-response","129","239656","0.0-1.0-173.0","0","0","12286","","null","","","null","19","","","","","","","","","","","","","","","",""
"","ISI","","html-keyboard-response","130","241658","0.0-1.0-174.0","0","0","12286","","null","","","null","19","NaN","","","","","","","","","","","","","","",""
"","S2","","html-keyboard-response","131","241909","0.0-1.0-175.0","0","0","12286","","null","","","null","19","","NaN","","","","","","","","","","","","","",""
"","response","","html-keyboard-response","132","243242","0.0-1.0-176.0-0.0","0","0","12286","","1333","","","75","19","","","1","19","training","adjacent","CD","3","4","M.jpg","P.jpg","0","1","0","",""
"","feedback","","html-keyboard-response","133","244245","0.0-1.0-177.0-0.0","0","0","12286","","null","","","null","19","","","","","","","","","","","","","","","",""
"","time_out","","html-keyboard-response","134","246246","0.0-1.0-179.0-0.0","0","0","12286","","null","","","null","19","","","","","","","","","","","","","","","",""
"","ITI","","html-keyboard-response","135","247247","0.0-1.0-180.0","0","0","12286","","null","","","null","19","","","","","","","","","","","","","","","NaN",""
"","S1","","html-keyboard-response","136","247498","0.0-1.0-182.0","0","0","12286","","null","","","null","20","","","","","","","","","","","","","","","",""
"","ISI","","html-keyboard-response","137","249500","0.0-1.0-183.0","0","0","12286","","null","","","null","20","NaN","","","","","","","","","","","","","","",""
"","S2","","html-keyboard-response","138","249752","0.0-1.0-184.0","0","0","12286","","null","","","null","20","","NaN","","","","","","","","","","","","","",""
"","response","","html-keyboard-response","139","251035","0.0-1.0-185.0-0.0","0","0","12286","","1283","","","68","20","","","1","20","training","adjacent","EF","5","6","R.jpg","N.jpg","1","1","1","",""
"","feedback","","html-keyboard-response","140","252036","0.0-1.0-186.0-0.0","0","0","12286","","null","","","null","20","","","","","","","","","","","","","","","",""
"","ITI","","html-keyboard-response","141","253039","0.0-1.0-189.0","0","0","12286","","null","","","null","20","","","","","","","","","","","","","","","NaN",""
"","S1","","html-keyboard-response","142","253291","0.0-1.0-191.0","0","0","12286","","null","","","null","21","","","","","","","","","","","","","","","",""
"","ISI","","html-keyboard-response","143","255292","0.0-1.0-192.0","0","0","12286","","null","","","null","21","NaN","","","","","","","","","","","","","","",""
"","S2","","html-keyboard-response","144","255544","0.0-1.0-193.0","0","0","12286","","null","","","null","21","","NaN","","","","","","","","","","","","","",""
"","response","","html-keyboard-response","145","257261","0.0-1.0-194.0-0.0","0","0","12286","","1716","","","68","21","","","1","21","training","adjacent","DC","4","3","P.jpg","M.jpg","1","0","0","",""
"","feedback","","html-keyboard-response","146","258263","0.0-1.0-195.0-0.0","0","0","12286","","null","","","null","21","","","","","","","","","","","","","","","",""
"","time_out","","html-keyboard-response","147","260264","0.0-1.0-197.0-0.0","0","0","12286","","null","","","null","21","","","","","","","","","","","","","","","",""
"","ITI","","html-keyboard-response","148","261265","0.0-1.0-198.0","0","0","12286","","null","","","null","21","","","","","","","","","","","","","","","NaN",""
"","S1","","html-keyboard-response","149","261517","0.0-1.0-200.0","0","0","12286","","null","","","null","22","","","","","","","","","","","","","","","",""
"","ISI","","html-keyboard-response","150","263518","0.0-1.0-201.0","0","0","12286","","null","","","null","22","NaN","","","","","","","","","","","","","","",""
"","S2","","html-keyboard-response","151","263770","0.0-1.0-202.0","0","0","12286","","null","","","null","22","","NaN","","","","","","","","","","","","","",""
"","response","","html-keyboard-response","152","264381","0.0-1.0-203.0-0.0","0","0","12286","","610","","","75","22","","","1","22","training","adjacent","FE","6","5","N.jpg","R.jpg","0","0","1","",""
"","feedback","","html-keyboard-response","153","265382","0.0-1.0-204.0-0.0","0","0","12286","","null","","","null","22","","","","","","","","","","","","","","","",""
"","ITI","","html-keyboard-response","154","266383","0.0-1.0-207.0","0","0","12286","","null","","","null","22","","","","","","","","","","","","","","","NaN",""
"","S1","","html-keyboard-response","155","266635","0.0-1.0-209.0","0","0","12286","","null","","","null","23","","","","","","","","","","","","","","","",""
"","ISI","","html-keyboard-response","156","268636","0.0-1.0-210.0","0","0","12286","","null","","","null","23","NaN","","","","","","","","","","","","","","",""
"","S2","","html-keyboard-response","157","268888","0.0-1.0-211.0","0","0","12286","","null","","","null","23","","NaN","","","","","","","","","","","","","",""
"","response","","html-keyboard-response","158","269422","0.0-1.0-212.0-0.0","0","0","12286","","534","","","68","23","","","1","23","training","adjacent","DE","4","5","P.jpg","R.jpg","1","1","1","",""
"","feedback","","html-keyboard-response","159","270424","0.0-1.0-213.0-0.0","0","0","12286","","null","","","null","23","","","","","","","","","","","","","","","",""
"","ITI","","html-keyboard-response","160","271425","0.0-1.0-216.0","0","0","12286","","null","","","null","23","","","","","","","","","","","","","","","NaN",""
"","S1","","html-keyboard-response","161","271677","0.0-1.0-218.0","0","0","12286","","null","","","null","24","","","","","","","","","","","","","","","",""
"","ISI","","html-keyboard-response","162","273678","0.0-1.0-219.0","0","0","12286","","null","","","null","24","NaN","","","","","","","","","","","","","","",""
"","S2","","html-keyboard-response","163","273930","0.0-1.0-220.0","0","0","12286","","null","","","null","24","","NaN","","","","","","","","","","","","","",""
"","response","","html-keyboard-response","164","274302","0.0-1.0-221.0-0.0","0","0","12286","","372","","","75","24","","","1","24","training","adjacent","BA","2","1","Q.jpg","L.jpg","0","0","1","",""
"","feedback","","html-keyboard-response","165","275304","0.0-1.0-222.0-0.0","0","0","12286","","null","","","null","24","","","","","","","","","","","","","","","",""
"","ITI","","html-keyboard-response","166","276305","0.0-1.0-225.0","0","0","12286","","null","","","null","24","","","","","","","","","","","","","","","NaN",""
"","S1","","html-keyboard-response","167","276556","0.0-1.0-227.0","0","0","12286","","null","","","null","25","","","","","","","","","","","","","","","",""
"","ISI","","html-keyboard-response","168","278569","0.0-1.0-228.0","0","0","12286","","null","","","null","25","NaN","","","","","","","","","","","","","","",""
"","S2","","html-keyboard-response","169","278820","0.0-1.0-229.0","0","0","12286","","null","","","null","25","","NaN","","","","","","","","","","","","","",""
"","response","","html-keyboard-response","170","279327","0.0-1.0-230.0-0.0","0","0","12286","","507","","","68","25","","","1","25","training","adjacent","DC","4","3","P.jpg","M.jpg","1","0","0","",""
"","feedback","","html-keyboard-response","171","280330","0.0-1.0-231.0-0.0","0","0","12286","","null","","","null","25","","","","","","","","","","","","","","","",""
"","time_out","","html-keyboard-response","172","282331","0.0-1.0-233.0-0.0","0","0","12286","","null","","","null","25","","","","","","","","","","","","","","","",""
"","ITI","","html-keyboard-response","173","283333","0.0-1.0-234.0","0","0","12286","","null","","","null","25","","","","","","","","","","","","","","","NaN",""
"","S1","","html-keyboard-response","174","283584","0.0-1.0-236.0","0","0","12286","","null","","","null","26","","","","","","","","","","","","","","","",""
"","ISI","","html-keyboard-response","175","285585","0.0-1.0-237.0","0","0","12286","","null","","","null","26","NaN","","","","","","","","","","","","","","",""
"","S2","","html-keyboard-response","176","285837","0.0-1.0-238.0","0","0","12286","","null","","","null","26","","NaN","","","","","","","","","","","","","",""
"","response","","html-keyboard-response","177","286641","0.0-1.0-239.0-0.0","0","0","12286","","803","","","75","26","","","1","26","training","adjacent","BA","2","1","Q.jpg","L.jpg","0","0","1","",""
"","feedback","","html-keyboard-response","178","287642","0.0-1.0-240.0-0.0","0","0","12286","","null","","","null","26","","","","","","","","","","","","","","","",""
"","ITI","","html-keyboard-response","179","288644","0.0-1.0-243.0","0","0","12286","","null","","","null","26","","","","","","","","","","","","","","","NaN",""
"","S1","","html-keyboard-response","180","288895","0.0-1.0-245.0","0","0","12286","","null","","","null","27","","","","","","","","","","","","","","","",""
"","ISI","","html-keyboard-response","181","290896","0.0-1.0-246.0","0","0","12286","","null","","","null","27","NaN","","","","","","","","","","","","","","",""
"","S2","","html-keyboard-response","182","291147","0.0-1.0-247.0","0","0","12286","","null","","","null","27","","NaN","","","","","","","","","","","","","",""
"","response","","html-keyboard-response","183","291265","0.0-1.0-248.0-0.0","0","0","12286","","116","","","75","27","","","1","27","training","adjacent","BA","2","1","Q.jpg","L.jpg","0","0","1","",""
"","feedback","","html-keyboard-response","184","292266","0.0-1.0-249.0-0.0","0","0","12286","","null","","","null","27","","","","","","","","","","","","","","","",""
"","ITI","","html-keyboard-response","185","293267","0.0-1.0-252.0","0","0","12286","","null","","","null","27","","","","","","","","","","","","","","","NaN",""
"","S1","","html-keyboard-response","186","293520","0.0-1.0-254.0","0","0","12286","","null","","","null","28","","","","","","","","","","","","","","","",""
"","ISI","","html-keyboard-response","187","295521","0.0-1.0-255.0","0","0","12286","","null","","","null","28","NaN","","","","","","","","","","","","","","",""
"","S2","","html-keyboard-response","188","295772","0.0-1.0-256.0","0","0","12286","","null","","","null","28","","NaN","","","","","","","","","","","","","",""
"","response","","html-keyboard-response","189","296706","0.0-1.0-257.0-0.0","0","0","12286","","934","","","68","28","","","1","28","training","adjacent","FE","6","5","N.jpg","R.jpg","1","0","0","",""
"","feedback","","html-keyboard-response","190","297708","0.0-1.0-258.0-0.0","0","0","12286","","null","","","null","28","","","","","","","","","","","","","","","",""
"","time_out","","html-keyboard-response","191","299709","0.0-1.0-260.0-0.0","0","0","12286","","null","","","null","28","","","","","","","","","","","","","","","",""
"","ITI","","html-keyboard-response","192","300720","0.0-1.0-261.0","0","0","12286","","null","","","null","28","","","","","","","","","","","","","","","NaN",""
"","S1","","html-keyboard-response","193","300971","0.0-1.0-263.0","0","0","12286","","null","","","null","29","","","","","","","","","","","","","","","",""
"","ISI","","html-keyboard-response","194","302973","0.0-1.0-264.0","0","0","12286","","null","","","null","29","NaN","","","","","","","","","","","","","","",""
"","S2","","html-keyboard-response","195","303224","0.0-1.0-265.0","0","0","12286","","null","","","null","29","","NaN","","","","","","","","","","","","","",""
"","response","","html-keyboard-response","196","304387","0.0-1.0-266.0-0.0","0","0","12286","","1162","","","68","29","","","1","29","training","adjacent","AB","1","2","L.jpg","Q.jpg","1","1","1","",""
"","feedback","","html-keyboard-response","197","305388","0.0-1.0-267.0-0.0","0","0","12286","","null","","","null","29","","","","","","","","","","","","","","","",""
"","ITI","","html-keyboard-response","198","306389","0.0-1.0-270.0","0","0","12286","","null","","","null","29","","","","","","","","","","","","","","","NaN",""
"","S1","","html-keyboard-response","199","306640","0.0-1.0-272.0","0","0","12286","","null","","","null","30","","","","","","","","","","","","","","","",""
"","ISI","","html-keyboard-response","200","308641","0.0-1.0-273.0","0","0","12286","","null","","","null","30","NaN","","","","","","","","","","","","","","",""
"","S2","","html-keyboard-response","201","308893","0.0-1.0-274.0","0","0","12286","","null","","","null","30","","NaN","","","","","","","","","","","","","",""
"","response","","html-keyboard-response","202","309796","0.0-1.0-275.0-0.0","0","0","12286","","903","","","75","30","","","1","30","training","adjacent","DE","4","5","P.jpg","R.jpg","0","1","0","",""
"","feedback","","html-keyboard-response","203","310798","0.0-1.0-276.0-0.0","0","0","12286","","null","","","null","30","","","","","","","","","","","","","","","",""
"","time_out","","html-keyboard-response","204","312799","0.0-1.0-278.0-0.0","0","0","12286","","null","","","null","30","","","","","","","","","","","","","","","",""
"","ITI","","html-keyboard-response","205","313801","0.0-1.0-279.0","0","0","12286","","null","","","null","30","","","","","","","","","","","","","","","NaN",""
"","S1","","html-keyboard-response","206","314052","0.0-1.0-281.0","0","0","12286","","null","","","null","31","","","","","","","","","","","","","","","",""
"","ISI","","html-keyboard-response","207","316054","0.0-1.0-282.0","0","0","12286","","null","","","null","31","NaN","","","","","","","","","","","","","","",""
"","S2","","html-keyboard-response","208","316305","0.0-1.0-283.0","0","0","12286","","null","","","null","31","","NaN","","","","","","","","","","","","","",""
"","response","","html-keyboard-response","209","317173","0.0-1.0-284.0-0.0","0","0","12286","","867","","","68","31","","","1","31","training","adjacent","ED","5","4","R.jpg","P.jpg","1","0","0","",""
"","feedback","","html-keyboard-response","210","318186","0.0-1.0-285.0-0.0","0","0","12286","","null","","","null","31","","","","","","","","","","","","","","","",""
"","time_out","","html-keyboard-response","211","320188","0.0-1.0-287.0-0.0","0","0","12286","","null","","","null","31","","","","","","","","","","","","","","","",""
"","ITI","","html-keyboard-response","212","321189","0.0-1.0-288.0","0","0","12286","","null","","","null","31","","","","","","","","","","","","","","","NaN",""
"","S1","","html-keyboard-response","213","321452","0.0-1.0-290.0","0","0","12286","","null","","","null","32","","","","","","","","","","","","","","","",""
"","ISI","","html-keyboard-response","214","323453","0.0-1.0-291.0","0","0","12286","","null","","","null","32","NaN","","","","","","","","","","","","","","",""
"","S2","","html-keyboard-response","215","323705","0.0-1.0-292.0","0","0","12286","","null","","","null","32","","NaN","","","","","","","","","","","","","",""
"","response","","html-keyboard-response","216","324887","0.0-1.0-293.0-0.0","0","0","12286","","1181","","","75","32","","","1","32","training","adjacent","CD","3","4","M.jpg","P.jpg","0","1","0","",""
"","feedback","","html-keyboard-response","217","325889","0.0-1.0-294.0-0.0","0","0","12286","","null","","","null","32","","","","","","","","","","","","","","","",""
"","time_out","","html-keyboard-response","218","327890","0.0-1.0-296.0-0.0","0","0","12286","","null","","","null","32","","","","","","","","","","","","","","","",""
"","ITI","","html-keyboard-response","219","328892","0.0-1.0-297.0","0","0","12286","","null","","","null","32","","","","","","","","","","","","","","","NaN",""
"","S1","","html-keyboard-response","220","329144","0.0-1.0-299.0","0","0","12286","","null","","","null","33","","","","","","","","","","","","","","","",""
"","ISI","","html-keyboard-response","221","331145","0.0-1.0-300.0","0","0","12286","","null","","","null","33","NaN","","","","","","","","","","","","","","",""
"","S2","","html-keyboard-response","222","331396","0.0-1.0-301.0","0","0","12286","","null","","","null","33","","NaN","","","","","","","","","","","","","",""
"","response","","html-keyboard-response","223","332199","0.0-1.0-302.0-0.0","0","0","12286","","803","","","68","33","","","1","33","training","adjacent","FE","6","5","N.jpg","R.jpg","1","0","0","",""
"","feedback","","html-keyboard-response","224","333201","0.0-1.0-303.0-0.0","0","0","12286","","null","","","null","33","","","","","","","","","","","","","","","",""
"","time_out","","html-keyboard-response","225","335202","0.0-1.0-305.0-0.0","0","0","12286","","null","","","null","33","","","","","","","","","","","","","","","",""
"","ITI","","html-keyboard-response","226","336204","0.0-1.0-306.0","0","0","12286","","null","","","null","33","","","","","","","","","","","","","","","NaN",""
"","S1","","html-keyboard-response","227","336455","0.0-1.0-308.0","0","0","12286","","null","","","null","34","","","","","","","","","","","","","","","",""
"","ISI","","html-keyboard-response","228","338456","0.0-1.0-309.0","0","0","12286","","null","","","null","34","NaN","","","","","","","","","","","","","","",""
"","S2","","html-keyboard-response","229","338707","0.0-1.0-310.0","0","0","12286","","null","","","null","34","","NaN","","","","","","","","","","","","","",""
"","response","","html-keyboard-response","230","340105","0.0-1.0-311.0-0.0","0","0","12286","","1397","","","75","34","","","1","34","training","adjacent","GF","7","6","O.jpg","N.jpg","0","0","1","",""
"","feedback","","html-keyboard-response","231","341107","0.0-1.0-312.0-0.0","0","0","12286","","null","","","null","34","","","","","","","","","","","","","","","",""
"","ITI","","html-keyboard-response","232","342108","0.0-1.0-315.0","0","0","12286","","null","","","null","34","","","","","","","","","","","","","","","NaN",""
"","S1","","html-keyboard-response","233","342370","0.0-1.0-317.0","0","0","12286","","null","","","null","35","","","","","","","","","","","","","","","",""
"","ISI","","html-keyboard-response","234","344372","0.0-1.0-318.0","0","0","12286","","null","","","null","35","NaN","","","","","","","","","","","","","","",""
"","S2","","html-keyboard-response","235","344623","0.0-1.0-319.0","0","0","12286","","null","","","null","35","","NaN","","","","","","","","","","","","","",""
"","response","","html-keyboard-response","236","345481","0.0-1.0-320.0-0.0","0","0","12286","","857","","","68","35","","","1","35","training","adjacent","GF","7","6","O.jpg","N.jpg","1","0","0","",""
"","feedback","","html-keyboard-response","237","346483","0.0-1.0-321.0-0.0","0","0","12286","","null","","","null","35","","","","","","","","","","","","","","","",""
"","time_out","","html-keyboard-response","238","348483","0.0-1.0-323.0-0.0","0","0","12286","","null","","","null","35","","","","","","","","","","","","","","","",""
"","ITI","","html-keyboard-response","239","349485","0.0-1.0-324.0","0","0","12286","","null","","","null","35","","","","","","","","","","","","","","","NaN",""
"","S1","","html-keyboard-response","240","349737","0.0-1.0-326.0","0","0","12286","","null","","","null","36","","","","","","","","","","","","","","","",""
"","ISI","","html-keyboard-response","241","351737","0.0-1.0-327.0","0","0","12286","","null","","","null","36","NaN","","","","","","","","","","","","","","",""
"","S2","","html-keyboard-response","242","351990","0.0-1.0-328.0","0","0","12286","","null","","","null","36","","NaN","","","","","","","","","","","","","",""
"","response","","html-keyboard-response","243","352763","0.0-1.0-329.0-0.0","0","0","12286","","772","","","68","36","","","1","36","training","adjacent","EF","5","6","R.jpg","N.jpg","1","1","1","",""
"","feedback","","html-keyboard-response","244","353765","0.0-1.0-330.0-0.0","0","0","12286","","null","","","null","36","","","","","","","","","","","","","","","",""
"","ITI","","html-keyboard-response","245","354766","0.0-1.0-333.0","0","0","12286","","null","","","null","36","","","","","","","","","","","","","","","NaN",""
"","S1","","html-keyboard-response","246","355017","0.0-1.0-335.0","0","0","12286","","null","","","null","37","","","","","","","","","","","","","","","",""
"","ISI","","html-keyboard-response","247","357019","0.0-1.0-336.0","0","0","12286","","null","","","null","37","NaN","","","","","","","","","","","","","","",""
"","S2","","html-keyboard-response","248","357271","0.0-1.0-337.0","0","0","12286","","null","","","null","37","","NaN","","","","","","","","","","","","","",""
"","response","","html-keyboard-response","249","359023","0.0-1.0-338.0-0.0","0","0","12286","","null","","","null","37","","","1","37","training","adjacent","BC","2","3","Q.jpg","M.jpg","NaN","1","0","",""
"","too_slow_prompt","","html-keyboard-response","250","360024","0.0-1.0-340.0-0.0","1","0","12286","","null","","","null","","","","","","","","","","","","","","","","",""
"","time_out","","html-keyboard-response","251","362025","0.0-1.0-341.0-0.0","0","0","12286","","null","","","null","37","","","","","","","","","","","","","","","",""
"","ITI","","html-keyboard-response","252","363026","0.0-1.0-342.0","0","0","12286","","null","","","null","37","","","","","","","","","","","","","","","NaN",""
"","S1","","html-keyboard-response","253","363277","0.0-1.0-344.0","0","0","12286","","null","","","null","38","","","","","","","","","","","","","","","",""
"","ISI","","html-keyboard-response","254","365278","0.0-1.0-345.0","0","0","12286","","null","","","null","38","NaN","","","","","","","","","","","","","","",""
"","S2","","html-keyboard-response","255","365530","0.0-1.0-346.0","0","0","12286","","null","","","null","38","","NaN","","","","","","","","","","","","","",""
"","response","","html-keyboard-response","256","366109","0.0-1.0-347.0-0.0","0","0","12286","","578","","","68","38","","","1","38","training","adjacent","AB","1","2","L.jpg","Q.jpg","1","1","1","",""
"","feedback","","html-keyboard-response","257","367114","0.0-1.0-348.0-0.0","0","0","12286","","null","","","null","38","","","","","","","","","","","","","","","",""
"","ITI","","html-keyboard-response","258","368115","0.0-1.0-351.0","0","0","12286","","null","","","null","38","","","","","","","","","","","","","","","NaN",""
"","S1","","html-keyboard-response","259","368366","0.0-1.0-353.0","0","0","12286","","null","","","null","39","","","","","","","","","","","","","","","",""
"","ISI","","html-keyboard-response","260","370368","0.0-1.0-354.0","0","0","12286","","null","","","null","39","NaN","","","","","","","","","","","","","","",""
"","S2","","html-keyboard-response","261","370620","0.0-1.0-355.0","0","0","12286","","null","","","null","39","","NaN","","","","","","","","","","","","","",""
"","response","","html-keyboard-response","262","371709","0.0-1.0-356.0-0.0","0","0","12286","","1088","","","68","39","","","1","39","training","adjacent","ED","5","4","R.jpg","P.jpg","1","0","0","",""
"","feedback","","html-keyboard-response","263","372711","0.0-1.0-357.0-0.0","0","0","12286","","null","","","null","39","","","","","","","","","","","","","","","",""
"","time_out","","html-keyboard-response","264","374713","0.0-1.0-359.0-0.0","0","0","12286","","null","","","null","39","","","","","","","","","","","","","","","",""
"","ITI","","html-keyboard-response","265","375714","0.0-1.0-360.0","0","0","12286","","null","","","null","39","","","","","","","","","","","","","","","NaN",""
"","S1","","html-keyboard-response","266","375965","0.0-1.0-362.0","0","0","12286","","null","","","null","40","","","","","","","","","","","","","","","",""
"","ISI","","html-keyboard-response","267","377967","0.0-1.0-363.0","0","0","12286","","null","","","null","40","NaN","","","","","","","","","","","","","","",""
"","S2","","html-keyboard-response","268","378218","0.0-1.0-364.0","0","0","12286","","null","","","null","40","","NaN","","","","","","","","","","","","","",""
"","response","","html-keyboard-response","269","379055","0.0-1.0-365.0-0.0","0","0","12286","","836","","","75","40","","","1","40","training","adjacent","CD","3","4","M.jpg","P.jpg","0","1","0","",""
"","feedback","","html-keyboard-response","270","380056","0.0-1.0-366.0-0.0","0","0","12286","","null","","","null","40","","","","","","","","","","","","","","","",""
"","time_out","","html-keyboard-response","271","382058","0.0-1.0-368.0-0.0","0","0","12286","","null","","","null","40","","","","","","","","","","","","","","","",""
"","ITI","","html-keyboard-response","272","383060","0.0-1.0-369.0","0","0","12286","","null","","","null","40","","","","","","","","","","","","","","","NaN",""
"","S1","","html-keyboard-response","273","383316","0.0-1.0-371.0","0","0","12286","","null","","","null","41","","","","","","","","","","","","","","","",""
"","ISI","","html-keyboard-response","274","385317","0.0-1.0-372.0","0","0","12286","","null","","","null","41","NaN","","","","","","","","","","","","","","",""
"","S2","","html-keyboard-response","275","385569","0.0-1.0-373.0","0","0","12286","","null","","","null","41","","NaN","","","","","","","","","","","","","",""
"","response","","html-keyboard-response","276","386351","0.0-1.0-374.0-0.0","0","0","12286","","782","","","75","41","","","1","41","training","adjacent","BC","2","3","Q.jpg","M.jpg","0","1","0","",""
"","feedback","","html-keyboard-response","277","387352","0.0-1.0-375.0-0.0","0","0","12286","","null","","","null","41","","","","","","","","","","","","","","","",""
"","time_out","","html-keyboard-response","278","389354","0.0-1.0-377.0-0.0","0","0","12286","","null","","","null","41","","","","","","","","","","","","","","","",""
"","ITI","","html-keyboard-response","279","390356","0.0-1.0-378.0","0","0","12286","","null","","","null","41","","","","","","","","","","","","","","","NaN",""
"","S1","","html-keyboard-response","280","390607","0.0-1.0-380.0","0","0","12286","","null","","","null","42","","","","","","","","","","","","","","","",""
"","ISI","","html-keyboard-response","281","392608","0.0-1.0-381.0","0","0","12286","","null","","","null","42","NaN","","","","","","","","","","","","","","",""
"","S2","","html-keyboard-response","282","392860","0.0-1.0-382.0","0","0","12286","","null","","","null","42","","NaN","","","","","","","","","","","","","",""
"","response","","html-keyboard-response","283","393713","0.0-1.0-383.0-0.0","0","0","12286","","852","","","68","42","","","1","42","training","adjacent","EF","5","6","R.jpg","N.jpg","1","1","1","",""
"","feedback","","html-keyboard-response","284","394714","0.0-1.0-384.0-0.0","0","0","12286","","null","","","null","42","","","","","","","","","","","","","","","",""
"","ITI","","html-keyboard-response","285","395715","0.0-1.0-387.0","0","0","12286","","null","","","null","42","","","","","","","","","","","","","","","NaN",""
"","S1","","html-keyboard-response","286","395966","0.0-1.0-389.0","0","0","12286","","null","","","null","43","","","","","","","","","","","","","","","",""
"","ISI","","html-keyboard-response","287","397967","0.0-1.0-390.0","0","0","12286","","null","","","null","43","NaN","","","","","","","","","","","","","","",""
"","S2","","html-keyboard-response","288","398218","0.0-1.0-391.0","0","0","12286","","null","","","null","43","","NaN","","","","","","","","","","","","","",""
"","response","","html-keyboard-response","289","399313","0.0-1.0-392.0-0.0","0","0","12286","","1094","","","75","43","","","1","43","training","adjacent","GF","7","6","O.jpg","N.jpg","0","0","1","",""
"","feedback","","html-keyboard-response","290","400314","0.0-1.0-393.0-0.0","0","0","12286","","null","","","null","43","","","","","","","","","","","","","","","",""
"","ITI","","html-keyboard-response","291","401315","0.0-1.0-396.0","0","0","12286","","null","","","null","43","","","","","","","","","","","","","","","NaN",""
"","S1","","html-keyboard-response","292","401566","0.0-1.0-398.0","0","0","12286","","null","","","null","44","","","","","","","","","","","","","","","",""
"","ISI","","html-keyboard-response","293","403567","0.0-1.0-399.0","0","0","12286","","null","","","null","44","NaN","","","","","","","","","","","","","","",""
"","S2","","html-keyboard-response","294","403818","0.0-1.0-400.0","0","0","12286","","null","","","null","44","","NaN","","","","","","","","","","","","","",""
"","response","","html-keyboard-response","295","404675","0.0-1.0-401.0-0.0","0","0","12286","","856","","","68","44","","","1","44","training","adjacent","BC","2","3","Q.jpg","M.jpg","1","1","1","",""
"","feedback","","html-keyboard-response","296","405676","0.0-1.0-402.0-0.0","0","0","12286","","null","","","null","44","","","","","","","","","","","","","","","",""
"","ITI","","html-keyboard-response","297","406677","0.0-1.0-405.0","0","0","12286","","null","","","null","44","","","","","","","","","","","","","","","NaN",""
"","S1","","html-keyboard-response","298","406929","0.0-1.0-407.0","0","0","12286","","null","","","null","45","","","","","","","","","","","","","","","",""
"","ISI","","html-keyboard-response","299","408931","0.0-1.0-408.0","0","0","12286","","null","","","null","45","NaN","","","","","","","","","","","","","","",""
"","S2","","html-keyboard-response","300","409182","0.0-1.0-409.0","0","0","12286","","null","","","null","45","","NaN","","","","","","","","","","","","","",""
"","response","","html-keyboard-response","301","410131","0.0-1.0-410.0-0.0","0","0","12286","","948","","","75","45","","","1","45","training","adjacent","EF","5","6","R.jpg","N.jpg","0","1","0","",""
"","feedback","","html-keyboard-response","302","411133","0.0-1.0-411.0-0.0","0","0","12286","","null","","","null","45","","","","","","","","","","","","","","","",""
"","time_out","","html-keyboard-response","303","413135","0.0-1.0-413.0-0.0","0","0","12286","","null","","","null","45","","","","","","","","","","","","","","","",""
"","ITI","","html-keyboard-response","304","414136","0.0-1.0-414.0","0","0","12286","","null","","","null","45","","","","","","","","","","","","","","","NaN",""
"","S1","","html-keyboard-response","305","414387","0.0-1.0-416.0","0","0","12286","","null","","","null","46","","","","","","","","","","","","","","","",""
"","ISI","","html-keyboard-response","306","416389","0.0-1.0-417.0","0","0","12286","","null","","","null","46","NaN","","","","","","","","","","","","","","",""
"","S2","","html-keyboard-response","307","416640","0.0-1.0-418.0","0","0","12286","","null","","","null","46","","NaN","","","","","","","","","","","","","",""
"","response","","html-keyboard-response","308","417428","0.0-1.0-419.0-0.0","0","0","12286","","787","","","75","46","","","1","46","training","adjacent","BA","2","1","Q.jpg","L.jpg","0","0","1","",""
"","feedback","","html-keyboard-response","309","418430","0.0-1.0-420.0-0.0","0","0","12286","","null","","","null","46","","","","","","","","","","","","","","","",""
"","ITI","","html-keyboard-response","310","419432","0.0-1.0-423.0","0","0","12286","","null","","","null","46","","","","","","","","","","","","","","","NaN",""
"","S1","","html-keyboard-response","311","419683","0.0-1.0-425.0","0","0","12286","","null","","","null","47","","","","","","","","","","","","","","","",""
"","ISI","","html-keyboard-response","312","421684","0.0-1.0-426.0","0","0","12286","","null","","","null","47","NaN","","","","","","","","","","","","","","",""
"","S2","","html-keyboard-response","313","421935","0.0-1.0-427.0","0","0","12286","","null","","","null","47","","NaN","","","","","","","","","","","","","",""
"","response","","html-keyboard-response","314","422500","0.0-1.0-428.0-0.0","0","0","12286","","564","","","75","47","","","1","47","training","adjacent","GF","7","6","O.jpg","N.jpg","0","0","1","",""
"","feedback","","html-keyboard-response","315","423502","0.0-1.0-429.0-0.0","0","0","12286","","null","","","null","47","","","","","","","","","","","","","","","",""
"","ITI","","html-keyboard-response","316","424503","0.0-1.0-432.0","0","0","12286","","null","","","null","47","","","","","","","","","","","","","","","NaN",""
"","block_over","","html-keyboard-response","317","449977","0.0-1.0-433.0-0.0","0","0","12286","","25473","","","32","47","","","","","","","","","","","","","","","",""
"","S1","","html-keyboard-response","318","450229","0.0-1.0-434.0","0","0","12286","","null","","","null","48","","","","","","","","","","","","","","","",""
"","ISI","","html-keyboard-response","319","452234","0.0-1.0-435.0","0","0","12286","","null","","","null","48","NaN","","","","","","","","","","","","","","",""
"","S2","","html-keyboard-response","320","452485","0.0-1.0-436.0","0","0","12286","","null","","","null","48","","NaN","","","","","","","","","","","","","",""
"","response","","html-keyboard-response","321","453113","0.0-1.0-437.0-0.0","0","0","12286","","627","","","68","48","","","2","48","training","adjacent","FE","6","5","N.jpg","R.jpg","1","0","0","",""
"","feedback","","html-keyboard-response","322","454125","0.0-1.0-438.0-0.0","0","0","12286","","null","","","null","48","","","","","","","","","","","","","","","",""
"","time_out","","html-keyboard-response","323","456126","0.0-1.0-440.0-0.0","0","0","12286","","null","","","null","48","","","","","","","","","","","","","","","",""
"","ITI","","html-keyboard-response","324","457127","0.0-1.0-441.0","0","0","12286","","null","","","null","48","","","","","","","","","","","","","","","NaN",""
"","S1","","html-keyboard-response","325","457378","0.0-1.0-443.0","0","0","12286","","null","","","null","49","","","","","","","","","","","","","","","",""
"","ISI","","html-keyboard-response","326","459381","0.0-1.0-444.0","0","0","12286","","null","","","null","49","NaN","","","","","","","","","","","","","","",""
"","S2","","html-keyboard-response","327","459632","0.0-1.0-445.0","0","0","12286","","null","","","null","49","","NaN","","","","","","","","","","","","","",""
"","response","","html-keyboard-response","328","460107","0.0-1.0-446.0-0.0","0","0","12286","","473","","","75","49","","","2","49","training","adjacent","DC","4","3","P.jpg","M.jpg","0","0","1","",""
"","feedback","","html-keyboard-response","329","461108","0.0-1.0-447.0-0.0","0","0","12286","","null","","","null","49","","","","","","","","","","","","","","","",""
"","ITI","","html-keyboard-response","330","462109","0.0-1.0-450.0","0","0","12286","","null","","","null","49","","","","","","","","","","","","","","","NaN",""
"","S1","","html-keyboard-response","331","462360","0.0-1.0-452.0","0","0","12286","","null","","","null","50","","","","","","","","","","","","","","","",""
"","ISI","","html-keyboard-response","332","464361","0.0-1.0-453.0","0","0","12286","","null","","","null","50","NaN","","","","","","","","","","","","","","",""
"","S2","","html-keyboard-response","333","464613","0.0-1.0-454.0","0","0","12286","","null","","","null","50","","NaN","","","","","","","","","","","","","",""
"","response","","html-keyboard-response","334","465195","0.0-1.0-455.0-0.0","0","0","12286","","581","","","75","50","","","2","50","training","adjacent","EF","5","6","R.jpg","N.jpg","0","1","0","",""
"","feedback","","html-keyboard-response","335","466196","0.0-1.0-456.0-0.0","0","0","12286","","null","","","null","50","","","","","","","","","","","","","","","",""
"","time_out","","html-keyboard-response","336","468198","0.0-1.0-458.0-0.0","0","0","12286","","null","","","null","50","","","","","","","","","","","","","","","",""
"","ITI","","html-keyboard-response","337","469199","0.0-1.0-459.0","0","0","12286","","null","","","null","50","","","","","","","","","","","","","","","NaN",""
"","S1","","html-keyboard-response","338","469456","0.0-1.0-461.0","0","0","12286","","null","","","null","51","","","","","","","","","","","","","","","",""
"","ISI","","html-keyboard-response","339","471458","0.0-1.0-462.0","0","0","12286","","null","","","null","51","NaN","","","","","","","","","","","","","","",""
"","S2","","html-keyboard-response","340","471709","0.0-1.0-463.0","0","0","12286","","null","","","null","51","","NaN","","","","","","","","","","","","","",""
"","response","","html-keyboard-response","341","473101","0.0-1.0-464.0-0.0","0","0","12286","","1391","","","75","51","","","2","51","training","adjacent","FG","6","7","N.jpg","O.jpg","0","1","0","",""
"","feedback","","html-keyboard-response","342","474103","0.0-1.0-465.0-0.0","0","0","12286","","null","","","null","51","","","","","","","","","","","","","","","",""
"","time_out","","html-keyboard-response","343","476104","0.0-1.0-467.0-0.0","0","0","12286","","null","","","null","51","","","","","","","","","","","","","","","",""
"","ITI","","html-keyboard-response","344","477106","0.0-1.0-468.0","0","0","12286","","null","","","null","51","","","","","","","","","","","","","","","NaN",""
"","S1","","html-keyboard-response","345","477356","0.0-1.0-470.0","0","0","12286","","null","","","null","52","","","","","","","","","","","","","","","",""
"","ISI","","html-keyboard-response","346","479358","0.0-1.0-471.0","0","0","12286","","null","","","null","52","NaN","","","","","","","","","","","","","","",""
"","S2","","html-keyboard-response","347","479610","0.0-1.0-472.0","0","0","12286","","null","","","null","52","","NaN","","","","","","","","","","","","","",""
"","response","","html-keyboard-response","348","480381","0.0-1.0-473.0-0.0","0","0","12286","","771","","","68","52","","","2","52","training","adjacent","DE","4","5","P.jpg","R.jpg","1","1","1","",""
"","feedback","","html-keyboard-response","349","481383","0.0-1.0-474.0-0.0","0","0","12286","","null","","","null","52","","","","","","","","","","","","","","","",""
"","ITI","","html-keyboard-response","350","482384","0.0-1.0-477.0","0","0","12286","","null","","","null","52","","","","","","","","","","","","","","","NaN",""
"","S1","","html-keyboard-response","351","482635","0.0-1.0-479.0","0","0","12286","","null","","","null","53","","","","","","","","","","","","","","","",""
"","ISI","","html-keyboard-response","352","484648","0.0-1.0-480.0","0","0","12286","","null","","","null","53","NaN","","","","","","","","","","","","","","",""
"","S2","","html-keyboard-response","353","484900","0.0-1.0-481.0","0","0","12286","","null","","","null","53","","NaN","","","","","","","","","","","","","",""
"","response","","html-keyboard-response","354","485471","0.0-1.0-482.0-0.0","0","0","12286","","569","","","68","53","","","2","53","training","adjacent","FG","6","7","N.jpg","O.jpg","1","1","1","",""
"","feedback","","html-keyboard-response","355","486472","0.0-1.0-483.0-0.0","0","0","12286","","null","","","null","53","","","","","","","","","","","","","","","",""
"","ITI","","html-keyboard-response","356","487474","0.0-1.0-486.0","0","0","12286","","null","","","null","53","","","","","","","","","","","","","","","NaN",""
"","S1","","html-keyboard-response","357","487725","0.0-1.0-488.0","0","0","12286","","null","","","null","54","","","","","","","","","","","","","","","",""
"","ISI","","html-keyboard-response","358","489727","0.0-1.0-489.0","0","0","12286","","null","","","null","54","NaN","","","","","","","","","","","","","","",""
"","S2","","html-keyboard-response","359","489978","0.0-1.0-490.0","0","0","12286","","null","","","null","54","","NaN","","","","","","","","","","","","","",""
"","response","","html-keyboard-response","360","490895","0.0-1.0-491.0-0.0","0","0","12286","","916","","","68","54","","","2","54","training","adjacent","FG","6","7","N.jpg","O.jpg","1","1","1","",""
"","feedback","","html-keyboard-response","361","491897","0.0-1.0-492.0-0.0","0","0","12286","","null","","","null","54","","","","","","","","","","","","","","","",""
"","ITI","","html-keyboard-response","362","492898","0.0-1.0-495.0","0","0","12286","","null","","","null","54","","","","","","","","","","","","","","","NaN",""
"","S1","","html-keyboard-response","363","493149","0.0-1.0-497.0","0","0","12286","","null","","","null","55","","","","","","","","","","","","","","","",""
"","ISI","","html-keyboard-response","364","495151","0.0-1.0-498.0","0","0","12286","","null","","","null","55","NaN","","","","","","","","","","","","","","",""
"","S2","","html-keyboard-response","365","495402","0.0-1.0-499.0","0","0","12286","","null","","","null","55","","NaN","","","","","","","","","","","","","",""
"","response","","html-keyboard-response","366","496192","0.0-1.0-500.0-0.0","0","0","12286","","790","","","75","55","","","2","55","training","adjacent","ED","5","4","R.jpg","P.jpg","0","0","1","",""
"","feedback","","html-keyboard-response","367","497193","0.0-1.0-501.0-0.0","0","0","12286","","null","","","null","55","","","","","","","","","","","","","","","",""
"","ITI","","html-keyboard-response","368","498195","0.0-1.0-504.0","0","0","12286","","null","","","null","55","","","","","","","","","","","","","","","NaN",""
"","S1","","html-keyboard-response","369","498447","0.0-1.0-506.0","0","0","12286","","null","","","null","56","","","","","","","","","","","","","","","",""
"","ISI","","html-keyboard-response","370","500448","0.0-1.0-507.0","0","0","12286","","null","","","null","56","NaN","","","","","","","","","","","","","","",""
"","S2","","html-keyboard-response","371","500700","0.0-1.0-508.0","0","0","12286","","null","","","null","56","","NaN","","","","","","","","","","","","","",""
"","response","","html-keyboard-response","372","501584","0.0-1.0-509.0-0.0","0","0","12286","","884","","","75","56","","","2","56","training","adjacent","DC","4","3","P.jpg","M.jpg","0","0","1","",""
"","feedback","","html-keyboard-response","373","502594","0.0-1.0-510.0-0.0","0","0","12286","","null","","","null","56","","","","","","","","","","","","","","","",""
"","ITI","","html-keyboard-response","374","503597","0.0-1.0-513.0","0","0","12286","","null","","","null","56","","","","","","","","","","","","","","","NaN",""
"","S1","","html-keyboard-response","375","503848","0.0-1.0-515.0","0","0","12286","","null","","","null","57","","","","","","","","","","","","","","","",""
"","ISI","","html-keyboard-response","376","505850","0.0-1.0-516.0","0","0","12286","","null","","","null","57","NaN","","","","","","","","","","","","","","",""
"","S2","","html-keyboard-response","377","506101","0.0-1.0-517.0","0","0","12286","","null","","","null","57","","NaN","","","","","","","","","","","","","",""
"","response","","html-keyboard-response","378","506738","0.0-1.0-518.0-0.0","0","0","12286","","635","","","68","57","","","2","57","training","adjacent","AB","1","2","L.jpg","Q.jpg","1","1","1","",""
"","feedback","","html-keyboard-response","379","507740","0.0-1.0-519.0-0.0","0","0","12286","","null","","","null","57","","","","","","","","","","","","","","","",""
"","ITI","","html-keyboard-response","380","508741","0.0-1.0-522.0","0","0","12286","","null","","","null","57","","","","","","","","","","","","","","","NaN",""
"","S1","","html-keyboard-response","381","508992","0.0-1.0-524.0","0","0","12286","","null","","","null","58","","","","","","","","","","","","","","","",""
"","ISI","","html-keyboard-response","382","510994","0.0-1.0-525.0","0","0","12286","","null","","","null","58","NaN","","","","","","","","","","","","","","",""
"","S2","","html-keyboard-response","383","511245","0.0-1.0-526.0","0","0","12286","","null","","","null","58","","NaN","","","","","","","","","","","","","",""
"","response","","html-keyboard-response","384","512178","0.0-1.0-527.0-0.0","0","0","12286","","932","","","75","58","","","2","58","training","adjacent","BC","2","3","Q.jpg","M.jpg","0","1","0","",""
"","feedback","","html-keyboard-response","385","513180","0.0-1.0-528.0-0.0","0","0","12286","","null","","","null","58","","","","","","","","","","","","","","","",""
"","time_out","","html-keyboard-response","386","515182","0.0-1.0-530.0-0.0","0","0","12286","","null","","","null","58","","","","","","","","","","","","","","","",""
"","ITI","","html-keyboard-response","387","516182","0.0-1.0-531.0","0","0","12286","","null","","","null","58","","","","","","","","","","","","","","","NaN",""
"","S1","","html-keyboard-response","388","516433","0.0-1.0-533.0","0","0","12286","","null","","","null","59","","","","","","","","","","","","","","","",""
"","ISI","","html-keyboard-response","389","518435","0.0-1.0-534.0","0","0","12286","","null","","","null","59","NaN","","","","","","","","","","","","","","",""
"","S2","","html-keyboard-response","390","518687","0.0-1.0-535.0","0","0","12286","","null","","","null","59","","NaN","","","","","","","","","","","","","",""
"","response","","html-keyboard-response","391","519780","0.0-1.0-536.0-0.0","0","0","12286","","1092","","","68","59","","","2","59","training","adjacent","FE","6","5","N.jpg","R.jpg","1","0","0","",""
"","feedback","","html-keyboard-response","392","520781","0.0-1.0-537.0-0.0","0","0","12286","","null","","","null","59","","","","","","","","","","","","","","","",""
"","time_out","","html-keyboard-response","393","522783","0.0-1.0-539.0-0.0","0","0","12286","","null","","","null","59","","","","","","","","","","","","","","","",""
"","ITI","","html-keyboard-response","394","523784","0.0-1.0-540.0","0","0","12286","","null","","","null","59","","","","","","","","","","","","","","","NaN",""
"","S1","","html-keyboard-response","395","524035","0.0-1.0-542.0","0","0","12286","","null","","","null","60","","","","","","","","","","","","","","","",""
"","ISI","","html-keyboard-response","396","526037","0.0-1.0-543.0","0","0","12286","","null","","","null","60","NaN","","","","","","","","","","","","","","",""
"","S2","","html-keyboard-response","397","526288","0.0-1.0-544.0","0","0","12286","","null","","","null","60","","NaN","","","","","","","","","","","","","",""
"","response","","html-keyboard-response","398","527172","0.0-1.0-545.0-0.0","0","0","12286","","884","","","68","60","","","2","60","training","adjacent","DC","4","3","P.jpg","M.jpg","1","0","0","",""
"","feedback","","html-keyboard-response","399","528174","0.0-1.0-546.0-0.0","0","0","12286","","null","","","null","60","","","","","","","","","","","","","","","",""
"","time_out","","html-keyboard-response","400","530175","0.0-1.0-548.0-0.0","0","0","12286","","null","","","null","60","","","","","","","","","","","","","","","",""
"","ITI","","html-keyboard-response","401","531177","0.0-1.0-549.0","0","0","12286","","null","","","null","60","","","","","","","","","","","","","","","NaN",""
"","S1","","html-keyboard-response","402","531429","0.0-1.0-551.0","0","0","12286","","null","","","null","61","","","","","","","","","","","","","","","",""
"","ISI","","html-keyboard-response","403","533430","0.0-1.0-552.0","0","0","12286","","null","","","null","61","NaN","","","","","","","","","","","","","","",""
"","S2","","html-keyboard-response","404","533681","0.0-1.0-553.0","0","0","12286","","null","","","null","61","","NaN","","","","","","","","","","","","","",""
"","response","","html-keyboard-response","405","534374","0.0-1.0-554.0-0.0","0","0","12286","","691","","","75","61","","","2","61","training","adjacent","BA","2","1","Q.jpg","L.jpg","0","0","1","",""
"","feedback","","html-keyboard-response","406","535376","0.0-1.0-555.0-0.0","0","0","12286","","null","","","null","61","","","","","","","","","","","","","","","",""
"","ITI","","html-keyboard-response","407","536377","0.0-1.0-558.0","0","0","12286","","null","","","null","61","","","","","","","","","","","","","","","NaN",""
"","S1","","html-keyboard-response","408","536629","0.0-1.0-560.0","0","0","12286","","null","","","null","62","","","","","","","","","","","","","","","",""
"","ISI","","html-keyboard-response","409","538630","0.0-1.0-561.0","0","0","12286","","null","","","null","62","NaN","","","","","","","","","","","","","","",""
"","S2","","html-keyboard-response","410","538882","0.0-1.0-562.0","0","0","12286","","null","","","null","62","","NaN","","","","","","","","","","","","","",""
"","response","","html-keyboard-response","411","539670","0.0-1.0-563.0-0.0","0","0","12286","","788","","","68","62","","","2","62","training","adjacent","BC","2","3","Q.jpg","M.jpg","1","1","1","",""
"","feedback","","html-keyboard-response","412","540672","0.0-1.0-564.0-0.0","0","0","12286","","null","","","null","62","","","","","","","","","","","","","","","",""
"","ITI","","html-keyboard-response","413","541673","0.0-1.0-567.0","0","0","12286","","null","","","null","62","","","","","","","","","","","","","","","NaN",""
"","S1","","html-keyboard-response","414","541925","0.0-1.0-569.0","0","0","12286","","null","","","null","63","","","","","","","","","","","","","","","",""
"","ISI","","html-keyboard-response","415","543927","0.0-1.0-570.0","0","0","12286","","null","","","null","63","NaN","","","","","","","","","","","","","","",""
"","S2","","html-keyboard-response","416","544178","0.0-1.0-571.0","0","0","12286","","null","","","null","63","","NaN","","","","","","","","","","","","","",""
"","response","","html-keyboard-response","417","545560","0.0-1.0-572.0-0.0","0","0","12286","","1380","","","75","63","","","2","63","training","adjacent","AB","1","2","L.jpg","Q.jpg","0","1","0","",""
"","feedback","","html-keyboard-response","418","546562","0.0-1.0-573.0-0.0","0","0","12286","","null","","","null","63","","","","","","","","","","","","","","","",""
"","time_out","","html-keyboard-response","419","548563","0.0-1.0-575.0-0.0","0","0","12286","","null","","","null","63","","","","","","","","","","","","","","","",""
"","ITI","","html-keyboard-response","420","549565","0.0-1.0-576.0","0","0","12286","","null","","","null","63","","","","","","","","","","","","","","","NaN",""
"","S1","","html-keyboard-response","421","549816","0.0-1.0-578.0","0","0","12286","","null","","","null","64","","","","","","","","","","","","","","","",""
"","ISI","","html-keyboard-response","422","551819","0.0-1.0-579.0","0","0","12286","","null","","","null","64","NaN","","","","","","","","","","","","","","",""
"","S2","","html-keyboard-response","423","552070","0.0-1.0-580.0","0","0","12286","","null","","","null","64","","NaN","","","","","","","","","","","","","",""
"","response","","html-keyboard-response","424","552824","0.0-1.0-581.0-0.0","0","0","12286","","754","","","68","64","","","2","64","training","adjacent","AB","1","2","L.jpg","Q.jpg","1","1","1","",""
"","feedback","","html-keyboard-response","425","553825","0.0-1.0-582.0-0.0","0","0","12286","","null","","","null","64","","","","","","","","","","","","","","","",""
"","ITI","","html-keyboard-response","426","554832","0.0-1.0-585.0","0","0","12286","","null","","","null","64","","","","","","","","","","","","","","","NaN",""
"","S1","","html-keyboard-response","427","555083","0.0-1.0-587.0","0","0","12286","","null","","","null","65","","","","","","","","","","","","","","","",""
"","ISI","","html-keyboard-response","428","557085","0.0-1.0-588.0","0","0","12286","","null","","","null","65","NaN","","","","","","","","","","","","","","",""
"","S2","","html-keyboard-response","429","557337","0.0-1.0-589.0","0","0","12286","","null","","","null","65","","NaN","","","","","","","","","","","","","",""
"","response","","html-keyboard-response","430","558153","0.0-1.0-590.0-0.0","0","0","12286","","816","","","75","65","","","2","65","training","adjacent","FE","6","5","N.jpg","R.jpg","0","0","1","",""
"","feedback","","html-keyboard-response","431","559155","0.0-1.0-591.0-0.0","0","0","12286","","null","","","null","65","","","","","","","","","","","","","","","",""
"","ITI","","html-keyboard-response","432","560156","0.0-1.0-594.0","0","0","12286","","null","","","null","65","","","","","","","","","","","","","","","NaN",""
"","S1","","html-keyboard-response","433","560407","0.0-1.0-596.0","0","0","12286","","null","","","null","66","","","","","","","","","","","","","","","",""
"","ISI","","html-keyboard-response","434","562408","0.0-1.0-597.0","0","0","12286","","null","","","null","66","NaN","","","","","","","","","","","","","","",""
"","S2","","html-keyboard-response","435","562670","0.0-1.0-598.0","0","0","12286","","null","","","null","66","","NaN","","","","","","","","","","","","","",""
"","response","","html-keyboard-response","436","563642","0.0-1.0-599.0-0.0","0","0","12286","","971","","","68","66","","","2","66","training","adjacent","BA","2","1","Q.jpg","L.jpg","1","0","0","",""
"","feedback","","html-keyboard-response","437","564644","0.0-1.0-600.0-0.0","0","0","12286","","null","","","null","66","","","","","","","","","","","","","","","",""
"","time_out","","html-keyboard-response","438","566646","0.0-1.0-602.0-0.0","0","0","12286","","null","","","null","66","","","","","","","","","","","","","","","",""
"","ITI","","html-keyboard-response","439","567647","0.0-1.0-603.0","0","0","12286","","null","","","null","66","","","","","","","","","","","","","","","NaN",""
"","S1","","html-keyboard-response","440","567898","0.0-1.0-605.0","0","0","12286","","null","","","null","67","","","","","","","","","","","","","","","",""
"","ISI","","html-keyboard-response","441","569899","0.0-1.0-606.0","0","0","12286","","null","","","null","67","NaN","","","","","","","","","","","","","","",""
"","S2","","html-keyboard-response","442","570151","0.0-1.0-607.0","0","0","12286","","null","","","null","67","","NaN","","","","","","","","","","","","","",""
"","response","","html-keyboard-response","443","571211","0.0-1.0-608.0-0.0","0","0","12286","","1060","","","75","67","","","2","67","training","adjacent","CB","3","2","M.jpg","Q.jpg","0","0","1","",""
"","feedback","","html-keyboard-response","444","572213","0.0-1.0-609.0-0.0","0","0","12286","","null","","","null","67","","","","","","","","","","","","","","","",""
"","ITI","","html-keyboard-response","445","573214","0.0-1.0-612.0","0","0","12286","","null","","","null","67","","","","","","","","","","","","","","","NaN",""
"","S1","","html-keyboard-response","446","573465","0.0-1.0-614.0","0","0","12286","","null","","","null","68","","","","","","","","","","","","","","","",""
"","ISI","","html-keyboard-response","447","575467","0.0-1.0-615.0","0","0","12286","","null","","","null","68","NaN","","","","","","","","","","","","","","",""
"","S2","","html-keyboard-response","448","575718","0.0-1.0-616.0","0","0","12286","","null","","","null","68","","NaN","","","","","","","","","","","","","",""
"","response","","html-keyboard-response","449","576891","0.0-1.0-617.0-0.0","0","0","12286","","1173","","","75","68","","","2","68","training","adjacent","CB","3","2","M.jpg","Q.jpg","0","0","1","",""
"","feedback","","html-keyboard-response","450","577899","0.0-1.0-618.0-0.0","0","0","12286","","null","","","null","68","","","","","","","","","","","","","","","",""
"","ITI","","html-keyboard-response","451","578904","0.0-1.0-621.0","0","0","12286","","null","","","null","68","","","","","","","","","","","","","","","NaN",""
"","S1","","html-keyboard-response","452","579155","0.0-1.0-623.0","0","0","12286","","null","","","null","69","","","","","","","","","","","","","","","",""
"","ISI","","html-keyboard-response","453","581156","0.0-1.0-624.0","0","0","12286","","null","","","null","69","NaN","","","","","","","","","","","","","","",""
"","S2","","html-keyboard-response","454","581408","0.0-1.0-625.0","0","0","12286","","null","","","null","69","","NaN","","","","","","","","","","","","","",""
"","response","","html-keyboard-response","455","582525","0.0-1.0-626.0-0.0","0","0","12286","","1117","","","68","69","","","2","69","training","adjacent","ED","5","4","R.jpg","P.jpg","1","0","0","",""
"","feedback","","html-keyboard-response","456","583526","0.0-1.0-627.0-0.0","0","0","12286","","null","","","null","69","","","","","","","","","","","","","","","",""
"","time_out","","html-keyboard-response","457","585527","0.0-1.0-629.0-0.0","0","0","12286","","null","","","null","69","","","","","","","","","","","","","","","",""
"","ITI","","html-keyboard-response","458","586528","0.0-1.0-630.0","0","0","12286","","null","","","null","69","","","","","","","","","","","","","","","NaN",""
"","S1","","html-keyboard-response","459","586780","0.0-1.0-632.0","0","0","12286","","null","","","null","70","","","","","","","","","","","","","","","",""
"","ISI","","html-keyboard-response","460","588782","0.0-1.0-633.0","0","0","12286","","null","","","null","70","NaN","","","","","","","","","","","","","","",""
"","S2","","html-keyboard-response","461","589034","0.0-1.0-634.0","0","0","12286","","null","","","null","70","","NaN","","","","","","","","","","","","","",""
"","response","","html-keyboard-response","462","589886","0.0-1.0-635.0-0.0","0","0","12286","","851","","","75","70","","","2","70","training","adjacent","DE","4","5","P.jpg","R.jpg","0","1","0","",""
"","feedback","","html-keyboard-response","463","590887","0.0-1.0-636.0-0.0","0","0","12286","","null","","","null","70","","","","","","","","","","","","","","","",""
"","time_out","","html-keyboard-response","464","592888","0.0-1.0-638.0-0.0","0","0","12286","","null","","","null","70","","","","","","","","","","","","","","","",""
"","ITI","","html-keyboard-response","465","593890","0.0-1.0-639.0","0","0","12286","","null","","","null","70","","","","","","","","","","","","","","","NaN",""
"","S1","","html-keyboard-response","466","594142","0.0-1.0-641.0","0","0","12286","","null","","","null","71","","","","","","","","","","","","","","","",""
"","ISI","","html-keyboard-response","467","596143","0.0-1.0-642.0","0","0","12286","","null","","","null","71","NaN","","","","","","","","","","","","","","",""
"","S2","","html-keyboard-response","468","596394","0.0-1.0-643.0","0","0","12286","","null","","","null","71","","NaN","","","","","","","","","","","","","",""
"","response","","html-keyboard-response","469","597311","0.0-1.0-644.0-0.0","0","0","12286","","917","","","68","71","","","2","71","training","adjacent","CB","3","2","M.jpg","Q.jpg","1","0","0","",""
"","feedback","","html-keyboard-response","470","598313","0.0-1.0-645.0-0.0","0","0","12286","","null","","","null","71","","","","","","","","","","","","","","","",""
"","time_out","","html-keyboard-response","471","600315","0.0-1.0-647.0-0.0","0","0","12286","","null","","","null","71","","","","","","","","","","","","","","","",""
"","ITI","","html-keyboard-response","472","601316","0.0-1.0-648.0","0","0","12286","","null","","","null","71","","","","","","","","","","","","","","","NaN",""
"","S1","","html-keyboard-response","473","601567","0.0-1.0-650.0","0","0","12286","","null","","","null","72","","","","","","","","","","","","","","","",""
"","ISI","","html-keyboard-response","474","603569","0.0-1.0-651.0","0","0","12286","","null","","","null","72","NaN","","","","","","","","","","","","","","",""
"","S2","","html-keyboard-response","475","603831","0.0-1.0-652.0","0","0","12286","","null","","","null","72","","NaN","","","","","","","","","","","","","",""
"","response","","html-keyboard-response","476","604128","0.0-1.0-653.0-0.0","0","0","12286","","295","","","75","72","","","2","72","training","adjacent","CB","3","2","M.jpg","Q.jpg","0","0","1","",""
"","feedback","","html-keyboard-response","477","605130","0.0-1.0-654.0-0.0","0","0","12286","","null","","","null","72","","","","","","","","","","","","","","","",""
"","ITI","","html-keyboard-response","478","606137","0.0-1.0-657.0","0","0","12286","","null","","","null","72","","","","","","","","","","","","","","","NaN",""
"","S1","","html-keyboard-response","479","606390","0.0-1.0-659.0","0","0","12286","","null","","","null","73","","","","","","","","","","","","","","","",""
"","ISI","","html-keyboard-response","480","608391","0.0-1.0-660.0","0","0","12286","","null","","","null","73","NaN","","","","","","","","","","","","","","",""
"","S2","","html-keyboard-response","481","608643","0.0-1.0-661.0","0","0","12286","","null","","","null","73","","NaN","","","","","","","","","","","","","",""
"","response","","html-keyboard-response","482","609409","0.0-1.0-662.0-0.0","0","0","12286","","766","","","75","73","","","2","73","training","adjacent","GF","7","6","O.jpg","N.jpg","0","0","1","",""
"","feedback","","html-keyboard-response","483","610412","0.0-1.0-663.0-0.0","0","0","12286","","null","","","null","73","","","","","","","","","","","","","","","",""
"","ITI","","html-keyboard-response","484","611413","0.0-1.0-666.0","0","0","12286","","null","","","null","73","","","","","","","","","","","","","","","NaN",""
"","S1","","html-keyboard-response","485","611664","0.0-1.0-668.0","0","0","12286","","null","","","null","74","","","","","","","","","","","","","","","",""
"","ISI","","html-keyboard-response","486","613665","0.0-1.0-669.0","0","0","12286","","null","","","null","74","NaN","","","","","","","","","","","","","","",""
"","S2","","html-keyboard-response","487","613916","0.0-1.0-670.0","0","0","12286","","null","","","null","74","","NaN","","","","","","","","","","","","","",""
"","response","","html-keyboard-response","488","614801","0.0-1.0-671.0-0.0","0","0","12286","","884","","","68","74","","","2","74","training","adjacent","CD","3","4","M.jpg","P.jpg","1","1","1","",""
"","feedback","","html-keyboard-response","489","615803","0.0-1.0-672.0-0.0","0","0","12286","","null","","","null","74","","","","","","","","","","","","","","","",""
"","ITI","","html-keyboard-response","490","616805","0.0-1.0-675.0","0","0","12286","","null","","","null","74","","","","","","","","","","","","","","","NaN",""
"","S1","","html-keyboard-response","491","617056","0.0-1.0-677.0","0","0","12286","","null","","","null","75","","","","","","","","","","","","","","","",""
"","ISI","","html-keyboard-response","492","619058","0.0-1.0-678.0","0","0","12286","","null","","","null","75","NaN","","","","","","","","","","","","","","",""
"","S2","","html-keyboard-response","493","619309","0.0-1.0-679.0","0","0","12286","","null","","","null","75","","NaN","","","","","","","","","","","","","",""
"","response","","html-keyboard-response","494","620275","0.0-1.0-680.0-0.0","0","0","12286","","965","","","68","75","","","2","75","training","adjacent","EF","5","6","R.jpg","N.jpg","1","1","1","",""
"","feedback","","html-keyboard-response","495","621276","0.0-1.0-681.0-0.0","0","0","12286","","null","","","null","75","","","","","","","","","","","","","","","",""
"","ITI","","html-keyboard-response","496","622278","0.0-1.0-684.0","0","0","12286","","null","","","null","75","","","","","","","","","","","","","","","NaN",""
"","S1","","html-keyboard-response","497","622529","0.0-1.0-686.0","0","0","12286","","null","","","null","76","","","","","","","","","","","","","","","",""
"","ISI","","html-keyboard-response","498","624531","0.0-1.0-687.0","0","0","12286","","null","","","null","76","NaN","","","","","","","","","","","","","","",""
"","S2","","html-keyboard-response","499","624782","0.0-1.0-688.0","0","0","12286","","null","","","null","76","","NaN","","","","","","","","","","","","","",""
"","response","","html-keyboard-response","500","626115","0.0-1.0-689.0-0.0","0","0","12286","","1331","","","75","76","","","2","76","training","adjacent","DC","4","3","P.jpg","M.jpg","0","0","1","",""
"","feedback","","html-keyboard-response","501","627117","0.0-1.0-690.0-0.0","0","0","12286","","null","","","null","76","","","","","","","","","","","","","","","",""
"","ITI","","html-keyboard-response","502","628118","0.0-1.0-693.0","0","0","12286","","null","","","null","76","","","","","","","","","","","","","","","NaN",""
"","S1","","html-keyboard-response","503","628372","0.0-1.0-695.0","0","0","12286","","null","","","null","77","","","","","","","","","","","","","","","",""
"","ISI","","html-keyboard-response","504","630373","0.0-1.0-696.0","0","0","12286","","null","","","null","77","NaN","","","","","","","","","","","","","","",""
"","S2","","html-keyboard-response","505","630625","0.0-1.0-697.0","0","0","12286","","null","","","null","77","","NaN","","","","","","","","","","","","","",""
"","response","","html-keyboard-response","506","631845","0.0-1.0-698.0-0.0","0","0","12286","","1219","","","75","77","","","2","77","training","adjacent","ED","5","4","R.jpg","P.jpg","0","0","1","",""
"","feedback","","html-keyboard-response","507","632846","0.0-1.0-699.0-0.0","0","0","12286","","null","","","null","77","","","","","","","","","","","","","","","",""
"","ITI","","html-keyboard-response","508","633848","0.0-1.0-702.0","0","0","12286","","null","","","null","77","","","","","","","","","","","","","","","NaN",""
"","S1","","html-keyboard-response","509","634106","0.0-1.0-704.0","0","0","12286","","null","","","null","78","","","","","","","","","","","","","","","",""
"","ISI","","html-keyboard-response","510","636114","0.0-1.0-705.0","0","0","12286","","null","","","null","78","NaN","","","","","","","","","","","","","","",""
"","S2","","html-keyboard-response","511","636366","0.0-1.0-706.0","0","0","12286","","null","","","null","78","","NaN","","","","","","","","","","","","","",""
"","response","","html-keyboard-response","512","637237","0.0-1.0-707.0-0.0","0","0","12286","","869","","","68","78","","","2","78","training","adjacent","DE","4","5","P.jpg","R.jpg","1","1","1","",""
"","feedback","","html-keyboard-response","513","638239","0.0-1.0-708.0-0.0","0","0","12286","","null","","","null","78","","","","","","","","","","","","","","","",""
"","ITI","","html-keyboard-response","514","639241","0.0-1.0-711.0","0","0","12286","","null","","","null","78","","","","","","","","","","","","","","","NaN",""
"","S1","","html-keyboard-response","515","639492","0.0-1.0-713.0","0","0","12286","","null","","","null","79","","","","","","","","","","","","","","","",""
"","ISI","","html-keyboard-response","516","641494","0.0-1.0-714.0","0","0","12286","","null","","","null","79","NaN","","","","","","","","","","","","","","",""
"","S2","","html-keyboard-response","517","641745","0.0-1.0-715.0","0","0","12286","","null","","","null","79","","NaN","","","","","","","","","","","","","",""
"","response","","html-keyboard-response","518","642598","0.0-1.0-716.0-0.0","0","0","12286","","852","","","68","79","","","2","79","training","adjacent","EF","5","6","R.jpg","N.jpg","1","1","1","",""
"","feedback","","html-keyboard-response","519","643600","0.0-1.0-717.0-0.0","0","0","12286","","null","","","null","79","","","","","","","","","","","","","","","",""
"","ITI","","html-keyboard-response","520","644601","0.0-1.0-720.0","0","0","12286","","null","","","null","79","","","","","","","","","","","","","","","NaN",""
"","S1","","html-keyboard-response","521","644853","0.0-1.0-722.0","0","0","12286","","null","","","null","80","","","","","","","","","","","","","","","",""
"","ISI","","html-keyboard-response","522","646854","0.0-1.0-723.0","0","0","12286","","null","","","null","80","NaN","","","","","","","","","","","","","","",""
"","S2","","html-keyboard-response","523","647106","0.0-1.0-724.0","0","0","12286","","null","","","null","80","","NaN","","","","","","","","","","","","","",""
"","response","","html-keyboard-response","524","647974","0.0-1.0-725.0-0.0","0","0","12286","","868","","","75","80","","","2","80","training","adjacent","EF","5","6","R.jpg","N.jpg","0","1","0","",""
"","feedback","","html-keyboard-response","525","648976","0.0-1.0-726.0-0.0","0","0","12286","","null","","","null","80","","","","","","","","","","","","","","","",""
"","time_out","","html-keyboard-response","526","650977","0.0-1.0-728.0-0.0","0","0","12286","","null","","","null","80","","","","","","","","","","","","","","","",""
"","ITI","","html-keyboard-response","527","651978","0.0-1.0-729.0","0","0","12286","","null","","","null","80","","","","","","","","","","","","","","","NaN",""
"","S1","","html-keyboard-response","528","652229","0.0-1.0-731.0","0","0","12286","","null","","","null","81","","","","","","","","","","","","","","","",""
"","ISI","","html-keyboard-response","529","654231","0.0-1.0-732.0","0","0","12286","","null","","","null","81","NaN","","","","","","","","","","","","","","",""
"","S2","","html-keyboard-response","530","654482","0.0-1.0-733.0","0","0","12286","","null","","","null","81","","NaN","","","","","","","","","","","","","",""
"","response","","html-keyboard-response","531","655368","0.0-1.0-734.0-0.0","0","0","12286","","885","","","68","81","","","2","81","training","adjacent","CD","3","4","M.jpg","P.jpg","1","1","1","",""
"","feedback","","html-keyboard-response","532","656369","0.0-1.0-735.0-0.0","0","0","12286","","null","","","null","81","","","","","","","","","","","","","","","",""
"","ITI","","html-keyboard-response","533","657371","0.0-1.0-738.0","0","0","12286","","null","","","null","81","","","","","","","","","","","","","","","NaN",""
"","S1","","html-keyboard-response","534","657623","0.0-1.0-740.0","0","0","12286","","null","","","null","82","","","","","","","","","","","","","","","",""
"","ISI","","html-keyboard-response","535","659624","0.0-1.0-741.0","0","0","12286","","null","","","null","82","NaN","","","","","","","","","","","","","","",""
"","S2","","html-keyboard-response","536","659875","0.0-1.0-742.0","0","0","12286","","null","","","null","82","","NaN","","","","","","","","","","","","","",""
"","response","","html-keyboard-response","537","660328","0.0-1.0-743.0-0.0","0","0","12286","","453","","","68","82","","","2","82","training","adjacent","BC","2","3","Q.jpg","M.jpg","1","1","1","",""
"","feedback","","html-keyboard-response","538","661330","0.0-1.0-744.0-0.0","0","0","12286","","null","","","null","82","","","","","","","","","","","","","","","",""
"","ITI","","html-keyboard-response","539","662332","0.0-1.0-747.0","0","0","12286","","null","","","null","82","","","","","","","","","","","","","","","NaN",""
"","S1","","html-keyboard-response","540","662584","0.0-1.0-749.0","0","0","12286","","null","","","null","83","","","","","","","","","","","","","","","",""
"","ISI","","html-keyboard-response","541","664585","0.0-1.0-750.0","0","0","12286","","null","","","null","83","NaN","","","","","","","","","","","","","","",""
"","S2","","html-keyboard-response","542","664836","0.0-1.0-751.0","0","0","12286","","null","","","null","83","","NaN","","","","","","","","","","","","","",""
"","response","","html-keyboard-response","543","665706","0.0-1.0-752.0-0.0","0","0","12286","","869","","","75","83","","","2","83","training","adjacent","ED","5","4","R.jpg","P.jpg","0","0","1","",""
"","feedback","","html-keyboard-response","544","666707","0.0-1.0-753.0-0.0","0","0","12286","","null","","","null","83","","","","","","","","","","","","","","","",""
"","ITI","","html-keyboard-response","545","667709","0.0-1.0-756.0","0","0","12286","","null","","","null","83","","","","","","","","","","","","","","","NaN",""
"","S1","","html-keyboard-response","546","667969","0.0-1.0-758.0","0","0","12286","","null","","","null","84","","","","","","","","","","","","","","","",""
"","ISI","","html-keyboard-response","547","669970","0.0-1.0-759.0","0","0","12286","","null","","","null","84","NaN","","","","","","","","","","","","","","",""
"","S2","","html-keyboard-response","548","670221","0.0-1.0-760.0","0","0","12286","","null","","","null","84","","NaN","","","","","","","","","","","","","",""
"","response","","html-keyboard-response","549","670762","0.0-1.0-761.0-0.0","0","0","12286","","539","","","68","84","","","2","84","training","adjacent","BA","2","1","Q.jpg","L.jpg","1","0","0","",""
"","feedback","","html-keyboard-response","550","671765","0.0-1.0-762.0-0.0","0","0","12286","","null","","","null","84","","","","","","","","","","","","","","","",""
"","time_out","","html-keyboard-response","551","673766","0.0-1.0-764.0-0.0","0","0","12286","","null","","","null","84","","","","","","","","","","","","","","","",""
"","ITI","","html-keyboard-response","552","674767","0.0-1.0-765.0","0","0","12286","","null","","","null","84","","","","","","","","","","","","","","","NaN",""
"","S1","","html-keyboard-response","553","675018","0.0-1.0-767.0","0","0","12286","","null","","","null","85","","","","","","","","","","","","","","","",""
"","ISI","","html-keyboard-response","554","677020","0.0-1.0-768.0","0","0","12286","","null","","","null","85","NaN","","","","","","","","","","","","","","",""
"","S2","","html-keyboard-response","555","677272","0.0-1.0-769.0","0","0","12286","","null","","","null","85","","NaN","","","","","","","","","","","","","",""
"","response","","html-keyboard-response","556","677707","0.0-1.0-770.0-0.0","0","0","12286","","434","","","68","85","","","2","85","training","adjacent","FE","6","5","N.jpg","R.jpg","1","0","0","",""
"","feedback","","html-keyboard-response","557","678710","0.0-1.0-771.0-0.0","0","0","12286","","null","","","null","85","","","","","","","","","","","","","","","",""
"","time_out","","html-keyboard-response","558","680711","0.0-1.0-773.0-0.0","0","0","12286","","null","","","null","85","","","","","","","","","","","","","","","",""
"","ITI","","html-keyboard-response","559","681713","0.0-1.0-774.0","0","0","12286","","null","","","null","85","","","","","","","","","","","","","","","NaN",""
"","S1","","html-keyboard-response","560","681964","0.0-1.0-776.0","0","0","12286","","null","","","null","86","","","","","","","","","","","","","","","",""
"","ISI","","html-keyboard-response","561","683964","0.0-1.0-777.0","0","0","12286","","null","","","null","86","NaN","","","","","","","","","","","","","","",""
"","S2","","html-keyboard-response","562","684215","0.0-1.0-778.0","0","0","12286","","null","","","null","86","","NaN","","","","","","","","","","","","","",""
"","response","","html-keyboard-response","563","684972","0.0-1.0-779.0-0.0","0","0","12286","","755","","","68","86","","","2","86","training","adjacent","CD","3","4","M.jpg","P.jpg","1","1","1","",""
"","feedback","","html-keyboard-response","564","685974","0.0-1.0-780.0-0.0","0","0","12286","","null","","","null","86","","","","","","","","","","","","","","","",""
"","ITI","","html-keyboard-response","565","686975","0.0-1.0-783.0","0","0","12286","","null","","","null","86","","","","","","","","","","","","","","","NaN",""
"","S1","","html-keyboard-response","566","687227","0.0-1.0-785.0","0","0","12286","","null","","","null","87","","","","","","","","","","","","","","","",""
"","ISI","","html-keyboard-response","567","689228","0.0-1.0-786.0","0","0","12286","","null","","","null","87","NaN","","","","","","","","","","","","","","",""
"","S2","","html-keyboard-response","568","689479","0.0-1.0-787.0","0","0","12286","","null","","","null","87","","NaN","","","","","","","","","","","","","",""
"","response","","html-keyboard-response","569","690142","0.0-1.0-788.0-0.0","0","0","12286","","661","","","68","87","","","2","87","training","adjacent","GF","7","6","O.jpg","N.jpg","1","0","0","",""
"","feedback","","html-keyboard-response","570","691144","0.0-1.0-789.0-0.0","0","0","12286","","null","","","null","87","","","","","","","","","","","","","","","",""
"","time_out","","html-keyboard-response","571","693145","0.0-1.0-791.0-0.0","0","0","12286","","null","","","null","87","","","","","","","","","","","","","","","",""
"","ITI","","html-keyboard-response","572","694146","0.0-1.0-792.0","0","0","12286","","null","","","null","87","","","","","","","","","","","","","","","NaN",""
"","S1","","html-keyboard-response","573","694397","0.0-1.0-794.0","0","0","12286","","null","","","null","88","","","","","","","","","","","","","","","",""
"","ISI","","html-keyboard-response","574","696398","0.0-1.0-795.0","0","0","12286","","null","","","null","88","NaN","","","","","","","","","","","","","","",""
"","S2","","html-keyboard-response","575","696650","0.0-1.0-796.0","0","0","12286","","null","","","null","88","","NaN","","","","","","","","","","","","","",""
"","response","","html-keyboard-response","576","697294","0.0-1.0-797.0-0.0","0","0","12286","","643","","","75","88","","","2","88","training","adjacent","BA","2","1","Q.jpg","L.jpg","0","0","1","",""
"","feedback","","html-keyboard-response","577","698296","0.0-1.0-798.0-0.0","0","0","12286","","null","","","null","88","","","","","","","","","","","","","","","",""
"","ITI","","html-keyboard-response","578","699297","0.0-1.0-801.0","0","0","12286","","null","","","null","88","","","","","","","","","","","","","","","NaN",""
"","S1","","html-keyboard-response","579","699548","0.0-1.0-803.0","0","0","12286","","null","","","null","89","","","","","","","","","","","","","","","",""
"","ISI","","html-keyboard-response","580","701550","0.0-1.0-804.0","0","0","12286","","null","","","null","89","NaN","","","","","","","","","","","","","","",""
"","S2","","html-keyboard-response","581","701801","0.0-1.0-805.0","0","0","12286","","null","","","null","89","","NaN","","","","","","","","","","","","","",""
"","response","","html-keyboard-response","582","702399","0.0-1.0-806.0-0.0","0","0","12286","","598","","","75","89","","","2","89","training","adjacent","GF","7","6","O.jpg","N.jpg","0","0","1","",""
