"success","ttype","start_time","trial_type","trial_index","time_elapsed","internal_node_id","warning","missed_checkup","PID","view_history","rt","responses","repeat_instructions","key_press","index","keypress_isi","keypress_S2","block","trial_num","phase","group_type","pair_type","S1_stim","S2_stim","S1_img","S2_img","S1_chosen","S1_higher","accuracy","keypress_iti","total_bonus_tally"
"true","full_screen","d03082023hr1441","fullscreen","0","15623","0.0-0.0","0","0","60961","","","","","","","","","","","","","","","","","","","","","",""
"","instructions","","instructions","1","77806","0.0-1.0-0.0-0.0","0","0","60961","[{""page_index"":0,""viewing_time"":5326},{""page_index"":1,""viewing_time"":35968},{""page_index"":2,""viewing_time"":17040},{""page_index"":3,""viewing_time"":3848}]","62183","","","","","","","","","","","","","","","","","","","",""
"","comprehension_check","","survey-multi-choice","2","133046","0.0-1.0-0.0-1.0","0","0","60961","","55237","{""Q0"":""True"",""Q1"":""D"",""Q2"":""Once the second image appears and while the screen 'MAKE A CHOICE' is shown"",""Q3"":""Green mark"",""Q4"":""either D or K""}","1","","","","","","","","","","","","","","","","","",""
"","missed_instruction_checkup","","html-keyboard-response","3","135563","0.0-1.0-0.0-2.0-0.0","0","1","60961","","2515","","","32","","","","","","","","","","","","","","","","",""
"","instructions","","instructions","4","169205","0.0-1.0-0.1-0.1","0","0","60961","[{""page_index"":0,""viewing_time"":3298},{""page_index"":1,""viewing_time"":27191},{""page_index"":2,""viewing_time"":2024},{""page_index"":3,""viewing_time"":1128}]","33641","","","","","","","","","","","","","","","","","","","",""
"","comprehension_check","","survey-multi-choice","5","189773","0.0-1.0-0.1-1.1","0","0","60961","","20567","{""Q0"":""True"",""Q1"":""K"",""Q2"":""Once the second image appears and while the screen 'MAKE A CHOICE' is shown"",""Q3"":""Green mark"",""Q4"":""either D or K""}","0","","","","","","","","","","","","","","","","","",""
"","start_exp","","html-keyboard-response","6","192468","0.0-1.0-1.0","0","0","60961","","2694","","","32","","","","","","","","","","","","","","","","",""
"","S1","","html-keyboard-response","7","192720","0.0-1.0-2.0","0","0","60961","","null","","","null","0","","","","","","","","","","","","","","","",""
"","ISI","","html-keyboard-response","8","192872","0.0-1.0-3.0","0","0","60961","","null","","","null","0","NaN","","","","","","","","","","","","","","",""
"","S2","","html-keyboard-response","9","193124","0.0-1.0-4.0","0","0","60961","","null","","","null","0","","NaN","","","","","","","","","","","","","",""
"","response","","html-keyboard-response","10","194260","0.0-1.0-5.0-0.0","0","0","60961","","1136","","","75","0","","","1","0","training","adjacent","FE","6","5","L.jpg","M.jpg","1","0","0","",""
"","feedback","","html-keyboard-response","11","195261","0.0-1.0-6.0-0.0","0","0","60961","","null","","","null","0","","","","","","","","","","","","","","","",""
"","time_out","","html-keyboard-response","12","197263","0.0-1.0-8.0-0.0","0","0","60961","","null","","","null","0","","","","","","","","","","","","","","","",""
"","ITI","","html-keyboard-response","13","198265","0.0-1.0-9.0","0","0","60961","","null","","","null","0","","","","","","","","","","","","","","","NaN",""
"","S1","","html-keyboard-response","14","198516","0.0-1.0-11.0","0","0","60961","","null","","","null","1","","","","","","","","","","","","","","","",""
"","ISI","","html-keyboard-response","15","198668","0.0-1.0-12.0","0","0","60961","","null","","","null","1","NaN","","","","","","","","","","","","","","",""
"","S2","","html-keyboard-response","16","198919","0.0-1.0-13.0","0","0","60961","","null","","","null","1","","NaN","","","","","","","","","","","","","",""
"","response","","html-keyboard-response","17","199560","0.0-1.0-14.0-0.0","0","0","60961","","640","","","68","1","","","1","1","training","adjacent","FE","6","5","L.jpg","M.jpg","0","0","1","",""
"","feedback","","html-keyboard-response","18","200562","0.0-1.0-15.0-0.0","0","0","60961","","null","","","null","1","","","","","","","","","","","","","","","",""
"","ITI","","html-keyboard-response","19","201563","0.0-1.0-18.0","0","0","60961","","null","","","null","1","","","","","","","","","","","","","","","NaN",""
"","S1","","html-keyboard-response","20","201815","0.0-1.0-20.0","0","0","60961","","null","","","null","2","","","","","","","","","","","","","","","",""
"","ISI","","html-keyboard-response","21","201967","0.0-1.0-21.0","0","0","60961","","null","","","null","2","NaN","","","","","","","","","","","","","","",""
"","S2","","html-keyboard-response","22","202218","0.0-1.0-22.0","0","0","60961","","null","","","null","2","","NaN","","","","","","","","","","","","","",""
"","response","","html-keyboard-response","23","202684","0.0-1.0-23.0-0.0","0","0","60961","","466","","","75","2","","","1","2","training","adjacent","EF","5","6","M.jpg","L.jpg","1","1","1","",""
"","feedback","","html-keyboard-response","24","203685","0.0-1.0-24.0-0.0","0","0","60961","","null","","","null","2","","","","","","","","","","","","","","","",""
"","ITI","","html-keyboard-response","25","204686","0.0-1.0-27.0","0","0","60961","","null","","","null","2","","","","","","","","","","","","","","","NaN",""
"","S1","","html-keyboard-response","26","204938","0.0-1.0-29.0","0","0","60961","","null","","","null","3","","","","","","","","","","","","","","","",""
"","ISI","","html-keyboard-response","27","205088","0.0-1.0-30.0","0","0","60961","","null","","","null","3","NaN","","","","","","","","","","","","","","",""
"","S2","","html-keyboard-response","28","205340","0.0-1.0-31.0","0","0","60961","","null","","","null","3","","NaN","","","","","","","","","","","","","",""
"","response","","html-keyboard-response","29","205796","0.0-1.0-32.0-0.0","0","0","60961","","456","","","68","3","","","1","3","training","adjacent","BA","2","1","O.jpg","N.jpg","0","0","1","",""
"","feedback","","html-keyboard-response","30","206798","0.0-1.0-33.0-0.0","0","0","60961","","null","","","null","3","","","","","","","","","","","","","","","",""
"","ITI","","html-keyboard-response","31","207800","0.0-1.0-36.0","0","0","60961","","null","","","null","3","","","","","","","","","","","","","","","NaN",""
"","S1","","html-keyboard-response","32","208051","0.0-1.0-38.0","0","0","60961","","null","","","null","4","","","","","","","","","","","","","","","",""
"","ISI","","html-keyboard-response","33","208202","0.0-1.0-39.0","0","0","60961","","null","","","null","4","NaN","","","","","","","","","","","","","","",""
"","S2","","html-keyboard-response","34","208453","0.0-1.0-40.0","0","0","60961","","null","","","null","4","","NaN","","","","","","","","","","","","","",""
"","response","","html-keyboard-response","35","209076","0.0-1.0-41.0-0.0","0","0","60961","","622","","","68","4","","","1","4","training","adjacent","GF","7","6","R.jpg","L.jpg","0","0","1","",""
"","feedback","","html-keyboard-response","36","210078","0.0-1.0-42.0-0.0","0","0","60961","","null","","","null","4","","","","","","","","","","","","","","","",""
"","ITI","","html-keyboard-response","37","211079","0.0-1.0-45.0","0","0","60961","","null","","","null","4","","","","","","","","","","","","","","","NaN",""
"","S1","","html-keyboard-response","38","211331","0.0-1.0-47.0","0","0","60961","","null","","","null","5","","","","","","","","","","","","","","","",""
"","ISI","","html-keyboard-response","39","211481","0.0-1.0-48.0","0","0","60961","","null","","","null","5","NaN","","","","","","","","","","","","","","",""
"","S2","","html-keyboard-response","40","211734","0.0-1.0-49.0","0","0","60961","","null","","","null","5","","NaN","","","","","","","","","","","","","",""
"","response","","html-keyboard-response","41","212304","0.0-1.0-50.0-0.0","0","0","60961","","570","","","68","5","","","1","5","training","adjacent","AB","1","2","N.jpg","O.jpg","0","1","0","",""
"","feedback","","html-keyboard-response","42","213305","0.0-1.0-51.0-0.0","0","0","60961","","null","","","null","5","","","","","","","","","","","","","","","",""
"","time_out","","html-keyboard-response","43","215307","0.0-1.0-53.0-0.0","0","0","60961","","null","","","null","5","","","","","","","","","","","","","","","",""
"","ITI","","html-keyboard-response","44","216309","0.0-1.0-54.0","0","0","60961","","null","","","null","5","","","","","","","","","","","","","","","NaN",""
"","S1","","html-keyboard-response","45","216561","0.0-1.0-56.0","0","0","60961","","null","","","null","6","","","","","","","","","","","","","","","",""
"","ISI","","html-keyboard-response","46","216712","0.0-1.0-57.0","0","0","60961","","null","","","null","6","NaN","","","","","","","","","","","","","","",""
"","S2","","html-keyboard-response","47","216964","0.0-1.0-58.0","0","0","60961","","null","","","null","6","","NaN","","","","","","","","","","","","","",""
"","response","","html-keyboard-response","48","218003","0.0-1.0-59.0-0.0","0","0","60961","","1038","","","68","6","","","1","6","training","adjacent","FG","6","7","L.jpg","R.jpg","0","1","0","",""
"","feedback","","html-keyboard-response","49","219004","0.0-1.0-60.0-0.0","0","0","60961","","null","","","null","6","","","","","","","","","","","","","","","",""
"","time_out","","html-keyboard-response","50","221006","0.0-1.0-62.0-0.0","0","0","60961","","null","","","null","6","","","","","","","","","","","","","","","",""
"","ITI","","html-keyboard-response","51","222007","0.0-1.0-63.0","0","0","60961","","null","","","null","6","","","","","","","","","","","","","","","NaN",""
"","S1","","html-keyboard-response","52","222259","0.0-1.0-65.0","0","0","60961","","null","","","null","7","","","","","","","","","","","","","","","",""
"","ISI","","html-keyboard-response","53","222410","0.0-1.0-66.0","0","0","60961","","null","","","null","7","NaN","","","","","","","","","","","","","","",""
"","S2","","html-keyboard-response","54","222662","0.0-1.0-67.0","0","0","60961","","null","","","null","7","","NaN","","","","","","","","","","","","","",""
"","response","","html-keyboard-response","55","223183","0.0-1.0-68.0-0.0","0","0","60961","","520","","","68","7","","","1","7","training","adjacent","CB","3","2","P.jpg","O.jpg","0","0","1","",""
"","feedback","","html-keyboard-response","56","224184","0.0-1.0-69.0-0.0","0","0","60961","","null","","","null","7","","","","","","","","","","","","","","","",""
"","ITI","","html-keyboard-response","57","225186","0.0-1.0-72.0","0","0","60961","","null","","","null","7","","","","","","","","","","","","","","","NaN",""
"","S1","","html-keyboard-response","58","225437","0.0-1.0-74.0","0","0","60961","","null","","","null","8","","","","","","","","","","","","","","","",""
"","ISI","","html-keyboard-response","59","225588","0.0-1.0-75.0","0","0","60961","","null","","","null","8","NaN","","","","","","","","","","","","","","",""
"","S2","","html-keyboard-response","60","225839","0.0-1.0-76.0","0","0","60961","","null","","","null","8","","NaN","","","","","","","","","","","","","",""
"","response","","html-keyboard-response","61","226647","0.0-1.0-77.0-0.0","0","0","60961","","807","","","68","8","","","1","8","training","adjacent","FE","6","5","L.jpg","M.jpg","0","0","1","",""
"","feedback","","html-keyboard-response","62","227648","0.0-1.0-78.0-0.0","0","0","60961","","null","","","null","8","","","","","","","","","","","","","","","",""
"","ITI","","html-keyboard-response","63","228650","0.0-1.0-81.0","0","0","60961","","null","","","null","8","","","","","","","","","","","","","","","NaN",""
"","S1","","html-keyboard-response","64","228901","0.0-1.0-83.0","0","0","60961","","null","","","null","9","","","","","","","","","","","","","","","",""
"","ISI","","html-keyboard-response","65","229052","0.0-1.0-84.0","0","0","60961","","null","","","null","9","NaN","","","","","","","","","","","","","","",""
"","S2","","html-keyboard-response","66","229303","0.0-1.0-85.0","0","0","60961","","null","","","null","9","","NaN","","","","","","","","","","","","","",""
"","response","","html-keyboard-response","67","229751","0.0-1.0-86.0-0.0","0","0","60961","","446","","","75","9","","","1","9","training","adjacent","EF","5","6","M.jpg","L.jpg","1","1","1","",""
"","feedback","","html-keyboard-response","68","230753","0.0-1.0-87.0-0.0","0","0","60961","","null","","","null","9","","","","","","","","","","","","","","","",""
"","ITI","","html-keyboard-response","69","231754","0.0-1.0-90.0","0","0","60961","","null","","","null","9","","","","","","","","","","","","","","","NaN",""
"","S1","","html-keyboard-response","70","232005","0.0-1.0-92.0","0","0","60961","","null","","","null","10","","","","","","","","","","","","","","","",""
"","ISI","","html-keyboard-response","71","232156","0.0-1.0-93.0","0","0","60961","","null","","","null","10","NaN","","","","","","","","","","","","","","",""
"","S2","","html-keyboard-response","72","232407","0.0-1.0-94.0","0","0","60961","","null","","","null","10","","NaN","","","","","","","","","","","","","",""
"","response","","html-keyboard-response","73","232903","0.0-1.0-95.0-0.0","0","0","60961","","494","","","68","10","","","1","10","training","adjacent","FE","6","5","L.jpg","M.jpg","0","0","1","",""
"","feedback","","html-keyboard-response","74","233905","0.0-1.0-96.0-0.0","0","0","60961","","null","","","null","10","","","","","","","","","","","","","","","",""
"","ITI","","html-keyboard-response","75","234905","0.0-1.0-99.0","0","0","60961","","null","","","null","10","","","","","","","","","","","","","","","NaN",""
"","S1","","html-keyboard-response","76","235157","0.0-1.0-101.0","0","0","60961","","null","","","null","11","","","","","","","","","","","","","","","",""
"","ISI","","html-keyboard-response","77","235308","0.0-1.0-102.0","0","0","60961","","null","","","null","11","NaN","","","","","","","","","","","","","","",""
"","S2","","html-keyboard-response","78","235560","0.0-1.0-103.0","0","0","60961","","null","","","null","11","","NaN","","","","","","","","","","","","","",""
"","response","","html-keyboard-response","79","236319","0.0-1.0-104.0-0.0","0","0","60961","","758","","","75","11","","","1","11","training","adjacent","BC","2","3","O.jpg","P.jpg","1","1","1","",""
"","feedback","","html-keyboard-response","80","237320","0.0-1.0-105.0-0.0","0","0","60961","","null","","","null","11","","","","","","","","","","","","","","","",""
"","ITI","","html-keyboard-response","81","238322","0.0-1.0-108.0","0","0","60961","","null","","","null","11","","","","","","","","","","","","","","","NaN",""
"","S1","","html-keyboard-response","82","238574","0.0-1.0-110.0","0","0","60961","","null","","","null","12","","","","","","","","","","","","","","","",""
"","ISI","","html-keyboard-response","83","238725","0.0-1.0-111.0","0","0","60961","","null","","","null","12","NaN","","","","","","","","","","","","","","",""
"","S2","","html-keyboard-response","84","238977","0.0-1.0-112.0","0","0","60961","","null","","","null","12","","NaN","","","","","","","","","","","","","",""
"","response","","html-keyboard-response","85","239635","0.0-1.0-113.0-0.0","0","0","60961","","657","","","75","12","","","1","12","training","adjacent","EF","5","6","M.jpg","L.jpg","1","1","1","",""
"","feedback","","html-keyboard-response","86","240637","0.0-1.0-114.0-0.0","0","0","60961","","null","","","null","12","","","","","","","","","","","","","","","",""
"","ITI","","html-keyboard-response","87","241638","0.0-1.0-117.0","0","0","60961","","null","","","null","12","","","","","","","","","","","","","","","NaN",""
"","S1","","html-keyboard-response","88","241890","0.0-1.0-119.0","0","0","60961","","null","","","null","13","","","","","","","","","","","","","","","",""
"","ISI","","html-keyboard-response","89","242040","0.0-1.0-120.0","0","0","60961","","null","","","null","13","NaN","","","","","","","","","","","","","","",""
"","S2","","html-keyboard-response","90","242297","0.0-1.0-121.0","0","0","60961","","null","","","null","13","","NaN","","","","","","","","","","","","","",""
"","response","","html-keyboard-response","91","242815","0.0-1.0-122.0-0.0","0","0","60961","","517","","","68","13","","","1","13","training","adjacent","AB","1","2","N.jpg","O.jpg","0","1","0","",""
"","feedback","","html-keyboard-response","92","243816","0.0-1.0-123.0-0.0","0","0","60961","","null","","","null","13","","","","","","","","","","","","","","","",""
"","time_out","","html-keyboard-response","93","245817","0.0-1.0-125.0-0.0","0","0","60961","","null","","","null","13","","","","","","","","","","","","","","","",""
"","ITI","","html-keyboard-response","94","246818","0.0-1.0-126.0","0","0","60961","","null","","","null","13","","","","","","","","","","","","","","","NaN",""
"","S1","","html-keyboard-response","95","247070","0.0-1.0-128.0","0","0","60961","","null","","","null","14","","","","","","","","","","","","","","","",""
"","ISI","","html-keyboard-response","96","247221","0.0-1.0-129.0","0","0","60961","","null","","","null","14","NaN","","","","","","","","","","","","","","",""
"","S2","","html-keyboard-response","97","247472","0.0-1.0-130.0","0","0","60961","","null","","","null","14","","NaN","","","","","","","","","","","","","",""
"","response","","html-keyboard-response","98","248122","0.0-1.0-131.0-0.0","0","0","60961","","648","","","75","14","","","1","14","training","adjacent","ED","5","4","M.jpg","Q.jpg","1","0","0","",""
"","feedback","","html-keyboard-response","99","249123","0.0-1.0-132.0-0.0","0","0","60961","","null","","","null","14","","","","","","","","","","","","","","","",""
"","time_out","","html-keyboard-response","100","251125","0.0-1.0-134.0-0.0","0","0","60961","","null","","","null","14","","","","","","","","","","","","","","","",""
"","ITI","","html-keyboard-response","101","252126","0.0-1.0-135.0","0","0","60961","","null","","","null","14","","","","","","","","","","","","","","","NaN",""
"","S1","","html-keyboard-response","102","252377","0.0-1.0-137.0","0","0","60961","","null","","","null","15","","","","","","","","","","","","","","","",""
"","ISI","","html-keyboard-response","103","252528","0.0-1.0-138.0","0","0","60961","","null","","","null","15","NaN","","","","","","","","","","","","","","",""
"","S2","","html-keyboard-response","104","252780","0.0-1.0-139.0","0","0","60961","","null","","","null","15","","NaN","","","","","","","","","","","","","",""
"","response","","html-keyboard-response","105","253542","0.0-1.0-140.0-0.0","0","0","60961","","761","","","68","15","","","1","15","training","adjacent","CD","3","4","P.jpg","Q.jpg","0","1","0","",""
"","feedback","","html-keyboard-response","106","254543","0.0-1.0-141.0-0.0","0","0","60961","","null","","","null","15","","","","","","","","","","","","","","","",""
"","time_out","","html-keyboard-response","107","256544","0.0-1.0-143.0-0.0","0","0","60961","","null","","","null","15","","","","","","","","","","","","","","","",""
"","ITI","","html-keyboard-response","108","257545","0.0-1.0-144.0","0","0","60961","","null","","","null","15","","","","","","","","","","","","","","","NaN",""
"","S1","","html-keyboard-response","109","257797","0.0-1.0-146.0","0","0","60961","","null","","","null","16","","","","","","","","","","","","","","","",""
"","ISI","","html-keyboard-response","110","257948","0.0-1.0-147.0","0","0","60961","","null","","","null","16","NaN","","","","","","","","","","","","","","",""
"","S2","","html-keyboard-response","111","258199","0.0-1.0-148.0","0","0","60961","","null","","","null","16","","NaN","","","","","","","","","","","","","",""
"","response","","html-keyboard-response","112","258714","0.0-1.0-149.0-0.0","0","0","60961","","514","","","68","16","","","1","16","training","adjacent","DC","4","3","Q.jpg","P.jpg","0","0","1","",""
"","feedback","","html-keyboard-response","113","259715","0.0-1.0-150.0-0.0","0","0","60961","","null","","","null","16","","","","","","","","","","","","","","","",""
"","ITI","","html-keyboard-response","114","260717","0.0-1.0-153.0","0","0","60961","","null","","","null","16","","","","","","","","","","","","","","","NaN",""
"","S1","","html-keyboard-response","115","260968","0.0-1.0-155.0","0","0","60961","","null","","","null","17","","","","","","","","","","","","","","","",""
"","ISI","","html-keyboard-response","116","261119","0.0-1.0-156.0","0","0","60961","","null","","","null","17","NaN","","","","","","","","","","","","","","",""
"","S2","","html-keyboard-response","117","261370","0.0-1.0-157.0","0","0","60961","","null","","","null","17","","NaN","","","","","","","","","","","","","",""
"","response","","html-keyboard-response","118","261930","0.0-1.0-158.0-0.0","0","0","60961","","558","","","75","17","","","1","17","training","adjacent","FG","6","7","L.jpg","R.jpg","1","1","1","",""
"","feedback","","html-keyboard-response","119","262930","0.0-1.0-159.0-0.0","0","0","60961","","null","","","null","17","","","","","","","","","","","","","","","",""
"","ITI","","html-keyboard-response","120","263932","0.0-1.0-162.0","0","0","60961","","null","","","null","17","","","","","","","","","","","","","","","NaN",""
"","S1","","html-keyboard-response","121","264183","0.0-1.0-164.0","0","0","60961","","null","","","null","18","","","","","","","","","","","","","","","",""
"","ISI","","html-keyboard-response","122","264335","0.0-1.0-165.0","0","0","60961","","null","","","null","18","NaN","","","","","","","","","","","","","","",""
"","S2","","html-keyboard-response","123","264587","0.0-1.0-166.0","0","0","60961","","null","","","null","18","","NaN","","","","","","","","","","","","","",""
"","response","","html-keyboard-response","124","265390","0.0-1.0-167.0-0.0","0","0","60961","","802","","","68","18","","","1","18","training","adjacent","DE","4","5","Q.jpg","M.jpg","0","1","0","",""
"","feedback","","html-keyboard-response","125","266391","0.0-1.0-168.0-0.0","0","0","60961","","null","","","null","18","","","","","","","","","","","","","","","",""
"","time_out","","html-keyboard-response","126","268392","0.0-1.0-170.0-0.0","0","0","60961","","null","","","null","18","","","","","","","","","","","","","","","",""
"","ITI","","html-keyboard-response","127","269394","0.0-1.0-171.0","0","0","60961","","null","","","null","18","","","","","","","","","","","","","","","NaN",""
"","S1","","html-keyboard-response","128","269646","0.0-1.0-173.0","0","0","60961","","null","","","null","19","","","","","","","","","","","","","","","",""
"","ISI","","html-keyboard-response","129","269797","0.0-1.0-174.0","0","0","60961","","null","","","null","19","NaN","","","","","","","","","","","","","","",""
"","S2","","html-keyboard-response","130","270048","0.0-1.0-175.0","0","0","60961","","null","","","null","19","","NaN","","","","","","","","","","","","","",""
"","response","","html-keyboard-response","131","270485","0.0-1.0-176.0-0.0","0","0","60961","","437","","","75","19","","","1","19","training","adjacent","CD","3","4","P.jpg","Q.jpg","1","1","1","",""
"","feedback","","html-keyboard-response","132","271487","0.0-1.0-177.0-0.0","0","0","60961","","null","","","null","19","","","","","","","","","","","","","","","",""
"","ITI","","html-keyboard-response","133","272488","0.0-1.0-180.0","0","0","60961","","null","","","null","19","","","","","","","","","","","","","","","NaN",""
"","S1","","html-keyboard-response","134","272739","0.0-1.0-182.0","0","0","60961","","null","","","null","20","","","","","","","","","","","","","","","",""
"","ISI","","html-keyboard-response","135","272891","0.0-1.0-183.0","0","0","60961","","null","","","null","20","NaN","","","","","","","","","","","","","","",""
"","S2","","html-keyboard-response","136","273143","0.0-1.0-184.0","0","0","60961","","null","","","null","20","","NaN","","","","","","","","","","","","","",""
"","response","","html-keyboard-response","137","273685","0.0-1.0-185.0-0.0","0","0","60961","","542","","","68","20","","","1","20","training","adjacent","DC","4","3","Q.jpg","P.jpg","0","0","1","",""
"","feedback","","html-keyboard-response","138","274686","0.0-1.0-186.0-0.0","0","0","60961","","null","","","null","20","","","","","","","","","","","","","","","",""
"","ITI","","html-keyboard-response","139","275689","0.0-1.0-189.0","0","0","60961","","null","","","null","20","","","","","","","","","","","","","","","NaN",""
"","S1","","html-keyboard-response","140","275941","0.0-1.0-191.0","0","0","60961","","null","","","null","21","","","","","","","","","","","","","","","",""
"","ISI","","html-keyboard-response","141","276092","0.0-1.0-192.0","0","0","60961","","null","","","null","21","NaN","","","","","","","","","","","","","","",""
"","S2","","html-keyboard-response","142","276344","0.0-1.0-193.0","0","0","60961","","null","","","null","21","","NaN","","","","","","","","","","","","","",""
"","response","","html-keyboard-response","143","276977","0.0-1.0-194.0-0.0","0","0","60961","","633","","","68","21","","","1","21","training","adjacent","DE","4","5","Q.jpg","M.jpg","0","1","0","",""
"","feedback","","html-keyboard-response","144","277980","0.0-1.0-195.0-0.0","0","0","60961","","null","","","null","21","","","","","","","","","","","","","","","",""
"","time_out","","html-keyboard-response","145","279981","0.0-1.0-197.0-0.0","0","0","60961","","null","","","null","21","","","","","","","","","","","","","","","",""
"","ITI","","html-keyboard-response","146","280983","0.0-1.0-198.0","0","0","60961","","null","","","null","21","","","","","","","","","","","","","","","NaN",""
"","S1","","html-keyboard-response","147","281235","0.0-1.0-200.0","0","0","60961","","null","","","null","22","","","","","","","","","","","","","","","",""
"","ISI","","html-keyboard-response","148","281386","0.0-1.0-201.0","0","0","60961","","null","","","null","22","NaN","","","","","","","","","","","","","","",""
"","S2","","html-keyboard-response","149","281638","0.0-1.0-202.0","0","0","60961","","null","","","null","22","","NaN","","","","","","","","","","","","","",""
"","response","","html-keyboard-response","150","281940","0.0-1.0-203.0-0.0","0","0","60961","","301","","","75","22","","","1","22","training","adjacent","ED","5","4","M.jpg","Q.jpg","1","0","0","",""
"","feedback","","html-keyboard-response","151","282943","0.0-1.0-204.0-0.0","0","0","60961","","null","","","null","22","","","","","","","","","","","","","","","",""
"","time_out","","html-keyboard-response","152","284945","0.0-1.0-206.0-0.0","0","0","60961","","null","","","null","22","","","","","","","","","","","","","","","",""
"","ITI","","html-keyboard-response","153","285946","0.0-1.0-207.0","0","0","60961","","null","","","null","22","","","","","","","","","","","","","","","NaN",""
"","S1","","html-keyboard-response","154","286198","0.0-1.0-209.0","0","0","60961","","null","","","null","23","","","","","","","","","","","","","","","",""
"","ISI","","html-keyboard-response","155","286349","0.0-1.0-210.0","0","0","60961","","null","","","null","23","NaN","","","","","","","","","","","","","","",""
"","S2","","html-keyboard-response","156","286601","0.0-1.0-211.0","0","0","60961","","null","","","null","23","","NaN","","","","","","","","","","","","","",""
"","response","","html-keyboard-response","157","286956","0.0-1.0-212.0-0.0","0","0","60961","","355","","","75","23","","","1","23","training","adjacent","BA","2","1","O.jpg","N.jpg","1","0","0","",""
"","feedback","","html-keyboard-response","158","287958","0.0-1.0-213.0-0.0","0","0","60961","","null","","","null","23","","","","","","","","","","","","","","","",""
"","time_out","","html-keyboard-response","159","289960","0.0-1.0-215.0-0.0","0","0","60961","","null","","","null","23","","","","","","","","","","","","","","","",""
"","ITI","","html-keyboard-response","160","290961","0.0-1.0-216.0","0","0","60961","","null","","","null","23","","","","","","","","","","","","","","","NaN",""
"","S1","","html-keyboard-response","161","291212","0.0-1.0-218.0","0","0","60961","","null","","","null","24","","","","","","","","","","","","","","","",""
"","ISI","","html-keyboard-response","162","291363","0.0-1.0-219.0","0","0","60961","","null","","","null","24","NaN","","","","","","","","","","","","","","",""
"","S2","","html-keyboard-response","163","291614","0.0-1.0-220.0","0","0","60961","","null","","","null","24","","NaN","","","","","","","","","","","","","",""
"","response","","html-keyboard-response","164","292304","0.0-1.0-221.0-0.0","0","0","60961","","690","","","75","24","","","1","24","training","adjacent","BA","2","1","O.jpg","N.jpg","1","0","0","",""
"","feedback","","html-keyboard-response","165","293306","0.0-1.0-222.0-0.0","0","0","60961","","null","","","null","24","","","","","","","","","","","","","","","",""
"","time_out","","html-keyboard-response","166","295307","0.0-1.0-224.0-0.0","0","0","60961","","null","","","null","24","","","","","","","","","","","","","","","",""
"","ITI","","html-keyboard-response","167","296309","0.0-1.0-225.0","0","0","60961","","null","","","null","24","","","","","","","","","","","","","","","NaN",""
"","S1","","html-keyboard-response","168","296560","0.0-1.0-227.0","0","0","60961","","null","","","null","25","","","","","","","","","","","","","","","",""
"","ISI","","html-keyboard-response","169","296716","0.0-1.0-228.0","0","0","60961","","null","","","null","25","NaN","","","","","","","","","","","","","","",""
"","S2","","html-keyboard-response","170","296968","0.0-1.0-229.0","0","0","60961","","null","","","null","25","","NaN","","","","","","","","","","","","","",""
"","response","","html-keyboard-response","171","297440","0.0-1.0-230.0-0.0","0","0","60961","","472","","","75","25","","","1","25","training","adjacent","BC","2","3","O.jpg","P.jpg","1","1","1","",""
"","feedback","","html-keyboard-response","172","298442","0.0-1.0-231.0-0.0","0","0","60961","","null","","","null","25","","","","","","","","","","","","","","","",""
"","ITI","","html-keyboard-response","173","299443","0.0-1.0-234.0","0","0","60961","","null","","","null","25","","","","","","","","","","","","","","","NaN",""
"","S1","","html-keyboard-response","174","299695","0.0-1.0-236.0","0","0","60961","","null","","","null","26","","","","","","","","","","","","","","","",""
"","ISI","","html-keyboard-response","175","299846","0.0-1.0-237.0","0","0","60961","","null","","","null","26","NaN","","","","","","","","","","","","","","",""
"","S2","","html-keyboard-response","176","300097","0.0-1.0-238.0","0","0","60961","","null","","","null","26","","NaN","","","","","","","","","","","","","",""
"","response","","html-keyboard-response","177","300856","0.0-1.0-239.0-0.0","0","0","60961","","758","","","75","26","","","1","26","training","adjacent","FG","6","7","L.jpg","R.jpg","1","1","1","",""
"","feedback","","html-keyboard-response","178","301858","0.0-1.0-240.0-0.0","0","0","60961","","null","","","null","26","","","","","","","","","","","","","","","",""
"","ITI","","html-keyboard-response","179","302859","0.0-1.0-243.0","0","0","60961","","null","","","null","26","","","","","","","","","","","","","","","NaN",""
"","S1","","html-keyboard-response","180","303123","0.0-1.0-245.0","0","0","60961","","null","","","null","27","","","","","","","","","","","","","","","",""
"","ISI","","html-keyboard-response","181","303274","0.0-1.0-246.0","0","0","60961","","null","","","null","27","NaN","","","","","","","","","","","","","","",""
"","S2","","html-keyboard-response","182","303525","0.0-1.0-247.0","0","0","60961","","null","","","null","27","","NaN","","","","","","","","","","","","","",""
"","response","","html-keyboard-response","183","304148","0.0-1.0-248.0-0.0","0","0","60961","","623","","","75","27","","","1","27","training","adjacent","ED","5","4","M.jpg","Q.jpg","1","0","0","",""
"","feedback","","html-keyboard-response","184","305150","0.0-1.0-249.0-0.0","0","0","60961","","null","","","null","27","","","","","","","","","","","","","","","",""
"","time_out","","html-keyboard-response","185","307151","0.0-1.0-251.0-0.0","0","0","60961","","null","","","null","27","","","","","","","","","","","","","","","",""
"","ITI","","html-keyboard-response","186","308152","0.0-1.0-252.0","0","0","60961","","null","","","null","27","","","","","","","","","","","","","","","NaN",""
"","S1","","html-keyboard-response","187","308403","0.0-1.0-254.0","0","0","60961","","null","","","null","28","","","","","","","","","","","","","","","",""
"","ISI","","html-keyboard-response","188","308555","0.0-1.0-255.0","0","0","60961","","null","","","null","28","NaN","","","","","","","","","","","","","","",""
"","S2","","html-keyboard-response","189","308806","0.0-1.0-256.0","0","0","60961","","null","","","null","28","","NaN","","","","","","","","","","","","","",""
"","response","","html-keyboard-response","190","309320","0.0-1.0-257.0-0.0","0","0","60961","","514","","","68","28","","","1","28","training","adjacent","AB","1","2","N.jpg","O.jpg","0","1","0","",""
"","feedback","","html-keyboard-response","191","310323","0.0-1.0-258.0-0.0","0","0","60961","","null","","","null","28","","","","","","","","","","","","","","","",""
"","time_out","","html-keyboard-response","192","312325","0.0-1.0-260.0-0.0","0","0","60961","","null","","","null","28","","","","","","","","","","","","","","","",""
"","ITI","","html-keyboard-response","193","313326","0.0-1.0-261.0","0","0","60961","","null","","","null","28","","","","","","","","","","","","","","","NaN",""
"","S1","","html-keyboard-response","194","313577","0.0-1.0-263.0","0","0","60961","","null","","","null","29","","","","","","","","","","","","","","","",""
"","ISI","","html-keyboard-response","195","313728","0.0-1.0-264.0","0","0","60961","","null","","","null","29","NaN","","","","","","","","","","","","","","",""
"","S2","","html-keyboard-response","196","313979","0.0-1.0-265.0","0","0","60961","","null","","","null","29","","NaN","","","","","","","","","","","","","",""
"","response","","html-keyboard-response","197","314524","0.0-1.0-266.0-0.0","0","0","60961","","545","","","68","29","","","1","29","training","adjacent","AB","1","2","N.jpg","O.jpg","0","1","0","",""
"","feedback","","html-keyboard-response","198","315526","0.0-1.0-267.0-0.0","0","0","60961","","null","","","null","29","","","","","","","","","","","","","","","",""
"","time_out","","html-keyboard-response","199","317527","0.0-1.0-269.0-0.0","0","0","60961","","null","","","null","29","","","","","","","","","","","","","","","",""
"","ITI","","html-keyboard-response","200","318529","0.0-1.0-270.0","0","0","60961","","null","","","null","29","","","","","","","","","","","","","","","NaN",""
"","S1","","html-keyboard-response","201","318780","0.0-1.0-272.0","0","0","60961","","null","","","null","30","","","","","","","","","","","","","","","",""
"","ISI","","html-keyboard-response","202","318931","0.0-1.0-273.0","0","0","60961","","null","","","null","30","NaN","","","","","","","","","","","","","","",""
"","S2","","html-keyboard-response","203","319183","0.0-1.0-274.0","0","0","60961","","null","","","null","30","","NaN","","","","","","","","","","","","","",""
"","response","","html-keyboard-response","204","319987","0.0-1.0-275.0-0.0","0","0","60961","","803","","","68","30","","","1","30","training","adjacent","GF","7","6","R.jpg","L.jpg","0","0","1","",""
"","feedback","","html-keyboard-response","205","320988","0.0-1.0-276.0-0.0","0","0","60961","","null","","","null","30","","","","","","","","","","","","","","","",""
"","ITI","","html-keyboard-response","206","321989","0.0-1.0-279.0","0","0","60961","","null","","","null","30","","","","","","","","","","","","","","","NaN",""
"","S1","","html-keyboard-response","207","322241","0.0-1.0-281.0","0","0","60961","","null","","","null","31","","","","","","","","","","","","","","","",""
"","ISI","","html-keyboard-response","208","322393","0.0-1.0-282.0","0","0","60961","","null","","","null","31","NaN","","","","","","","","","","","","","","",""
"","S2","","html-keyboard-response","209","322645","0.0-1.0-283.0","0","0","60961","","null","","","null","31","","NaN","","","","","","","","","","","","","",""
"","response","","html-keyboard-response","210","323043","0.0-1.0-284.0-0.0","0","0","60961","","397","","","75","31","","","1","31","training","adjacent","BC","2","3","O.jpg","P.jpg","1","1","1","",""
"","feedback","","html-keyboard-response","211","324045","0.0-1.0-285.0-0.0","0","0","60961","","null","","","null","31","","","","","","","","","","","","","","","",""
"","ITI","","html-keyboard-response","212","325047","0.0-1.0-288.0","0","0","60961","","null","","","null","31","","","","","","","","","","","","","","","NaN",""
"","S1","","html-keyboard-response","213","325298","0.0-1.0-290.0","0","0","60961","","null","","","null","32","","","","","","","","","","","","","","","",""
"","ISI","","html-keyboard-response","214","325449","0.0-1.0-291.0","0","0","60961","","null","","","null","32","NaN","","","","","","","","","","","","","","",""
"","S2","","html-keyboard-response","215","325701","0.0-1.0-292.0","0","0","60961","","null","","","null","32","","NaN","","","","","","","","","","","","","",""
"","response","","html-keyboard-response","216","326151","0.0-1.0-293.0-0.0","0","0","60961","","449","","","68","32","","","1","32","training","adjacent","DE","4","5","Q.jpg","M.jpg","0","1","0","",""
"","feedback","","html-keyboard-response","217","327153","0.0-1.0-294.0-0.0","0","0","60961","","null","","","null","32","","","","","","","","","","","","","","","",""
"","time_out","","html-keyboard-response","218","329155","0.0-1.0-296.0-0.0","0","0","60961","","null","","","null","32","","","","","","","","","","","","","","","",""
"","ITI","","html-keyboard-response","219","330156","0.0-1.0-297.0","0","0","60961","","null","","","null","32","","","","","","","","","","","","","","","NaN",""
"","S1","","html-keyboard-response","220","330407","0.0-1.0-299.0","0","0","60961","","null","","","null","33","","","","","","","","","","","","","","","",""
"","ISI","","html-keyboard-response","221","330558","0.0-1.0-300.0","0","0","60961","","null","","","null","33","NaN","","","","","","","","","","","","","","",""
"","S2","","html-keyboard-response","222","330810","0.0-1.0-301.0","0","0","60961","","null","","","null","33","","NaN","","","","","","","","","","","","","",""
"","response","","html-keyboard-response","223","331175","0.0-1.0-302.0-0.0","0","0","60961","","364","","","68","33","","","1","33","training","adjacent","CB","3","2","P.jpg","O.jpg","0","0","1","",""
"","feedback","","html-keyboard-response","224","332176","0.0-1.0-303.0-0.0","0","0","60961","","null","","","null","33","","","","","","","","","","","","","","","",""
"","ITI","","html-keyboard-response","225","333177","0.0-1.0-306.0","0","0","60961","","null","","","null","33","","","","","","","","","","","","","","","NaN",""
"","S1","","html-keyboard-response","226","333429","0.0-1.0-308.0","0","0","60961","","null","","","null","34","","","","","","","","","","","","","","","",""
"","ISI","","html-keyboard-response","227","333580","0.0-1.0-309.0","0","0","60961","","null","","","null","34","NaN","","","","","","","","","","","","","","",""
"","S2","","html-keyboard-response","228","333831","0.0-1.0-310.0","0","0","60961","","null","","","null","34","","NaN","","","","","","","","","","","","","",""
"","response","","html-keyboard-response","229","334471","0.0-1.0-311.0-0.0","0","0","60961","","639","","","68","34","","","1","34","training","adjacent","CD","3","4","P.jpg","Q.jpg","0","1","0","",""
"","feedback","","html-keyboard-response","230","335473","0.0-1.0-312.0-0.0","0","0","60961","","null","","","null","34","","","","","","","","","","","","","","","",""
"","time_out","","html-keyboard-response","231","337475","0.0-1.0-314.0-0.0","0","0","60961","","null","","","null","34","","","","","","","","","","","","","","","",""
"","ITI","","html-keyboard-response","232","338476","0.0-1.0-315.0","0","0","60961","","null","","","null","34","","","","","","","","","","","","","","","NaN",""
"","S1","","html-keyboard-response","233","338727","0.0-1.0-317.0","0","0","60961","","null","","","null","35","","","","","","","","","","","","","","","",""
"","ISI","","html-keyboard-response","234","338878","0.0-1.0-318.0","0","0","60961","","null","","","null","35","NaN","","","","","","","","","","","","","","",""
"","S2","","html-keyboard-response","235","339130","0.0-1.0-319.0","0","0","60961","","null","","","null","35","","NaN","","","","","","","","","","","","","",""
"","response","","html-keyboard-response","236","339839","0.0-1.0-320.0-0.0","0","0","60961","","708","","","68","35","","","1","35","training","adjacent","CB","3","2","P.jpg","O.jpg","0","0","1","",""
"","feedback","","html-keyboard-response","237","340840","0.0-1.0-321.0-0.0","0","0","60961","","null","","","null","35","","","","","","","","","","","","","","","",""
"","ITI","","html-keyboard-response","238","341842","0.0-1.0-324.0","0","0","60961","","null","","","null","35","","","","","","","","","","","","","","","NaN",""
"","S1","","html-keyboard-response","239","342093","0.0-1.0-326.0","0","0","60961","","null","","","null","36","","","","","","","","","","","","","","","",""
"","ISI","","html-keyboard-response","240","342244","0.0-1.0-327.0","0","0","60961","","null","","","null","36","NaN","","","","","","","","","","","","","","",""
"","S2","","html-keyboard-response","241","342496","0.0-1.0-328.0","0","0","60961","","null","","","null","36","","NaN","","","","","","","","","","","","","",""
"","response","","html-keyboard-response","242","342763","0.0-1.0-329.0-0.0","0","0","60961","","266","","","75","36","","","1","36","training","adjacent","FG","6","7","L.jpg","R.jpg","1","1","1","",""
"","feedback","","html-keyboard-response","243","343765","0.0-1.0-330.0-0.0","0","0","60961","","null","","","null","36","","","","","","","","","","","","","","","",""
"","ITI","","html-keyboard-response","244","344767","0.0-1.0-333.0","0","0","60961","","null","","","null","36","","","","","","","","","","","","","","","NaN",""
"","S1","","html-keyboard-response","245","345019","0.0-1.0-335.0","0","0","60961","","null","","","null","37","","","","","","","","","","","","","","","",""
"","ISI","","html-keyboard-response","246","345175","0.0-1.0-336.0","0","0","60961","","null","","","null","37","NaN","","","","","","","","","","","","","","",""
"","S2","","html-keyboard-response","247","345427","0.0-1.0-337.0","0","0","60961","","null","","","null","37","","NaN","","","","","","","","","","","","","",""
"","response","","html-keyboard-response","248","345795","0.0-1.0-338.0-0.0","0","0","60961","","367","","","68","37","","","1","37","training","adjacent","BC","2","3","O.jpg","P.jpg","0","1","0","",""
"","feedback","","html-keyboard-response","249","346796","0.0-1.0-339.0-0.0","0","0","60961","","null","","","null","37","","","","","","","","","","","","","","","",""
"","time_out","","html-keyboard-response","250","348797","0.0-1.0-341.0-0.0","0","0","60961","","null","","","null","37","","","","","","","","","","","","","","","",""
"","ITI","","html-keyboard-response","251","349798","0.0-1.0-342.0","0","0","60961","","null","","","null","37","","","","","","","","","","","","","","","NaN",""
"","S1","","html-keyboard-response","252","350050","0.0-1.0-344.0","0","0","60961","","null","","","null","38","","","","","","","","","","","","","","","",""
"","ISI","","html-keyboard-response","253","350213","0.0-1.0-345.0","0","0","60961","","null","","","null","38","NaN","","","","","","","","","","","","","","",""
"","S2","","html-keyboard-response","254","350464","0.0-1.0-346.0","0","0","60961","","null","","","null","38","","NaN","","","","","","","","","","","","","",""
"","response","","html-keyboard-response","255","351550","0.0-1.0-347.0-0.0","0","0","60961","","1084","","","68","38","","","1","38","training","adjacent","CD","3","4","P.jpg","Q.jpg","0","1","0","",""
"","feedback","","html-keyboard-response","256","352552","0.0-1.0-348.0-0.0","0","0","60961","","null","","","null","38","","","","","","","","","","","","","","","",""
"","time_out","","html-keyboard-response","257","354553","0.0-1.0-350.0-0.0","0","0","60961","","null","","","null","38","","","","","","","","","","","","","","","",""
"","ITI","","html-keyboard-response","258","355554","0.0-1.0-351.0","0","0","60961","","null","","","null","38","","","","","","","","","","","","","","","NaN",""
"","S1","","html-keyboard-response","259","355806","0.0-1.0-353.0","0","0","60961","","null","","","null","39","","","","","","","","","","","","","","","",""
"","ISI","","html-keyboard-response","260","355957","0.0-1.0-354.0","0","0","60961","","null","","","null","39","NaN","","","","","","","","","","","","","","",""
"","S2","","html-keyboard-response","261","356208","0.0-1.0-355.0","0","0","60961","","null","","","null","39","","NaN","","","","","","","","","","","","","",""
"","response","","html-keyboard-response","262","356878","0.0-1.0-356.0-0.0","0","0","60961","","669","","","68","39","","","1","39","training","adjacent","BA","2","1","O.jpg","N.jpg","0","0","1","",""
"","feedback","","html-keyboard-response","263","357880","0.0-1.0-357.0-0.0","0","0","60961","","null","","","null","39","","","","","","","","","","","","","","","",""
"","ITI","","html-keyboard-response","264","358881","0.0-1.0-360.0","0","0","60961","","null","","","null","39","","","","","","","","","","","","","","","NaN",""
"","S1","","html-keyboard-response","265","359133","0.0-1.0-362.0","0","0","60961","","null","","","null","40","","","","","","","","","","","","","","","",""
"","ISI","","html-keyboard-response","266","359284","0.0-1.0-363.0","0","0","60961","","null","","","null","40","NaN","","","","","","","","","","","","","","",""
"","S2","","html-keyboard-response","267","359537","0.0-1.0-364.0","0","0","60961","","null","","","null","40","","NaN","","","","","","","","","","","","","",""
"","response","","html-keyboard-response","268","360298","0.0-1.0-365.0-0.0","0","0","60961","","760","","","68","40","","","1","40","training","adjacent","EF","5","6","M.jpg","L.jpg","0","1","0","",""
"","feedback","","html-keyboard-response","269","361299","0.0-1.0-366.0-0.0","0","0","60961","","null","","","null","40","","","","","","","","","","","","","","","",""
"","time_out","","html-keyboard-response","270","363300","0.0-1.0-368.0-0.0","0","0","60961","","null","","","null","40","","","","","","","","","","","","","","","",""
"","ITI","","html-keyboard-response","271","364302","0.0-1.0-369.0","0","0","60961","","null","","","null","40","","","","","","","","","","","","","","","NaN",""
"","S1","","html-keyboard-response","272","364554","0.0-1.0-371.0","0","0","60961","","null","","","null","41","","","","","","","","","","","","","","","",""
"","ISI","","html-keyboard-response","273","364706","0.0-1.0-372.0","0","0","60961","","null","","","null","41","NaN","","","","","","","","","","","","","","",""
"","S2","","html-keyboard-response","274","364957","0.0-1.0-373.0","0","0","60961","","null","","","null","41","","NaN","","","","","","","","","","","","","",""
"","response","","html-keyboard-response","275","365506","0.0-1.0-374.0-0.0","0","0","60961","","548","","","68","41","","","1","41","training","adjacent","GF","7","6","R.jpg","L.jpg","0","0","1","",""
"","feedback","","html-keyboard-response","276","366508","0.0-1.0-375.0-0.0","0","0","60961","","null","","","null","41","","","","","","","","","","","","","","","",""
"","ITI","","html-keyboard-response","277","367509","0.0-1.0-378.0","0","0","60961","","null","","","null","41","","","","","","","","","","","","","","","NaN",""
"","S1","","html-keyboard-response","278","367760","0.0-1.0-380.0","0","0","60961","","null","","","null","42","","","","","","","","","","","","","","","",""
"","ISI","","html-keyboard-response","279","367911","0.0-1.0-381.0","0","0","60961","","null","","","null","42","NaN","","","","","","","","","","","","","","",""
"","S2","","html-keyboard-response","280","368162","0.0-1.0-382.0","0","0","60961","","null","","","null","42","","NaN","","","","","","","","","","","","","",""
"","response","","html-keyboard-response","281","369142","0.0-1.0-383.0-0.0","0","0","60961","","978","","","68","42","","","1","42","training","adjacent","CB","3","2","P.jpg","O.jpg","0","0","1","",""
"","feedback","","html-keyboard-response","282","370143","0.0-1.0-384.0-0.0","0","0","60961","","null","","","null","42","","","","","","","","","","","","","","","",""
"","ITI","","html-keyboard-response","283","371145","0.0-1.0-387.0","0","0","60961","","null","","","null","42","","","","","","","","","","","","","","","NaN",""
"","S1","","html-keyboard-response","284","371396","0.0-1.0-389.0","0","0","60961","","null","","","null","43","","","","","","","","","","","","","","","",""
"","ISI","","html-keyboard-response","285","371548","0.0-1.0-390.0","0","0","60961","","null","","","null","43","NaN","","","","","","","","","","","","","","",""
"","S2","","html-keyboard-response","286","371800","0.0-1.0-391.0","0","0","60961","","null","","","null","43","","NaN","","","","","","","","","","","","","",""
"","response","","html-keyboard-response","287","372586","0.0-1.0-392.0-0.0","0","0","60961","","785","","","75","43","","","1","43","training","adjacent","DE","4","5","Q.jpg","M.jpg","1","1","1","",""
"","feedback","","html-keyboard-response","288","373587","0.0-1.0-393.0-0.0","0","0","60961","","null","","","null","43","","","","","","","","","","","","","","","",""
"","ITI","","html-keyboard-response","289","374588","0.0-1.0-396.0","0","0","60961","","null","","","null","43","","","","","","","","","","","","","","","NaN",""
"","S1","","html-keyboard-response","290","374839","0.0-1.0-398.0","0","0","60961","","null","","","null","44","","","","","","","","","","","","","","","",""
"","ISI","","html-keyboard-response","291","374990","0.0-1.0-399.0","0","0","60961","","null","","","null","44","NaN","","","","","","","","","","","","","","",""
"","S2","","html-keyboard-response","292","375242","0.0-1.0-400.0","0","0","60961","","null","","","null","44","","NaN","","","","","","","","","","","","","",""
"","response","","html-keyboard-response","293","376078","0.0-1.0-401.0-0.0","0","0","60961","","835","","","68","44","","","1","44","training","adjacent","DC","4","3","Q.jpg","P.jpg","0","0","1","",""
"","feedback","","html-keyboard-response","294","377079","0.0-1.0-402.0-0.0","0","0","60961","","null","","","null","44","","","","","","","","","","","","","","","",""
"","ITI","","html-keyboard-response","295","378081","0.0-1.0-405.0","0","0","60961","","null","","","null","44","","","","","","","","","","","","","","","NaN",""
"","S1","","html-keyboard-response","296","378333","0.0-1.0-407.0","0","0","60961","","null","","","null","45","","","","","","","","","","","","","","","",""
"","ISI","","html-keyboard-response","297","378484","0.0-1.0-408.0","0","0","60961","","null","","","null","45","NaN","","","","","","","","","","","","","","",""
"","S2","","html-keyboard-response","298","378736","0.0-1.0-409.0","0","0","60961","","null","","","null","45","","NaN","","","","","","","","","","","","","",""
"","response","","html-keyboard-response","299","379705","0.0-1.0-410.0-0.0","0","0","60961","","968","","","75","45","","","1","45","training","adjacent","DC","4","3","Q.jpg","P.jpg","1","0","0","",""
"","feedback","","html-keyboard-response","300","380707","0.0-1.0-411.0-0.0","0","0","60961","","null","","","null","45","","","","","","","","","","","","","","","",""
"","time_out","","html-keyboard-response","301","382708","0.0-1.0-413.0-0.0","0","0","60961","","null","","","null","45","","","","","","","","","","","","","","","",""
"","ITI","","html-keyboard-response","302","383709","0.0-1.0-414.0","0","0","60961","","null","","","null","45","","","","","","","","","","","","","","","NaN",""
"","S1","","html-keyboard-response","303","383962","0.0-1.0-416.0","0","0","60961","","null","","","null","46","","","","","","","","","","","","","","","",""
"","ISI","","html-keyboard-response","304","384113","0.0-1.0-417.0","0","0","60961","","null","","","null","46","NaN","","","","","","","","","","","","","","",""
"","S2","","html-keyboard-response","305","384364","0.0-1.0-418.0","0","0","60961","","null","","","null","46","","NaN","","","","","","","","","","","","","",""
"","response","","html-keyboard-response","306","384988","0.0-1.0-419.0-0.0","0","0","60961","","623","","","75","46","","","1","46","training","adjacent","ED","5","4","M.jpg","Q.jpg","1","0","0","",""
"","feedback","","html-keyboard-response","307","385990","0.0-1.0-420.0-0.0","0","0","60961","","null","","","null","46","","","","","","","","","","","","","","","",""
"","time_out","","html-keyboard-response","308","387992","0.0-1.0-422.0-0.0","0","0","60961","","null","","","null","46","","","","","","","","","","","","","","","",""
"","ITI","","html-keyboard-response","309","388993","0.0-1.0-423.0","0","0","60961","","null","","","null","46","","","","","","","","","","","","","","","NaN",""
"","S1","","html-keyboard-response","310","389244","0.0-1.0-425.0","0","0","60961","","null","","","null","47","","","","","","","","","","","","","","","",""
"","ISI","","html-keyboard-response","311","389395","0.0-1.0-426.0","0","0","60961","","null","","","null","47","NaN","","","","","","","","","","","","","","",""
"","S2","","html-keyboard-response","312","389647","0.0-1.0-427.0","0","0","60961","","null","","","null","47","","NaN","","","","","","","","","","","","","",""
"","response","","html-keyboard-response","313","390168","0.0-1.0-428.0-0.0","0","0","60961","","521","","","68","47","","","1","47","training","adjacent","GF","7","6","R.jpg","L.jpg","0","0","1","",""
"","feedback","","html-keyboard-response","314","391170","0.0-1.0-429.0-0.0","0","0","60961","","null","","","null","47","","","","","","","","","","","","","","","",""
"","ITI","","html-keyboard-response","315","392172","0.0-1.0-432.0","0","0","60961","","null","","","null","47","","","","","","","","","","","","","","","NaN",""
"","block_over","","html-keyboard-response","316","396897","0.0-1.0-433.0-0.0","0","0","60961","","4724","","","32","47","","","","","","","","","","","","","","","",""
"","S1","","html-keyboard-response","317","397148","0.0-1.0-434.0","0","0","60961","","null","","","null","48","","","","","","","","","","","","","","","",""
"","ISI","","html-keyboard-response","318","397299","0.0-1.0-435.0","0","0","60961","","null","","","null","48","NaN","","","","","","","","","","","","","","",""
"","S2","","html-keyboard-response","319","397551","0.0-1.0-436.0","0","0","60961","","null","","","null","48","","NaN","","","","","","","","","","","","","",""
"","response","","html-keyboard-response","320","398092","0.0-1.0-437.0-0.0","0","0","60961","","541","","","68","48","","","2","48","training","adjacent","EF","5","6","M.jpg","L.jpg","0","1","0","",""
"","feedback","","html-keyboard-response","321","399094","0.0-1.0-438.0-0.0","0","0","60961","","null","","","null","48","","","","","","","","","","","","","","","",""
"","time_out","","html-keyboard-response","322","401095","0.0-1.0-440.0-0.0","0","0","60961","","null","","","null","48","","","","","","","","","","","","","","","",""
"","ITI","","html-keyboard-response","323","402097","0.0-1.0-441.0","0","0","60961","","null","","","null","48","","","","","","","","","","","","","","","NaN",""
"","S1","","html-keyboard-response","324","402348","0.0-1.0-443.0","0","0","60961","","null","","","null","49","","","","","","","","","","","","","","","",""
"","ISI","","html-keyboard-response","325","402499","0.0-1.0-444.0","0","0","60961","","null","","","null","49","NaN","","","","","","","","","","","","","","",""
"","S2","","html-keyboard-response","326","402751","0.0-1.0-445.0","0","0","60961","","null","","","null","49","","NaN","","","","","","","","","","","","","",""
"","response","","html-keyboard-response","327","403460","0.0-1.0-446.0-0.0","0","0","60961","","709","","","75","49","","","2","49","training","adjacent","BC","2","3","O.jpg","P.jpg","1","1","1","",""
"","feedback","","html-keyboard-response","328","404462","0.0-1.0-447.0-0.0","0","0","60961","","null","","","null","49","","","","","","","","","","","","","","","",""
"","ITI","","html-keyboard-response","329","405478","0.0-1.0-450.0","0","0","60961","","null","","","null","49","","","","","","","","","","","","","","","NaN",""
"","S1","","html-keyboard-response","330","405730","0.0-1.0-452.0","0","0","60961","","null","","","null","50","","","","","","","","","","","","","","","",""
"","ISI","","html-keyboard-response","331","405881","0.0-1.0-453.0","0","0","60961","","null","","","null","50","NaN","","","","","","","","","","","","","","",""
"","S2","","html-keyboard-response","332","406133","0.0-1.0-454.0","0","0","60961","","null","","","null","50","","NaN","","","","","","","","","","","","","",""
"","response","","html-keyboard-response","333","406668","0.0-1.0-455.0-0.0","0","0","60961","","535","","","68","50","","","2","50","training","adjacent","BA","2","1","O.jpg","N.jpg","0","0","1","",""
"","feedback","","html-keyboard-response","334","407670","0.0-1.0-456.0-0.0","0","0","60961","","null","","","null","50","","","","","","","","","","","","","","","",""
"","ITI","","html-keyboard-response","335","408672","0.0-1.0-459.0","0","0","60961","","null","","","null","50","","","","","","","","","","","","","","","NaN",""
"","S1","","html-keyboard-response","336","408923","0.0-1.0-461.0","0","0","60961","","null","","","null","51","","","","","","","","","","","","","","","",""
"","ISI","","html-keyboard-response","337","409075","0.0-1.0-462.0","0","0","60961","","null","","","null","51","NaN","","","","","","","","","","","","","","",""
"","S2","","html-keyboard-response","338","409326","0.0-1.0-463.0","0","0","60961","","null","","","null","51","","NaN","","","","","","","","","","","","","",""
"","response","","html-keyboard-response","339","409912","0.0-1.0-464.0-0.0","0","0","60961","","586","","","68","51","","","2","51","training","adjacent","FG","6","7","L.jpg","R.jpg","0","1","0","",""
"","feedback","","html-keyboard-response","340","410914","0.0-1.0-465.0-0.0","0","0","60961","","null","","","null","51","","","","","","","","","","","","","","","",""
"","time_out","","html-keyboard-response","341","412916","0.0-1.0-467.0-0.0","0","0","60961","","null","","","null","51","","","","","","","","","","","","","","","",""
"","ITI","","html-keyboard-response","342","413918","0.0-1.0-468.0","0","0","60961","","null","","","null","51","","","","","","","","","","","","","","","NaN",""
"","S1","","html-keyboard-response","343","414169","0.0-1.0-470.0","0","0","60961","","null","","","null","52","","","","","","","","","","","","","","","",""
"","ISI","","html-keyboard-response","344","414321","0.0-1.0-471.0","0","0","60961","","null","","","null","52","NaN","","","","","","","","","","","","","","",""
"","S2","","html-keyboard-response","345","414572","0.0-1.0-472.0","0","0","60961","","null","","","null","52","","NaN","","","","","","","","","","","","","",""
"","response","","html-keyboard-response","346","415647","0.0-1.0-473.0-0.0","0","0","60961","","1075","","","75","52","","","2","52","training","adjacent","DC","4","3","Q.jpg","P.jpg","1","0","0","",""
"","feedback","","html-keyboard-response","347","416649","0.0-1.0-474.0-0.0","0","0","60961","","null","","","null","52","","","","","","","","","","","","","","","",""
"","time_out","","html-keyboard-response","348","418651","0.0-1.0-476.0-0.0","0","0","60961","","null","","","null","52","","","","","","","","","","","","","","","",""
"","ITI","","html-keyboard-response","349","419653","0.0-1.0-477.0","0","0","60961","","null","","","null","52","","","","","","","","","","","","","","","NaN",""
"","S1","","html-keyboard-response","350","419904","0.0-1.0-479.0","0","0","60961","","null","","","null","53","","","","","","","","","","","","","","","",""
"","ISI","","html-keyboard-response","351","420055","0.0-1.0-480.0","0","0","60961","","null","","","null","53","NaN","","","","","","","","","","","","","","",""
"","S2","","html-keyboard-response","352","420307","0.0-1.0-481.0","0","0","60961","","null","","","null","53","","NaN","","","","","","","","","","","","","",""
"","response","","html-keyboard-response","353","421075","0.0-1.0-482.0-0.0","0","0","60961","","768","","","68","53","","","2","53","training","adjacent","AB","1","2","N.jpg","O.jpg","0","1","0","",""
"","feedback","","html-keyboard-response","354","422077","0.0-1.0-483.0-0.0","0","0","60961","","null","","","null","53","","","","","","","","","","","","","","","",""
"","time_out","","html-keyboard-response","355","424079","0.0-1.0-485.0-0.0","0","0","60961","","null","","","null","53","","","","","","","","","","","","","","","",""
"","ITI","","html-keyboard-response","356","425081","0.0-1.0-486.0","0","0","60961","","null","","","null","53","","","","","","","","","","","","","","","NaN",""
"","S1","","html-keyboard-response","357","425332","0.0-1.0-488.0","0","0","60961","","null","","","null","54","","","","","","","","","","","","","","","",""
"","ISI","","html-keyboard-response","358","425484","0.0-1.0-489.0","0","0","60961","","null","","","null","54","NaN","","","","","","","","","","","","","","",""
"","S2","","html-keyboard-response","359","425735","0.0-1.0-490.0","0","0","60961","","null","","","null","54","","NaN","","","","","","","","","","","","","",""
"","response","","html-keyboard-response","360","426479","0.0-1.0-491.0-0.0","0","0","60961","","744","","","75","54","","","2","54","training","adjacent","DC","4","3","Q.jpg","P.jpg","1","0","0","",""
"","feedback","","html-keyboard-response","361","427482","0.0-1.0-492.0-0.0","0","0","60961","","null","","","null","54","","","","","","","","","","","","","","","",""
"","time_out","","html-keyboard-response","362","429484","0.0-1.0-494.0-0.0","0","0","60961","","null","","","null","54","","","","","","","","","","","","","","","",""
"","ITI","","html-keyboard-response","363","430485","0.0-1.0-495.0","0","0","60961","","null","","","null","54","","","","","","","","","","","","","","","NaN",""
"","S1","","html-keyboard-response","364","430737","0.0-1.0-497.0","0","0","60961","","null","","","null","55","","","","","","","","","","","","","","","",""
"","ISI","","html-keyboard-response","365","430889","0.0-1.0-498.0","0","0","60961","","null","","","null","55","NaN","","","","","","","","","","","","","","",""
"","S2","","html-keyboard-response","366","431140","0.0-1.0-499.0","0","0","60961","","null","","","null","55","","NaN","","","","","","","","","","","","","",""
"","response","","html-keyboard-response","367","431779","0.0-1.0-500.0-0.0","0","0","60961","","639","","","68","55","","","2","55","training","adjacent","FE","6","5","L.jpg","M.jpg","0","0","1","",""
"","feedback","","html-keyboard-response","368","432780","0.0-1.0-501.0-0.0","0","0","60961","","null","","","null","55","","","","","","","","","","","","","","","",""
"","ITI","","html-keyboard-response","369","433781","0.0-1.0-504.0","0","0","60961","","null","","","null","55","","","","","","","","","","","","","","","NaN",""
"","S1","","html-keyboard-response","370","434033","0.0-1.0-506.0","0","0","60961","","null","","","null","56","","","","","","","","","","","","","","","",""
"","ISI","","html-keyboard-response","371","434184","0.0-1.0-507.0","0","0","60961","","null","","","null","56","NaN","","","","","","","","","","","","","","",""
"","S2","","html-keyboard-response","372","434436","0.0-1.0-508.0","0","0","60961","","null","","","null","56","","NaN","","","","","","","","","","","","","",""
"","response","","html-keyboard-response","373","434631","0.0-1.0-509.0-0.0","0","0","60961","","194","","","68","56","","","2","56","training","adjacent","FE","6","5","L.jpg","M.jpg","0","0","1","",""
"","feedback","","html-keyboard-response","374","435633","0.0-1.0-510.0-0.0","0","0","60961","","null","","","null","56","","","","","","","","","","","","","","","",""
"","ITI","","html-keyboard-response","375","436634","0.0-1.0-513.0","0","0","60961","","null","","","null","56","","","","","","","","","","","","","","","NaN",""
"","S1","","html-keyboard-response","376","436885","0.0-1.0-515.0","0","0","60961","","null","","","null","57","","","","","","","","","","","","","","","",""
"","ISI","","html-keyboard-response","377","437036","0.0-1.0-516.0","0","0","60961","","null","","","null","57","NaN","","","","","","","","","","","","","","",""
"","S2","","html-keyboard-response","378","437287","0.0-1.0-517.0","0","0","60961","","null","","","null","57","","NaN","","","","","","","","","","","","","",""
"","response","","html-keyboard-response","379","438123","0.0-1.0-518.0-0.0","0","0","60961","","836","","","75","57","","","2","57","training","adjacent","ED","5","4","M.jpg","Q.jpg","1","0","0","",""
"","feedback","","html-keyboard-response","380","439126","0.0-1.0-519.0-0.0","0","0","60961","","null","","","null","57","","","","","","","","","","","","","","","",""
"","time_out","","html-keyboard-response","381","441128","0.0-1.0-521.0-0.0","0","0","60961","","null","","","null","57","","","","","","","","","","","","","","","",""
"","ITI","","html-keyboard-response","382","442129","0.0-1.0-522.0","0","0","60961","","null","","","null","57","","","","","","","","","","","","","","","NaN",""
"","S1","","html-keyboard-response","383","442380","0.0-1.0-524.0","0","0","60961","","null","","","null","58","","","","","","","","","","","","","","","",""
"","ISI","","html-keyboard-response","384","442532","0.0-1.0-525.0","0","0","60961","","null","","","null","58","NaN","","","","","","","","","","","","","","",""
"","S2","","html-keyboard-response","385","442783","0.0-1.0-526.0","0","0","60961","","null","","","null","58","","NaN","","","","","","","","","","","","","",""
"","response","","html-keyboard-response","386","443431","0.0-1.0-527.0-0.0","0","0","60961","","647","","","75","58","","","2","58","training","adjacent","FE","6","5","L.jpg","M.jpg","1","0","0","",""
"","feedback","","html-keyboard-response","387","444432","0.0-1.0-528.0-0.0","0","0","60961","","null","","","null","58","","","","","","","","","","","","","","","",""
"","time_out","","html-keyboard-response","388","446434","0.0-1.0-530.0-0.0","0","0","60961","","null","","","null","58","","","","","","","","","","","","","","","",""
"","ITI","","html-keyboard-response","389","447436","0.0-1.0-531.0","0","0","60961","","null","","","null","58","","","","","","","","","","","","","","","NaN",""
"","S1","","html-keyboard-response","390","447687","0.0-1.0-533.0","0","0","60961","","null","","","null","59","","","","","","","","","","","","","","","",""
"","ISI","","html-keyboard-response","391","447838","0.0-1.0-534.0","0","0","60961","","null","","","null","59","NaN","","","","","","","","","","","","","","",""
"","S2","","html-keyboard-response","392","448090","0.0-1.0-535.0","0","0","60961","","null","","","null","59","","NaN","","","","","","","","","","","","","",""
"","response","","html-keyboard-response","393","448714","0.0-1.0-536.0-0.0","0","0","60961","","624","","","68","59","","","2","59","training","adjacent","BA","2","1","O.jpg","N.jpg","0","0","1","",""
"","feedback","","html-keyboard-response","394","449715","0.0-1.0-537.0-0.0","0","0","60961","","null","","","null","59","","","","","","","","","","","","","","","",""
"","ITI","","html-keyboard-response","395","450717","0.0-1.0-540.0","0","0","60961","","null","","","null","59","","","","","","","","","","","","","","","NaN",""
"","S1","","html-keyboard-response","396","450968","0.0-1.0-542.0","0","0","60961","","null","","","null","60","","","","","","","","","","","","","","","",""
"","ISI","","html-keyboard-response","397","451119","0.0-1.0-543.0","0","0","60961","","null","","","null","60","NaN","","","","","","","","","","","","","","",""
"","S2","","html-keyboard-response","398","451370","0.0-1.0-544.0","0","0","60961","","null","","","null","60","","NaN","","","","","","","","","","","","","",""
"","response","","html-keyboard-response","399","451734","0.0-1.0-545.0-0.0","0","0","60961","","363","","","75","60","","","2","60","training","adjacent","AB","1","2","N.jpg","O.jpg","1","1","1","",""
"","feedback","","html-keyboard-response","400","452736","0.0-1.0-546.0-0.0","0","0","60961","","null","","","null","60","","","","","","","","","","","","","","","",""
"","ITI","","html-keyboard-response","401","453737","0.0-1.0-549.0","0","0","60961","","null","","","null","60","","","","","","","","","","","","","","","NaN",""
"","S1","","html-keyboard-response","402","453989","0.0-1.0-551.0","0","0","60961","","null","","","null","61","","","","","","","","","","","","","","","",""
"","ISI","","html-keyboard-response","403","454140","0.0-1.0-552.0","0","0","60961","","null","","","null","61","NaN","","","","","","","","","","","","","","",""
"","S2","","html-keyboard-response","404","454405","0.0-1.0-553.0","0","0","60961","","null","","","null","61","","NaN","","","","","","","","","","","","","",""
"","response","","html-keyboard-response","405","454950","0.0-1.0-554.0-0.0","0","0","60961","","544","","","68","61","","","2","61","training","adjacent","FG","6","7","L.jpg","R.jpg","0","1","0","",""
"","feedback","","html-keyboard-response","406","455952","0.0-1.0-555.0-0.0","0","0","60961","","null","","","null","61","","","","","","","","","","","","","","","",""
"","time_out","","html-keyboard-response","407","457953","0.0-1.0-557.0-0.0","0","0","60961","","null","","","null","61","","","","","","","","","","","","","","","",""
"","ITI","","html-keyboard-response","408","458955","0.0-1.0-558.0","0","0","60961","","null","","","null","61","","","","","","","","","","","","","","","NaN",""
"","S1","","html-keyboard-response","409","459206","0.0-1.0-560.0","0","0","60961","","null","","","null","62","","","","","","","","","","","","","","","",""
"","ISI","","html-keyboard-response","410","459357","0.0-1.0-561.0","0","0","60961","","null","","","null","62","NaN","","","","","","","","","","","","","","",""
"","S2","","html-keyboard-response","411","459608","0.0-1.0-562.0","0","0","60961","","null","","","null","62","","NaN","","","","","","","","","","","","","",""
"","response","","html-keyboard-response","412","460162","0.0-1.0-563.0-0.0","0","0","60961","","553","","","75","62","","","2","62","training","adjacent","AB","1","2","N.jpg","O.jpg","1","1","1","",""
"","feedback","","html-keyboard-response","413","461164","0.0-1.0-564.0-0.0","0","0","60961","","null","","","null","62","","","","","","","","","","","","","","","",""
"","ITI","","html-keyboard-response","414","462166","0.0-1.0-567.0","0","0","60961","","null","","","null","62","","","","","","","","","","","","","","","NaN",""
"","S1","","html-keyboard-response","415","462418","0.0-1.0-569.0","0","0","60961","","null","","","null","63","","","","","","","","","","","","","","","",""
"","ISI","","html-keyboard-response","416","462569","0.0-1.0-570.0","0","0","60961","","null","","","null","63","NaN","","","","","","","","","","","","","","",""
"","S2","","html-keyboard-response","417","462820","0.0-1.0-571.0","0","0","60961","","null","","","null","63","","NaN","","","","","","","","","","","","","",""
"","response","","html-keyboard-response","418","463318","0.0-1.0-572.0-0.0","0","0","60961","","496","","","75","63","","","2","63","training","adjacent","CD","3","4","P.jpg","Q.jpg","1","1","1","",""
"","feedback","","html-keyboard-response","419","464319","0.0-1.0-573.0-0.0","0","0","60961","","null","","","null","63","","","","","","","","","","","","","","","",""
"","ITI","","html-keyboard-response","420","465320","0.0-1.0-576.0","0","0","60961","","null","","","null","63","","","","","","","","","","","","","","","NaN",""
"","S1","","html-keyboard-response","421","465577","0.0-1.0-578.0","0","0","60961","","null","","","null","64","","","","","","","","","","","","","","","",""
"","ISI","","html-keyboard-response","422","465729","0.0-1.0-579.0","0","0","60961","","null","","","null","64","NaN","","","","","","","","","","","","","","",""
"","S2","","html-keyboard-response","423","465987","0.0-1.0-580.0","0","0","60961","","null","","","null","64","","NaN","","","","","","","","","","","","","",""
"","response","","html-keyboard-response","424","466430","0.0-1.0-581.0-0.0","0","0","60961","","441","","","75","64","","","2","64","training","adjacent","DC","4","3","Q.jpg","P.jpg","1","0","0","",""
"","feedback","","html-keyboard-response","425","467431","0.0-1.0-582.0-0.0","0","0","60961","","null","","","null","64","","","","","","","","","","","","","","","",""
"","time_out","","html-keyboard-response","426","469433","0.0-1.0-584.0-0.0","0","0","60961","","null","","","null","64","","","","","","","","","","","","","","","",""
"","ITI","","html-keyboard-response","427","470434","0.0-1.0-585.0","0","0","60961","","null","","","null","64","","","","","","","","","","","","","","","NaN",""
"","S1","","html-keyboard-response","428","470685","0.0-1.0-587.0","0","0","60961","","null","","","null","65","","","","","","","","","","","","","","","",""
"","ISI","","html-keyboard-response","429","470836","0.0-1.0-588.0","0","0","60961","","null","","","null","65","NaN","","","","","","","","","","","","","","",""
"","S2","","html-keyboard-response","430","471088","0.0-1.0-589.0","0","0","60961","","null","","","null","65","","NaN","","","","","","","","","","","","","",""
"","response","","html-keyboard-response","431","471674","0.0-1.0-590.0-0.0","0","0","60961","","585","","","68","65","","","2","65","training","adjacent","CB","3","2","P.jpg","O.jpg","0","0","1","",""
"","feedback","","html-keyboard-response","432","472675","0.0-1.0-591.0-0.0","0","0","60961","","null","","","null","65","","","","","","","","","","","","","","","",""
"","ITI","","html-keyboard-response","433","473676","0.0-1.0-594.0","0","0","60961","","null","","","null","65","","","","","","","","","","","","","","","NaN",""
"","S1","","html-keyboard-response","434","473928","0.0-1.0-596.0","0","0","60961","","null","","","null","66","","","","","","","","","","","","","","","",""
"","ISI","","html-keyboard-response","435","474078","0.0-1.0-597.0","0","0","60961","","null","","","null","66","NaN","","","","","","","","","","","","","","",""
"","S2","","html-keyboard-response","436","474330","0.0-1.0-598.0","0","0","60961","","null","","","null","66","","NaN","","","","","","","","","","","","","",""
"","response","","html-keyboard-response","437","474790","0.0-1.0-599.0-0.0","0","0","60961","","459","","","75","66","","","2","66","training","adjacent","CD","3","4","P.jpg","Q.jpg","1","1","1","",""
"","feedback","","html-keyboard-response","438","475792","0.0-1.0-600.0-0.0","0","0","60961","","null","","","null","66","","","","","","","","","","","","","","","",""
"","ITI","","html-keyboard-response","439","476794","0.0-1.0-603.0","0","0","60961","","null","","","null","66","","","","","","","","","","","","","","","NaN",""
"","S1","","html-keyboard-response","440","477045","0.0-1.0-605.0","0","0","60961","","null","","","null","67","","","","","","","","","","","","","","","",""
"","ISI","","html-keyboard-response","441","477196","0.0-1.0-606.0","0","0","60961","","null","","","null","67","NaN","","","","","","","","","","","","","","",""
"","S2","","html-keyboard-response","442","477448","0.0-1.0-607.0","0","0","60961","","null","","","null","67","","NaN","","","","","","","","","","","","","",""
"","response","","html-keyboard-response","443","477778","0.0-1.0-608.0-0.0","0","0","60961","","329","","","75","67","","","2","67","training","adjacent","EF","5","6","M.jpg","L.jpg","1","1","1","",""
"","feedback","","html-keyboard-response","444","478779","0.0-1.0-609.0-0.0","0","0","60961","","null","","","null","67","","","","","","","","","","","","","","","",""
"","ITI","","html-keyboard-response","445","479780","0.0-1.0-612.0","0","0","60961","","null","","","null","67","","","","","","","","","","","","","","","NaN",""
"","S1","","html-keyboard-response","446","480031","0.0-1.0-614.0","0","0","60961","","null","","","null","68","","","","","","","","","","","","","","","",""
"","ISI","","html-keyboard-response","447","480182","0.0-1.0-615.0","0","0","60961","","null","","","null","68","NaN","","","","","","","","","","","","","","",""
"","S2","","html-keyboard-response","448","480434","0.0-1.0-616.0","0","0","60961","","null","","","null","68","","NaN","","","","","","","","","","","","","",""
"","response","","html-keyboard-response","449","480713","0.0-1.0-617.0-0.0","0","0","60961","","278","","","68","68","","","2","68","training","adjacent","BA","2","1","O.jpg","N.jpg","0","0","1","",""
"","feedback","","html-keyboard-response","450","481720","0.0-1.0-618.0-0.0","0","0","60961","","null","","","null","68","","","","","","","","","","","","","","","",""
"","ITI","","html-keyboard-response","451","482722","0.0-1.0-621.0","0","0","60961","","null","","","null","68","","","","","","","","","","","","","","","NaN",""
"","S1","","html-keyboard-response","452","482973","0.0-1.0-623.0","0","0","60961","","null","","","null","69","","","","","","","","","","","","","","","",""
"","ISI","","html-keyboard-response","453","483124","0.0-1.0-624.0","0","0","60961","","null","","","null","69","NaN","","","","","","","","","","","","","","",""
"","S2","","html-keyboard-response","454","483376","0.0-1.0-625.0","0","0","60961","","null","","","null","69","","NaN","","","","","","","","","","","","","",""
"","response","","html-keyboard-response","455","483652","0.0-1.0-626.0-0.0","0","0","60961","","276","","","75","69","","","2","69","training","adjacent","GF","7","6","R.jpg","L.jpg","1","0","0","",""
"","feedback","","html-keyboard-response","456","484654","0.0-1.0-627.0-0.0","0","0","60961","","null","","","null","69","","","","","","","","","","","","","","","",""
"","time_out","","html-keyboard-response","457","486655","0.0-1.0-629.0-0.0","0","0","60961","","null","","","null","69","","","","","","","","","","","","","","","",""
"","ITI","","html-keyboard-response","458","487656","0.0-1.0-630.0","0","0","60961","","null","","","null","69","","","","","","","","","","","","","","","NaN",""
"","S1","","html-keyboard-response","459","487907","0.0-1.0-632.0","0","0","60961","","null","","","null","70","","","","","","","","","","","","","","","",""
"","ISI","","html-keyboard-response","460","488058","0.0-1.0-633.0","0","0","60961","","null","","","null","70","NaN","","","","","","","","","","","","","","",""
"","S2","","html-keyboard-response","461","488172","0.0-1.0-634.0","0","0","60961","","114","","","75","70","","k","2","70","training","adjacent","DC","4","3","Q.jpg","P.jpg","1","0","0","",""
"","feedback","","html-keyboard-response","462","489174","0.0-1.0-636.0-0.0","0","0","60961","","null","","","null","70","","","","","","","","","","","","","","","",""
"","time_out","","html-keyboard-response","463","491176","0.0-1.0-638.0-0.0","0","0","60961","","null","","","null","70","","","","","","","","","","","","","","","",""
"","ITI","","html-keyboard-response","464","492177","0.0-1.0-639.0","0","0","60961","","null","","","null","70","","","","","","","","","","","","","","","NaN",""
"","S1","","html-keyboard-response","465","492428","0.0-1.0-641.0","0","0","60961","","null","","","null","71","","","","","","","","","","","","","","","",""
"","ISI","","html-keyboard-response","466","492579","0.0-1.0-642.0","0","0","60961","","null","","","null","71","NaN","","","","","","","","","","","","","","",""
"","S2","","html-keyboard-response","467","492843","0.0-1.0-643.0","0","0","60961","","null","","","null","71","","NaN","","","","","","","","","","","","","",""
"","response","","html-keyboard-response","468","493229","0.0-1.0-644.0-0.0","0","0","60961","","385","","","75","71","","","2","71","training","adjacent","ED","5","4","M.jpg","Q.jpg","1","0","0","",""
"","feedback","","html-keyboard-response","469","494230","0.0-1.0-645.0-0.0","0","0","60961","","null","","","null","71","","","","","","","","","","","","","","","",""
"","time_out","","html-keyboard-response","470","496231","0.0-1.0-647.0-0.0","0","0","60961","","null","","","null","71","","","","","","","","","","","","","","","",""
"","ITI","","html-keyboard-response","471","497233","0.0-1.0-648.0","0","0","60961","","null","","","null","71","","","","","","","","","","","","","","","NaN",""
"","S1","","html-keyboard-response","472","497484","0.0-1.0-650.0","0","0","60961","","null","","","null","72","","","","","","","","","","","","","","","",""
"","ISI","","html-keyboard-response","473","497635","0.0-1.0-651.0","0","0","60961","","null","","","null","72","NaN","","","","","","","","","","","","","","",""
"","S2","","html-keyboard-response","474","497887","0.0-1.0-652.0","0","0","60961","","null","","","null","72","","NaN","","","","","","","","","","","","","",""
"","response","","html-keyboard-response","475","498320","0.0-1.0-653.0-0.0","0","0","60961","","433","","","75","72","","","2","72","training","adjacent","AB","1","2","N.jpg","O.jpg","1","1","1","",""
"","feedback","","html-keyboard-response","476","499322","0.0-1.0-654.0-0.0","0","0","60961","","null","","","null","72","","","","","","","","","","","","","","","",""
"","ITI","","html-keyboard-response","477","500324","0.0-1.0-657.0","0","0","60961","","null","","","null","72","","","","","","","","","","","","","","","NaN",""
"","S1","","html-keyboard-response","478","500575","0.0-1.0-659.0","0","0","60961","","null","","","null","73","","","","","","","","","","","","","","","",""
"","ISI","","html-keyboard-response","479","500727","0.0-1.0-660.0","0","0","60961","","null","","","null","73","NaN","","","","","","","","","","","","","","",""
"","S2","","html-keyboard-response","480","500978","0.0-1.0-661.0","0","0","60961","","null","","","null","73","","NaN","","","","","","","","","","","","","",""
"","response","","html-keyboard-response","481","501520","0.0-1.0-662.0-0.0","0","0","60961","","541","","","68","73","","","2","73","training","adjacent","DE","4","5","Q.jpg","M.jpg","0","1","0","",""
"","feedback","","html-keyboard-response","482","502522","0.0-1.0-663.0-0.0","0","0","60961","","null","","","null","73","","","","","","","","","","","","","","","",""
"","time_out","","html-keyboard-response","483","504524","0.0-1.0-665.0-0.0","0","0","60961","","null","","","null","73","","","","","","","","","","","","","","","",""
"","ITI","","html-keyboard-response","484","505525","0.0-1.0-666.0","0","0","60961","","null","","","null","73","","","","","","","","","","","","","","","NaN",""
"","S1","","html-keyboard-response","485","505776","0.0-1.0-668.0","0","0","60961","","null","","","null","74","","","","","","","","","","","","","","","",""
"","ISI","","html-keyboard-response","486","505928","0.0-1.0-669.0","0","0","60961","","null","","","null","74","NaN","","","","","","","","","","","","","","",""
"","S2","","html-keyboard-response","487","506179","0.0-1.0-670.0","0","0","60961","","null","","","null","74","","NaN","","","","","","","","","","","","","",""
"","response","","html-keyboard-response","488","506464","0.0-1.0-671.0-0.0","0","0","60961","","284","","","75","74","","","2","74","training","adjacent","CB","3","2","P.jpg","O.jpg","1","0","0","",""
"","feedback","","html-keyboard-response","489","507466","0.0-1.0-672.0-0.0","0","0","60961","","null","","","null","74","","","","","","","","","","","","","","","",""
"","time_out","","html-keyboard-response","490","509468","0.0-1.0-674.0-0.0","0","0","60961","","null","","","null","74","","","","","","","","","","","","","","","",""
"","ITI","","html-keyboard-response","491","510469","0.0-1.0-675.0","0","0","60961","","null","","","null","74","","","","","","","","","","","","","","","NaN",""
"","S1","","html-keyboard-response","492","510721","0.0-1.0-677.0","0","0","60961","","null","","","null","75","","","","","","","","","","","","","","","",""
"","ISI","","html-keyboard-response","493","510872","0.0-1.0-678.0","0","0","60961","","null","","","null","75","NaN","","","","","","","","","","","","","","",""
"","S2","","html-keyboard-response","494","511124","0.0-1.0-679.0","0","0","60961","","null","","","null","75","","NaN","","","","","","","","","","","","","",""
"","response","","html-keyboard-response","495","511840","0.0-1.0-680.0-0.0","0","0","60961","","716","","","68","75","","","2","75","training","adjacent","DE","4","5","Q.jpg","M.jpg","0","1","0","",""
"","feedback","","html-keyboard-response","496","512849","0.0-1.0-681.0-0.0","0","0","60961","","null","","","null","75","","","","","","","","","","","","","","","",""
"","time_out","","html-keyboard-response","497","514850","0.0-1.0-683.0-0.0","0","0","60961","","null","","","null","75","","","","","","","","","","","","","","","",""
"","ITI","","html-keyboard-response","498","515852","0.0-1.0-684.0","0","0","60961","","null","","","null","75","","","","","","","","","","","","","","","NaN",""
"","S1","","html-keyboard-response","499","516103","0.0-1.0-686.0","0","0","60961","","null","","","null","76","","","","","","","","","","","","","","","",""
"","ISI","","html-keyboard-response","500","516255","0.0-1.0-687.0","0","0","60961","","null","","","null","76","NaN","","","","","","","","","","","","","","",""
"","S2","","html-keyboard-response","501","516506","0.0-1.0-688.0","0","0","60961","","null","","","null","76","","NaN","","","","","","","","","","","","","",""
"","response","","html-keyboard-response","502","517155","0.0-1.0-689.0-0.0","0","0","60961","","649","","","68","76","","","2","76","training","adjacent","EF","5","6","M.jpg","L.jpg","0","1","0","",""
"","feedback","","html-keyboard-response","503","518157","0.0-1.0-690.0-0.0","0","0","60961","","null","","","null","76","","","","","","","","","","","","","","","",""
"","time_out","","html-keyboard-response","504","520157","0.0-1.0-692.0-0.0","0","0","60961","","null","","","null","76","","","","","","","","","","","","","","","",""
"","ITI","","html-keyboard-response","505","521159","0.0-1.0-693.0","0","0","60961","","null","","","null","76","","","","","","","","","","","","","","","NaN",""
"","S1","","html-keyboard-response","506","521410","0.0-1.0-695.0","0","0","60961","","null","","","null","77","","","","","","","","","","","","","","","",""
"","ISI","","html-keyboard-response","507","521562","0.0-1.0-696.0","0","0","60961","","null","","","null","77","NaN","","","","","","","","","","","","","","",""
"","S2","","html-keyboard-response","508","521814","0.0-1.0-697.0","0","0","60961","","null","","","null","77","","NaN","","","","","","","","","","","","","",""
"","response","","html-keyboard-response","509","522403","0.0-1.0-698.0-0.0","0","0","60961","","588","","","68","77","","","2","77","training","adjacent","BA","2","1","O.jpg","N.jpg","0","0","1","",""
"","feedback","","html-keyboard-response","510","523405","0.0-1.0-699.0-0.0","0","0","60961","","null","","","null","77","","","","","","","","","","","","","","","",""
"","ITI","","html-keyboard-response","511","524406","0.0-1.0-702.0","0","0","60961","","null","","","null","77","","","","","","","","","","","","","","","NaN",""
"","S1","","html-keyboard-response","512","524657","0.0-1.0-704.0","0","0","60961","","null","","","null","78","","","","","","","","","","","","","","","",""
"","ISI","","html-keyboard-response","513","524809","0.0-1.0-705.0","0","0","60961","","null","","","null","78","NaN","","","","","","","","","","","","","","",""
"","S2","","html-keyboard-response","514","525060","0.0-1.0-706.0","0","0","60961","","null","","","null","78","","NaN","","","","","","","","","","","","","",""
"","response","","html-keyboard-response","515","525575","0.0-1.0-707.0-0.0","0","0","60961","","515","","","75","78","","","2","78","training","adjacent","CD","3","4","P.jpg","Q.jpg","1","1","1","",""
"","feedback","","html-keyboard-response","516","526578","0.0-1.0-708.0-0.0","0","0","60961","","null","","","null","78","","","","","","","","","","","","","","","",""
"","ITI","","html-keyboard-response","517","527579","0.0-1.0-711.0","0","0","60961","","null","","","null","78","","","","","","","","","","","","","","","NaN",""
"","S1","","html-keyboard-response","518","527831","0.0-1.0-713.0","0","0","60961","","null","","","null","79","","","","","","","","","","","","","","","",""
"","ISI","","html-keyboard-response","519","527982","0.0-1.0-714.0","0","0","60961","","null","","","null","79","NaN","","","","","","","","","","","","","","",""
"","S2","","html-keyboard-response","520","528233","0.0-1.0-715.0","0","0","60961","","null","","","null","79","","NaN","","","","","","","","","","","","","",""
"","response","","html-keyboard-response","521","528727","0.0-1.0-716.0-0.0","0","0","60961","","494","","","75","79","","","2","79","training","adjacent","FG","6","7","L.jpg","R.jpg","1","1","1","",""
"","feedback","","html-keyboard-response","522","529729","0.0-1.0-717.0-0.0","0","0","60961","","null","","","null","79","","","","","","","","","","","","","","","",""
"","ITI","","html-keyboard-response","523","530731","0.0-1.0-720.0","0","0","60961","","null","","","null","79","","","","","","","","","","","","","","","NaN",""
"","S1","","html-keyboard-response","524","530983","0.0-1.0-722.0","0","0","60961","","null","","","null","80","","","","","","","","","","","","","","","",""
"","ISI","","html-keyboard-response","525","531133","0.0-1.0-723.0","0","0","60961","","null","","","null","80","NaN","","","","","","","","","","","","","","",""
"","S2","","html-keyboard-response","526","531385","0.0-1.0-724.0","0","0","60961","","null","","","null","80","","NaN","","","","","","","","","","","","","",""
"","response","","html-keyboard-response","527","531907","0.0-1.0-725.0-0.0","0","0","60961","","521","","","68","80","","","2","80","training","adjacent","GF","7","6","R.jpg","L.jpg","0","0","1","",""
"","feedback","","html-keyboard-response","528","532909","0.0-1.0-726.0-0.0","0","0","60961","","null","","","null","80","","","","","","","","","","","","","","","",""
"","ITI","","html-keyboard-response","529","533911","0.0-1.0-729.0","0","0","60961","","null","","","null","80","","","","","","","","","","","","","","","NaN",""
"","S1","","html-keyboard-response","530","534163","0.0-1.0-731.0","0","0","60961","","null","","","null","81","","","","","","","","","","","","","","","",""
"","ISI","","html-keyboard-response","531","534315","0.0-1.0-732.0","0","0","60961","","null","","","null","81","NaN","","","","","","","","","","","","","","",""
"","S2","","html-keyboard-response","532","534567","0.0-1.0-733.0","0","0","60961","","null","","","null","81","","NaN","","","","","","","","","","","","","",""
"","response","","html-keyboard-response","533","534867","0.0-1.0-734.0-0.0","0","0","60961","","300","","","68","81","","","2","81","training","adjacent","GF","7","6","R.jpg","L.jpg","0","0","1","",""
"","feedback","","html-keyboard-response","534","535869","0.0-1.0-735.0-0.0","0","0","60961","","null","","","null","81","","","","","","","","","","","","","","","",""
"","ITI","","html-keyboard-response","535","536871","0.0-1.0-738.0","0","0","60961","","null","","","null","81","","","","","","","","","","","","","","","NaN",""
"","S1","","html-keyboard-response","536","537122","0.0-1.0-740.0","0","0","60961","","null","","","null","82","","","","","","","","","","","","","","","",""
"","ISI","","html-keyboard-response","537","537274","0.0-1.0-741.0","0","0","60961","","null","","","null","82","NaN","","","","","","","","","","","","","","",""
"","S2","","html-keyboard-response","538","537525","0.0-1.0-742.0","0","0","60961","","null","","","null","82","","NaN","","","","","","","","","","","","","",""
"","response","","html-keyboard-response","539","538171","0.0-1.0-743.0-0.0","0","0","60961","","646","","","75","82","","","2","82","training","adjacent","DE","4","5","Q.jpg","M.jpg","1","1","1","",""
"","feedback","","html-keyboard-response","540","539187","0.0-1.0-744.0-0.0","0","0","60961","","null","","","null","82","","","","","","","","","","","","","","","",""
"","ITI","","html-keyboard-response","541","540188","0.0-1.0-747.0","0","0","60961","","null","","","null","82","","","","","","","","","","","","","","","NaN",""
"","S1","","html-keyboard-response","542","540440","0.0-1.0-749.0","0","0","60961","","null","","","null","83","","","","","","","","","","","","","","","",""
"","ISI","","html-keyboard-response","543","540606","0.0-1.0-750.0","0","0","60961","","null","","","null","83","NaN","","","","","","","","","","","","","","",""
"","S2","","html-keyboard-response","544","540858","0.0-1.0-751.0","0","0","60961","","null","","","null","83","","NaN","","","","","","","","","","","","","",""
"","response","","html-keyboard-response","545","541195","0.0-1.0-752.0-0.0","0","0","60961","","337","","","75","83","","","2","83","training","adjacent","DE","4","5","Q.jpg","M.jpg","1","1","1","",""
"","feedback","","html-keyboard-response","546","542197","0.0-1.0-753.0-0.0","0","0","60961","","null","","","null","83","","","","","","","","","","","","","","","",""
"","ITI","","html-keyboard-response","547","543198","0.0-1.0-756.0","0","0","60961","","null","","","null","83","","","","","","","","","","","","","","","NaN",""
"","S1","","html-keyboard-response","548","543449","0.0-1.0-758.0","0","0","60961","","null","","","null","84","","","","","","","","","","","","","","","",""
"","ISI","","html-keyboard-response","549","543600","0.0-1.0-759.0","0","0","60961","","null","","","null","84","NaN","","","","","","","","","","","","","","",""
"","S2","","html-keyboard-response","550","543852","0.0-1.0-760.0","0","0","60961","","null","","","null","84","","NaN","","","","","","","","","","","","","",""
"","response","","html-keyboard-response","551","544355","0.0-1.0-761.0-0.0","0","0","60961","","503","","","75","84","","","2","84","training","adjacent","BC","2","3","O.jpg","P.jpg","1","1","1","",""
"","feedback","","html-keyboard-response","552","545357","0.0-1.0-762.0-0.0","0","0","60961","","null","","","null","84","","","","","","","","","","","","","","","",""
"","ITI","","html-keyboard-response","553","546358","0.0-1.0-765.0","0","0","60961","","null","","","null","84","","","","","","","","","","","","","","","NaN",""
"","S1","","html-keyboard-response","554","546610","0.0-1.0-767.0","0","0","60961","","null","","","null","85","","","","","","","","","","","","","","","",""
"","ISI","","html-keyboard-response","555","546762","0.0-1.0-768.0","0","0","60961","","null","","","null","85","NaN","","","","","","","","","","","","","","",""
"","S2","","html-keyboard-response","556","547013","0.0-1.0-769.0","0","0","60961","","null","","","null","85","","NaN","","","","","","","","","","","","","",""
"","response","","html-keyboard-response","557","547414","0.0-1.0-770.0-0.0","0","0","60961","","401","","","75","85","","","2","85","training","adjacent","CB","3","2","P.jpg","O.jpg","1","0","0","",""
"","feedback","","html-keyboard-response","558","548416","0.0-1.0-771.0-0.0","0","0","60961","","null","","","null","85","","","","","","","","","","","","","","","",""
"","time_out","","html-keyboard-response","559","550417","0.0-1.0-773.0-0.0","0","0","60961","","null","","","null","85","","","","","","","","","","","","","","","",""
"","ITI","","html-keyboard-response","560","551419","0.0-1.0-774.0","0","0","60961","","null","","","null","85","","","","","","","","","","","","","","","NaN",""
"","S1","","html-keyboard-response","561","551670","0.0-1.0-776.0","0","0","60961","","null","","","null","86","","","","","","","","","","","","","","","",""
"","ISI","","html-keyboard-response","562","551821","0.0-1.0-777.0","0","0","60961","","null","","","null","86","NaN","","","","","","","","","","","","","","",""
"","S2","","html-keyboard-response","563","552073","0.0-1.0-778.0","0","0","60961","","null","","","null","86","","NaN","","","","","","","","","","","","","",""
"","response","","html-keyboard-response","564","552994","0.0-1.0-779.0-0.0","0","0","60961","","920","","","68","86","","","2","86","training","adjacent","CD","3","4","P.jpg","Q.jpg","0","1","0","",""
"","feedback","","html-keyboard-response","565","553996","0.0-1.0-780.0-0.0","0","0","60961","","null","","","null","86","","","","","","","","","","","","","","","",""
"","time_out","","html-keyboard-response","566","555997","0.0-1.0-782.0-0.0","0","0","60961","","null","","","null","86","","","","","","","","","","","","","","","",""
"","ITI","","html-keyboard-response","567","556998","0.0-1.0-783.0","0","0","60961","","null","","","null","86","","","","","","","","","","","","","","","NaN",""
"","S1","","html-keyboard-response","568","557250","0.0-1.0-785.0","0","0","60961","","null","","","null","87","","","","","","","","","","","","","","","",""
"","ISI","","html-keyboard-response","569","557412","0.0-1.0-786.0","0","0","60961","","null","","","null","87","NaN","","","","","","","","","","","","","","",""
"","S2","","html-keyboard-response","570","557663","0.0-1.0-787.0","0","0","60961","","null","","","null","87","","NaN","","","","","","","","","","","","","",""
"","response","","html-keyboard-response","571","558530","0.0-1.0-788.0-0.0","0","0","60961","","866","","","68","87","","","2","87","training","adjacent","BC","2","3","O.jpg","P.jpg","0","1","0","",""
"","feedback","","html-keyboard-response","572","559532","0.0-1.0-789.0-0.0","0","0","60961","","null","","","null","87","","","","","","","","","","","","","","","",""
"","time_out","","html-keyboard-response","573","561534","0.0-1.0-791.0-0.0","0","0","60961","","null","","","null","87","","","","","","","","","","","","","","","",""
"","ITI","","html-keyboard-response","574","562535","0.0-1.0-792.0","0","0","60961","","null","","","null","87","","","","","","","","","","","","","","","NaN",""
"","S1","","html-keyboard-response","575","562786","0.0-1.0-794.0","0","0","60961","","null","","","null","88","","","","","","","","","","","","","","","",""
"","ISI","","html-keyboard-response","576","562938","0.0-1.0-795.0","0","0","60961","","null","","","null","88","NaN","","","","","","","","","","","","","","",""
"","S2","","html-keyboard-response","577","563190","0.0-1.0-796.0","0","0","60961","","null","","","null","88","","NaN","","","","","","","","","","","","","",""
"","response","","html-keyboard-response","578","564574","0.0-1.0-797.0-0.0","0","0","60961","","1383","","","68","88","","","2","88","training","adjacent","GF","7","6","R.jpg","L.jpg","0","0","1","",""
"","feedback","","html-keyboard-response","579","565576","0.0-1.0-798.0-0.0","0","0","60961","","null","","","null","88","","","","","","","","","","","","","","","",""
"","ITI","","html-keyboard-response","580","566577","0.0-1.0-801.0","0","0","60961","","null","","","null","88","","","","","","","","","","","","","","","NaN",""
