"success","ttype","start_time","trial_type","trial_index","time_elapsed","internal_node_id","warning","missed_checkup","PID","view_history","rt","responses","repeat_instructions","key_press","index","keypress_isi","keypress_S2","block","trial_num","phase","group_type","pair_type","S1_stim","S2_stim","S1_img","S2_img","S1_chosen","S1_higher","accuracy","keypress_iti","total_bonus_tally"
"true","full_screen","d03032023hr2112","fullscreen","0","7936","0.0-0.0","0","0","24578","","","","","","","","","","","","","","","","","","","","","",""
"","instructions","","instructions","1","43836","0.0-1.0-0.0-0.0","0","0","24578","[{""page_index"":0,""viewing_time"":5106},{""page_index"":1,""viewing_time"":19784},{""page_index"":2,""viewing_time"":9321},{""page_index"":3,""viewing_time"":1686}]","35897","","","","","","","","","","","","","","","","","","","",""
"","comprehension_check","","survey-multi-choice","2","69646","0.0-1.0-0.0-1.0","0","0","24578","","25807","{""Q0"":""True"",""Q1"":""D"",""Q2"":""Only when the screen 'MAKE A CHOICE' is shown"",""Q3"":""Green mark"",""Q4"":""either D or K""}","1","","","","","","","","","","","","","","","","","",""
"","missed_instruction_checkup","","html-keyboard-response","3","71791","0.0-1.0-0.0-2.0-0.0","0","1","24578","","2143","","","32","","","","","","","","","","","","","","","","",""
"","instructions","","instructions","4","88510","0.0-1.0-0.1-0.1","0","0","24578","[{""page_index"":0,""viewing_time"":2305},{""page_index"":1,""viewing_time"":8576},{""page_index"":2,""viewing_time"":4931},{""page_index"":3,""viewing_time"":906}]","16718","","","","","","","","","","","","","","","","","","","",""
"","comprehension_check","","survey-multi-choice","5","101102","0.0-1.0-0.1-1.1","0","0","24578","","12589","{""Q0"":""True"",""Q1"":""D"",""Q2"":""Once the second image appears and while the screen 'MAKE A CHOICE' is shown"",""Q3"":""Green mark"",""Q4"":""either D or K""}","0","","","","","","","","","","","","","","","","","",""
"","start_exp","","html-keyboard-response","6","102509","0.0-1.0-1.0","0","0","24578","","1405","","","32","","","","","","","","","","","","","","","","",""
"","S1","","html-keyboard-response","7","102772","0.0-1.0-2.0","0","0","24578","","null","","","null","0","","","","","","","","","","","","","","","",""
"","ISI","","html-keyboard-response","8","103286","0.0-1.0-3.0","0","0","24578","","null","","","null","0","NaN","","","","","","","","","","","","","","",""
"","S2","","html-keyboard-response","9","103548","0.0-1.0-4.0","0","0","24578","","null","","","null","0","","NaN","","","","","","","","","","","","","",""
"","response","","html-keyboard-response","10","104151","0.0-1.0-5.0-0.0","0","0","24578","","601","","","68","0","","","1","0","training","adjacent","FE","6","5","R.jpg","Q.jpg","1","0","0","",""
"","feedback","","html-keyboard-response","11","105167","0.0-1.0-6.0-0.0","0","0","24578","","null","","","null","0","","","","","","","","","","","","","","","",""
"","time_out","","html-keyboard-response","12","107172","0.0-1.0-8.0-0.0","0","0","24578","","null","","","null","0","","","","","","","","","","","","","","","",""
"","ITI","","html-keyboard-response","13","108179","0.0-1.0-9.0","0","0","24578","","null","","","null","0","","","","","","","","","","","","","","","NaN",""
"","S1","","html-keyboard-response","14","108442","0.0-1.0-11.0","0","0","24578","","null","","","null","1","","","","","","","","","","","","","","","",""
"","ISI","","html-keyboard-response","15","108957","0.0-1.0-12.0","0","0","24578","","null","","","null","1","NaN","","","","","","","","","","","","","","",""
"","S2","","html-keyboard-response","16","109210","0.0-1.0-13.0","0","0","24578","","null","","","null","1","","NaN","","","","","","","","","","","","","",""
"","response","","html-keyboard-response","17","109644","0.0-1.0-14.0-0.0","0","0","24578","","431","","","75","1","","","1","1","training","adjacent","DC","4","3","L.jpg","N.jpg","0","0","1","",""
"","feedback","","html-keyboard-response","18","110653","0.0-1.0-15.0-0.0","0","0","24578","","null","","","null","1","","","","","","","","","","","","","","","",""
"","ITI","","html-keyboard-response","19","111665","0.0-1.0-18.0","0","0","24578","","null","","","null","1","","","","","","","","","","","","","","","NaN",""
"","S1","","html-keyboard-response","20","111926","0.0-1.0-20.0","0","0","24578","","null","","","null","2","","","","","","","","","","","","","","","",""
"","ISI","","html-keyboard-response","21","112437","0.0-1.0-21.0","0","0","24578","","null","","","null","2","NaN","","","","","","","","","","","","","","",""
"","S2","","html-keyboard-response","22","112689","0.0-1.0-22.0","0","0","24578","","null","","","null","2","","NaN","","","","","","","","","","","","","",""
"","response","","html-keyboard-response","23","113127","0.0-1.0-23.0-0.0","0","0","24578","","438","","","75","2","","","1","2","training","adjacent","EF","5","6","Q.jpg","R.jpg","0","1","0","",""
"","feedback","","html-keyboard-response","24","114131","0.0-1.0-24.0-0.0","0","0","24578","","null","","","null","2","","","","","","","","","","","","","","","",""
"","time_out","","html-keyboard-response","25","116135","0.0-1.0-26.0-0.0","0","0","24578","","null","","","null","2","","","","","","","","","","","","","","","",""
"","ITI","","html-keyboard-response","26","117151","0.0-1.0-27.0","0","0","24578","","null","","","null","2","","","","","","","","","","","","","","","NaN",""
"","S1","","html-keyboard-response","27","117403","0.0-1.0-29.0","0","0","24578","","null","","","null","3","","","","","","","","","","","","","","","",""
"","ISI","","html-keyboard-response","28","117919","0.0-1.0-30.0","0","0","24578","","null","","","null","3","NaN","","","","","","","","","","","","","","",""
"","S2","","html-keyboard-response","29","118183","0.0-1.0-31.0","0","0","24578","","null","","","null","3","","NaN","","","","","","","","","","","","","",""
"","response","","html-keyboard-response","30","118631","0.0-1.0-32.0-0.0","0","0","24578","","446","","","75","3","","","1","3","training","adjacent","FE","6","5","R.jpg","Q.jpg","0","0","1","",""
"","feedback","","html-keyboard-response","31","119636","0.0-1.0-33.0-0.0","0","0","24578","","null","","","null","3","","","","","","","","","","","","","","","",""
"","ITI","","html-keyboard-response","32","120651","0.0-1.0-36.0","0","0","24578","","null","","","null","3","","","","","","","","","","","","","","","NaN",""
"","S1","","html-keyboard-response","33","120903","0.0-1.0-38.0","0","0","24578","","null","","","null","4","","","","","","","","","","","","","","","",""
"","ISI","","html-keyboard-response","34","121415","0.0-1.0-39.0","0","0","24578","","null","","","null","4","NaN","","","","","","","","","","","","","","",""
"","S2","","html-keyboard-response","35","121682","0.0-1.0-40.0","0","0","24578","","null","","","null","4","","NaN","","","","","","","","","","","","","",""
"","response","","html-keyboard-response","36","122165","0.0-1.0-41.0-0.0","0","0","24578","","482","","","68","4","","","1","4","training","adjacent","GF","7","6","P.jpg","R.jpg","1","0","0","",""
"","feedback","","html-keyboard-response","37","123177","0.0-1.0-42.0-0.0","0","0","24578","","null","","","null","4","","","","","","","","","","","","","","","",""
"","time_out","","html-keyboard-response","38","125179","0.0-1.0-44.0-0.0","0","0","24578","","null","","","null","4","","","","","","","","","","","","","","","",""
"","ITI","","html-keyboard-response","39","126188","0.0-1.0-45.0","0","0","24578","","null","","","null","4","","","","","","","","","","","","","","","NaN",""
"","S1","","html-keyboard-response","40","126452","0.0-1.0-47.0","0","0","24578","","null","","","null","5","","","","","","","","","","","","","","","",""
"","ISI","","html-keyboard-response","41","126965","0.0-1.0-48.0","0","0","24578","","null","","","null","5","NaN","","","","","","","","","","","","","","",""
"","S2","","html-keyboard-response","42","127230","0.0-1.0-49.0","0","0","24578","","null","","","null","5","","NaN","","","","","","","","","","","","","",""
"","response","","html-keyboard-response","43","127784","0.0-1.0-50.0-0.0","0","0","24578","","553","","","75","5","","","1","5","training","adjacent","FG","6","7","R.jpg","P.jpg","0","1","0","",""
"","feedback","","html-keyboard-response","44","128792","0.0-1.0-51.0-0.0","0","0","24578","","null","","","null","5","","","","","","","","","","","","","","","",""
"","time_out","","html-keyboard-response","45","130807","0.0-1.0-53.0-0.0","0","0","24578","","null","","","null","5","","","","","","","","","","","","","","","",""
"","ITI","","html-keyboard-response","46","131810","0.0-1.0-54.0","0","0","24578","","null","","","null","5","","","","","","","","","","","","","","","NaN",""
"","S1","","html-keyboard-response","47","132071","0.0-1.0-56.0","0","0","24578","","null","","","null","6","","","","","","","","","","","","","","","",""
"","ISI","","html-keyboard-response","48","132584","0.0-1.0-57.0","0","0","24578","","499","","","68","6","d","","","","","","","","","","","","","","",""
"","S2","","html-keyboard-response","49","132849","0.0-1.0-58.0","0","0","24578","","null","","","null","6","","NaN","","","","","","","","","","","","","",""
"","response","","html-keyboard-response","50","133258","0.0-1.0-59.0-0.0","0","0","24578","","408","","","68","6","","","1","6","training","adjacent","EF","5","6","Q.jpg","R.jpg","1","1","1","",""
"","feedback","","html-keyboard-response","51","134267","0.0-1.0-60.0-0.0","0","0","24578","","null","","","null","6","","","","","","","","","","","","","","","",""
"","ITI","","html-keyboard-response","52","135277","0.0-1.0-63.0","0","0","24578","","null","","","null","6","","","","","","","","","","","","","","","NaN",""
"","S1","","html-keyboard-response","53","135541","0.0-1.0-65.0","0","0","24578","","null","","","null","7","","","","","","","","","","","","","","","",""
"","ISI","","html-keyboard-response","54","136050","0.0-1.0-66.0","0","0","24578","","null","","","null","7","NaN","","","","","","","","","","","","","","",""
"","S2","","html-keyboard-response","55","136316","0.0-1.0-67.0","0","0","24578","","null","","","null","7","","NaN","","","","","","","","","","","","","",""
"","response","","html-keyboard-response","56","136577","0.0-1.0-68.0-0.0","0","0","24578","","260","","","68","7","","","1","7","training","adjacent","GF","7","6","P.jpg","R.jpg","1","0","0","",""
"","feedback","","html-keyboard-response","57","137590","0.0-1.0-69.0-0.0","0","0","24578","","null","","","null","7","","","","","","","","","","","","","","","",""
"","time_out","","html-keyboard-response","58","139596","0.0-1.0-71.0-0.0","0","0","24578","","null","","","null","7","","","","","","","","","","","","","","","",""
"","ITI","","html-keyboard-response","59","140604","0.0-1.0-72.0","0","0","24578","","null","","","null","7","","","","","","","","","","","","","","","NaN",""
"","S1","","html-keyboard-response","60","140865","0.0-1.0-74.0","0","0","24578","","null","","","null","8","","","","","","","","","","","","","","","",""
"","ISI","","html-keyboard-response","61","141373","0.0-1.0-75.0","0","0","24578","","null","","","null","8","NaN","","","","","","","","","","","","","","",""
"","S2","","html-keyboard-response","62","141635","0.0-1.0-76.0","0","0","24578","","null","","","null","8","","NaN","","","","","","","","","","","","","",""
"","response","","html-keyboard-response","63","142072","0.0-1.0-77.0-0.0","0","0","24578","","435","","","75","8","","","1","8","training","adjacent","GF","7","6","P.jpg","R.jpg","0","0","1","",""
"","feedback","","html-keyboard-response","64","143084","0.0-1.0-78.0-0.0","0","0","24578","","null","","","null","8","","","","","","","","","","","","","","","",""
"","ITI","","html-keyboard-response","65","144090","0.0-1.0-81.0","0","0","24578","","null","","","null","8","","","","","","","","","","","","","","","NaN",""
"","S1","","html-keyboard-response","66","144356","0.0-1.0-83.0","0","0","24578","","null","","","null","9","","","","","","","","","","","","","","","",""
"","ISI","","html-keyboard-response","67","144867","0.0-1.0-84.0","0","0","24578","","null","","","null","9","NaN","","","","","","","","","","","","","","",""
"","S2","","html-keyboard-response","68","145130","0.0-1.0-85.0","0","0","24578","","null","","","null","9","","NaN","","","","","","","","","","","","","",""
"","response","","html-keyboard-response","69","145445","0.0-1.0-86.0-0.0","0","0","24578","","313","","","75","9","","","1","9","training","adjacent","BA","2","1","M.jpg","O.jpg","0","0","1","",""
"","feedback","","html-keyboard-response","70","146449","0.0-1.0-87.0-0.0","0","0","24578","","null","","","null","9","","","","","","","","","","","","","","","",""
"","ITI","","html-keyboard-response","71","147462","0.0-1.0-90.0","0","0","24578","","null","","","null","9","","","","","","","","","","","","","","","NaN",""
"","S1","","html-keyboard-response","72","147728","0.0-1.0-92.0","0","0","24578","","null","","","null","10","","","","","","","","","","","","","","","",""
"","ISI","","html-keyboard-response","73","148242","0.0-1.0-93.0","0","0","24578","","null","","","null","10","NaN","","","","","","","","","","","","","","",""
"","S2","","html-keyboard-response","74","148508","0.0-1.0-94.0","0","0","24578","","null","","","null","10","","NaN","","","","","","","","","","","","","",""
"","response","","html-keyboard-response","75","148622","0.0-1.0-95.0-0.0","0","0","24578","","113","","","68","10","","","1","10","training","adjacent","CB","3","2","N.jpg","M.jpg","1","0","0","",""
"","feedback","","html-keyboard-response","76","149636","0.0-1.0-96.0-0.0","0","0","24578","","null","","","null","10","","","","","","","","","","","","","","","",""
"","time_out","","html-keyboard-response","77","151645","0.0-1.0-98.0-0.0","0","0","24578","","null","","","null","10","","","","","","","","","","","","","","","",""
"","ITI","","html-keyboard-response","78","152656","0.0-1.0-99.0","0","0","24578","","null","","","null","10","","","","","","","","","","","","","","","NaN",""
"","S1","","html-keyboard-response","79","152917","0.0-1.0-101.0","0","0","24578","","null","","","null","11","","","","","","","","","","","","","","","",""
"","ISI","","html-keyboard-response","80","153428","0.0-1.0-102.0","0","0","24578","","null","","","null","11","NaN","","","","","","","","","","","","","","",""
"","S2","","html-keyboard-response","81","153693","0.0-1.0-103.0","0","0","24578","","null","","","null","11","","NaN","","","","","","","","","","","","","",""
"","response","","html-keyboard-response","82","154130","0.0-1.0-104.0-0.0","0","0","24578","","435","","","68","11","","","1","11","training","adjacent","GF","7","6","P.jpg","R.jpg","1","0","0","",""
"","feedback","","html-keyboard-response","83","155137","0.0-1.0-105.0-0.0","0","0","24578","","null","","","null","11","","","","","","","","","","","","","","","",""
"","time_out","","html-keyboard-response","84","157149","0.0-1.0-107.0-0.0","0","0","24578","","null","","","null","11","","","","","","","","","","","","","","","",""
"","ITI","","html-keyboard-response","85","158160","0.0-1.0-108.0","0","0","24578","","null","","","null","11","","","","","","","","","","","","","","","NaN",""
"","S1","","html-keyboard-response","86","158424","0.0-1.0-110.0","0","0","24578","","null","","","null","12","","","","","","","","","","","","","","","",""
"","ISI","","html-keyboard-response","87","158936","0.0-1.0-111.0","0","0","24578","","null","","","null","12","NaN","","","","","","","","","","","","","","",""
"","S2","","html-keyboard-response","88","159200","0.0-1.0-112.0","0","0","24578","","null","","","null","12","","NaN","","","","","","","","","","","","","",""
"","response","","html-keyboard-response","89","159483","0.0-1.0-113.0-0.0","0","0","24578","","282","","","75","12","","","1","12","training","adjacent","FG","6","7","R.jpg","P.jpg","0","1","0","",""
"","feedback","","html-keyboard-response","90","160493","0.0-1.0-114.0-0.0","0","0","24578","","null","","","null","12","","","","","","","","","","","","","","","",""
"","time_out","","html-keyboard-response","91","162506","0.0-1.0-116.0-0.0","0","0","24578","","null","","","null","12","","","","","","","","","","","","","","","",""
"","ITI","","html-keyboard-response","92","163513","0.0-1.0-117.0","0","0","24578","","null","","","null","12","","","","","","","","","","","","","","","NaN",""
"","S1","","html-keyboard-response","93","163777","0.0-1.0-119.0","0","0","24578","","null","","","null","13","","","","","","","","","","","","","","","",""
"","ISI","","html-keyboard-response","94","164289","0.0-1.0-120.0","0","0","24578","","null","","","null","13","NaN","","","","","","","","","","","","","","",""
"","S2","","html-keyboard-response","95","164553","0.0-1.0-121.0","0","0","24578","","null","","","null","13","","NaN","","","","","","","","","","","","","",""
"","response","","html-keyboard-response","96","164760","0.0-1.0-122.0-0.0","0","0","24578","","205","","","68","13","","","1","13","training","adjacent","BC","2","3","M.jpg","N.jpg","1","1","1","",""
"","feedback","","html-keyboard-response","97","165762","0.0-1.0-123.0-0.0","0","0","24578","","null","","","null","13","","","","","","","","","","","","","","","",""
"","ITI","","html-keyboard-response","98","166774","0.0-1.0-126.0","0","0","24578","","null","","","null","13","","","","","","","","","","","","","","","NaN",""
"","S1","","html-keyboard-response","99","167039","0.0-1.0-128.0","0","0","24578","","null","","","null","14","","","","","","","","","","","","","","","",""
"","ISI","","html-keyboard-response","100","167551","0.0-1.0-129.0","0","0","24578","","null","","","null","14","NaN","","","","","","","","","","","","","","",""
"","S2","","html-keyboard-response","101","167817","0.0-1.0-130.0","0","0","24578","","null","","","null","14","","NaN","","","","","","","","","","","","","",""
"","response","","html-keyboard-response","102","168103","0.0-1.0-131.0-0.0","0","0","24578","","284","","","68","14","","","1","14","training","adjacent","BC","2","3","M.jpg","N.jpg","1","1","1","",""
"","feedback","","html-keyboard-response","103","169119","0.0-1.0-132.0-0.0","0","0","24578","","null","","","null","14","","","","","","","","","","","","","","","",""
"","ITI","","html-keyboard-response","104","170121","0.0-1.0-135.0","0","0","24578","","null","","","null","14","","","","","","","","","","","","","","","NaN",""
"","S1","","html-keyboard-response","105","170384","0.0-1.0-137.0","0","0","24578","","null","","","null","15","","","","","","","","","","","","","","","",""
"","ISI","","html-keyboard-response","106","170895","0.0-1.0-138.0","0","0","24578","","null","","","null","15","NaN","","","","","","","","","","","","","","",""
"","S2","","html-keyboard-response","107","171160","0.0-1.0-139.0","0","0","24578","","null","","","null","15","","NaN","","","","","","","","","","","","","",""
"","response","","html-keyboard-response","108","171637","0.0-1.0-140.0-0.0","0","0","24578","","476","","","68","15","","","1","15","training","adjacent","BA","2","1","M.jpg","O.jpg","1","0","0","",""
"","feedback","","html-keyboard-response","109","172650","0.0-1.0-141.0-0.0","0","0","24578","","null","","","null","15","","","","","","","","","","","","","","","",""
"","time_out","","html-keyboard-response","110","174664","0.0-1.0-143.0-0.0","0","0","24578","","null","","","null","15","","","","","","","","","","","","","","","",""
"","ITI","","html-keyboard-response","111","175674","0.0-1.0-144.0","0","0","24578","","null","","","null","15","","","","","","","","","","","","","","","NaN",""
"","S1","","html-keyboard-response","112","175939","0.0-1.0-146.0","0","0","24578","","null","","","null","16","","","","","","","","","","","","","","","",""
"","ISI","","html-keyboard-response","113","176450","0.0-1.0-147.0","0","0","24578","","null","","","null","16","NaN","","","","","","","","","","","","","","",""
"","S2","","html-keyboard-response","114","176712","0.0-1.0-148.0","0","0","24578","","null","","","null","16","","NaN","","","","","","","","","","","","","",""
"","response","","html-keyboard-response","115","176981","0.0-1.0-149.0-0.0","0","0","24578","","268","","","68","16","","","1","16","training","adjacent","BC","2","3","M.jpg","N.jpg","1","1","1","",""
"","feedback","","html-keyboard-response","116","177987","0.0-1.0-150.0-0.0","0","0","24578","","null","","","null","16","","","","","","","","","","","","","","","",""
"","ITI","","html-keyboard-response","117","178998","0.0-1.0-153.0","0","0","24578","","null","","","null","16","","","","","","","","","","","","","","","NaN",""
"","S1","","html-keyboard-response","118","179263","0.0-1.0-155.0","0","0","24578","","null","","","null","17","","","","","","","","","","","","","","","",""
"","ISI","","html-keyboard-response","119","179776","0.0-1.0-156.0","0","0","24578","","null","","","null","17","NaN","","","","","","","","","","","","","","",""
"","S2","","html-keyboard-response","120","180040","0.0-1.0-157.0","0","0","24578","","null","","","null","17","","NaN","","","","","","","","","","","","","",""
"","response","","html-keyboard-response","121","180330","0.0-1.0-158.0-0.0","0","0","24578","","289","","","75","17","","","1","17","training","adjacent","CD","3","4","N.jpg","L.jpg","0","1","0","",""
"","feedback","","html-keyboard-response","122","181338","0.0-1.0-159.0-0.0","0","0","24578","","null","","","null","17","","","","","","","","","","","","","","","",""
"","time_out","","html-keyboard-response","123","183343","0.0-1.0-161.0-0.0","0","0","24578","","null","","","null","17","","","","","","","","","","","","","","","",""
"","ITI","","html-keyboard-response","124","184357","0.0-1.0-162.0","0","0","24578","","null","","","null","17","","","","","","","","","","","","","","","NaN",""
"","S1","","html-keyboard-response","125","184622","0.0-1.0-164.0","0","0","24578","","null","","","null","18","","","","","","","","","","","","","","","",""
"","ISI","","html-keyboard-response","126","185136","0.0-1.0-165.0","0","0","24578","","null","","","null","18","NaN","","","","","","","","","","","","","","",""
"","S2","","html-keyboard-response","127","185402","0.0-1.0-166.0","0","0","24578","","null","","","null","18","","NaN","","","","","","","","","","","","","",""
"","response","","html-keyboard-response","128","185969","0.0-1.0-167.0-0.0","0","0","24578","","566","","","75","18","","","1","18","training","adjacent","FE","6","5","R.jpg","Q.jpg","0","0","1","",""
"","feedback","","html-keyboard-response","129","186976","0.0-1.0-168.0-0.0","0","0","24578","","null","","","null","18","","","","","","","","","","","","","","","",""
"","ITI","","html-keyboard-response","130","187984","0.0-1.0-171.0","0","0","24578","","null","","","null","18","","","","","","","","","","","","","","","NaN",""
"","S1","","html-keyboard-response","131","188247","0.0-1.0-173.0","0","0","24578","","null","","","null","19","","","","","","","","","","","","","","","",""
"","ISI","","html-keyboard-response","132","188758","0.0-1.0-174.0","0","0","24578","","null","","","null","19","NaN","","","","","","","","","","","","","","",""
"","S2","","html-keyboard-response","133","189021","0.0-1.0-175.0","0","0","24578","","null","","","null","19","","NaN","","","","","","","","","","","","","",""
"","response","","html-keyboard-response","134","189553","0.0-1.0-176.0-0.0","0","0","24578","","531","","","68","19","","","1","19","training","adjacent","BA","2","1","M.jpg","O.jpg","1","0","0","",""
"","feedback","","html-keyboard-response","135","190565","0.0-1.0-177.0-0.0","0","0","24578","","null","","","null","19","","","","","","","","","","","","","","","",""
"","time_out","","html-keyboard-response","136","192578","0.0-1.0-179.0-0.0","0","0","24578","","null","","","null","19","","","","","","","","","","","","","","","",""
"","ITI","","html-keyboard-response","137","193590","0.0-1.0-180.0","0","0","24578","","null","","","null","19","","","","","","","","","","","","","","","NaN",""
"","S1","","html-keyboard-response","138","193853","0.0-1.0-182.0","0","0","24578","","null","","","null","20","","","","","","","","","","","","","","","",""
"","ISI","","html-keyboard-response","139","194368","0.0-1.0-183.0","0","0","24578","","null","","","null","20","NaN","","","","","","","","","","","","","","",""
"","S2","","html-keyboard-response","140","194621","0.0-1.0-184.0","0","0","24578","","null","","","null","20","","NaN","","","","","","","","","","","","","",""
"","response","","html-keyboard-response","141","194939","0.0-1.0-185.0-0.0","0","0","24578","","317","","","68","20","","","1","20","training","adjacent","EF","5","6","Q.jpg","R.jpg","1","1","1","",""
"","feedback","","html-keyboard-response","142","195951","0.0-1.0-186.0-0.0","0","0","24578","","null","","","null","20","","","","","","","","","","","","","","","",""
"","ITI","","html-keyboard-response","143","196963","0.0-1.0-189.0","0","0","24578","","null","","","null","20","","","","","","","","","","","","","","","NaN",""
"","S1","","html-keyboard-response","144","197215","0.0-1.0-191.0","0","0","24578","","null","","","null","21","","","","","","","","","","","","","","","",""
"","ISI","","html-keyboard-response","145","197728","0.0-1.0-192.0","0","0","24578","","null","","","null","21","NaN","","","","","","","","","","","","","","",""
"","S2","","html-keyboard-response","146","197980","0.0-1.0-193.0","0","0","24578","","null","","","null","21","","NaN","","","","","","","","","","","","","",""
"","response","","html-keyboard-response","147","198529","0.0-1.0-194.0-0.0","0","0","24578","","548","","","75","21","","","1","21","training","adjacent","DE","4","5","L.jpg","Q.jpg","0","1","0","",""
"","feedback","","html-keyboard-response","148","199539","0.0-1.0-195.0-0.0","0","0","24578","","null","","","null","21","","","","","","","","","","","","","","","",""
"","time_out","","html-keyboard-response","149","201544","0.0-1.0-197.0-0.0","0","0","24578","","null","","","null","21","","","","","","","","","","","","","","","",""
"","ITI","","html-keyboard-response","150","202557","0.0-1.0-198.0","0","0","24578","","null","","","null","21","","","","","","","","","","","","","","","NaN",""
"","S1","","html-keyboard-response","151","202823","0.0-1.0-200.0","0","0","24578","","null","","","null","22","","","","","","","","","","","","","","","",""
"","ISI","","html-keyboard-response","152","203337","0.0-1.0-201.0","0","0","24578","","null","","","null","22","NaN","","","","","","","","","","","","","","",""
"","S2","","html-keyboard-response","153","203603","0.0-1.0-202.0","0","0","24578","","null","","","null","22","","NaN","","","","","","","","","","","","","",""
"","response","","html-keyboard-response","154","203978","0.0-1.0-203.0-0.0","0","0","24578","","373","","","75","22","","","1","22","training","adjacent","BA","2","1","M.jpg","O.jpg","0","0","1","",""
"","feedback","","html-keyboard-response","155","204985","0.0-1.0-204.0-0.0","0","0","24578","","null","","","null","22","","","","","","","","","","","","","","","",""
"","ITI","","html-keyboard-response","156","205999","0.0-1.0-207.0","0","0","24578","","null","","","null","22","","","","","","","","","","","","","","","NaN",""
"","S1","","html-keyboard-response","157","206263","0.0-1.0-209.0","0","0","24578","","null","","","null","23","","","","","","","","","","","","","","","",""
"","ISI","","html-keyboard-response","158","206778","0.0-1.0-210.0","0","0","24578","","null","","","null","23","NaN","","","","","","","","","","","","","","",""
"","S2","","html-keyboard-response","159","207044","0.0-1.0-211.0","0","0","24578","","null","","","null","23","","NaN","","","","","","","","","","","","","",""
"","response","","html-keyboard-response","160","207302","0.0-1.0-212.0-0.0","0","0","24578","","258","","","75","23","","","1","23","training","adjacent","FG","6","7","R.jpg","P.jpg","0","1","0","",""
"","feedback","","html-keyboard-response","161","208318","0.0-1.0-213.0-0.0","0","0","24578","","null","","","null","23","","","","","","","","","","","","","","","",""
"","time_out","","html-keyboard-response","162","210326","0.0-1.0-215.0-0.0","0","0","24578","","null","","","null","23","","","","","","","","","","","","","","","",""
"","ITI","","html-keyboard-response","163","211338","0.0-1.0-216.0","0","0","24578","","null","","","null","23","","","","","","","","","","","","","","","NaN",""
"","S1","","html-keyboard-response","164","211601","0.0-1.0-218.0","0","0","24578","","null","","","null","24","","","","","","","","","","","","","","","",""
"","ISI","","html-keyboard-response","165","212110","0.0-1.0-219.0","0","0","24578","","null","","","null","24","NaN","","","","","","","","","","","","","","",""
"","S2","","html-keyboard-response","166","212372","0.0-1.0-220.0","0","0","24578","","null","","","null","24","","NaN","","","","","","","","","","","","","",""
"","response","","html-keyboard-response","167","212649","0.0-1.0-221.0-0.0","0","0","24578","","276","","","68","24","","","1","24","training","adjacent","ED","5","4","Q.jpg","L.jpg","1","0","0","",""
"","feedback","","html-keyboard-response","168","213660","0.0-1.0-222.0-0.0","0","0","24578","","null","","","null","24","","","","","","","","","","","","","","","",""
"","time_out","","html-keyboard-response","169","215667","0.0-1.0-224.0-0.0","0","0","24578","","null","","","null","24","","","","","","","","","","","","","","","",""
"","ITI","","html-keyboard-response","170","216673","0.0-1.0-225.0","0","0","24578","","null","","","null","24","","","","","","","","","","","","","","","NaN",""
"","S1","","html-keyboard-response","171","216936","0.0-1.0-227.0","0","0","24578","","null","","","null","25","","","","","","","","","","","","","","","",""
"","ISI","","html-keyboard-response","172","217448","0.0-1.0-228.0","0","0","24578","","null","","","null","25","NaN","","","","","","","","","","","","","","",""
"","S2","","html-keyboard-response","173","217700","0.0-1.0-229.0","0","0","24578","","null","","","null","25","","NaN","","","","","","","","","","","","","",""
"","response","","html-keyboard-response","174","217998","0.0-1.0-230.0-0.0","0","0","24578","","296","","","75","25","","","1","25","training","adjacent","FE","6","5","R.jpg","Q.jpg","0","0","1","",""
"","feedback","","html-keyboard-response","175","219010","0.0-1.0-231.0-0.0","0","0","24578","","null","","","null","25","","","","","","","","","","","","","","","",""
"","ITI","","html-keyboard-response","176","220023","0.0-1.0-234.0","0","0","24578","","null","","","null","25","","","","","","","","","","","","","","","NaN",""
"","S1","","html-keyboard-response","177","220288","0.0-1.0-236.0","0","0","24578","","null","","","null","26","","","","","","","","","","","","","","","",""
"","ISI","","html-keyboard-response","178","220799","0.0-1.0-237.0","0","0","24578","","null","","","null","26","NaN","","","","","","","","","","","","","","",""
"","S2","","html-keyboard-response","179","221060","0.0-1.0-238.0","0","0","24578","","null","","","null","26","","NaN","","","","","","","","","","","","","",""
"","response","","html-keyboard-response","180","221550","0.0-1.0-239.0-0.0","0","0","24578","","488","","","75","26","","","1","26","training","adjacent","CD","3","4","N.jpg","L.jpg","0","1","0","",""
"","feedback","","html-keyboard-response","181","222554","0.0-1.0-240.0-0.0","0","0","24578","","null","","","null","26","","","","","","","","","","","","","","","",""
"","time_out","","html-keyboard-response","182","224565","0.0-1.0-242.0-0.0","0","0","24578","","null","","","null","26","","","","","","","","","","","","","","","",""
"","ITI","","html-keyboard-response","183","225574","0.0-1.0-243.0","0","0","24578","","null","","","null","26","","","","","","","","","","","","","","","NaN",""
"","S1","","html-keyboard-response","184","225839","0.0-1.0-245.0","0","0","24578","","null","","","null","27","","","","","","","","","","","","","","","",""
"","ISI","","html-keyboard-response","185","226342","0.0-1.0-246.0","0","0","24578","","null","","","null","27","NaN","","","","","","","","","","","","","","",""
"","S2","","html-keyboard-response","186","226602","0.0-1.0-247.0","0","0","24578","","null","","","null","27","","NaN","","","","","","","","","","","","","",""
"","response","","html-keyboard-response","187","226796","0.0-1.0-248.0-0.0","0","0","24578","","193","","","75","27","","","1","27","training","adjacent","ED","5","4","Q.jpg","L.jpg","0","0","1","",""
"","feedback","","html-keyboard-response","188","227802","0.0-1.0-249.0-0.0","0","0","24578","","null","","","null","27","","","","","","","","","","","","","","","",""
"","ITI","","html-keyboard-response","189","228809","0.0-1.0-252.0","0","0","24578","","null","","","null","27","","","","","","","","","","","","","","","NaN",""
"","S1","","html-keyboard-response","190","229074","0.0-1.0-254.0","0","0","24578","","null","","","null","28","","","","","","","","","","","","","","","",""
"","ISI","","html-keyboard-response","191","229588","0.0-1.0-255.0","0","0","24578","","null","","","null","28","NaN","","","","","","","","","","","","","","",""
"","S2","","html-keyboard-response","192","229851","0.0-1.0-256.0","0","0","24578","","null","","","null","28","","NaN","","","","","","","","","","","","","",""
"","response","","html-keyboard-response","193","230326","0.0-1.0-257.0-0.0","0","0","24578","","474","","","68","28","","","1","28","training","adjacent","DE","4","5","L.jpg","Q.jpg","1","1","1","",""
"","feedback","","html-keyboard-response","194","231334","0.0-1.0-258.0-0.0","0","0","24578","","null","","","null","28","","","","","","","","","","","","","","","",""
"","ITI","","html-keyboard-response","195","232341","0.0-1.0-261.0","0","0","24578","","null","","","null","28","","","","","","","","","","","","","","","NaN",""
"","S1","","html-keyboard-response","196","232608","0.0-1.0-263.0","0","0","24578","","null","","","null","29","","","","","","","","","","","","","","","",""
"","ISI","","html-keyboard-response","197","233121","0.0-1.0-264.0","0","0","24578","","null","","","null","29","NaN","","","","","","","","","","","","","","",""
"","S2","","html-keyboard-response","198","233381","0.0-1.0-265.0","0","0","24578","","null","","","null","29","","NaN","","","","","","","","","","","","","",""
"","response","","html-keyboard-response","199","233688","0.0-1.0-266.0-0.0","0","0","24578","","306","","","75","29","","","1","29","training","adjacent","CB","3","2","N.jpg","M.jpg","0","0","1","",""
"","feedback","","html-keyboard-response","200","234691","0.0-1.0-267.0-0.0","0","0","24578","","null","","","null","29","","","","","","","","","","","","","","","",""
"","ITI","","html-keyboard-response","201","235707","0.0-1.0-270.0","0","0","24578","","null","","","null","29","","","","","","","","","","","","","","","NaN",""
"","S1","","html-keyboard-response","202","235971","0.0-1.0-272.0","0","0","24578","","null","","","null","30","","","","","","","","","","","","","","","",""
"","ISI","","html-keyboard-response","203","236482","0.0-1.0-273.0","0","0","24578","","null","","","null","30","NaN","","","","","","","","","","","","","","",""
"","S2","","html-keyboard-response","204","236747","0.0-1.0-274.0","0","0","24578","","null","","","null","30","","NaN","","","","","","","","","","","","","",""
"","response","","html-keyboard-response","205","237201","0.0-1.0-275.0-0.0","0","0","24578","","452","","","68","30","","","1","30","training","adjacent","EF","5","6","Q.jpg","R.jpg","1","1","1","",""
"","feedback","","html-keyboard-response","206","238207","0.0-1.0-276.0-0.0","0","0","24578","","null","","","null","30","","","","","","","","","","","","","","","",""
"","ITI","","html-keyboard-response","207","239218","0.0-1.0-279.0","0","0","24578","","null","","","null","30","","","","","","","","","","","","","","","NaN",""
"","S1","","html-keyboard-response","208","239479","0.0-1.0-281.0","0","0","24578","","null","","","null","31","","","","","","","","","","","","","","","",""
"","ISI","","html-keyboard-response","209","239993","0.0-1.0-282.0","0","0","24578","","null","","","null","31","NaN","","","","","","","","","","","","","","",""
"","S2","","html-keyboard-response","210","240256","0.0-1.0-283.0","0","0","24578","","null","","","null","31","","NaN","","","","","","","","","","","","","",""
"","response","","html-keyboard-response","211","240637","0.0-1.0-284.0-0.0","0","0","24578","","379","","","75","31","","","1","31","training","adjacent","AB","1","2","O.jpg","M.jpg","0","1","0","",""
"","feedback","","html-keyboard-response","212","241652","0.0-1.0-285.0-0.0","0","0","24578","","null","","","null","31","","","","","","","","","","","","","","","",""
"","time_out","","html-keyboard-response","213","243662","0.0-1.0-287.0-0.0","0","0","24578","","null","","","null","31","","","","","","","","","","","","","","","",""
"","ITI","","html-keyboard-response","214","244678","0.0-1.0-288.0","0","0","24578","","null","","","null","31","","","","","","","","","","","","","","","NaN",""
"","S1","","html-keyboard-response","215","244942","0.0-1.0-290.0","0","0","24578","","null","","","null","32","","","","","","","","","","","","","","","",""
"","ISI","","html-keyboard-response","216","245457","0.0-1.0-291.0","0","0","24578","","null","","","null","32","NaN","","","","","","","","","","","","","","",""
"","S2","","html-keyboard-response","217","245722","0.0-1.0-292.0","0","0","24578","","null","","","null","32","","NaN","","","","","","","","","","","","","",""
"","response","","html-keyboard-response","218","246240","0.0-1.0-293.0-0.0","0","0","24578","","517","","","75","32","","","1","32","training","adjacent","FG","6","7","R.jpg","P.jpg","0","1","0","",""
"","feedback","","html-keyboard-response","219","247249","0.0-1.0-294.0-0.0","0","0","24578","","null","","","null","32","","","","","","","","","","","","","","","",""
"","time_out","","html-keyboard-response","220","249257","0.0-1.0-296.0-0.0","0","0","24578","","null","","","null","32","","","","","","","","","","","","","","","",""
"","ITI","","html-keyboard-response","221","250270","0.0-1.0-297.0","0","0","24578","","null","","","null","32","","","","","","","","","","","","","","","NaN",""
"","S1","","html-keyboard-response","222","250522","0.0-1.0-299.0","0","0","24578","","null","","","null","33","","","","","","","","","","","","","","","",""
"","ISI","","html-keyboard-response","223","251025","0.0-1.0-300.0","0","0","24578","","null","","","null","33","NaN","","","","","","","","","","","","","","",""
"","S2","","html-keyboard-response","224","251289","0.0-1.0-301.0","0","0","24578","","null","","","null","33","","NaN","","","","","","","","","","","","","",""
"","response","","html-keyboard-response","225","251667","0.0-1.0-302.0-0.0","0","0","24578","","376","","","68","33","","","1","33","training","adjacent","AB","1","2","O.jpg","M.jpg","1","1","1","",""
"","feedback","","html-keyboard-response","226","252681","0.0-1.0-303.0-0.0","0","0","24578","","null","","","null","33","","","","","","","","","","","","","","","",""
"","ITI","","html-keyboard-response","227","253683","0.0-1.0-306.0","0","0","24578","","null","","","null","33","","","","","","","","","","","","","","","NaN",""
"","S1","","html-keyboard-response","228","253950","0.0-1.0-308.0","0","0","24578","","null","","","null","34","","","","","","","","","","","","","","","",""
"","ISI","","html-keyboard-response","229","254452","0.0-1.0-309.0","0","0","24578","","null","","","null","34","NaN","","","","","","","","","","","","","","",""
"","S2","","html-keyboard-response","230","254718","0.0-1.0-310.0","0","0","24578","","null","","","null","34","","NaN","","","","","","","","","","","","","",""
"","response","","html-keyboard-response","231","255107","0.0-1.0-311.0-0.0","0","0","24578","","388","","","68","34","","","1","34","training","adjacent","AB","1","2","O.jpg","M.jpg","1","1","1","",""
"","feedback","","html-keyboard-response","232","256118","0.0-1.0-312.0-0.0","0","0","24578","","null","","","null","34","","","","","","","","","","","","","","","",""
"","ITI","","html-keyboard-response","233","257131","0.0-1.0-315.0","0","0","24578","","null","","","null","34","","","","","","","","","","","","","","","NaN",""
"","S1","","html-keyboard-response","234","257395","0.0-1.0-317.0","0","0","24578","","null","","","null","35","","","","","","","","","","","","","","","",""
"","ISI","","html-keyboard-response","235","257905","0.0-1.0-318.0","0","0","24578","","null","","","null","35","NaN","","","","","","","","","","","","","","",""
"","S2","","html-keyboard-response","236","258168","0.0-1.0-319.0","0","0","24578","","null","","","null","35","","NaN","","","","","","","","","","","","","",""
"","response","","html-keyboard-response","237","258596","0.0-1.0-320.0-0.0","0","0","24578","","427","","","75","35","","","1","35","training","adjacent","ED","5","4","Q.jpg","L.jpg","0","0","1","",""
"","feedback","","html-keyboard-response","238","259599","0.0-1.0-321.0-0.0","0","0","24578","","null","","","null","35","","","","","","","","","","","","","","","",""
"","ITI","","html-keyboard-response","239","260601","0.0-1.0-324.0","0","0","24578","","null","","","null","35","","","","","","","","","","","","","","","NaN",""
"","S1","","html-keyboard-response","240","260867","0.0-1.0-326.0","0","0","24578","","null","","","null","36","","","","","","","","","","","","","","","",""
"","ISI","","html-keyboard-response","241","261371","0.0-1.0-327.0","0","0","24578","","null","","","null","36","NaN","","","","","","","","","","","","","","",""
"","S2","","html-keyboard-response","242","261636","0.0-1.0-328.0","0","0","24578","","null","","","null","36","","NaN","","","","","","","","","","","","","",""
"","response","","html-keyboard-response","243","262059","0.0-1.0-329.0-0.0","0","0","24578","","422","","","75","36","","","1","36","training","adjacent","CB","3","2","N.jpg","M.jpg","0","0","1","",""
"","feedback","","html-keyboard-response","244","263074","0.0-1.0-330.0-0.0","0","0","24578","","null","","","null","36","","","","","","","","","","","","","","","",""
"","ITI","","html-keyboard-response","245","264087","0.0-1.0-333.0","0","0","24578","","null","","","null","36","","","","","","","","","","","","","","","NaN",""
"","S1","","html-keyboard-response","246","264340","0.0-1.0-335.0","0","0","24578","","null","","","null","37","","","","","","","","","","","","","","","",""
"","ISI","","html-keyboard-response","247","264851","0.0-1.0-336.0","0","0","24578","","null","","","null","37","NaN","","","","","","","","","","","","","","",""
"","S2","","html-keyboard-response","248","265114","0.0-1.0-337.0","0","0","24578","","null","","","null","37","","NaN","","","","","","","","","","","","","",""
"","response","","html-keyboard-response","249","265470","0.0-1.0-338.0-0.0","0","0","24578","","355","","","68","37","","","1","37","training","adjacent","BC","2","3","M.jpg","N.jpg","1","1","1","",""
"","feedback","","html-keyboard-response","250","266472","0.0-1.0-339.0-0.0","0","0","24578","","null","","","null","37","","","","","","","","","","","","","","","",""
"","ITI","","html-keyboard-response","251","267480","0.0-1.0-342.0","0","0","24578","","null","","","null","37","","","","","","","","","","","","","","","NaN",""
"","S1","","html-keyboard-response","252","267747","0.0-1.0-344.0","0","0","24578","","null","","","null","38","","","","","","","","","","","","","","","",""
"","ISI","","html-keyboard-response","253","268259","0.0-1.0-345.0","0","0","24578","","null","","","null","38","NaN","","","","","","","","","","","","","","",""
"","S2","","html-keyboard-response","254","268523","0.0-1.0-346.0","0","0","24578","","null","","","null","38","","NaN","","","","","","","","","","","","","",""
"","response","","html-keyboard-response","255","268842","0.0-1.0-347.0-0.0","0","0","24578","","318","","","75","38","","","1","38","training","adjacent","DC","4","3","L.jpg","N.jpg","0","0","1","",""
"","feedback","","html-keyboard-response","256","269853","0.0-1.0-348.0-0.0","0","0","24578","","null","","","null","38","","","","","","","","","","","","","","","",""
"","ITI","","html-keyboard-response","257","270865","0.0-1.0-351.0","0","0","24578","","null","","","null","38","","","","","","","","","","","","","","","NaN",""
"","S1","","html-keyboard-response","258","271117","0.0-1.0-353.0","0","0","24578","","null","","","null","39","","","","","","","","","","","","","","","",""
"","ISI","","html-keyboard-response","259","271632","0.0-1.0-354.0","0","0","24578","","null","","","null","39","NaN","","","","","","","","","","","","","","",""
"","S2","","html-keyboard-response","260","271885","0.0-1.0-355.0","0","0","24578","","null","","","null","39","","NaN","","","","","","","","","","","","","",""
"","response","","html-keyboard-response","261","272135","0.0-1.0-356.0-0.0","0","0","24578","","249","","","75","39","","","1","39","training","adjacent","DC","4","3","L.jpg","N.jpg","0","0","1","",""
"","feedback","","html-keyboard-response","262","273142","0.0-1.0-357.0-0.0","0","0","24578","","null","","","null","39","","","","","","","","","","","","","","","",""
"","ITI","","html-keyboard-response","263","274155","0.0-1.0-360.0","0","0","24578","","null","","","null","39","","","","","","","","","","","","","","","NaN",""
"","S1","","html-keyboard-response","264","274417","0.0-1.0-362.0","0","0","24578","","null","","","null","40","","","","","","","","","","","","","","","",""
"","ISI","","html-keyboard-response","265","274928","0.0-1.0-363.0","0","0","24578","","null","","","null","40","NaN","","","","","","","","","","","","","","",""
"","S2","","html-keyboard-response","266","275191","0.0-1.0-364.0","0","0","24578","","null","","","null","40","","NaN","","","","","","","","","","","","","",""
"","response","","html-keyboard-response","267","275598","0.0-1.0-365.0-0.0","0","0","24578","","405","","","68","40","","","1","40","training","adjacent","CD","3","4","N.jpg","L.jpg","1","1","1","",""
"","feedback","","html-keyboard-response","268","276603","0.0-1.0-366.0-0.0","0","0","24578","","null","","","null","40","","","","","","","","","","","","","","","",""
"","ITI","","html-keyboard-response","269","277613","0.0-1.0-369.0","0","0","24578","","null","","","null","40","","","","","","","","","","","","","","","NaN",""
"","S1","","html-keyboard-response","270","277879","0.0-1.0-371.0","0","0","24578","","null","","","null","41","","","","","","","","","","","","","","","",""
"","ISI","","html-keyboard-response","271","278395","0.0-1.0-372.0","0","0","24578","","null","","","null","41","NaN","","","","","","","","","","","","","","",""
"","S2","","html-keyboard-response","272","278658","0.0-1.0-373.0","0","0","24578","","null","","","null","41","","NaN","","","","","","","","","","","","","",""
"","response","","html-keyboard-response","273","279199","0.0-1.0-374.0-0.0","0","0","24578","","541","","","68","41","","","1","41","training","adjacent","DC","4","3","L.jpg","N.jpg","1","0","0","",""
"","feedback","","html-keyboard-response","274","280209","0.0-1.0-375.0-0.0","0","0","24578","","null","","","null","41","","","","","","","","","","","","","","","",""
"","time_out","","html-keyboard-response","275","282217","0.0-1.0-377.0-0.0","0","0","24578","","null","","","null","41","","","","","","","","","","","","","","","",""
"","ITI","","html-keyboard-response","276","283228","0.0-1.0-378.0","0","0","24578","","null","","","null","41","","","","","","","","","","","","","","","NaN",""
"","S1","","html-keyboard-response","277","283492","0.0-1.0-380.0","0","0","24578","","null","","","null","42","","","","","","","","","","","","","","","",""
"","ISI","","html-keyboard-response","278","284007","0.0-1.0-381.0","0","0","24578","","null","","","null","42","NaN","","","","","","","","","","","","","","",""
"","S2","","html-keyboard-response","279","284272","0.0-1.0-382.0","0","0","24578","","null","","","null","42","","NaN","","","","","","","","","","","","","",""
"","response","","html-keyboard-response","280","284559","0.0-1.0-383.0-0.0","0","0","24578","","285","","","68","42","","","1","42","training","adjacent","AB","1","2","O.jpg","M.jpg","1","1","1","",""
"","feedback","","html-keyboard-response","281","285560","0.0-1.0-384.0-0.0","0","0","24578","","null","","","null","42","","","","","","","","","","","","","","","",""
"","ITI","","html-keyboard-response","282","286571","0.0-1.0-387.0","0","0","24578","","null","","","null","42","","","","","","","","","","","","","","","NaN",""
"","S1","","html-keyboard-response","283","286835","0.0-1.0-389.0","0","0","24578","","null","","","null","43","","","","","","","","","","","","","","","",""
"","ISI","","html-keyboard-response","284","287350","0.0-1.0-390.0","0","0","24578","","null","","","null","43","NaN","","","","","","","","","","","","","","",""
"","S2","","html-keyboard-response","285","287611","0.0-1.0-391.0","0","0","24578","","null","","","null","43","","NaN","","","","","","","","","","","","","",""
"","response","","html-keyboard-response","286","287849","0.0-1.0-392.0-0.0","0","0","24578","","237","","","75","43","","","1","43","training","adjacent","DE","4","5","L.jpg","Q.jpg","0","1","0","",""
"","feedback","","html-keyboard-response","287","288865","0.0-1.0-393.0-0.0","0","0","24578","","null","","","null","43","","","","","","","","","","","","","","","",""
"","time_out","","html-keyboard-response","288","290872","0.0-1.0-395.0-0.0","0","0","24578","","null","","","null","43","","","","","","","","","","","","","","","",""
"","ITI","","html-keyboard-response","289","291886","0.0-1.0-396.0","0","0","24578","","null","","","null","43","","","","","","","","","","","","","","","NaN",""
"","S1","","html-keyboard-response","290","292152","0.0-1.0-398.0","0","0","24578","","null","","","null","44","","","","","","","","","","","","","","","",""
"","ISI","","html-keyboard-response","291","292665","0.0-1.0-399.0","0","0","24578","","null","","","null","44","NaN","","","","","","","","","","","","","","",""
"","S2","","html-keyboard-response","292","292929","0.0-1.0-400.0","0","0","24578","","null","","","null","44","","NaN","","","","","","","","","","","","","",""
"","response","","html-keyboard-response","293","293277","0.0-1.0-401.0-0.0","0","0","24578","","347","","","75","44","","","1","44","training","adjacent","ED","5","4","Q.jpg","L.jpg","0","0","1","",""
"","feedback","","html-keyboard-response","294","294283","0.0-1.0-402.0-0.0","0","0","24578","","null","","","null","44","","","","","","","","","","","","","","","",""
"","ITI","","html-keyboard-response","295","295294","0.0-1.0-405.0","0","0","24578","","null","","","null","44","","","","","","","","","","","","","","","NaN",""
"","S1","","html-keyboard-response","296","295558","0.0-1.0-407.0","0","0","24578","","null","","","null","45","","","","","","","","","","","","","","","",""
"","ISI","","html-keyboard-response","297","296071","0.0-1.0-408.0","0","0","24578","","null","","","null","45","NaN","","","","","","","","","","","","","","",""
"","S2","","html-keyboard-response","298","296336","0.0-1.0-409.0","0","0","24578","","null","","","null","45","","NaN","","","","","","","","","","","","","",""
"","response","","html-keyboard-response","299","296783","0.0-1.0-410.0-0.0","0","0","24578","","446","","","75","45","","","1","45","training","adjacent","CB","3","2","N.jpg","M.jpg","0","0","1","",""
"","feedback","","html-keyboard-response","300","297793","0.0-1.0-411.0-0.0","0","0","24578","","null","","","null","45","","","","","","","","","","","","","","","",""
"","ITI","","html-keyboard-response","301","298808","0.0-1.0-414.0","0","0","24578","","null","","","null","45","","","","","","","","","","","","","","","NaN",""
"","S1","","html-keyboard-response","302","299074","0.0-1.0-416.0","0","0","24578","","null","","","null","46","","","","","","","","","","","","","","","",""
"","ISI","","html-keyboard-response","303","299583","0.0-1.0-417.0","0","0","24578","","null","","","null","46","NaN","","","","","","","","","","","","","","",""
"","S2","","html-keyboard-response","304","299835","0.0-1.0-418.0","0","0","24578","","null","","","null","46","","NaN","","","","","","","","","","","","","",""
"","response","","html-keyboard-response","305","300437","0.0-1.0-419.0-0.0","0","0","24578","","601","","","68","46","","","1","46","training","adjacent","CD","3","4","N.jpg","L.jpg","1","1","1","",""
"","feedback","","html-keyboard-response","306","301452","0.0-1.0-420.0-0.0","0","0","24578","","null","","","null","46","","","","","","","","","","","","","","","",""
"","ITI","","html-keyboard-response","307","302464","0.0-1.0-423.0","0","0","24578","","null","","","null","46","","","","","","","","","","","","","","","NaN",""
"","S1","","html-keyboard-response","308","302730","0.0-1.0-425.0","0","0","24578","","null","","","null","47","","","","","","","","","","","","","","","",""
"","ISI","","html-keyboard-response","309","303241","0.0-1.0-426.0","0","0","24578","","null","","","null","47","NaN","","","","","","","","","","","","","","",""
"","S2","","html-keyboard-response","310","303505","0.0-1.0-427.0","0","0","24578","","null","","","null","47","","NaN","","","","","","","","","","","","","",""
"","response","","html-keyboard-response","311","303994","0.0-1.0-428.0-0.0","0","0","24578","","488","","","75","47","","","1","47","training","adjacent","DE","4","5","L.jpg","Q.jpg","0","1","0","",""
"","feedback","","html-keyboard-response","312","305010","0.0-1.0-429.0-0.0","0","0","24578","","null","","","null","47","","","","","","","","","","","","","","","",""
"","time_out","","html-keyboard-response","313","307021","0.0-1.0-431.0-0.0","0","0","24578","","null","","","null","47","","","","","","","","","","","","","","","",""
"","ITI","","html-keyboard-response","314","308034","0.0-1.0-432.0","0","0","24578","","null","","","null","47","","","","","","","","","","","","","","","NaN",""
"","block_over","","html-keyboard-response","315","344626","0.0-1.0-433.0-0.0","0","0","24578","","36591","","","32","47","","","","","","","","","","","","","","","",""
"","S1","","html-keyboard-response","316","344880","0.0-1.0-434.0","0","0","24578","","null","","","null","48","","","","","","","","","","","","","","","",""
"","ISI","","html-keyboard-response","317","345393","0.0-1.0-435.0","0","0","24578","","null","","","null","48","NaN","","","","","","","","","","","","","","",""
"","S2","","html-keyboard-response","318","345657","0.0-1.0-436.0","0","0","24578","","null","","","null","48","","NaN","","","","","","","","","","","","","",""
"","response","","html-keyboard-response","319","346163","0.0-1.0-437.0-0.0","0","0","24578","","505","","","68","48","","","2","48","training","adjacent","BC","2","3","M.jpg","N.jpg","1","1","1","",""
"","feedback","","html-keyboard-response","320","347177","0.0-1.0-438.0-0.0","0","0","24578","","null","","","null","48","","","","","","","","","","","","","","","",""
"","ITI","","html-keyboard-response","321","348181","0.0-1.0-441.0","0","0","24578","","null","","","null","48","","","","","","","","","","","","","","","NaN",""
"","S1","","html-keyboard-response","322","348446","0.0-1.0-443.0","0","0","24578","","null","","","null","49","","","","","","","","","","","","","","","",""
"","ISI","","html-keyboard-response","323","348960","0.0-1.0-444.0","0","0","24578","","null","","","null","49","NaN","","","","","","","","","","","","","","",""
"","S2","","html-keyboard-response","324","349224","0.0-1.0-445.0","0","0","24578","","null","","","null","49","","NaN","","","","","","","","","","","","","",""
"","response","","html-keyboard-response","325","349463","0.0-1.0-446.0-0.0","0","0","24578","","238","","","68","49","","","2","49","training","adjacent","BC","2","3","M.jpg","N.jpg","1","1","1","",""
"","feedback","","html-keyboard-response","326","350479","0.0-1.0-447.0-0.0","0","0","24578","","null","","","null","49","","","","","","","","","","","","","","","",""
"","ITI","","html-keyboard-response","327","351491","0.0-1.0-450.0","0","0","24578","","null","","","null","49","","","","","","","","","","","","","","","NaN",""
"","S1","","html-keyboard-response","328","351756","0.0-1.0-452.0","0","0","24578","","null","","","null","50","","","","","","","","","","","","","","","",""
"","ISI","","html-keyboard-response","329","352272","0.0-1.0-453.0","0","0","24578","","null","","","null","50","NaN","","","","","","","","","","","","","","",""
"","S2","","html-keyboard-response","330","352535","0.0-1.0-454.0","0","0","24578","","null","","","null","50","","NaN","","","","","","","","","","","","","",""
"","response","","html-keyboard-response","331","353001","0.0-1.0-455.0-0.0","0","0","24578","","464","","","68","50","","","2","50","training","adjacent","GF","7","6","P.jpg","R.jpg","1","0","0","",""
"","feedback","","html-keyboard-response","332","354010","0.0-1.0-456.0-0.0","0","0","24578","","null","","","null","50","","","","","","","","","","","","","","","",""
"","time_out","","html-keyboard-response","333","356014","0.0-1.0-458.0-0.0","0","0","24578","","null","","","null","50","","","","","","","","","","","","","","","",""
"","ITI","","html-keyboard-response","334","357024","0.0-1.0-459.0","0","0","24578","","null","","","null","50","","","","","","","","","","","","","","","NaN",""
"","S1","","html-keyboard-response","335","357287","0.0-1.0-461.0","0","0","24578","","null","","","null","51","","","","","","","","","","","","","","","",""
"","ISI","","html-keyboard-response","336","357798","0.0-1.0-462.0","0","0","24578","","null","","","null","51","NaN","","","","","","","","","","","","","","",""
"","S2","","html-keyboard-response","337","358062","0.0-1.0-463.0","0","0","24578","","null","","","null","51","","NaN","","","","","","","","","","","","","",""
"","response","","html-keyboard-response","338","358567","0.0-1.0-464.0-0.0","0","0","24578","","504","","","75","51","","","2","51","training","adjacent","GF","7","6","P.jpg","R.jpg","0","0","1","",""
"","feedback","","html-keyboard-response","339","359583","0.0-1.0-465.0-0.0","0","0","24578","","null","","","null","51","","","","","","","","","","","","","","","",""
"","ITI","","html-keyboard-response","340","360594","0.0-1.0-468.0","0","0","24578","","null","","","null","51","","","","","","","","","","","","","","","NaN",""
"","S1","","html-keyboard-response","341","360859","0.0-1.0-470.0","0","0","24578","","null","","","null","52","","","","","","","","","","","","","","","",""
"","ISI","","html-keyboard-response","342","361373","0.0-1.0-471.0","0","0","24578","","null","","","null","52","NaN","","","","","","","","","","","","","","",""
"","S2","","html-keyboard-response","343","361639","0.0-1.0-472.0","0","0","24578","","null","","","null","52","","NaN","","","","","","","","","","","","","",""
"","response","","html-keyboard-response","344","361920","0.0-1.0-473.0-0.0","0","0","24578","","279","","","75","52","","","2","52","training","adjacent","BA","2","1","M.jpg","O.jpg","0","0","1","",""
"","feedback","","html-keyboard-response","345","362929","0.0-1.0-474.0-0.0","0","0","24578","","null","","","null","52","","","","","","","","","","","","","","","",""
"","ITI","","html-keyboard-response","346","363942","0.0-1.0-477.0","0","0","24578","","null","","","null","52","","","","","","","","","","","","","","","NaN",""
"","S1","","html-keyboard-response","347","364204","0.0-1.0-479.0","0","0","24578","","null","","","null","53","","","","","","","","","","","","","","","",""
"","ISI","","html-keyboard-response","348","364716","0.0-1.0-480.0","0","0","24578","","null","","","null","53","NaN","","","","","","","","","","","","","","",""
"","S2","","html-keyboard-response","349","364978","0.0-1.0-481.0","0","0","24578","","null","","","null","53","","NaN","","","","","","","","","","","","","",""
"","response","","html-keyboard-response","350","365635","0.0-1.0-482.0-0.0","0","0","24578","","656","","","75","53","","","2","53","training","adjacent","BA","2","1","M.jpg","O.jpg","0","0","1","",""
"","feedback","","html-keyboard-response","351","366643","0.0-1.0-483.0-0.0","0","0","24578","","null","","","null","53","","","","","","","","","","","","","","","",""
"","ITI","","html-keyboard-response","352","367656","0.0-1.0-486.0","0","0","24578","","null","","","null","53","","","","","","","","","","","","","","","NaN",""
"","S1","","html-keyboard-response","353","367919","0.0-1.0-488.0","0","0","24578","","null","","","null","54","","","","","","","","","","","","","","","",""
"","ISI","","html-keyboard-response","354","368434","0.0-1.0-489.0","0","0","24578","","null","","","null","54","NaN","","","","","","","","","","","","","","",""
"","S2","","html-keyboard-response","355","368700","0.0-1.0-490.0","0","0","24578","","null","","","null","54","","NaN","","","","","","","","","","","","","",""
"","response","","html-keyboard-response","356","369220","0.0-1.0-491.0-0.0","0","0","24578","","519","","","68","54","","","2","54","training","adjacent","EF","5","6","Q.jpg","R.jpg","1","1","1","",""
"","feedback","","html-keyboard-response","357","370222","0.0-1.0-492.0-0.0","0","0","24578","","null","","","null","54","","","","","","","","","","","","","","","",""
"","ITI","","html-keyboard-response","358","371227","0.0-1.0-495.0","0","0","24578","","null","","","null","54","","","","","","","","","","","","","","","NaN",""
"","S1","","html-keyboard-response","359","371493","0.0-1.0-497.0","0","0","24578","","null","","","null","55","","","","","","","","","","","","","","","",""
"","ISI","","html-keyboard-response","360","371994","0.0-1.0-498.0","0","0","24578","","null","","","null","55","NaN","","","","","","","","","","","","","","",""
"","S2","","html-keyboard-response","361","372260","0.0-1.0-499.0","0","0","24578","","null","","","null","55","","NaN","","","","","","","","","","","","","",""
"","response","","html-keyboard-response","362","372519","0.0-1.0-500.0-0.0","0","0","24578","","258","","","75","55","","","2","55","training","adjacent","DC","4","3","L.jpg","N.jpg","0","0","1","",""
"","feedback","","html-keyboard-response","363","373533","0.0-1.0-501.0-0.0","0","0","24578","","null","","","null","55","","","","","","","","","","","","","","","",""
"","ITI","","html-keyboard-response","364","374547","0.0-1.0-504.0","0","0","24578","","null","","","null","55","","","","","","","","","","","","","","","NaN",""
"","S1","","html-keyboard-response","365","374807","0.0-1.0-506.0","0","0","24578","","null","","","null","56","","","","","","","","","","","","","","","",""
"","ISI","","html-keyboard-response","366","375320","0.0-1.0-507.0","0","0","24578","","null","","","null","56","NaN","","","","","","","","","","","","","","",""
"","S2","","html-keyboard-response","367","375583","0.0-1.0-508.0","0","0","24578","","null","","","null","56","","NaN","","","","","","","","","","","","","",""
"","response","","html-keyboard-response","368","376599","0.0-1.0-509.0-0.0","0","0","24578","","1015","","","68","56","","","2","56","training","adjacent","FE","6","5","R.jpg","Q.jpg","1","0","0","",""
"","feedback","","html-keyboard-response","369","377600","0.0-1.0-510.0-0.0","0","0","24578","","null","","","null","56","","","","","","","","","","","","","","","",""
"","time_out","","html-keyboard-response","370","379606","0.0-1.0-512.0-0.0","0","0","24578","","null","","","null","56","","","","","","","","","","","","","","","",""
"","ITI","","html-keyboard-response","371","380619","0.0-1.0-513.0","0","0","24578","","null","","","null","56","","","","","","","","","","","","","","","NaN",""
"","S1","","html-keyboard-response","372","380881","0.0-1.0-515.0","0","0","24578","","null","","","null","57","","","","","","","","","","","","","","","",""
"","ISI","","html-keyboard-response","373","381395","0.0-1.0-516.0","0","0","24578","","null","","","null","57","NaN","","","","","","","","","","","","","","",""
"","S2","","html-keyboard-response","374","381659","0.0-1.0-517.0","0","0","24578","","null","","","null","57","","NaN","","","","","","","","","","","","","",""
"","response","","html-keyboard-response","375","382122","0.0-1.0-518.0-0.0","0","0","24578","","462","","","68","57","","","2","57","training","adjacent","CD","3","4","N.jpg","L.jpg","1","1","1","",""
"","feedback","","html-keyboard-response","376","383138","0.0-1.0-519.0-0.0","0","0","24578","","null","","","null","57","","","","","","","","","","","","","","","",""
"","ITI","","html-keyboard-response","377","384153","0.0-1.0-522.0","0","0","24578","","null","","","null","57","","","","","","","","","","","","","","","NaN",""
"","S1","","html-keyboard-response","378","384417","0.0-1.0-524.0","0","0","24578","","null","","","null","58","","","","","","","","","","","","","","","",""
"","ISI","","html-keyboard-response","379","384931","0.0-1.0-525.0","0","0","24578","","null","","","null","58","NaN","","","","","","","","","","","","","","",""
"","S2","","html-keyboard-response","380","385194","0.0-1.0-526.0","0","0","24578","","null","","","null","58","","NaN","","","","","","","","","","","","","",""
"","response","","html-keyboard-response","381","385796","0.0-1.0-527.0-0.0","0","0","24578","","601","","","75","58","","","2","58","training","adjacent","FG","6","7","R.jpg","P.jpg","0","1","0","",""
"","feedback","","html-keyboard-response","382","386806","0.0-1.0-528.0-0.0","0","0","24578","","null","","","null","58","","","","","","","","","","","","","","","",""
"","time_out","","html-keyboard-response","383","388811","0.0-1.0-530.0-0.0","0","0","24578","","null","","","null","58","","","","","","","","","","","","","","","",""
"","ITI","","html-keyboard-response","384","389823","0.0-1.0-531.0","0","0","24578","","null","","","null","58","","","","","","","","","","","","","","","NaN",""
"","S1","","html-keyboard-response","385","390085","0.0-1.0-533.0","0","0","24578","","null","","","null","59","","","","","","","","","","","","","","","",""
"","ISI","","html-keyboard-response","386","390597","0.0-1.0-534.0","0","0","24578","","null","","","null","59","NaN","","","","","","","","","","","","","","",""
"","S2","","html-keyboard-response","387","390849","0.0-1.0-535.0","0","0","24578","","null","","","null","59","","NaN","","","","","","","","","","","","","",""
"","response","","html-keyboard-response","388","391246","0.0-1.0-536.0-0.0","0","0","24578","","396","","","75","59","","","2","59","training","adjacent","ED","5","4","Q.jpg","L.jpg","0","0","1","",""
"","feedback","","html-keyboard-response","389","392261","0.0-1.0-537.0-0.0","0","0","24578","","null","","","null","59","","","","","","","","","","","","","","","",""
"","ITI","","html-keyboard-response","390","393274","0.0-1.0-540.0","0","0","24578","","null","","","null","59","","","","","","","","","","","","","","","NaN",""
"","S1","","html-keyboard-response","391","393538","0.0-1.0-542.0","0","0","24578","","null","","","null","60","","","","","","","","","","","","","","","",""
"","ISI","","html-keyboard-response","392","394054","0.0-1.0-543.0","0","0","24578","","null","","","null","60","NaN","","","","","","","","","","","","","","",""
"","S2","","html-keyboard-response","393","394306","0.0-1.0-544.0","0","0","24578","","null","","","null","60","","NaN","","","","","","","","","","","","","",""
"","response","","html-keyboard-response","394","394511","0.0-1.0-545.0-0.0","0","0","24578","","203","","","68","60","","","2","60","training","adjacent","BA","2","1","M.jpg","O.jpg","1","0","0","",""
"","feedback","","html-keyboard-response","395","395523","0.0-1.0-546.0-0.0","0","0","24578","","null","","","null","60","","","","","","","","","","","","","","","",""
"","time_out","","html-keyboard-response","396","397537","0.0-1.0-548.0-0.0","0","0","24578","","null","","","null","60","","","","","","","","","","","","","","","",""
"","ITI","","html-keyboard-response","397","398550","0.0-1.0-549.0","0","0","24578","","null","","","null","60","","","","","","","","","","","","","","","NaN",""
"","S1","","html-keyboard-response","398","398816","0.0-1.0-551.0","0","0","24578","","null","","","null","61","","","","","","","","","","","","","","","",""
"","ISI","","html-keyboard-response","399","399328","0.0-1.0-552.0","0","0","24578","","null","","","null","61","NaN","","","","","","","","","","","","","","",""
"","S2","","html-keyboard-response","400","399592","0.0-1.0-553.0","0","0","24578","","null","","","null","61","","NaN","","","","","","","","","","","","","",""
"","response","","html-keyboard-response","401","399846","0.0-1.0-554.0-0.0","0","0","24578","","252","","","75","61","","","2","61","training","adjacent","CB","3","2","N.jpg","M.jpg","0","0","1","",""
"","feedback","","html-keyboard-response","402","400850","0.0-1.0-555.0-0.0","0","0","24578","","null","","","null","61","","","","","","","","","","","","","","","",""
"","ITI","","html-keyboard-response","403","401860","0.0-1.0-558.0","0","0","24578","","null","","","null","61","","","","","","","","","","","","","","","NaN",""
"","S1","","html-keyboard-response","404","402113","0.0-1.0-560.0","0","0","24578","","null","","","null","62","","","","","","","","","","","","","","","",""
"","ISI","","html-keyboard-response","405","402623","0.0-1.0-561.0","0","0","24578","","null","","","null","62","NaN","","","","","","","","","","","","","","",""
"","S2","","html-keyboard-response","406","402885","0.0-1.0-562.0","0","0","24578","","null","","","null","62","","NaN","","","","","","","","","","","","","",""
"","response","","html-keyboard-response","407","403486","0.0-1.0-563.0-0.0","0","0","24578","","600","","","68","62","","","2","62","training","adjacent","BA","2","1","M.jpg","O.jpg","1","0","0","",""
"","feedback","","html-keyboard-response","408","404488","0.0-1.0-564.0-0.0","0","0","24578","","null","","","null","62","","","","","","","","","","","","","","","",""
"","time_out","","html-keyboard-response","409","406495","0.0-1.0-566.0-0.0","0","0","24578","","null","","","null","62","","","","","","","","","","","","","","","",""
"","ITI","","html-keyboard-response","410","407509","0.0-1.0-567.0","0","0","24578","","null","","","null","62","","","","","","","","","","","","","","","NaN",""
"","S1","","html-keyboard-response","411","407773","0.0-1.0-569.0","0","0","24578","","null","","","null","63","","","","","","","","","","","","","","","",""
"","ISI","","html-keyboard-response","412","408284","0.0-1.0-570.0","0","0","24578","","null","","","null","63","NaN","","","","","","","","","","","","","","",""
"","S2","","html-keyboard-response","413","408547","0.0-1.0-571.0","0","0","24578","","null","","","null","63","","NaN","","","","","","","","","","","","","",""
"","response","","html-keyboard-response","414","409464","0.0-1.0-572.0-0.0","0","0","24578","","916","","","75","63","","","2","63","training","adjacent","EF","5","6","Q.jpg","R.jpg","0","1","0","",""
"","feedback","","html-keyboard-response","415","410480","0.0-1.0-573.0-0.0","0","0","24578","","null","","","null","63","","","","","","","","","","","","","","","",""
"","time_out","","html-keyboard-response","416","412493","0.0-1.0-575.0-0.0","0","0","24578","","null","","","null","63","","","","","","","","","","","","","","","",""
"","ITI","","html-keyboard-response","417","413504","0.0-1.0-576.0","0","0","24578","","null","","","null","63","","","","","","","","","","","","","","","NaN",""
"","S1","","html-keyboard-response","418","413768","0.0-1.0-578.0","0","0","24578","","null","","","null","64","","","","","","","","","","","","","","","",""
"","ISI","","html-keyboard-response","419","414281","0.0-1.0-579.0","0","0","24578","","null","","","null","64","NaN","","","","","","","","","","","","","","",""
"","S2","","html-keyboard-response","420","414544","0.0-1.0-580.0","0","0","24578","","null","","","null","64","","NaN","","","","","","","","","","","","","",""
"","response","","html-keyboard-response","421","414982","0.0-1.0-581.0-0.0","0","0","24578","","435","","","68","64","","","2","64","training","adjacent","BC","2","3","M.jpg","N.jpg","1","1","1","",""
"","feedback","","html-keyboard-response","422","415994","0.0-1.0-582.0-0.0","0","0","24578","","null","","","null","64","","","","","","","","","","","","","","","",""
"","ITI","","html-keyboard-response","423","417000","0.0-1.0-585.0","0","0","24578","","null","","","null","64","","","","","","","","","","","","","","","NaN",""
"","S1","","html-keyboard-response","424","417262","0.0-1.0-587.0","0","0","24578","","null","","","null","65","","","","","","","","","","","","","","","",""
"","ISI","","html-keyboard-response","425","417774","0.0-1.0-588.0","0","0","24578","","null","","","null","65","NaN","","","","","","","","","","","","","","",""
"","S2","","html-keyboard-response","426","418040","0.0-1.0-589.0","0","0","24578","","null","","","null","65","","NaN","","","","","","","","","","","","","",""
"","response","","html-keyboard-response","427","418229","0.0-1.0-590.0-0.0","0","0","24578","","187","","","75","65","","","2","65","training","adjacent","DC","4","3","L.jpg","N.jpg","0","0","1","",""
"","feedback","","html-keyboard-response","428","419237","0.0-1.0-591.0-0.0","0","0","24578","","null","","","null","65","","","","","","","","","","","","","","","",""
"","ITI","","html-keyboard-response","429","420252","0.0-1.0-594.0","0","0","24578","","null","","","null","65","","","","","","","","","","","","","","","NaN",""
"","S1","","html-keyboard-response","430","420517","0.0-1.0-596.0","0","0","24578","","null","","","null","66","","","","","","","","","","","","","","","",""
"","ISI","","html-keyboard-response","431","421027","0.0-1.0-597.0","0","0","24578","","null","","","null","66","NaN","","","","","","","","","","","","","","",""
"","S2","","html-keyboard-response","432","421290","0.0-1.0-598.0","0","0","24578","","null","","","null","66","","NaN","","","","","","","","","","","","","",""
"","response","","html-keyboard-response","433","421636","0.0-1.0-599.0-0.0","0","0","24578","","345","","","75","66","","","2","66","training","adjacent","FE","6","5","R.jpg","Q.jpg","0","0","1","",""
"","feedback","","html-keyboard-response","434","422639","0.0-1.0-600.0-0.0","0","0","24578","","null","","","null","66","","","","","","","","","","","","","","","",""
"","ITI","","html-keyboard-response","435","423648","0.0-1.0-603.0","0","0","24578","","null","","","null","66","","","","","","","","","","","","","","","NaN",""
"","S1","","html-keyboard-response","436","423901","0.0-1.0-605.0","0","0","24578","","null","","","null","67","","","","","","","","","","","","","","","",""
"","ISI","","html-keyboard-response","437","424414","0.0-1.0-606.0","0","0","24578","","null","","","null","67","NaN","","","","","","","","","","","","","","",""
"","S2","","html-keyboard-response","438","424677","0.0-1.0-607.0","0","0","24578","","null","","","null","67","","NaN","","","","","","","","","","","","","",""
"","response","","html-keyboard-response","439","425447","0.0-1.0-608.0-0.0","0","0","24578","","770","","","68","67","","","2","67","training","adjacent","AB","1","2","O.jpg","M.jpg","1","1","1","",""
"","feedback","","html-keyboard-response","440","426453","0.0-1.0-609.0-0.0","0","0","24578","","null","","","null","67","","","","","","","","","","","","","","","",""
"","ITI","","html-keyboard-response","441","427458","0.0-1.0-612.0","0","0","24578","","null","","","null","67","","","","","","","","","","","","","","","NaN",""
"","S1","","html-keyboard-response","442","427723","0.0-1.0-614.0","0","0","24578","","null","","","null","68","","","","","","","","","","","","","","","",""
"","ISI","","html-keyboard-response","443","428236","0.0-1.0-615.0","0","0","24578","","null","","","null","68","NaN","","","","","","","","","","","","","","",""
"","S2","","html-keyboard-response","444","428501","0.0-1.0-616.0","0","0","24578","","null","","","null","68","","NaN","","","","","","","","","","","","","",""
"","response","","html-keyboard-response","445","428913","0.0-1.0-617.0-0.0","0","0","24578","","411","","","68","68","","","2","68","training","adjacent","CD","3","4","N.jpg","L.jpg","1","1","1","",""
"","feedback","","html-keyboard-response","446","429927","0.0-1.0-618.0-0.0","0","0","24578","","null","","","null","68","","","","","","","","","","","","","","","",""
"","ITI","","html-keyboard-response","447","430929","0.0-1.0-621.0","0","0","24578","","null","","","null","68","","","","","","","","","","","","","","","NaN",""
"","S1","","html-keyboard-response","448","431196","0.0-1.0-623.0","0","0","24578","","null","","","null","69","","","","","","","","","","","","","","","",""
"","ISI","","html-keyboard-response","449","431709","0.0-1.0-624.0","0","0","24578","","null","","","null","69","NaN","","","","","","","","","","","","","","",""
"","S2","","html-keyboard-response","450","431973","0.0-1.0-625.0","0","0","24578","","null","","","null","69","","NaN","","","","","","","","","","","","","",""
"","response","","html-keyboard-response","451","432527","0.0-1.0-626.0-0.0","0","0","24578","","553","","","75","69","","","2","69","training","adjacent","FG","6","7","R.jpg","P.jpg","0","1","0","",""
"","feedback","","html-keyboard-response","452","433542","0.0-1.0-627.0-0.0","0","0","24578","","null","","","null","69","","","","","","","","","","","","","","","",""
"","time_out","","html-keyboard-response","453","435548","0.0-1.0-629.0-0.0","0","0","24578","","null","","","null","69","","","","","","","","","","","","","","","",""
"","ITI","","html-keyboard-response","454","436553","0.0-1.0-630.0","0","0","24578","","null","","","null","69","","","","","","","","","","","","","","","NaN",""
"","S1","","html-keyboard-response","455","436806","0.0-1.0-632.0","0","0","24578","","null","","","null","70","","","","","","","","","","","","","","","",""
"","ISI","","html-keyboard-response","456","437320","0.0-1.0-633.0","0","0","24578","","null","","","null","70","NaN","","","","","","","","","","","","","","",""
"","S2","","html-keyboard-response","457","437585","0.0-1.0-634.0","0","0","24578","","null","","","null","70","","NaN","","","","","","","","","","","","","",""
"","response","","html-keyboard-response","458","438898","0.0-1.0-635.0-0.0","0","0","24578","","1312","","","68","70","","","2","70","training","adjacent","EF","5","6","Q.jpg","R.jpg","1","1","1","",""
"","feedback","","html-keyboard-response","459","439910","0.0-1.0-636.0-0.0","0","0","24578","","null","","","null","70","","","","","","","","","","","","","","","",""
"","ITI","","html-keyboard-response","460","440919","0.0-1.0-639.0","0","0","24578","","null","","","null","70","","","","","","","","","","","","","","","NaN",""
"","S1","","html-keyboard-response","461","441184","0.0-1.0-641.0","0","0","24578","","null","","","null","71","","","","","","","","","","","","","","","",""
"","ISI","","html-keyboard-response","462","441696","0.0-1.0-642.0","0","0","24578","","null","","","null","71","NaN","","","","","","","","","","","","","","",""
"","S2","","html-keyboard-response","463","441960","0.0-1.0-643.0","0","0","24578","","null","","","null","71","","NaN","","","","","","","","","","","","","",""
"","response","","html-keyboard-response","464","442194","0.0-1.0-644.0-0.0","0","0","24578","","232","","","75","71","","","2","71","training","adjacent","DE","4","5","L.jpg","Q.jpg","0","1","0","",""
"","feedback","","html-keyboard-response","465","443201","0.0-1.0-645.0-0.0","0","0","24578","","null","","","null","71","","","","","","","","","","","","","","","",""
"","time_out","","html-keyboard-response","466","445202","0.0-1.0-647.0-0.0","0","0","24578","","null","","","null","71","","","","","","","","","","","","","","","",""
"","ITI","","html-keyboard-response","467","446212","0.0-1.0-648.0","0","0","24578","","null","","","null","71","","","","","","","","","","","","","","","NaN",""
"","S1","","html-keyboard-response","468","446475","0.0-1.0-650.0","0","0","24578","","null","","","null","72","","","","","","","","","","","","","","","",""
"","ISI","","html-keyboard-response","469","446988","0.0-1.0-651.0","0","0","24578","","null","","","null","72","NaN","","","","","","","","","","","","","","",""
"","S2","","html-keyboard-response","470","447253","0.0-1.0-652.0","0","0","24578","","null","","","null","72","","NaN","","","","","","","","","","","","","",""
"","response","","html-keyboard-response","471","447655","0.0-1.0-653.0-0.0","0","0","24578","","401","","","68","72","","","2","72","training","adjacent","EF","5","6","Q.jpg","R.jpg","1","1","1","",""
"","feedback","","html-keyboard-response","472","448665","0.0-1.0-654.0-0.0","0","0","24578","","null","","","null","72","","","","","","","","","","","","","","","",""
"","ITI","","html-keyboard-response","473","449674","0.0-1.0-657.0","0","0","24578","","null","","","null","72","","","","","","","","","","","","","","","NaN",""
"","S1","","html-keyboard-response","474","449934","0.0-1.0-659.0","0","0","24578","","null","","","null","73","","","","","","","","","","","","","","","",""
"","ISI","","html-keyboard-response","475","450448","0.0-1.0-660.0","0","0","24578","","null","","","null","73","NaN","","","","","","","","","","","","","","",""
"","S2","","html-keyboard-response","476","450702","0.0-1.0-661.0","0","0","24578","","null","","","null","73","","NaN","","","","","","","","","","","","","",""
"","response","","html-keyboard-response","477","451403","0.0-1.0-662.0-0.0","0","0","24578","","700","","","68","73","","","2","73","training","adjacent","AB","1","2","O.jpg","M.jpg","1","1","1","",""
"","feedback","","html-keyboard-response","478","452419","0.0-1.0-663.0-0.0","0","0","24578","","null","","","null","73","","","","","","","","","","","","","","","",""
"","ITI","","html-keyboard-response","479","453432","0.0-1.0-666.0","0","0","24578","","null","","","null","73","","","","","","","","","","","","","","","NaN",""
"","S1","","html-keyboard-response","480","453696","0.0-1.0-668.0","0","0","24578","","null","","","null","74","","","","","","","","","","","","","","","",""
"","ISI","","html-keyboard-response","481","454200","0.0-1.0-669.0","0","0","24578","","null","","","null","74","NaN","","","","","","","","","","","","","","",""
"","S2","","html-keyboard-response","482","454465","0.0-1.0-670.0","0","0","24578","","null","","","null","74","","NaN","","","","","","","","","","","","","",""
"","response","","html-keyboard-response","483","454770","0.0-1.0-671.0-0.0","0","0","24578","","303","","","75","74","","","2","74","training","adjacent","FE","6","5","R.jpg","Q.jpg","0","0","1","",""
"","feedback","","html-keyboard-response","484","455775","0.0-1.0-672.0-0.0","0","0","24578","","null","","","null","74","","","","","","","","","","","","","","","",""
"","ITI","","html-keyboard-response","485","456787","0.0-1.0-675.0","0","0","24578","","null","","","null","74","","","","","","","","","","","","","","","NaN",""
"","S1","","html-keyboard-response","486","457051","0.0-1.0-677.0","0","0","24578","","null","","","null","75","","","","","","","","","","","","","","","",""
"","ISI","","html-keyboard-response","487","457567","0.0-1.0-678.0","0","0","24578","","null","","","null","75","NaN","","","","","","","","","","","","","","",""
"","S2","","html-keyboard-response","488","457829","0.0-1.0-679.0","0","0","24578","","null","","","null","75","","NaN","","","","","","","","","","","","","",""
"","response","","html-keyboard-response","489","458480","0.0-1.0-680.0-0.0","0","0","24578","","650","","","75","75","","","2","75","training","adjacent","FG","6","7","R.jpg","P.jpg","0","1","0","",""
"","feedback","","html-keyboard-response","490","459488","0.0-1.0-681.0-0.0","0","0","24578","","null","","","null","75","","","","","","","","","","","","","","","",""
"","time_out","","html-keyboard-response","491","461497","0.0-1.0-683.0-0.0","0","0","24578","","null","","","null","75","","","","","","","","","","","","","","","",""
"","ITI","","html-keyboard-response","492","462511","0.0-1.0-684.0","0","0","24578","","null","","","null","75","","","","","","","","","","","","","","","NaN",""
"","S1","","html-keyboard-response","493","462775","0.0-1.0-686.0","0","0","24578","","null","","","null","76","","","","","","","","","","","","","","","",""
"","ISI","","html-keyboard-response","494","463279","0.0-1.0-687.0","0","0","24578","","null","","","null","76","NaN","","","","","","","","","","","","","","",""
"","S2","","html-keyboard-response","495","463542","0.0-1.0-688.0","0","0","24578","","null","","","null","76","","NaN","","","","","","","","","","","","","",""
"","response","","html-keyboard-response","496","463915","0.0-1.0-689.0-0.0","0","0","24578","","372","","","75","76","","","2","76","training","adjacent","FG","6","7","R.jpg","P.jpg","0","1","0","",""
"","feedback","","html-keyboard-response","497","464916","0.0-1.0-690.0-0.0","0","0","24578","","null","","","null","76","","","","","","","","","","","","","","","",""
"","time_out","","html-keyboard-response","498","466932","0.0-1.0-692.0-0.0","0","0","24578","","null","","","null","76","","","","","","","","","","","","","","","",""
"","ITI","","html-keyboard-response","499","467946","0.0-1.0-693.0","0","0","24578","","null","","","null","76","","","","","","","","","","","","","","","NaN",""
"","S1","","html-keyboard-response","500","468210","0.0-1.0-695.0","0","0","24578","","null","","","null","77","","","","","","","","","","","","","","","",""
"","ISI","","html-keyboard-response","501","468721","0.0-1.0-696.0","0","0","24578","","null","","","null","77","NaN","","","","","","","","","","","","","","",""
"","S2","","html-keyboard-response","502","468984","0.0-1.0-697.0","0","0","24578","","null","","","null","77","","NaN","","","","","","","","","","","","","",""
"","response","","html-keyboard-response","503","469431","0.0-1.0-698.0-0.0","0","0","24578","","445","","","68","77","","","2","77","training","adjacent","CD","3","4","N.jpg","L.jpg","1","1","1","",""
"","feedback","","html-keyboard-response","504","470444","0.0-1.0-699.0-0.0","0","0","24578","","null","","","null","77","","","","","","","","","","","","","","","",""
"","ITI","","html-keyboard-response","505","471460","0.0-1.0-702.0","0","0","24578","","null","","","null","77","","","","","","","","","","","","","","","NaN",""
"","S1","","html-keyboard-response","506","471723","0.0-1.0-704.0","0","0","24578","","null","","","null","78","","","","","","","","","","","","","","","",""
"","ISI","","html-keyboard-response","507","472230","0.0-1.0-705.0","0","0","24578","","null","","","null","78","NaN","","","","","","","","","","","","","","",""
"","S2","","html-keyboard-response","508","472494","0.0-1.0-706.0","0","0","24578","","null","","","null","78","","NaN","","","","","","","","","","","","","",""
"","response","","html-keyboard-response","509","472711","0.0-1.0-707.0-0.0","0","0","24578","","216","","","68","78","","","2","78","training","adjacent","BC","2","3","M.jpg","N.jpg","1","1","1","",""
"","feedback","","html-keyboard-response","510","473713","0.0-1.0-708.0-0.0","0","0","24578","","null","","","null","78","","","","","","","","","","","","","","","",""
"","ITI","","html-keyboard-response","511","474722","0.0-1.0-711.0","0","0","24578","","null","","","null","78","","","","","","","","","","","","","","","NaN",""
"","S1","","html-keyboard-response","512","474987","0.0-1.0-713.0","0","0","24578","","null","","","null","79","","","","","","","","","","","","","","","",""
"","ISI","","html-keyboard-response","513","475498","0.0-1.0-714.0","0","0","24578","","null","","","null","79","NaN","","","","","","","","","","","","","","",""
"","S2","","html-keyboard-response","514","475763","0.0-1.0-715.0","0","0","24578","","null","","","null","79","","NaN","","","","","","","","","","","","","",""
"","response","","html-keyboard-response","515","475927","0.0-1.0-716.0-0.0","0","0","24578","","163","","","68","79","","","2","79","training","adjacent","AB","1","2","O.jpg","M.jpg","1","1","1","",""
"","feedback","","html-keyboard-response","516","476941","0.0-1.0-717.0-0.0","0","0","24578","","null","","","null","79","","","","","","","","","","","","","","","",""
"","ITI","","html-keyboard-response","517","477945","0.0-1.0-720.0","0","0","24578","","null","","","null","79","","","","","","","","","","","","","","","NaN",""
"","S1","","html-keyboard-response","518","478198","0.0-1.0-722.0","0","0","24578","","null","","","null","80","","","","","","","","","","","","","","","",""
"","ISI","","html-keyboard-response","519","478715","0.0-1.0-723.0","0","0","24578","","null","","","null","80","NaN","","","","","","","","","","","","","","",""
"","S2","","html-keyboard-response","520","478978","0.0-1.0-724.0","0","0","24578","","null","","","null","80","","NaN","","","","","","","","","","","","","",""
"","response","","html-keyboard-response","521","479060","0.0-1.0-725.0-0.0","0","0","24578","","82","","","75","80","","","2","80","training","adjacent","DE","4","5","L.jpg","Q.jpg","0","1","0","",""
"","feedback","","html-keyboard-response","522","480067","0.0-1.0-726.0-0.0","0","0","24578","","null","","","null","80","","","","","","","","","","","","","","","",""
"","time_out","","html-keyboard-response","523","482070","0.0-1.0-728.0-0.0","0","0","24578","","null","","","null","80","","","","","","","","","","","","","","","",""
"","ITI","","html-keyboard-response","524","483081","0.0-1.0-729.0","0","0","24578","","null","","","null","80","","","","","","","","","","","","","","","NaN",""
"","S1","","html-keyboard-response","525","483347","0.0-1.0-731.0","0","0","24578","","null","","","null","81","","","","","","","","","","","","","","","",""
"","ISI","","html-keyboard-response","526","483854","0.0-1.0-732.0","0","0","24578","","null","","","null","81","NaN","","","","","","","","","","","","","","",""
"","S2","","html-keyboard-response","527","484118","0.0-1.0-733.0","0","0","24578","","null","","","null","81","","NaN","","","","","","","","","","","","","",""
"","response","","html-keyboard-response","528","484616","0.0-1.0-734.0-0.0","0","0","24578","","497","","","68","81","","","2","81","training","adjacent","GF","7","6","P.jpg","R.jpg","1","0","0","",""
"","feedback","","html-keyboard-response","529","485626","0.0-1.0-735.0-0.0","0","0","24578","","null","","","null","81","","","","","","","","","","","","","","","",""
"","time_out","","html-keyboard-response","530","487630","0.0-1.0-737.0-0.0","0","0","24578","","null","","","null","81","","","","","","","","","","","","","","","",""
"","ITI","","html-keyboard-response","531","488634","0.0-1.0-738.0","0","0","24578","","null","","","null","81","","","","","","","","","","","","","","","NaN",""
"","S1","","html-keyboard-response","532","488896","0.0-1.0-740.0","0","0","24578","","null","","","null","82","","","","","","","","","","","","","","","",""
"","ISI","","html-keyboard-response","533","489408","0.0-1.0-741.0","0","0","24578","","null","","","null","82","NaN","","","","","","","","","","","","","","",""
"","S2","","html-keyboard-response","534","489671","0.0-1.0-742.0","0","0","24578","","null","","","null","82","","NaN","","","","","","","","","","","","","",""
"","response","","html-keyboard-response","535","489981","0.0-1.0-743.0-0.0","0","0","24578","","309","","","75","82","","","2","82","training","adjacent","DC","4","3","L.jpg","N.jpg","0","0","1","",""
"","feedback","","html-keyboard-response","536","490996","0.0-1.0-744.0-0.0","0","0","24578","","null","","","null","82","","","","","","","","","","","","","","","",""
"","ITI","","html-keyboard-response","537","492008","0.0-1.0-747.0","0","0","24578","","null","","","null","82","","","","","","","","","","","","","","","NaN",""
"","S1","","html-keyboard-response","538","492273","0.0-1.0-749.0","0","0","24578","","null","","","null","83","","","","","","","","","","","","","","","",""
"","ISI","","html-keyboard-response","539","492775","0.0-1.0-750.0","0","0","24578","","null","","","null","83","NaN","","","","","","","","","","","","","","",""
"","S2","","html-keyboard-response","540","493027","0.0-1.0-751.0","0","0","24578","","null","","","null","83","","NaN","","","","","","","","","","","","","",""
"","response","","html-keyboard-response","541","493547","0.0-1.0-752.0-0.0","0","0","24578","","520","","","75","83","","","2","83","training","adjacent","ED","5","4","Q.jpg","L.jpg","0","0","1","",""
"","feedback","","html-keyboard-response","542","494549","0.0-1.0-753.0-0.0","0","0","24578","","null","","","null","83","","","","","","","","","","","","","","","",""
"","ITI","","html-keyboard-response","543","495559","0.0-1.0-756.0","0","0","24578","","null","","","null","83","","","","","","","","","","","","","","","NaN",""
"","S1","","html-keyboard-response","544","495824","0.0-1.0-758.0","0","0","24578","","null","","","null","84","","","","","","","","","","","","","","","",""
"","ISI","","html-keyboard-response","545","496335","0.0-1.0-759.0","0","0","24578","","null","","","null","84","NaN","","","","","","","","","","","","","","",""
"","S2","","html-keyboard-response","546","496600","0.0-1.0-760.0","0","0","24578","","null","","","null","84","","NaN","","","","","","","","","","","","","",""
"","response","","html-keyboard-response","547","496841","0.0-1.0-761.0-0.0","0","0","24578","","240","","","75","84","","","2","84","training","adjacent","DE","4","5","L.jpg","Q.jpg","0","1","0","",""
"","feedback","","html-keyboard-response","548","497846","0.0-1.0-762.0-0.0","0","0","24578","","null","","","null","84","","","","","","","","","","","","","","","",""
"","time_out","","html-keyboard-response","549","499859","0.0-1.0-764.0-0.0","0","0","24578","","null","","","null","84","","","","","","","","","","","","","","","",""
"","ITI","","html-keyboard-response","550","500864","0.0-1.0-765.0","0","0","24578","","null","","","null","84","","","","","","","","","","","","","","","NaN",""
"","S1","","html-keyboard-response","551","501129","0.0-1.0-767.0","0","0","24578","","null","","","null","85","","","","","","","","","","","","","","","",""
"","ISI","","html-keyboard-response","552","501642","0.0-1.0-768.0","0","0","24578","","null","","","null","85","NaN","","","","","","","","","","","","","","",""
"","S2","","html-keyboard-response","553","501895","0.0-1.0-769.0","0","0","24578","","null","","","null","85","","NaN","","","","","","","","","","","","","",""
"","response","","html-keyboard-response","554","502523","0.0-1.0-770.0-0.0","0","0","24578","","627","","","75","85","","","2","85","training","adjacent","FE","6","5","R.jpg","Q.jpg","0","0","1","",""
"","feedback","","html-keyboard-response","555","503525","0.0-1.0-771.0-0.0","0","0","24578","","null","","","null","85","","","","","","","","","","","","","","","",""
"","ITI","","html-keyboard-response","556","504538","0.0-1.0-774.0","0","0","24578","","null","","","null","85","","","","","","","","","","","","","","","NaN",""
"","S1","","html-keyboard-response","557","504800","0.0-1.0-776.0","0","0","24578","","null","","","null","86","","","","","","","","","","","","","","","",""
"","ISI","","html-keyboard-response","558","505312","0.0-1.0-777.0","0","0","24578","","null","","","null","86","NaN","","","","","","","","","","","","","","",""
"","S2","","html-keyboard-response","559","505577","0.0-1.0-778.0","0","0","24578","","null","","","null","86","","NaN","","","","","","","","","","","","","",""
"","response","","html-keyboard-response","560","506363","0.0-1.0-779.0-0.0","0","0","24578","","785","","","68","86","","","2","86","training","adjacent","AB","1","2","O.jpg","M.jpg","1","1","1","",""
"","feedback","","html-keyboard-response","561","507370","0.0-1.0-780.0-0.0","0","0","24578","","null","","","null","86","","","","","","","","","","","","","","","",""
"","ITI","","html-keyboard-response","562","508374","0.0-1.0-783.0","0","0","24578","","null","","","null","86","","","","","","","","","","","","","","","NaN",""
"","S1","","html-keyboard-response","563","508640","0.0-1.0-785.0","0","0","24578","","null","","","null","87","","","","","","","","","","","","","","","",""
"","ISI","","html-keyboard-response","564","509152","0.0-1.0-786.0","0","0","24578","","null","","","null","87","NaN","","","","","","","","","","","","","","",""
"","S2","","html-keyboard-response","565","509417","0.0-1.0-787.0","0","0","24578","","null","","","null","87","","NaN","","","","","","","","","","","","","",""
"","response","","html-keyboard-response","566","509721","0.0-1.0-788.0-0.0","0","0","24578","","303","","","75","87","","","2","87","training","adjacent","ED","5","4","Q.jpg","L.jpg","0","0","1","",""
"","feedback","","html-keyboard-response","567","510728","0.0-1.0-789.0-0.0","0","0","24578","","null","","","null","87","","","","","","","","","","","","","","","",""
"","ITI","","html-keyboard-response","568","511737","0.0-1.0-792.0","0","0","24578","","null","","","null","87","","","","","","","","","","","","","","","NaN",""
"","S1","","html-keyboard-response","569","512000","0.0-1.0-794.0","0","0","24578","","null","","","null","88","","","","","","","","","","","","","","","",""
"","ISI","","html-keyboard-response","570","512511","0.0-1.0-795.0","0","0","24578","","null","","","null","88","NaN","","","","","","","","","","","","","","",""
"","S2","","html-keyboard-response","571","512764","0.0-1.0-796.0","0","0","24578","","null","","","null","88","","NaN","","","","","","","","","","","","","",""
"","response","","html-keyboard-response","572","513459","0.0-1.0-797.0-0.0","0","0","24578","","693","","","68","88","","","2","88","training","adjacent","GF","7","6","P.jpg","R.jpg","1","0","0","",""
"","feedback","","html-keyboard-response","573","514471","0.0-1.0-798.0-0.0","0","0","24578","","null","","","null","88","","","","","","","","","","","","","","","",""
"","time_out","","html-keyboard-response","574","516477","0.0-1.0-800.0-0.0","0","0","24578","","null","","","null","88","","","","","","","","","","","","","","","",""
"","ITI","","html-keyboard-response","575","517481","0.0-1.0-801.0","0","0","24578","","null","","","null","88","","","","","","","","","","","","","","","NaN",""
"","S1","","html-keyboard-response","576","517744","0.0-1.0-803.0","0","0","24578","","null","","","null","89","","","","","","","","","","","","","","","",""
"","ISI","","html-keyboard-response","577","518260","0.0-1.0-804.0","0","0","24578","","null","","","null","89","NaN","","","","","","","","","","","","","","",""
"","S2","","html-keyboard-response","578","518524","0.0-1.0-805.0","0","0","24578","","null","","","null","89","","NaN","","","","","","","","","","","","","",""
"","response","","html-keyboard-response","579","518583","0.0-1.0-806.0-0.0","0","0","24578","","58","","","75","89","","","2","89","training","adjacent","DC","4","3","L.jpg","N.jpg","0","0","1","",""
"","feedback","","html-keyboard-response","580","519589","0.0-1.0-807.0-0.0","0","0","24578","","null","","","null","89","","","","","","","","","","","","","","","",""
