"success","ttype","start_time","trial_type","trial_index","time_elapsed","internal_node_id","warning","missed_checkup","PID","view_history","rt","responses","repeat_instructions","key_press","index","keypress_isi","keypress_S2","block","trial_num","phase","group_type","pair_type","S1_stim","S2_stim","S1_img","S2_img","S1_chosen","S1_higher","accuracy","keypress_iti","total_bonus_tally"
"true","full_screen","d03032023hr2012","fullscreen","0","29984","0.0-0.0","0","0","38216","","","","","","","","","","","","","","","","","","","","","",""
"","instructions","","instructions","1","47155","0.0-1.0-0.0-0.0","0","0","38216","[{""page_index"":0,""viewing_time"":4038},{""page_index"":1,""viewing_time"":1438},{""page_index"":2,""viewing_time"":2332},{""page_index"":1,""viewing_time"":7156},{""page_index"":2,""viewing_time"":1302},{""page_index"":3,""viewing_time"":892}]","17160","","","","","","","","","","","","","","","","","","","",""
"","comprehension_check","","survey-multi-choice","2","68265","0.0-1.0-0.0-1.0","0","0","38216","","21084","{""Q0"":""True"",""Q1"":""D"",""Q2"":""Only when the screen 'MAKE A CHOICE' is shown"",""Q3"":""Green mark"",""Q4"":""either D or K""}","1","","","","","","","","","","","","","","","","","",""
"","missed_instruction_checkup","","html-keyboard-response","3","71642","0.0-1.0-0.0-2.0-0.0","0","1","38216","","3368","","","32","","","","","","","","","","","","","","","","",""
"","instructions","","instructions","4","248076","0.0-1.0-0.1-0.1","0","0","38216","[{""page_index"":0,""viewing_time"":5038},{""page_index"":1,""viewing_time"":165732},{""page_index"":2,""viewing_time"":4709},{""page_index"":3,""viewing_time"":939}]","176426","","","","","","","","","","","","","","","","","","","",""
"","comprehension_check","","survey-multi-choice","5","258013","0.0-1.0-0.1-1.1","0","0","38216","","9923","{""Q0"":""True"",""Q1"":""D"",""Q2"":""Only when the screen 'MAKE A CHOICE' is shown"",""Q3"":""Green mark"",""Q4"":""either D or K""}","1","","","","","","","","","","","","","","","","","",""
"","missed_instruction_checkup","","html-keyboard-response","6","260050","0.0-1.0-0.1-2.1-0.1","0","1","38216","","2031","","","32","","","","","","","","","","","","","","","","",""
"","instructions","","instructions","7","262802","0.0-1.0-0.2-0.2","0","0","38216","[{""page_index"":0,""viewing_time"":2260},{""page_index"":1,""viewing_time"":163},{""page_index"":2,""viewing_time"":160},{""page_index"":3,""viewing_time"":161}]","2745","","","","","","","","","","","","","","","","","","","",""
"","comprehension_check","","survey-multi-choice","8","272198","0.0-1.0-0.2-1.2","0","0","38216","","9371","{""Q0"":""False"",""Q1"":""D"",""Q2"":""Only when the screen 'MAKE A CHOICE' is shown"",""Q3"":""Green mark"",""Q4"":""either D or K""}","1","","","","","","","","","","","","","","","","","",""
"","missed_instruction_checkup","","html-keyboard-response","9","273258","0.0-1.0-0.2-2.2-0.2","0","1","38216","","1053","","","32","","","","","","","","","","","","","","","","",""
"","instructions","","instructions","10","275873","0.0-1.0-0.3-0.3","0","0","38216","[{""page_index"":0,""viewing_time"":2082},{""page_index"":1,""viewing_time"":183},{""page_index"":2,""viewing_time"":170},{""page_index"":3,""viewing_time"":170}]","2606","","","","","","","","","","","","","","","","","","","",""
"","comprehension_check","","survey-multi-choice","11","294483","0.0-1.0-0.3-1.3","0","0","38216","","18589","{""Q0"":""True"",""Q1"":""D"",""Q2"":""Only when the screen 'MAKE A CHOICE' is shown"",""Q3"":""Green mark"",""Q4"":""Use a mouse""}","1","","","","","","","","","","","","","","","","","",""
"","missed_instruction_checkup","","html-keyboard-response","12","295760","0.0-1.0-0.3-2.3-0.3","0","1","38216","","1270","","","32","","","","","","","","","","","","","","","","",""
"","instructions","","instructions","13","308469","0.0-1.0-0.4-0.4","0","0","38216","[{""page_index"":0,""viewing_time"":1920},{""page_index"":1,""viewing_time"":5935},{""page_index"":2,""viewing_time"":3669},{""page_index"":3,""viewing_time"":1170}]","12695","","","","","","","","","","","","","","","","","","","",""
"","comprehension_check","","survey-multi-choice","14","320641","0.0-1.0-0.4-1.4","0","0","38216","","12154","{""Q0"":""False"",""Q1"":""D"",""Q2"":""Only when the screen 'MAKE A CHOICE' is shown"",""Q3"":""Green mark"",""Q4"":""either D or K""}","1","","","","","","","","","","","","","","","","","",""
"","missed_instruction_checkup","","html-keyboard-response","15","322231","0.0-1.0-0.4-2.4-0.4","0","1","38216","","1582","","","32","","","","","","","","","","","","","","","","",""
"","instructions","","instructions","16","324230","0.0-1.0-0.5-0.5","0","0","38216","[{""page_index"":0,""viewing_time"":1568},{""page_index"":1,""viewing_time"":75},{""page_index"":2,""viewing_time"":197},{""page_index"":3,""viewing_time"":153}]","1994","","","","","","","","","","","","","","","","","","","",""
"","comprehension_check","","survey-multi-choice","17","332538","0.0-1.0-0.5-1.5","0","0","38216","","8288","{""Q0"":""False"",""Q1"":""D"",""Q2"":""Only when the screen 'MAKE A CHOICE' is shown"",""Q3"":""Green mark"",""Q4"":""Use a mouse""}","1","","","","","","","","","","","","","","","","","",""
"","missed_instruction_checkup","","html-keyboard-response","18","333802","0.0-1.0-0.5-2.5-0.5","0","1","38216","","1256","","","32","","","","","","","","","","","","","","","","",""
"","instructions","","instructions","19","336475","0.0-1.0-0.6-0.6","0","0","38216","[{""page_index"":0,""viewing_time"":2202},{""page_index"":1,""viewing_time"":114},{""page_index"":2,""viewing_time"":174},{""page_index"":3,""viewing_time"":173}]","2665","","","","","","","","","","","","","","","","","","","",""
"","comprehension_check","","survey-multi-choice","20","346450","0.0-1.0-0.6-1.6","0","0","38216","","9953","{""Q0"":""True"",""Q1"":""D"",""Q2"":""Once the second image appears and while the screen 'MAKE A CHOICE' is shown"",""Q3"":""Green mark"",""Q4"":""either D or K""}","0","","","","","","","","","","","","","","","","","",""
"","start_exp","","html-keyboard-response","21","347781","0.0-1.0-1.0","0","0","38216","","1324","","","32","","","","","","","","","","","","","","","","",""
"","S1","","html-keyboard-response","22","348040","0.0-1.0-2.0","0","0","38216","","null","","","null","0","","","","","","","","","","","","","","","",""
"","ISI","","html-keyboard-response","23","348543","0.0-1.0-3.0","0","0","38216","","null","","","null","0","NaN","","","","","","","","","","","","","","",""
"","S2","","html-keyboard-response","24","348801","0.0-1.0-4.0","0","0","38216","","null","","","null","0","","NaN","","","","","","","","","","","","","",""
"","response","","html-keyboard-response","25","350224","0.0-1.0-5.0-0.0","0","0","38216","","1414","","","68","0","","","1","0","training","adjacent","BA","2","1","R.jpg","O.jpg","1","0","0","",""
"","feedback","","html-keyboard-response","26","351230","0.0-1.0-6.0-0.0","0","0","38216","","null","","","null","0","","","","","","","","","","","","","","","",""
"","time_out","","html-keyboard-response","27","353238","0.0-1.0-8.0-0.0","0","0","38216","","null","","","null","0","","","","","","","","","","","","","","","",""
"","ITI","","html-keyboard-response","28","354243","0.0-1.0-9.0","0","0","38216","","null","","","null","0","","","","","","","","","","","","","","","NaN",""
"","S1","","html-keyboard-response","29","354497","0.0-1.0-11.0","0","0","38216","","null","","","null","1","","","","","","","","","","","","","","","",""
"","ISI","","html-keyboard-response","30","355001","0.0-1.0-12.0","0","0","38216","","null","","","null","1","NaN","","","","","","","","","","","","","","",""
"","S2","","html-keyboard-response","31","355254","0.0-1.0-13.0","0","0","38216","","null","","","null","1","","NaN","","","","","","","","","","","","","",""
"","response","","html-keyboard-response","32","355570","0.0-1.0-14.0-0.0","0","0","38216","","310","","","68","1","","","1","1","training","adjacent","FE","6","5","M.jpg","N.jpg","1","0","0","",""
"","feedback","","html-keyboard-response","33","356578","0.0-1.0-15.0-0.0","0","0","38216","","null","","","null","1","","","","","","","","","","","","","","","",""
"","time_out","","html-keyboard-response","34","358588","0.0-1.0-17.0-0.0","0","0","38216","","null","","","null","1","","","","","","","","","","","","","","","",""
"","ITI","","html-keyboard-response","35","359597","0.0-1.0-18.0","0","0","38216","","null","","","null","1","","","","","","","","","","","","","","","NaN",""
"","S1","","html-keyboard-response","36","359851","0.0-1.0-20.0","0","0","38216","","null","","","null","2","","","","","","","","","","","","","","","",""
"","ISI","","html-keyboard-response","37","360356","0.0-1.0-21.0","0","0","38216","","232","","","68","2","d","","","","","","","","","","","","","","",""
"","S2","","html-keyboard-response","38","360431","0.0-1.0-22.0","0","0","38216","","68","","","68","2","","d","1","2","training","adjacent","FE","6","5","M.jpg","N.jpg","1","0","0","",""
"","feedback","","html-keyboard-response","39","361436","0.0-1.0-24.0-0.0","0","0","38216","","null","","","null","2","","","","","","","","","","","","","","","",""
"","time_out","","html-keyboard-response","40","363442","0.0-1.0-26.0-0.0","0","0","38216","","null","","","null","2","","","","","","","","","","","","","","","",""
"","ITI","","html-keyboard-response","41","364449","0.0-1.0-27.0","0","0","38216","","48","","","68","2","","","","","","","","","","","","","","","d",""
"","S1","","html-keyboard-response","42","364705","0.0-1.0-29.0","0","0","38216","","null","","","null","3","","","","","","","","","","","","","","","",""
"","ISI","","html-keyboard-response","43","365209","0.0-1.0-30.0","0","0","38216","","108","","","68","3","d","","","","","","","","","","","","","","",""
"","S2","","html-keyboard-response","44","365464","0.0-1.0-31.0","0","0","38216","","null","","","null","3","","NaN","","","","","","","","","","","","","",""
"","response","","html-keyboard-response","45","365567","0.0-1.0-32.0-0.0","0","0","38216","","96","","","75","3","","","1","3","training","adjacent","FE","6","5","M.jpg","N.jpg","0","0","1","",""
"","feedback","","html-keyboard-response","46","366571","0.0-1.0-33.0-0.0","0","0","38216","","null","","","null","3","","","","","","","","","","","","","","","",""
"","ITI","","html-keyboard-response","47","367577","0.0-1.0-36.0","0","0","38216","","61","","","75","3","","","","","","","","","","","","","","","k",""
"","S1","","html-keyboard-response","48","367833","0.0-1.0-38.0","0","0","38216","","null","","","null","4","","","","","","","","","","","","","","","",""
"","ISI","","html-keyboard-response","49","368340","0.0-1.0-39.0","0","0","38216","","158","","","75","4","k","","","","","","","","","","","","","","",""
"","S2","","html-keyboard-response","50","368596","0.0-1.0-40.0","0","0","38216","","null","","","null","4","","NaN","","","","","","","","","","","","","",""
"","response","","html-keyboard-response","51","370354","0.0-1.0-41.0-0.0","0","0","38216","","null","","","null","4","","","1","4","training","adjacent","FG","6","7","M.jpg","Q.jpg","NaN","1","0","",""
"","too_slow_prompt","","html-keyboard-response","52","371359","0.0-1.0-43.0-0.0","1","0","38216","","null","","","null","","","","","","","","","","","","","","","","",""
"","time_out","","html-keyboard-response","53","373367","0.0-1.0-44.0-0.0","0","0","38216","","null","","","null","4","","","","","","","","","","","","","","","",""
"","ITI","","html-keyboard-response","54","374371","0.0-1.0-45.0","0","0","38216","","null","","","null","4","","","","","","","","","","","","","","","NaN",""
"","S1","","html-keyboard-response","55","374626","0.0-1.0-47.0","0","0","38216","","null","","","null","5","","","","","","","","","","","","","","","",""
"","ISI","","html-keyboard-response","56","375129","0.0-1.0-48.0","0","0","38216","","291","","","75","5","k","","","","","","","","","","","","","","",""
"","S2","","html-keyboard-response","57","375384","0.0-1.0-49.0","0","0","38216","","null","","","null","5","","NaN","","","","","","","","","","","","","",""
"","response","","html-keyboard-response","58","375529","0.0-1.0-50.0-0.0","0","0","38216","","139","","","75","5","","","1","5","training","adjacent","CB","3","2","L.jpg","R.jpg","0","0","1","",""
"","feedback","","html-keyboard-response","59","376533","0.0-1.0-51.0-0.0","0","0","38216","","null","","","null","5","","","","","","","","","","","","","","","",""
"","ITI","","html-keyboard-response","60","377536","0.0-1.0-54.0","0","0","38216","","90","","","75","5","","","","","","","","","","","","","","","k",""
"","S1","","html-keyboard-response","61","377797","0.0-1.0-56.0","0","0","38216","","null","","","null","6","","","","","","","","","","","","","","","",""
"","ISI","","html-keyboard-response","62","378302","0.0-1.0-57.0","0","0","38216","","null","","","null","6","NaN","","","","","","","","","","","","","","",""
"","S2","","html-keyboard-response","63","378559","0.0-1.0-58.0","0","0","38216","","null","","","null","6","","NaN","","","","","","","","","","","","","",""
"","response","","html-keyboard-response","64","380316","0.0-1.0-59.0-0.0","0","0","38216","","null","","","null","6","","","1","6","training","adjacent","BA","2","1","R.jpg","O.jpg","NaN","0","0","",""
"","too_slow_prompt","","html-keyboard-response","65","381318","0.0-1.0-61.0-0.0","1","0","38216","","null","","","null","","","","","","","","","","","","","","","","",""
"","time_out","","html-keyboard-response","66","383327","0.0-1.0-62.0-0.0","0","0","38216","","null","","","null","6","","","","","","","","","","","","","","","",""
"","ITI","","html-keyboard-response","67","384335","0.0-1.0-63.0","0","0","38216","","null","","","null","6","","","","","","","","","","","","","","","NaN",""
"","S1","","html-keyboard-response","68","384589","0.0-1.0-65.0","0","0","38216","","null","","","null","7","","","","","","","","","","","","","","","",""
"","ISI","","html-keyboard-response","69","385094","0.0-1.0-66.0","0","0","38216","","null","","","null","7","NaN","","","","","","","","","","","","","","",""
"","S2","","html-keyboard-response","70","385350","0.0-1.0-67.0","0","0","38216","","null","","","null","7","","NaN","","","","","","","","","","","","","",""
"","response","","html-keyboard-response","71","386361","0.0-1.0-68.0-0.0","0","0","38216","","1005","","","75","7","","","1","7","training","adjacent","EF","5","6","N.jpg","M.jpg","0","1","0","",""
"","feedback","","html-keyboard-response","72","387364","0.0-1.0-69.0-0.0","0","0","38216","","null","","","null","7","","","","","","","","","","","","","","","",""
"","time_out","","html-keyboard-response","73","389371","0.0-1.0-71.0-0.0","0","0","38216","","null","","","null","7","","","","","","","","","","","","","","","",""
"","ITI","","html-keyboard-response","74","390375","0.0-1.0-72.0","0","0","38216","","59","","","75","7","","","","","","","","","","","","","","","k",""
"","S1","","html-keyboard-response","75","390629","0.0-1.0-74.0","0","0","38216","","null","","","null","8","","","","","","","","","","","","","","","",""
"","ISI","","html-keyboard-response","76","391134","0.0-1.0-75.0","0","0","38216","","16","","","68","8","d","","","","","","","","","","","","","","",""
"","S2","","html-keyboard-response","77","391258","0.0-1.0-76.0","0","0","38216","","117","","","68","8","","d","1","8","training","adjacent","GF","7","6","Q.jpg","M.jpg","1","0","0","",""
"","feedback","","html-keyboard-response","78","392265","0.0-1.0-78.0-0.0","0","0","38216","","null","","","null","8","","","","","","","","","","","","","","","",""
"","time_out","","html-keyboard-response","79","394271","0.0-1.0-80.0-0.0","0","0","38216","","null","","","null","8","","","","","","","","","","","","","","","",""
"","ITI","","html-keyboard-response","80","395279","0.0-1.0-81.0","0","0","38216","","61","","","68","8","","","","","","","","","","","","","","","d",""
"","S1","","html-keyboard-response","81","395533","0.0-1.0-83.0","0","0","38216","","null","","","null","9","","","","","","","","","","","","","","","",""
"","ISI","","html-keyboard-response","82","396039","0.0-1.0-84.0","0","0","38216","","161","","","68","9","d","","","","","","","","","","","","","","",""
"","S2","","html-keyboard-response","83","396155","0.0-1.0-85.0","0","0","38216","","112","","","68","9","","d","1","9","training","adjacent","AB","1","2","O.jpg","R.jpg","1","1","1","",""
"","feedback","","html-keyboard-response","84","397163","0.0-1.0-87.0-0.0","0","0","38216","","null","","","null","9","","","","","","","","","","","","","","","",""
"","ITI","","html-keyboard-response","85","398173","0.0-1.0-90.0","0","0","38216","","149","","","68","9","","","","","","","","","","","","","","","d",""
"","S1","","html-keyboard-response","86","398433","0.0-1.0-92.0","0","0","38216","","null","","","null","10","","","","","","","","","","","","","","","",""
"","ISI","","html-keyboard-response","87","398942","0.0-1.0-93.0","0","0","38216","","205","","","68","10","d","","","","","","","","","","","","","","",""
"","S2","","html-keyboard-response","88","398978","0.0-1.0-94.0","0","0","38216","","30","","","68","10","","d","1","10","training","adjacent","FG","6","7","M.jpg","Q.jpg","1","1","1","",""
"","feedback","","html-keyboard-response","89","399983","0.0-1.0-96.0-0.0","0","0","38216","","null","","","null","10","","","","","","","","","","","","","","","",""
"","ITI","","html-keyboard-response","90","400987","0.0-1.0-99.0","0","0","38216","","5","","","68","10","","","","","","","","","","","","","","","d",""
"","S1","","html-keyboard-response","91","401240","0.0-1.0-101.0","0","0","38216","","null","","","null","11","","","","","","","","","","","","","","","",""
"","ISI","","html-keyboard-response","92","401746","0.0-1.0-102.0","0","0","38216","","null","","","null","11","NaN","","","","","","","","","","","","","","",""
"","S2","","html-keyboard-response","93","401751","0.0-1.0-103.0","0","0","38216","","1","","","75","11","","k","1","11","training","adjacent","GF","7","6","Q.jpg","M.jpg","0","0","1","",""
"","feedback","","html-keyboard-response","94","402759","0.0-1.0-105.0-0.0","0","0","38216","","null","","","null","11","","","","","","","","","","","","","","","",""
"","ITI","","html-keyboard-response","95","403764","0.0-1.0-108.0","0","0","38216","","370","","","68","11","","","","","","","","","","","","","","","d",""
"","S1","","html-keyboard-response","96","404019","0.0-1.0-110.0","0","0","38216","","null","","","null","12","","","","","","","","","","","","","","","",""
"","ISI","","html-keyboard-response","97","404526","0.0-1.0-111.0","0","0","38216","","21","","","68","12","d","","","","","","","","","","","","","","",""
"","S2","","html-keyboard-response","98","404607","0.0-1.0-112.0","0","0","38216","","75","","","75","12","","k","1","12","training","adjacent","CB","3","2","L.jpg","R.jpg","0","0","1","",""
"","feedback","","html-keyboard-response","99","405615","0.0-1.0-114.0-0.0","0","0","38216","","null","","","null","12","","","","","","","","","","","","","","","",""
"","ITI","","html-keyboard-response","100","406623","0.0-1.0-117.0","0","0","38216","","134","","","75","12","","","","","","","","","","","","","","","k",""
"","S1","","html-keyboard-response","101","406877","0.0-1.0-119.0","0","0","38216","","null","","","null","13","","","","","","","","","","","","","","","",""
"","ISI","","html-keyboard-response","102","407383","0.0-1.0-120.0","0","0","38216","","29","","","68","13","d","","","","","","","","","","","","","","",""
"","S2","","html-keyboard-response","103","407537","0.0-1.0-121.0","0","0","38216","","149","","","68","13","","d","1","13","training","adjacent","CD","3","4","L.jpg","P.jpg","1","1","1","",""
"","feedback","","html-keyboard-response","104","408542","0.0-1.0-123.0-0.0","0","0","38216","","null","","","null","13","","","","","","","","","","","","","","","",""
"","ITI","","html-keyboard-response","105","409546","0.0-1.0-126.0","0","0","38216","","132","","","68","13","","","","","","","","","","","","","","","d",""
"","S1","","html-keyboard-response","106","409802","0.0-1.0-128.0","0","0","38216","","null","","","null","14","","","","","","","","","","","","","","","",""
"","ISI","","html-keyboard-response","107","410306","0.0-1.0-129.0","0","0","38216","","139","","","68","14","d","","","","","","","","","","","","","","",""
"","S2","","html-keyboard-response","108","410560","0.0-1.0-130.0","0","0","38216","","null","","","null","14","","NaN","","","","","","","","","","","","","",""
"","response","","html-keyboard-response","109","410773","0.0-1.0-131.0-0.0","0","0","38216","","208","","","68","14","","","1","14","training","adjacent","DC","4","3","P.jpg","L.jpg","1","0","0","",""
"","feedback","","html-keyboard-response","110","411781","0.0-1.0-132.0-0.0","0","0","38216","","null","","","null","14","","","","","","","","","","","","","","","",""
"","time_out","","html-keyboard-response","111","413786","0.0-1.0-134.0-0.0","0","0","38216","","null","","","null","14","","","","","","","","","","","","","","","",""
"","ITI","","html-keyboard-response","112","414791","0.0-1.0-135.0","0","0","38216","","357","","","68","14","","","","","","","","","","","","","","","d",""
"","S1","","html-keyboard-response","113","415047","0.0-1.0-137.0","0","0","38216","","null","","","null","15","","","","","","","","","","","","","","","",""
"","ISI","","html-keyboard-response","114","415556","0.0-1.0-138.0","0","0","38216","","126","","","68","15","d","","","","","","","","","","","","","","",""
"","S2","","html-keyboard-response","115","415616","0.0-1.0-139.0","0","0","38216","","54","","","68","15","","d","1","15","training","adjacent","BC","2","3","R.jpg","L.jpg","1","1","1","",""
"","feedback","","html-keyboard-response","116","416623","0.0-1.0-141.0-0.0","0","0","38216","","null","","","null","15","","","","","","","","","","","","","","","",""
"","ITI","","html-keyboard-response","117","417630","0.0-1.0-144.0","0","0","38216","","70","","","68","15","","","","","","","","","","","","","","","d",""
"","S1","","html-keyboard-response","118","417884","0.0-1.0-146.0","0","0","38216","","null","","","null","16","","","","","","","","","","","","","","","",""
"","ISI","","html-keyboard-response","119","418389","0.0-1.0-147.0","0","0","38216","","41","","","68","16","d","","","","","","","","","","","","","","",""
"","S2","","html-keyboard-response","120","418451","0.0-1.0-148.0","0","0","38216","","56","","","68","16","","d","1","16","training","adjacent","BC","2","3","R.jpg","L.jpg","1","1","1","",""
"","feedback","","html-keyboard-response","121","419457","0.0-1.0-150.0-0.0","0","0","38216","","null","","","null","16","","","","","","","","","","","","","","","",""
"","ITI","","html-keyboard-response","122","420461","0.0-1.0-153.0","0","0","38216","","138","","","68","16","","","","","","","","","","","","","","","d",""
"","S1","","html-keyboard-response","123","420726","0.0-1.0-155.0","0","0","38216","","null","","","null","17","","","","","","","","","","","","","","","",""
"","ISI","","html-keyboard-response","124","421229","0.0-1.0-156.0","0","0","38216","","null","","","null","17","NaN","","","","","","","","","","","","","","",""
"","S2","","html-keyboard-response","125","421481","0.0-1.0-157.0","0","0","38216","","null","","","null","17","","NaN","","","","","","","","","","","","","",""
"","response","","html-keyboard-response","126","422821","0.0-1.0-158.0-0.0","0","0","38216","","1334","","","75","17","","","1","17","training","adjacent","FG","6","7","M.jpg","Q.jpg","0","1","0","",""
"","feedback","","html-keyboard-response","127","423826","0.0-1.0-159.0-0.0","0","0","38216","","null","","","null","17","","","","","","","","","","","","","","","",""
"","time_out","","html-keyboard-response","128","425836","0.0-1.0-161.0-0.0","0","0","38216","","null","","","null","17","","","","","","","","","","","","","","","",""
"","ITI","","html-keyboard-response","129","426842","0.0-1.0-162.0","0","0","38216","","32","","","68","17","","","","","","","","","","","","","","","d",""
"","S1","","html-keyboard-response","130","427096","0.0-1.0-164.0","0","0","38216","","null","","","null","18","","","","","","","","","","","","","","","",""
"","ISI","","html-keyboard-response","131","427601","0.0-1.0-165.0","0","0","38216","","246","","","75","18","k","","","","","","","","","","","","","","",""
"","S2","","html-keyboard-response","132","427649","0.0-1.0-166.0","0","0","38216","","43","","","68","18","","d","1","18","training","adjacent","ED","5","4","N.jpg","P.jpg","1","0","0","",""
"","feedback","","html-keyboard-response","133","428661","0.0-1.0-168.0-0.0","0","0","38216","","null","","","null","18","","","","","","","","","","","","","","","",""
"","time_out","","html-keyboard-response","134","430671","0.0-1.0-170.0-0.0","0","0","38216","","null","","","null","18","","","","","","","","","","","","","","","",""
"","ITI","","html-keyboard-response","135","431680","0.0-1.0-171.0","0","0","38216","","7","","","68","18","","","","","","","","","","","","","","","d",""
"","S1","","html-keyboard-response","136","431939","0.0-1.0-173.0","0","0","38216","","null","","","null","19","","","","","","","","","","","","","","","",""
"","ISI","","html-keyboard-response","137","432444","0.0-1.0-174.0","0","0","38216","","19","","","68","19","d","","","","","","","","","","","","","","",""
"","S2","","html-keyboard-response","138","432701","0.0-1.0-175.0","0","0","38216","","null","","","null","19","","NaN","","","","","","","","","","","","","",""
"","response","","html-keyboard-response","139","432874","0.0-1.0-176.0-0.0","0","0","38216","","166","","","68","19","","","1","19","training","adjacent","GF","7","6","Q.jpg","M.jpg","1","0","0","",""
"","feedback","","html-keyboard-response","140","433880","0.0-1.0-177.0-0.0","0","0","38216","","null","","","null","19","","","","","","","","","","","","","","","",""
"","time_out","","html-keyboard-response","141","435886","0.0-1.0-179.0-0.0","0","0","38216","","null","","","null","19","","","","","","","","","","","","","","","",""
"","ITI","","html-keyboard-response","142","436893","0.0-1.0-180.0","0","0","38216","","106","","","75","19","","","","","","","","","","","","","","","k",""
"","S1","","html-keyboard-response","143","437149","0.0-1.0-182.0","0","0","38216","","null","","","null","20","","","","","","","","","","","","","","","",""
"","ISI","","html-keyboard-response","144","437653","0.0-1.0-183.0","0","0","38216","","35","","","68","20","d","","","","","","","","","","","","","","",""
"","S2","","html-keyboard-response","145","437908","0.0-1.0-184.0","0","0","38216","","null","","","null","20","","NaN","","","","","","","","","","","","","",""
"","response","","html-keyboard-response","146","438069","0.0-1.0-185.0-0.0","0","0","38216","","158","","","68","20","","","1","20","training","adjacent","EF","5","6","N.jpg","M.jpg","1","1","1","",""
"","feedback","","html-keyboard-response","147","439078","0.0-1.0-186.0-0.0","0","0","38216","","null","","","null","20","","","","","","","","","","","","","","","",""
"","ITI","","html-keyboard-response","148","440085","0.0-1.0-189.0","0","0","38216","","56","","","75","20","","","","","","","","","","","","","","","k",""
"","S1","","html-keyboard-response","149","440341","0.0-1.0-191.0","0","0","38216","","null","","","null","21","","","","","","","","","","","","","","","",""
"","ISI","","html-keyboard-response","150","440848","0.0-1.0-192.0","0","0","38216","","211","","","68","21","d","","","","","","","","","","","","","","",""
"","S2","","html-keyboard-response","151","440881","0.0-1.0-193.0","0","0","38216","","28","","","68","21","","d","1","21","training","adjacent","DE","4","5","P.jpg","N.jpg","1","1","1","",""
"","feedback","","html-keyboard-response","152","441887","0.0-1.0-195.0-0.0","0","0","38216","","null","","","null","21","","","","","","","","","","","","","","","",""
"","ITI","","html-keyboard-response","153","442894","0.0-1.0-198.0","0","0","38216","","18","","","68","21","","","","","","","","","","","","","","","d",""
"","S1","","html-keyboard-response","154","443149","0.0-1.0-200.0","0","0","38216","","null","","","null","22","","","","","","","","","","","","","","","",""
"","ISI","","html-keyboard-response","155","443653","0.0-1.0-201.0","0","0","38216","","33","","","68","22","d","","","","","","","","","","","","","","",""
"","S2","","html-keyboard-response","156","443757","0.0-1.0-202.0","0","0","38216","","100","","","75","22","","k","1","22","training","adjacent","CD","3","4","L.jpg","P.jpg","0","1","0","",""
"","feedback","","html-keyboard-response","157","444791","0.0-1.0-204.0-0.0","0","0","38216","","null","","","null","22","","","","","","","","","","","","","","","",""
"","time_out","","html-keyboard-response","158","446799","0.0-1.0-206.0-0.0","0","0","38216","","null","","","null","22","","","","","","","","","","","","","","","",""
"","ITI","","html-keyboard-response","159","447814","0.0-1.0-207.0","0","0","38216","","285","","","75","22","","","","","","","","","","","","","","","k",""
"","S1","","html-keyboard-response","160","448069","0.0-1.0-209.0","0","0","38216","","null","","","null","23","","","","","","","","","","","","","","","",""
"","ISI","","html-keyboard-response","161","448575","0.0-1.0-210.0","0","0","38216","","25","","","68","23","d","","","","","","","","","","","","","","",""
"","S2","","html-keyboard-response","162","448709","0.0-1.0-211.0","0","0","38216","","128","","","75","23","","k","1","23","training","adjacent","GF","7","6","Q.jpg","M.jpg","0","0","1","",""
"","feedback","","html-keyboard-response","163","449720","0.0-1.0-213.0-0.0","0","0","38216","","null","","","null","23","","","","","","","","","","","","","","","",""
"","ITI","","html-keyboard-response","164","450789","0.0-1.0-216.0","0","0","38216","","121","","","68","23","","","","","","","","","","","","","","","d",""
"","S1","","html-keyboard-response","165","451044","0.0-1.0-218.0","0","0","38216","","null","","","null","24","","","","","","","","","","","","","","","",""
"","ISI","","html-keyboard-response","166","451548","0.0-1.0-219.0","0","0","38216","","456","","","75","24","k","","","","","","","","","","","","","","",""
"","S2","","html-keyboard-response","167","451603","0.0-1.0-220.0","0","0","38216","","51","","","68","24","","d","1","24","training","adjacent","ED","5","4","N.jpg","P.jpg","1","0","0","",""
"","feedback","","html-keyboard-response","168","452608","0.0-1.0-222.0-0.0","0","0","38216","","null","","","null","24","","","","","","","","","","","","","","","",""
"","time_out","","html-keyboard-response","169","454613","0.0-1.0-224.0-0.0","0","0","38216","","null","","","null","24","","","","","","","","","","","","","","","",""
"","ITI","","html-keyboard-response","170","455618","0.0-1.0-225.0","0","0","38216","","240","","","68","24","","","","","","","","","","","","","","","d",""
"","S1","","html-keyboard-response","171","455871","0.0-1.0-227.0","0","0","38216","","null","","","null","25","","","","","","","","","","","","","","","",""
"","ISI","","html-keyboard-response","172","456375","0.0-1.0-228.0","0","0","38216","","104","","","68","25","d","","","","","","","","","","","","","","",""
"","S2","","html-keyboard-response","173","456432","0.0-1.0-229.0","0","0","38216","","51","","","68","25","","d","1","25","training","adjacent","DE","4","5","P.jpg","N.jpg","1","1","1","",""
"","feedback","","html-keyboard-response","174","457438","0.0-1.0-231.0-0.0","0","0","38216","","null","","","null","25","","","","","","","","","","","","","","","",""
"","ITI","","html-keyboard-response","175","458446","0.0-1.0-234.0","0","0","38216","","201","","","68","25","","","","","","","","","","","","","","","d",""
"","S1","","html-keyboard-response","176","458701","0.0-1.0-236.0","0","0","38216","","null","","","null","26","","","","","","","","","","","","","","","",""
"","ISI","","html-keyboard-response","177","459205","0.0-1.0-237.0","0","0","38216","","null","","","null","26","NaN","","","","","","","","","","","","","","",""
"","S2","","html-keyboard-response","178","459219","0.0-1.0-238.0","0","0","38216","","9","","","68","26","","d","1","26","training","adjacent","DC","4","3","P.jpg","L.jpg","1","0","0","",""
"","feedback","","html-keyboard-response","179","460229","0.0-1.0-240.0-0.0","0","0","38216","","null","","","null","26","","","","","","","","","","","","","","","",""
"","time_out","","html-keyboard-response","180","462236","0.0-1.0-242.0-0.0","0","0","38216","","null","","","null","26","","","","","","","","","","","","","","","",""
"","ITI","","html-keyboard-response","181","463246","0.0-1.0-243.0","0","0","38216","","347","","","68","26","","","","","","","","","","","","","","","d",""
"","S1","","html-keyboard-response","182","463504","0.0-1.0-245.0","0","0","38216","","null","","","null","27","","","","","","","","","","","","","","","",""
"","ISI","","html-keyboard-response","183","464057","0.0-1.0-246.0","0","0","38216","","11","","","75","27","k","","","","","","","","","","","","","","",""
"","S2","","html-keyboard-response","184","464066","0.0-1.0-247.0","0","0","38216","","1","","","75","27","","k","1","27","training","adjacent","ED","5","4","N.jpg","P.jpg","0","0","1","",""
"","feedback","","html-keyboard-response","185","465072","0.0-1.0-249.0-0.0","0","0","38216","","null","","","null","27","","","","","","","","","","","","","","","",""
"","ITI","","html-keyboard-response","186","466077","0.0-1.0-252.0","0","0","38216","","33","","","75","27","","","","","","","","","","","","","","","k",""
"","S1","","html-keyboard-response","187","466331","0.0-1.0-254.0","0","0","38216","","null","","","null","28","","","","","","","","","","","","","","","",""
"","ISI","","html-keyboard-response","188","466835","0.0-1.0-255.0","0","0","38216","","null","","","null","28","NaN","","","","","","","","","","","","","","",""
"","S2","","html-keyboard-response","189","466880","0.0-1.0-256.0","0","0","38216","","39","","","68","28","","d","1","28","training","adjacent","BA","2","1","R.jpg","O.jpg","1","0","0","",""
"","feedback","","html-keyboard-response","190","467893","0.0-1.0-258.0-0.0","0","0","38216","","null","","","null","28","","","","","","","","","","","","","","","",""
"","time_out","","html-keyboard-response","191","469898","0.0-1.0-260.0-0.0","0","0","38216","","null","","","null","28","","","","","","","","","","","","","","","",""
"","ITI","","html-keyboard-response","192","470903","0.0-1.0-261.0","0","0","38216","","20","","","68","28","","","","","","","","","","","","","","","d",""
"","S1","","html-keyboard-response","193","471159","0.0-1.0-263.0","0","0","38216","","null","","","null","29","","","","","","","","","","","","","","","",""
"","ISI","","html-keyboard-response","194","471662","0.0-1.0-264.0","0","0","38216","","45","","","68","29","d","","","","","","","","","","","","","","",""
"","S2","","html-keyboard-response","195","471685","0.0-1.0-265.0","0","0","38216","","19","","","75","29","","k","1","29","training","adjacent","CB","3","2","L.jpg","R.jpg","0","0","1","",""
"","feedback","","html-keyboard-response","196","472689","0.0-1.0-267.0-0.0","0","0","38216","","null","","","null","29","","","","","","","","","","","","","","","",""
"","ITI","","html-keyboard-response","197","473698","0.0-1.0-270.0","0","0","38216","","21","","","68","29","","","","","","","","","","","","","","","d",""
"","S1","","html-keyboard-response","198","473955","0.0-1.0-272.0","0","0","38216","","null","","","null","30","","","","","","","","","","","","","","","",""
"","ISI","","html-keyboard-response","199","474471","0.0-1.0-273.0","0","0","38216","","12","","","68","30","d","","","","","","","","","","","","","","",""
"","S2","","html-keyboard-response","200","474694","0.0-1.0-274.0","0","0","38216","","216","","","68","30","","d","1","30","training","adjacent","BC","2","3","R.jpg","L.jpg","1","1","1","",""
"","feedback","","html-keyboard-response","201","475698","0.0-1.0-276.0-0.0","0","0","38216","","null","","","null","30","","","","","","","","","","","","","","","",""
"","ITI","","html-keyboard-response","202","476708","0.0-1.0-279.0","0","0","38216","","161","","","68","30","","","","","","","","","","","","","","","d",""
"","S1","","html-keyboard-response","203","476965","0.0-1.0-281.0","0","0","38216","","null","","","null","31","","","","","","","","","","","","","","","",""
"","ISI","","html-keyboard-response","204","477470","0.0-1.0-282.0","0","0","38216","","67","","","68","31","d","","","","","","","","","","","","","","",""
"","S2","","html-keyboard-response","205","477525","0.0-1.0-283.0","0","0","38216","","50","","","68","31","","d","1","31","training","adjacent","CD","3","4","L.jpg","P.jpg","1","1","1","",""
"","feedback","","html-keyboard-response","206","478530","0.0-1.0-285.0-0.0","0","0","38216","","null","","","null","31","","","","","","","","","","","","","","","",""
"","ITI","","html-keyboard-response","207","479535","0.0-1.0-288.0","0","0","38216","","355","","","68","31","","","","","","","","","","","","","","","d",""
"","S1","","html-keyboard-response","208","479791","0.0-1.0-290.0","0","0","38216","","null","","","null","32","","","","","","","","","","","","","","","",""
"","ISI","","html-keyboard-response","209","480294","0.0-1.0-291.0","0","0","38216","","92","","","68","32","d","","","","","","","","","","","","","","",""
"","S2","","html-keyboard-response","210","480458","0.0-1.0-292.0","0","0","38216","","158","","","68","32","","d","1","32","training","adjacent","DE","4","5","P.jpg","N.jpg","1","1","1","",""
"","feedback","","html-keyboard-response","211","481468","0.0-1.0-294.0-0.0","0","0","38216","","null","","","null","32","","","","","","","","","","","","","","","",""
"","ITI","","html-keyboard-response","212","482475","0.0-1.0-297.0","0","0","38216","","7","","","75","32","","","","","","","","","","","","","","","k",""
"","S1","","html-keyboard-response","213","482737","0.0-1.0-299.0","0","0","38216","","null","","","null","33","","","","","","","","","","","","","","","",""
"","ISI","","html-keyboard-response","214","483244","0.0-1.0-300.0","0","0","38216","","87","","","75","33","k","","","","","","","","","","","","","","",""
"","S2","","html-keyboard-response","215","483496","0.0-1.0-301.0","0","0","38216","","244","","","68","33","","d","1","33","training","adjacent","EF","5","6","N.jpg","M.jpg","1","1","1","",""
"","feedback","","html-keyboard-response","216","484507","0.0-1.0-303.0-0.0","0","0","38216","","null","","","null","33","","","","","","","","","","","","","","","",""
"","ITI","","html-keyboard-response","217","485513","0.0-1.0-306.0","0","0","38216","","76","","","75","33","","","","","","","","","","","","","","","k",""
"","S1","","html-keyboard-response","218","485809","0.0-1.0-308.0","0","0","38216","","null","","","null","34","","","","","","","","","","","","","","","",""
"","ISI","","html-keyboard-response","219","486314","0.0-1.0-309.0","0","0","38216","","1","","","75","34","k","","","","","","","","","","","","","","",""
"","S2","","html-keyboard-response","220","486570","0.0-1.0-310.0","0","0","38216","","null","","","null","34","","NaN","","","","","","","","","","","","","",""
"","response","","html-keyboard-response","221","486748","0.0-1.0-311.0-0.0","0","0","38216","","172","","","75","34","","","1","34","training","adjacent","AB","1","2","O.jpg","R.jpg","0","1","0","",""
"","feedback","","html-keyboard-response","222","487755","0.0-1.0-312.0-0.0","0","0","38216","","null","","","null","34","","","","","","","","","","","","","","","",""
"","time_out","","html-keyboard-response","223","489779","0.0-1.0-314.0-0.0","0","0","38216","","null","","","null","34","","","","","","","","","","","","","","","",""
"","ITI","","html-keyboard-response","224","490792","0.0-1.0-315.0","0","0","38216","","112","","","75","34","","","","","","","","","","","","","","","k",""
"","S1","","html-keyboard-response","225","491050","0.0-1.0-317.0","0","0","38216","","null","","","null","35","","","","","","","","","","","","","","","",""
"","ISI","","html-keyboard-response","226","491554","0.0-1.0-318.0","0","0","38216","","204","","","68","35","d","","","","","","","","","","","","","","",""
"","S2","","html-keyboard-response","227","491707","0.0-1.0-319.0","0","0","38216","","148","","","68","35","","d","1","35","training","adjacent","EF","5","6","N.jpg","M.jpg","1","1","1","",""
"","feedback","","html-keyboard-response","228","492723","0.0-1.0-321.0-0.0","0","0","38216","","null","","","null","35","","","","","","","","","","","","","","","",""
"","ITI","","html-keyboard-response","229","493728","0.0-1.0-324.0","0","0","38216","","29","","","68","35","","","","","","","","","","","","","","","d",""
"","S1","","html-keyboard-response","230","493986","0.0-1.0-326.0","0","0","38216","","null","","","null","36","","","","","","","","","","","","","","","",""
"","ISI","","html-keyboard-response","231","494491","0.0-1.0-327.0","0","0","38216","","14","","","68","36","d","","","","","","","","","","","","","","",""
"","S2","","html-keyboard-response","232","494609","0.0-1.0-328.0","0","0","38216","","109","","","68","36","","d","1","36","training","adjacent","CB","3","2","L.jpg","R.jpg","1","0","0","",""
"","feedback","","html-keyboard-response","233","495623","0.0-1.0-330.0-0.0","0","0","38216","","null","","","null","36","","","","","","","","","","","","","","","",""
"","time_out","","html-keyboard-response","234","497631","0.0-1.0-332.0-0.0","0","0","38216","","null","","","null","36","","","","","","","","","","","","","","","",""
"","ITI","","html-keyboard-response","235","498639","0.0-1.0-333.0","0","0","38216","","60","","","68","36","","","","","","","","","","","","","","","d",""
"","S1","","html-keyboard-response","236","498895","0.0-1.0-335.0","0","0","38216","","null","","","null","37","","","","","","","","","","","","","","","",""
"","ISI","","html-keyboard-response","237","499398","0.0-1.0-336.0","0","0","38216","","198","","","68","37","d","","","","","","","","","","","","","","",""
"","S2","","html-keyboard-response","238","499525","0.0-1.0-337.0","0","0","38216","","122","","","68","37","","d","1","37","training","adjacent","FE","6","5","M.jpg","N.jpg","1","0","0","",""
"","feedback","","html-keyboard-response","239","500533","0.0-1.0-339.0-0.0","0","0","38216","","null","","","null","37","","","","","","","","","","","","","","","",""
"","time_out","","html-keyboard-response","240","502541","0.0-1.0-341.0-0.0","0","0","38216","","null","","","null","37","","","","","","","","","","","","","","","",""
"","ITI","","html-keyboard-response","241","503547","0.0-1.0-342.0","0","0","38216","","227","","","68","37","","","","","","","","","","","","","","","d",""
"","S1","","html-keyboard-response","242","503804","0.0-1.0-344.0","0","0","38216","","null","","","null","38","","","","","","","","","","","","","","","",""
"","ISI","","html-keyboard-response","243","504310","0.0-1.0-345.0","0","0","38216","","190","","","68","38","d","","","","","","","","","","","","","","",""
"","S2","","html-keyboard-response","244","504425","0.0-1.0-346.0","0","0","38216","","112","","","68","38","","d","1","38","training","adjacent","AB","1","2","O.jpg","R.jpg","1","1","1","",""
"","feedback","","html-keyboard-response","245","505430","0.0-1.0-348.0-0.0","0","0","38216","","null","","","null","38","","","","","","","","","","","","","","","",""
"","ITI","","html-keyboard-response","246","506436","0.0-1.0-351.0","0","0","38216","","192","","","68","38","","","","","","","","","","","","","","","d",""
"","S1","","html-keyboard-response","247","506691","0.0-1.0-353.0","0","0","38216","","null","","","null","39","","","","","","","","","","","","","","","",""
"","ISI","","html-keyboard-response","248","507195","0.0-1.0-354.0","0","0","38216","","37","","","68","39","d","","","","","","","","","","","","","","",""
"","S2","","html-keyboard-response","249","507347","0.0-1.0-355.0","0","0","38216","","147","","","68","39","","d","1","39","training","adjacent","CD","3","4","L.jpg","P.jpg","1","1","1","",""
"","feedback","","html-keyboard-response","250","508352","0.0-1.0-357.0-0.0","0","0","38216","","null","","","null","39","","","","","","","","","","","","","","","",""
"","ITI","","html-keyboard-response","251","509356","0.0-1.0-360.0","0","0","38216","","265","","","68","39","","","","","","","","","","","","","","","d",""
"","S1","","html-keyboard-response","252","509616","0.0-1.0-362.0","0","0","38216","","null","","","null","40","","","","","","","","","","","","","","","",""
"","ISI","","html-keyboard-response","253","510122","0.0-1.0-363.0","0","0","38216","","18","","","68","40","d","","","","","","","","","","","","","","",""
"","S2","","html-keyboard-response","254","510375","0.0-1.0-364.0","0","0","38216","","null","","","null","40","","NaN","","","","","","","","","","","","","",""
"","response","","html-keyboard-response","255","512130","0.0-1.0-365.0-0.0","0","0","38216","","null","","","null","40","","","1","40","training","adjacent","DC","4","3","P.jpg","L.jpg","NaN","0","0","",""
"","too_slow_prompt","","html-keyboard-response","256","513137","0.0-1.0-367.0-0.0","1","0","38216","","null","","","null","","","","","","","","","","","","","","","","",""
"","time_out","","html-keyboard-response","257","515143","0.0-1.0-368.0-0.0","0","0","38216","","null","","","null","40","","","","","","","","","","","","","","","",""
"","ITI","","html-keyboard-response","258","516186","0.0-1.0-369.0","0","0","38216","","null","","","null","40","","","","","","","","","","","","","","","NaN",""
"","S1","","html-keyboard-response","259","516441","0.0-1.0-371.0","0","0","38216","","null","","","null","41","","","","","","","","","","","","","","","",""
"","ISI","","html-keyboard-response","260","516945","0.0-1.0-372.0","0","0","38216","","null","","","null","41","NaN","","","","","","","","","","","","","","",""
"","S2","","html-keyboard-response","261","517199","0.0-1.0-373.0","0","0","38216","","null","","","null","41","","NaN","","","","","","","","","","","","","",""
"","response","","html-keyboard-response","262","518958","0.0-1.0-374.0-0.0","0","0","38216","","null","","","null","41","","","1","41","training","adjacent","FG","6","7","M.jpg","Q.jpg","NaN","1","0","",""
"","too_slow_prompt","","html-keyboard-response","263","519964","0.0-1.0-376.0-0.0","1","0","38216","","null","","","null","","","","","","","","","","","","","","","","",""
"","time_out","","html-keyboard-response","264","521973","0.0-1.0-377.0-0.0","0","0","38216","","null","","","null","41","","","","","","","","","","","","","","","",""
"","ITI","","html-keyboard-response","265","522986","0.0-1.0-378.0","0","0","38216","","38","","","68","41","","","","","","","","","","","","","","","d",""
"","S1","","html-keyboard-response","266","523245","0.0-1.0-380.0","0","0","38216","","null","","","null","42","","","","","","","","","","","","","","","",""
"","ISI","","html-keyboard-response","267","523750","0.0-1.0-381.0","0","0","38216","","99","","","74","42","j","","","","","","","","","","","","","","",""
"","S2","","html-keyboard-response","268","523861","0.0-1.0-382.0","0","0","38216","","104","","","68","42","","d","1","42","training","adjacent","AB","1","2","O.jpg","R.jpg","1","1","1","",""
"","feedback","","html-keyboard-response","269","524871","0.0-1.0-384.0-0.0","0","0","38216","","null","","","null","42","","","","","","","","","","","","","","","",""
"","ITI","","html-keyboard-response","270","525882","0.0-1.0-387.0","0","0","38216","","310","","","68","42","","","","","","","","","","","","","","","d",""
"","S1","","html-keyboard-response","271","526137","0.0-1.0-389.0","0","0","38216","","null","","","null","43","","","","","","","","","","","","","","","",""
"","ISI","","html-keyboard-response","272","526640","0.0-1.0-390.0","0","0","38216","","23","","","68","43","d","","","","","","","","","","","","","","",""
"","S2","","html-keyboard-response","273","526837","0.0-1.0-391.0","0","0","38216","","193","","","68","43","","d","1","43","training","adjacent","DE","4","5","P.jpg","N.jpg","1","1","1","",""
"","feedback","","html-keyboard-response","274","527845","0.0-1.0-393.0-0.0","0","0","38216","","null","","","null","43","","","","","","","","","","","","","","","",""
"","ITI","","html-keyboard-response","275","528850","0.0-1.0-396.0","0","0","38216","","19","","","74","43","","","","","","","","","","","","","","","j",""
"","S1","","html-keyboard-response","276","529103","0.0-1.0-398.0","0","0","38216","","null","","","null","44","","","","","","","","","","","","","","","",""
"","ISI","","html-keyboard-response","277","529609","0.0-1.0-399.0","0","0","38216","","51","","","68","44","d","","","","","","","","","","","","","","",""
"","S2","","html-keyboard-response","278","529736","0.0-1.0-400.0","0","0","38216","","124","","","68","44","","d","1","44","training","adjacent","BA","2","1","R.jpg","O.jpg","1","0","0","",""
"","feedback","","html-keyboard-response","279","530743","0.0-1.0-402.0-0.0","0","0","38216","","null","","","null","44","","","","","","","","","","","","","","","",""
"","time_out","","html-keyboard-response","280","532753","0.0-1.0-404.0-0.0","0","0","38216","","null","","","null","44","","","","","","","","","","","","","","","",""
"","ITI","","html-keyboard-response","281","533761","0.0-1.0-405.0","0","0","38216","","6","","","74","44","","","","","","","","","","","","","","","j",""
"","S1","","html-keyboard-response","282","534020","0.0-1.0-407.0","0","0","38216","","null","","","null","45","","","","","","","","","","","","","","","",""
"","ISI","","html-keyboard-response","283","534525","0.0-1.0-408.0","0","0","38216","","233","","","68","45","d","","","","","","","","","","","","","","",""
"","S2","","html-keyboard-response","284","534640","0.0-1.0-409.0","0","0","38216","","109","","","68","45","","d","1","45","training","adjacent","ED","5","4","N.jpg","P.jpg","1","0","0","",""
"","feedback","","html-keyboard-response","285","535644","0.0-1.0-411.0-0.0","0","0","38216","","null","","","null","45","","","","","","","","","","","","","","","",""
"","time_out","","html-keyboard-response","286","537649","0.0-1.0-413.0-0.0","0","0","38216","","null","","","null","45","","","","","","","","","","","","","","","",""
"","ITI","","html-keyboard-response","287","538652","0.0-1.0-414.0","0","0","38216","","4","","","68","45","","","","","","","","","","","","","","","d",""
"","S1","","html-keyboard-response","288","538908","0.0-1.0-416.0","0","0","38216","","null","","","null","46","","","","","","","","","","","","","","","",""
"","ISI","","html-keyboard-response","289","539411","0.0-1.0-417.0","0","0","38216","","null","","","null","46","NaN","","","","","","","","","","","","","","",""
"","S2","","html-keyboard-response","290","539677","0.0-1.0-418.0","0","0","38216","","null","","","null","46","","NaN","","","","","","","","","","","","","",""
"","response","","html-keyboard-response","291","541434","0.0-1.0-419.0-0.0","0","0","38216","","null","","","null","46","","","1","46","training","adjacent","DC","4","3","P.jpg","L.jpg","NaN","0","0","",""
"","too_slow_prompt","","html-keyboard-response","292","542443","0.0-1.0-421.0-0.0","1","0","38216","","null","","","null","","","","","","","","","","","","","","","","",""
"","time_out","","html-keyboard-response","293","544449","0.0-1.0-422.0-0.0","0","0","38216","","null","","","null","46","","","","","","","","","","","","","","","",""
"","ITI","","html-keyboard-response","294","545456","0.0-1.0-423.0","0","0","38216","","null","","","null","46","","","","","","","","","","","","","","","NaN",""
"","S1","","html-keyboard-response","295","545709","0.0-1.0-425.0","0","0","38216","","null","","","null","47","","","","","","","","","","","","","","","",""
"","ISI","","html-keyboard-response","296","546212","0.0-1.0-426.0","0","0","38216","","null","","","null","47","NaN","","","","","","","","","","","","","","",""
"","S2","","html-keyboard-response","297","546466","0.0-1.0-427.0","0","0","38216","","null","","","null","47","","NaN","","","","","","","","","","","","","",""
"","response","","html-keyboard-response","298","548222","0.0-1.0-428.0-0.0","0","0","38216","","null","","","null","47","","","1","47","training","adjacent","BC","2","3","R.jpg","L.jpg","NaN","1","0","",""
"","too_slow_prompt","","html-keyboard-response","299","549225","0.0-1.0-430.0-0.0","1","0","38216","","null","","","null","","","","","","","","","","","","","","","","",""
"","time_out","","html-keyboard-response","300","551232","0.0-1.0-431.0-0.0","0","0","38216","","null","","","null","47","","","","","","","","","","","","","","","",""
"","ITI","","html-keyboard-response","301","552238","0.0-1.0-432.0","0","0","38216","","null","","","null","47","","","","","","","","","","","","","","","NaN",""
"","block_over","","html-keyboard-response","302","572814","0.0-1.0-433.0-0.0","0","0","38216","","20566","","","32","47","","","","","","","","","","","","","","","",""
"","S1","","html-keyboard-response","303","573071","0.0-1.0-434.0","0","0","38216","","null","","","null","48","","","","","","","","","","","","","","","",""
"","ISI","","html-keyboard-response","304","573576","0.0-1.0-435.0","0","0","38216","","73","","","32","48","space","","","","","","","","","","","","","","",""
"","S2","","html-keyboard-response","305","573839","0.0-1.0-436.0","0","0","38216","","null","","","null","48","","NaN","","","","","","","","","","","","","",""
"","response","","html-keyboard-response","306","574587","0.0-1.0-437.0-0.0","0","0","38216","","743","","","75","48","","","2","48","training","adjacent","BC","2","3","R.jpg","L.jpg","0","1","0","",""
"","feedback","","html-keyboard-response","307","575595","0.0-1.0-438.0-0.0","0","0","38216","","null","","","null","48","","","","","","","","","","","","","","","",""
"","time_out","","html-keyboard-response","308","577602","0.0-1.0-440.0-0.0","0","0","38216","","null","","","null","48","","","","","","","","","","","","","","","",""
"","ITI","","html-keyboard-response","309","578607","0.0-1.0-441.0","0","0","38216","","340","","","68","48","","","","","","","","","","","","","","","d",""
"","S1","","html-keyboard-response","310","578862","0.0-1.0-443.0","0","0","38216","","null","","","null","49","","","","","","","","","","","","","","","",""
"","ISI","","html-keyboard-response","311","579367","0.0-1.0-444.0","0","0","38216","","22","","","75","49","k","","","","","","","","","","","","","","",""
"","S2","","html-keyboard-response","312","579622","0.0-1.0-445.0","0","0","38216","","null","","","null","49","","NaN","","","","","","","","","","","","","",""
"","response","","html-keyboard-response","313","580329","0.0-1.0-446.0-0.0","0","0","38216","","702","","","68","49","","","2","49","training","adjacent","DE","4","5","P.jpg","N.jpg","1","1","1","",""
"","feedback","","html-keyboard-response","314","581337","0.0-1.0-447.0-0.0","0","0","38216","","null","","","null","49","","","","","","","","","","","","","","","",""
"","ITI","","html-keyboard-response","315","582344","0.0-1.0-450.0","0","0","38216","","146","","","68","49","","","","","","","","","","","","","","","d",""
"","S1","","html-keyboard-response","316","582599","0.0-1.0-452.0","0","0","38216","","null","","","null","50","","","","","","","","","","","","","","","",""
"","ISI","","html-keyboard-response","317","583105","0.0-1.0-453.0","0","0","38216","","284","","","68","50","d","","","","","","","","","","","","","","",""
"","S2","","html-keyboard-response","318","583360","0.0-1.0-454.0","0","0","38216","","null","","","null","50","","NaN","","","","","","","","","","","","","",""
"","response","","html-keyboard-response","319","583505","0.0-1.0-455.0-0.0","0","0","38216","","142","","","68","50","","","2","50","training","adjacent","GF","7","6","Q.jpg","M.jpg","1","0","0","",""
"","feedback","","html-keyboard-response","320","584514","0.0-1.0-456.0-0.0","0","0","38216","","null","","","null","50","","","","","","","","","","","","","","","",""
"","time_out","","html-keyboard-response","321","586521","0.0-1.0-458.0-0.0","0","0","38216","","null","","","null","50","","","","","","","","","","","","","","","",""
"","ITI","","html-keyboard-response","322","587527","0.0-1.0-459.0","0","0","38216","","251","","","68","50","","","","","","","","","","","","","","","d",""
"","S1","","html-keyboard-response","323","587806","0.0-1.0-461.0","0","0","38216","","null","","","null","51","","","","","","","","","","","","","","","",""
"","ISI","","html-keyboard-response","324","588313","0.0-1.0-462.0","0","0","38216","","117","","","68","51","d","","","","","","","","","","","","","","",""
"","S2","","html-keyboard-response","325","588321","0.0-1.0-463.0","0","0","38216","","4","","","68","51","","d","2","51","training","adjacent","AB","1","2","O.jpg","R.jpg","1","1","1","",""
"","feedback","","html-keyboard-response","326","589328","0.0-1.0-465.0-0.0","0","0","38216","","null","","","null","51","","","","","","","","","","","","","","","",""
"","ITI","","html-keyboard-response","327","590331","0.0-1.0-468.0","0","0","38216","","51","","","68","51","","","","","","","","","","","","","","","d",""
"","S1","","html-keyboard-response","328","590585","0.0-1.0-470.0","0","0","38216","","null","","","null","52","","","","","","","","","","","","","","","",""
"","ISI","","html-keyboard-response","329","591089","0.0-1.0-471.0","0","0","38216","","89","","","68","52","d","","","","","","","","","","","","","","",""
"","S2","","html-keyboard-response","330","591214","0.0-1.0-472.0","0","0","38216","","120","","","68","52","","d","2","52","training","adjacent","GF","7","6","Q.jpg","M.jpg","1","0","0","",""
"","feedback","","html-keyboard-response","331","592221","0.0-1.0-474.0-0.0","0","0","38216","","null","","","null","52","","","","","","","","","","","","","","","",""
"","time_out","","html-keyboard-response","332","594227","0.0-1.0-476.0-0.0","0","0","38216","","null","","","null","52","","","","","","","","","","","","","","","",""
"","ITI","","html-keyboard-response","333","595235","0.0-1.0-477.0","0","0","38216","","694","","","75","52","","","","","","","","","","","","","","","k",""
"","S1","","html-keyboard-response","334","595490","0.0-1.0-479.0","0","0","38216","","null","","","null","53","","","","","","","","","","","","","","","",""
"","ISI","","html-keyboard-response","335","595996","0.0-1.0-480.0","0","0","38216","","234","","","75","53","k","","","","","","","","","","","","","","",""
"","S2","","html-keyboard-response","336","596158","0.0-1.0-481.0","0","0","38216","","156","","","68","53","","d","2","53","training","adjacent","BA","2","1","R.jpg","O.jpg","1","0","0","",""
"","feedback","","html-keyboard-response","337","597164","0.0-1.0-483.0-0.0","0","0","38216","","null","","","null","53","","","","","","","","","","","","","","","",""
"","time_out","","html-keyboard-response","338","599171","0.0-1.0-485.0-0.0","0","0","38216","","null","","","null","53","","","","","","","","","","","","","","","",""
"","ITI","","html-keyboard-response","339","600178","0.0-1.0-486.0","0","0","38216","","92","","","75","53","","","","","","","","","","","","","","","k",""
"","S1","","html-keyboard-response","340","600435","0.0-1.0-488.0","0","0","38216","","null","","","null","54","","","","","","","","","","","","","","","",""
"","ISI","","html-keyboard-response","341","600940","0.0-1.0-489.0","0","0","38216","","208","","","75","54","k","","","","","","","","","","","","","","",""
"","S2","","html-keyboard-response","342","601193","0.0-1.0-490.0","0","0","38216","","null","","","null","54","","NaN","","","","","","","","","","","","","",""
"","response","","html-keyboard-response","343","601410","0.0-1.0-491.0-0.0","0","0","38216","","211","","","75","54","","","2","54","training","adjacent","FG","6","7","M.jpg","Q.jpg","0","1","0","",""
"","feedback","","html-keyboard-response","344","602418","0.0-1.0-492.0-0.0","0","0","38216","","null","","","null","54","","","","","","","","","","","","","","","",""
"","time_out","","html-keyboard-response","345","604426","0.0-1.0-494.0-0.0","0","0","38216","","null","","","null","54","","","","","","","","","","","","","","","",""
"","ITI","","html-keyboard-response","346","605432","0.0-1.0-495.0","0","0","38216","","187","","","68","54","","","","","","","","","","","","","","","d",""
"","S1","","html-keyboard-response","347","605687","0.0-1.0-497.0","0","0","38216","","null","","","null","55","","","","","","","","","","","","","","","",""
"","ISI","","html-keyboard-response","348","606192","0.0-1.0-498.0","0","0","38216","","314","","","68","55","d","","","","","","","","","","","","","","",""
"","S2","","html-keyboard-response","349","606247","0.0-1.0-499.0","0","0","38216","","51","","","68","55","","d","2","55","training","adjacent","DE","4","5","P.jpg","N.jpg","1","1","1","",""
"","feedback","","html-keyboard-response","350","607252","0.0-1.0-501.0-0.0","0","0","38216","","null","","","null","55","","","","","","","","","","","","","","","",""
"","ITI","","html-keyboard-response","351","608258","0.0-1.0-504.0","0","0","38216","","151","","","68","55","","","","","","","","","","","","","","","d",""
"","S1","","html-keyboard-response","352","608514","0.0-1.0-506.0","0","0","38216","","null","","","null","56","","","","","","","","","","","","","","","",""
"","ISI","","html-keyboard-response","353","609020","0.0-1.0-507.0","0","0","38216","","96","","","75","56","k","","","","","","","","","","","","","","",""
"","S2","","html-keyboard-response","354","609028","0.0-1.0-508.0","0","0","38216","","4","","","68","56","","d","2","56","training","adjacent","ED","5","4","N.jpg","P.jpg","1","0","0","",""
"","feedback","","html-keyboard-response","355","610033","0.0-1.0-510.0-0.0","0","0","38216","","null","","","null","56","","","","","","","","","","","","","","","",""
"","time_out","","html-keyboard-response","356","612038","0.0-1.0-512.0-0.0","0","0","38216","","null","","","null","56","","","","","","","","","","","","","","","",""
"","ITI","","html-keyboard-response","357","613045","0.0-1.0-513.0","0","0","38216","","666","","","68","56","","","","","","","","","","","","","","","d",""
"","S1","","html-keyboard-response","358","613302","0.0-1.0-515.0","0","0","38216","","null","","","null","57","","","","","","","","","","","","","","","",""
"","ISI","","html-keyboard-response","359","613808","0.0-1.0-516.0","0","0","38216","","141","","","68","57","d","","","","","","","","","","","","","","",""
"","S2","","html-keyboard-response","360","613883","0.0-1.0-517.0","0","0","38216","","67","","","68","57","","d","2","57","training","adjacent","CD","3","4","L.jpg","P.jpg","1","1","1","",""
"","feedback","","html-keyboard-response","361","614889","0.0-1.0-519.0-0.0","0","0","38216","","null","","","null","57","","","","","","","","","","","","","","","",""
"","ITI","","html-keyboard-response","362","615896","0.0-1.0-522.0","0","0","38216","","17","","","68","57","","","","","","","","","","","","","","","d",""
"","S1","","html-keyboard-response","363","616215","0.0-1.0-524.0","0","0","38216","","null","","","null","58","","","","","","","","","","","","","","","",""
"","ISI","","html-keyboard-response","364","616734","0.0-1.0-525.0","0","0","38216","","358","","","68","58","d","","","","","","","","","","","","","","",""
"","S2","","html-keyboard-response","365","616789","0.0-1.0-526.0","0","0","38216","","44","","","68","58","","d","2","58","training","adjacent","FG","6","7","M.jpg","Q.jpg","1","1","1","",""
"","feedback","","html-keyboard-response","366","617796","0.0-1.0-528.0-0.0","0","0","38216","","null","","","null","58","","","","","","","","","","","","","","","",""
"","ITI","","html-keyboard-response","367","618802","0.0-1.0-531.0","0","0","38216","","51","","","68","58","","","","","","","","","","","","","","","d",""
"","S1","","html-keyboard-response","368","619057","0.0-1.0-533.0","0","0","38216","","null","","","null","59","","","","","","","","","","","","","","","",""
"","ISI","","html-keyboard-response","369","619564","0.0-1.0-534.0","0","0","38216","","166","","","68","59","d","","","","","","","","","","","","","","",""
"","S2","","html-keyboard-response","370","619825","0.0-1.0-535.0","0","0","38216","","null","","","null","59","","NaN","","","","","","","","","","","","","",""
"","response","","html-keyboard-response","371","620298","0.0-1.0-536.0-0.0","0","0","38216","","467","","","68","59","","","2","59","training","adjacent","ED","5","4","N.jpg","P.jpg","1","0","0","",""
"","feedback","","html-keyboard-response","372","621306","0.0-1.0-537.0-0.0","0","0","38216","","null","","","null","59","","","","","","","","","","","","","","","",""
"","time_out","","html-keyboard-response","373","623316","0.0-1.0-539.0-0.0","0","0","38216","","null","","","null","59","","","","","","","","","","","","","","","",""
"","ITI","","html-keyboard-response","374","624322","0.0-1.0-540.0","0","0","38216","","126","","","68","59","","","","","","","","","","","","","","","d",""
"","S1","","html-keyboard-response","375","624578","0.0-1.0-542.0","0","0","38216","","null","","","null","60","","","","","","","","","","","","","","","",""
"","ISI","","html-keyboard-response","376","625083","0.0-1.0-543.0","0","0","38216","","5","","","68","60","d","","","","","","","","","","","","","","",""
"","S2","","html-keyboard-response","377","625220","0.0-1.0-544.0","0","0","38216","","131","","","68","60","","d","2","60","training","adjacent","CB","3","2","L.jpg","R.jpg","1","0","0","",""
"","feedback","","html-keyboard-response","378","626226","0.0-1.0-546.0-0.0","0","0","38216","","null","","","null","60","","","","","","","","","","","","","","","",""
"","time_out","","html-keyboard-response","379","628232","0.0-1.0-548.0-0.0","0","0","38216","","null","","","null","60","","","","","","","","","","","","","","","",""
"","ITI","","html-keyboard-response","380","629237","0.0-1.0-549.0","0","0","38216","","131","","","68","60","","","","","","","","","","","","","","","d",""
"","S1","","html-keyboard-response","381","629495","0.0-1.0-551.0","0","0","38216","","null","","","null","61","","","","","","","","","","","","","","","",""
"","ISI","","html-keyboard-response","382","630001","0.0-1.0-552.0","0","0","38216","","9","","","75","61","k","","","","","","","","","","","","","","",""
"","S2","","html-keyboard-response","383","630163","0.0-1.0-553.0","0","0","38216","","156","","","75","61","","k","2","61","training","adjacent","DC","4","3","P.jpg","L.jpg","0","0","1","",""
"","feedback","","html-keyboard-response","384","631174","0.0-1.0-555.0-0.0","0","0","38216","","null","","","null","61","","","","","","","","","","","","","","","",""
"","ITI","","html-keyboard-response","385","632183","0.0-1.0-558.0","0","0","38216","","6","","","68","61","","","","","","","","","","","","","","","d",""
"","S1","","html-keyboard-response","386","632438","0.0-1.0-560.0","0","0","38216","","null","","","null","62","","","","","","","","","","","","","","","",""
"","ISI","","html-keyboard-response","387","632943","0.0-1.0-561.0","0","0","38216","","null","","","null","62","NaN","","","","","","","","","","","","","","",""
"","S2","","html-keyboard-response","388","633011","0.0-1.0-562.0","0","0","38216","","62","","","68","62","","d","2","62","training","adjacent","FE","6","5","M.jpg","N.jpg","1","0","0","",""
"","feedback","","html-keyboard-response","389","634017","0.0-1.0-564.0-0.0","0","0","38216","","null","","","null","62","","","","","","","","","","","","","","","",""
"","time_out","","html-keyboard-response","390","636178","0.0-1.0-566.0-0.0","0","0","38216","","null","","","null","62","","","","","","","","","","","","","","","",""
"","ITI","","html-keyboard-response","391","637188","0.0-1.0-567.0","0","0","38216","","223","","","68","62","","","","","","","","","","","","","","","d",""
"","S1","","html-keyboard-response","392","637448","0.0-1.0-569.0","0","0","38216","","null","","","null","63","","","","","","","","","","","","","","","",""
"","ISI","","html-keyboard-response","393","637952","0.0-1.0-570.0","0","0","38216","","7","","","68","63","d","","","","","","","","","","","","","","",""
"","S2","","html-keyboard-response","394","638207","0.0-1.0-571.0","0","0","38216","","null","","","null","63","","NaN","","","","","","","","","","","","","",""
"","response","","html-keyboard-response","395","638497","0.0-1.0-572.0-0.0","0","0","38216","","283","","","68","63","","","2","63","training","adjacent","BC","2","3","R.jpg","L.jpg","1","1","1","",""
"","feedback","","html-keyboard-response","396","639504","0.0-1.0-573.0-0.0","0","0","38216","","null","","","null","63","","","","","","","","","","","","","","","",""
"","ITI","","html-keyboard-response","397","640509","0.0-1.0-576.0","0","0","38216","","172","","","75","63","","","","","","","","","","","","","","","k",""
"","S1","","html-keyboard-response","398","640766","0.0-1.0-578.0","0","0","38216","","null","","","null","64","","","","","","","","","","","","","","","",""
"","ISI","","html-keyboard-response","399","641271","0.0-1.0-579.0","0","0","38216","","10","","","75","64","k","","","","","","","","","","","","","","",""
"","S2","","html-keyboard-response","400","641470","0.0-1.0-580.0","0","0","38216","","192","","","68","64","","d","2","64","training","adjacent","CD","3","4","L.jpg","P.jpg","1","1","1","",""
"","feedback","","html-keyboard-response","401","642476","0.0-1.0-582.0-0.0","0","0","38216","","null","","","null","64","","","","","","","","","","","","","","","",""
"","ITI","","html-keyboard-response","402","643481","0.0-1.0-585.0","0","0","38216","","307","","","68","64","","","","","","","","","","","","","","","d",""
"","S1","","html-keyboard-response","403","643738","0.0-1.0-587.0","0","0","38216","","null","","","null","65","","","","","","","","","","","","","","","",""
"","ISI","","html-keyboard-response","404","644244","0.0-1.0-588.0","0","0","38216","","487","","","75","65","k","","","","","","","","","","","","","","",""
"","S2","","html-keyboard-response","405","644263","0.0-1.0-589.0","0","0","38216","","13","","","68","65","","d","2","65","training","adjacent","CD","3","4","L.jpg","P.jpg","1","1","1","",""
"","feedback","","html-keyboard-response","406","645270","0.0-1.0-591.0-0.0","0","0","38216","","null","","","null","65","","","","","","","","","","","","","","","",""
"","ITI","","html-keyboard-response","407","646278","0.0-1.0-594.0","0","0","38216","","184","","","68","65","","","","","","","","","","","","","","","d",""
"","S1","","html-keyboard-response","408","646541","0.0-1.0-596.0","0","0","38216","","null","","","null","66","","","","","","","","","","","","","","","",""
"","ISI","","html-keyboard-response","409","647047","0.0-1.0-597.0","0","0","38216","","93","","","68","66","d","","","","","","","","","","","","","","",""
"","S2","","html-keyboard-response","410","647050","0.0-1.0-598.0","0","0","38216","","0","","","68","66","","d","2","66","training","adjacent","EF","5","6","N.jpg","M.jpg","1","1","1","",""
"","feedback","","html-keyboard-response","411","648056","0.0-1.0-600.0-0.0","0","0","38216","","null","","","null","66","","","","","","","","","","","","","","","",""
"","ITI","","html-keyboard-response","412","649061","0.0-1.0-603.0","0","0","38216","","41","","","75","66","","","","","","","","","","","","","","","k",""
"","S1","","html-keyboard-response","413","649317","0.0-1.0-605.0","0","0","38216","","null","","","null","67","","","","","","","","","","","","","","","",""
"","ISI","","html-keyboard-response","414","649899","0.0-1.0-606.0","0","0","38216","","52","","","68","67","d","","","","","","","","","","","","","","",""
"","S2","","html-keyboard-response","415","649967","0.0-1.0-607.0","0","0","38216","","26","","","68","67","","d","2","67","training","adjacent","EF","5","6","N.jpg","M.jpg","1","1","1","",""
"","feedback","","html-keyboard-response","416","650971","0.0-1.0-609.0-0.0","0","0","38216","","null","","","null","67","","","","","","","","","","","","","","","",""
"","ITI","","html-keyboard-response","417","651978","0.0-1.0-612.0","0","0","38216","","23","","","75","67","","","","","","","","","","","","","","","k",""
"","S1","","html-keyboard-response","418","652234","0.0-1.0-614.0","0","0","38216","","null","","","null","68","","","","","","","","","","","","","","","",""
"","ISI","","html-keyboard-response","419","652738","0.0-1.0-615.0","0","0","38216","","150","","","68","68","d","","","","","","","","","","","","","","",""
"","S2","","html-keyboard-response","420","652856","0.0-1.0-616.0","0","0","38216","","113","","","68","68","","d","2","68","training","adjacent","ED","5","4","N.jpg","P.jpg","1","0","0","",""
"","feedback","","html-keyboard-response","421","653868","0.0-1.0-618.0-0.0","0","0","38216","","null","","","null","68","","","","","","","","","","","","","","","",""
"","time_out","","html-keyboard-response","422","655985","0.0-1.0-620.0-0.0","0","0","38216","","null","","","null","68","","","","","","","","","","","","","","","",""
"","ITI","","html-keyboard-response","423","656991","0.0-1.0-621.0","0","0","38216","","28","","","68","68","","","","","","","","","","","","","","","d",""
"","S1","","html-keyboard-response","424","657246","0.0-1.0-623.0","0","0","38216","","null","","","null","69","","","","","","","","","","","","","","","",""
"","ISI","","html-keyboard-response","425","657754","0.0-1.0-624.0","0","0","38216","","177","","","68","69","d","","","","","","","","","","","","","","",""
"","S2","","html-keyboard-response","426","657919","0.0-1.0-625.0","0","0","38216","","160","","","68","69","","d","2","69","training","adjacent","AB","1","2","O.jpg","R.jpg","1","1","1","",""
"","feedback","","html-keyboard-response","427","658926","0.0-1.0-627.0-0.0","0","0","38216","","null","","","null","69","","","","","","","","","","","","","","","",""
"","ITI","","html-keyboard-response","428","659931","0.0-1.0-630.0","0","0","38216","","400","","","68","69","","","","","","","","","","","","","","","d",""
"","S1","","html-keyboard-response","429","660186","0.0-1.0-632.0","0","0","38216","","null","","","null","70","","","","","","","","","","","","","","","",""
"","ISI","","html-keyboard-response","430","660693","0.0-1.0-633.0","0","0","38216","","38","","","68","70","d","","","","","","","","","","","","","","",""
"","S2","","html-keyboard-response","431","660864","0.0-1.0-634.0","0","0","38216","","162","","","75","70","","k","2","70","training","adjacent","BC","2","3","R.jpg","L.jpg","0","1","0","",""
"","feedback","","html-keyboard-response","432","661923","0.0-1.0-636.0-0.0","0","0","38216","","null","","","null","70","","","","","","","","","","","","","","","",""
"","time_out","","html-keyboard-response","433","663931","0.0-1.0-638.0-0.0","0","0","38216","","null","","","null","70","","","","","","","","","","","","","","","",""
"","ITI","","html-keyboard-response","434","664937","0.0-1.0-639.0","0","0","38216","","50","","","68","70","","","","","","","","","","","","","","","d",""
"","S1","","html-keyboard-response","435","665192","0.0-1.0-641.0","0","0","38216","","null","","","null","71","","","","","","","","","","","","","","","",""
"","ISI","","html-keyboard-response","436","665701","0.0-1.0-642.0","0","0","38216","","101","","","68","71","d","","","","","","","","","","","","","","",""
"","S2","","html-keyboard-response","437","665951","0.0-1.0-643.0","0","0","38216","","238","","","68","71","","d","2","71","training","adjacent","FE","6","5","M.jpg","N.jpg","1","0","0","",""
"","feedback","","html-keyboard-response","438","666957","0.0-1.0-645.0-0.0","0","0","38216","","null","","","null","71","","","","","","","","","","","","","","","",""
"","time_out","","html-keyboard-response","439","668965","0.0-1.0-647.0-0.0","0","0","38216","","null","","","null","71","","","","","","","","","","","","","","","",""
"","ITI","","html-keyboard-response","440","669970","0.0-1.0-648.0","0","0","38216","","5","","","68","71","","","","","","","","","","","","","","","d",""
"","S1","","html-keyboard-response","441","670226","0.0-1.0-650.0","0","0","38216","","null","","","null","72","","","","","","","","","","","","","","","",""
"","ISI","","html-keyboard-response","442","670730","0.0-1.0-651.0","0","0","38216","","77","","","68","72","d","","","","","","","","","","","","","","",""
"","S2","","html-keyboard-response","443","670868","0.0-1.0-652.0","0","0","38216","","132","","","68","72","","d","2","72","training","adjacent","DC","4","3","P.jpg","L.jpg","1","0","0","",""
"","feedback","","html-keyboard-response","444","671947","0.0-1.0-654.0-0.0","0","0","38216","","null","","","null","72","","","","","","","","","","","","","","","",""
"","time_out","","html-keyboard-response","445","673959","0.0-1.0-656.0-0.0","0","0","38216","","null","","","null","72","","","","","","","","","","","","","","","",""
"","ITI","","html-keyboard-response","446","674965","0.0-1.0-657.0","0","0","38216","","10","","","68","72","","","","","","","","","","","","","","","d",""
"","S1","","html-keyboard-response","447","675222","0.0-1.0-659.0","0","0","38216","","null","","","null","73","","","","","","","","","","","","","","","",""
"","ISI","","html-keyboard-response","448","675734","0.0-1.0-660.0","0","0","38216","","50","","","68","73","d","","","","","","","","","","","","","","",""
"","S2","","html-keyboard-response","449","675960","0.0-1.0-661.0","0","0","38216","","219","","","75","73","","k","2","73","training","adjacent","EF","5","6","N.jpg","M.jpg","0","1","0","",""
"","feedback","","html-keyboard-response","450","676965","0.0-1.0-663.0-0.0","0","0","38216","","null","","","null","73","","","","","","","","","","","","","","","",""
"","time_out","","html-keyboard-response","451","678972","0.0-1.0-665.0-0.0","0","0","38216","","null","","","null","73","","","","","","","","","","","","","","","",""
"","ITI","","html-keyboard-response","452","679977","0.0-1.0-666.0","0","0","38216","","33","","","68","73","","","","","","","","","","","","","","","d",""
"","S1","","html-keyboard-response","453","680232","0.0-1.0-668.0","0","0","38216","","null","","","null","74","","","","","","","","","","","","","","","",""
"","ISI","","html-keyboard-response","454","680738","0.0-1.0-669.0","0","0","38216","","160","","","68","74","d","","","","","","","","","","","","","","",""
"","S2","","html-keyboard-response","455","680817","0.0-1.0-670.0","0","0","38216","","74","","","68","74","","d","2","74","training","adjacent","FG","6","7","M.jpg","Q.jpg","1","1","1","",""
"","feedback","","html-keyboard-response","456","681895","0.0-1.0-672.0-0.0","0","0","38216","","null","","","null","74","","","","","","","","","","","","","","","",""
"","ITI","","html-keyboard-response","457","682954","0.0-1.0-675.0","0","0","38216","","29","","","68","74","","","","","","","","","","","","","","","d",""
"","S1","","html-keyboard-response","458","683209","0.0-1.0-677.0","0","0","38216","","null","","","null","75","","","","","","","","","","","","","","","",""
"","ISI","","html-keyboard-response","459","683714","0.0-1.0-678.0","0","0","38216","","65","","","68","75","d","","","","","","","","","","","","","","",""
"","S2","","html-keyboard-response","460","683969","0.0-1.0-679.0","0","0","38216","","null","","","null","75","","NaN","","","","","","","","","","","","","",""
"","response","","html-keyboard-response","461","684157","0.0-1.0-680.0-0.0","0","0","38216","","180","","","75","75","","","2","75","training","adjacent","DC","4","3","P.jpg","L.jpg","0","0","1","",""
"","feedback","","html-keyboard-response","462","685164","0.0-1.0-681.0-0.0","0","0","38216","","null","","","null","75","","","","","","","","","","","","","","","",""
"","ITI","","html-keyboard-response","463","686173","0.0-1.0-684.0","0","0","38216","","15","","","68","75","","","","","","","","","","","","","","","d",""
"","S1","","html-keyboard-response","464","686432","0.0-1.0-686.0","0","0","38216","","null","","","null","76","","","","","","","","","","","","","","","",""
"","ISI","","html-keyboard-response","465","686942","0.0-1.0-687.0","0","0","38216","","62","","","75","76","k","","","","","","","","","","","","","","",""
"","S2","","html-keyboard-response","466","687048","0.0-1.0-688.0","0","0","38216","","99","","","68","76","","d","2","76","training","adjacent","AB","1","2","O.jpg","R.jpg","1","1","1","",""
"","feedback","","html-keyboard-response","467","688055","0.0-1.0-690.0-0.0","0","0","38216","","null","","","null","76","","","","","","","","","","","","","","","",""
"","ITI","","html-keyboard-response","468","689060","0.0-1.0-693.0","0","0","38216","","79","","","68","76","","","","","","","","","","","","","","","d",""
"","S1","","html-keyboard-response","469","689317","0.0-1.0-695.0","0","0","38216","","null","","","null","77","","","","","","","","","","","","","","","",""
"","ISI","","html-keyboard-response","470","689819","0.0-1.0-696.0","0","0","38216","","1","","","75","77","k","","","","","","","","","","","","","","",""
"","S2","","html-keyboard-response","471","690074","0.0-1.0-697.0","0","0","38216","","null","","","null","77","","NaN","","","","","","","","","","","","","",""
"","response","","html-keyboard-response","472","690698","0.0-1.0-698.0-0.0","0","0","38216","","617","","","75","77","","","2","77","training","adjacent","BA","2","1","R.jpg","O.jpg","0","0","1","",""
"","feedback","","html-keyboard-response","473","691703","0.0-1.0-699.0-0.0","0","0","38216","","null","","","null","77","","","","","","","","","","","","","","","",""
"","ITI","","html-keyboard-response","474","692711","0.0-1.0-702.0","0","0","38216","","229","","","75","77","","","","","","","","","","","","","","","k",""
"","S1","","html-keyboard-response","475","692966","0.0-1.0-704.0","0","0","38216","","null","","","null","78","","","","","","","","","","","","","","","",""
"","ISI","","html-keyboard-response","476","693471","0.0-1.0-705.0","0","0","38216","","28","","","75","78","k","","","","","","","","","","","","","","",""
"","S2","","html-keyboard-response","477","693527","0.0-1.0-706.0","0","0","38216","","48","","","68","78","","d","2","78","training","adjacent","BC","2","3","R.jpg","L.jpg","1","1","1","",""
"","feedback","","html-keyboard-response","478","694536","0.0-1.0-708.0-0.0","0","0","38216","","null","","","null","78","","","","","","","","","","","","","","","",""
"","ITI","","html-keyboard-response","479","695541","0.0-1.0-711.0","0","0","38216","","37","","","68","78","","","","","","","","","","","","","","","d",""
"","S1","","html-keyboard-response","480","695795","0.0-1.0-713.0","0","0","38216","","null","","","null","79","","","","","","","","","","","","","","","",""
"","ISI","","html-keyboard-response","481","696299","0.0-1.0-714.0","0","0","38216","","219","","","68","79","d","","","","","","","","","","","","","","",""
"","S2","","html-keyboard-response","482","696438","0.0-1.0-715.0","0","0","38216","","132","","","68","79","","d","2","79","training","adjacent","DE","4","5","P.jpg","N.jpg","1","1","1","",""
"","feedback","","html-keyboard-response","483","697447","0.0-1.0-717.0-0.0","0","0","38216","","null","","","null","79","","","","","","","","","","","","","","","",""
"","ITI","","html-keyboard-response","484","698454","0.0-1.0-720.0","0","0","38216","","4","","","68","79","","","","","","","","","","","","","","","d",""
"","S1","","html-keyboard-response","485","698709","0.0-1.0-722.0","0","0","38216","","null","","","null","80","","","","","","","","","","","","","","","",""
"","ISI","","html-keyboard-response","486","699216","0.0-1.0-723.0","0","0","38216","","143","","","68","80","d","","","","","","","","","","","","","","",""
"","S2","","html-keyboard-response","487","699380","0.0-1.0-724.0","0","0","38216","","158","","","75","80","","k","2","80","training","adjacent","FG","6","7","M.jpg","Q.jpg","0","1","0","",""
"","feedback","","html-keyboard-response","488","700386","0.0-1.0-726.0-0.0","0","0","38216","","null","","","null","80","","","","","","","","","","","","","","","",""
"","time_out","","html-keyboard-response","489","702395","0.0-1.0-728.0-0.0","0","0","38216","","null","","","null","80","","","","","","","","","","","","","","","",""
"","ITI","","html-keyboard-response","490","703401","0.0-1.0-729.0","0","0","38216","","556","","","68","80","","","","","","","","","","","","","","","d",""
"","S1","","html-keyboard-response","491","703655","0.0-1.0-731.0","0","0","38216","","null","","","null","81","","","","","","","","","","","","","","","",""
"","ISI","","html-keyboard-response","492","704160","0.0-1.0-732.0","0","0","38216","","48","","","68","81","d","","","","","","","","","","","","","","",""
"","S2","","html-keyboard-response","493","704339","0.0-1.0-733.0","0","0","38216","","175","","","68","81","","d","2","81","training","adjacent","BA","2","1","R.jpg","O.jpg","1","0","0","",""
"","feedback","","html-keyboard-response","494","705346","0.0-1.0-735.0-0.0","0","0","38216","","null","","","null","81","","","","","","","","","","","","","","","",""
"","time_out","","html-keyboard-response","495","707357","0.0-1.0-737.0-0.0","0","0","38216","","null","","","null","81","","","","","","","","","","","","","","","",""
"","ITI","","html-keyboard-response","496","708363","0.0-1.0-738.0","0","0","38216","","146","","","75","81","","","","","","","","","","","","","","","k",""
"","S1","","html-keyboard-response","497","708620","0.0-1.0-740.0","0","0","38216","","null","","","null","82","","","","","","","","","","","","","","","",""
"","ISI","","html-keyboard-response","498","709129","0.0-1.0-741.0","0","0","38216","","213","","","75","82","k","","","","","","","","","","","","","","",""
"","S2","","html-keyboard-response","499","709218","0.0-1.0-742.0","0","0","38216","","83","","","68","82","","d","2","82","training","adjacent","DC","4","3","P.jpg","L.jpg","1","0","0","",""
"","feedback","","html-keyboard-response","500","710226","0.0-1.0-744.0-0.0","0","0","38216","","null","","","null","82","","","","","","","","","","","","","","","",""
"","time_out","","html-keyboard-response","501","712235","0.0-1.0-746.0-0.0","0","0","38216","","null","","","null","82","","","","","","","","","","","","","","","",""
"","ITI","","html-keyboard-response","502","713243","0.0-1.0-747.0","0","0","38216","","89","","","68","82","","","","","","","","","","","","","","","d",""
"","S1","","html-keyboard-response","503","713497","0.0-1.0-749.0","0","0","38216","","null","","","null","83","","","","","","","","","","","","","","","",""
"","ISI","","html-keyboard-response","504","714003","0.0-1.0-750.0","0","0","38216","","426","","","68","83","d","","","","","","","","","","","","","","",""
"","S2","","html-keyboard-response","505","714063","0.0-1.0-751.0","0","0","38216","","57","","","68","83","","d","2","83","training","adjacent","FE","6","5","M.jpg","N.jpg","1","0","0","",""
"","feedback","","html-keyboard-response","506","715070","0.0-1.0-753.0-0.0","0","0","38216","","null","","","null","83","","","","","","","","","","","","","","","",""
"","time_out","","html-keyboard-response","507","717072","0.0-1.0-755.0-0.0","0","0","38216","","null","","","null","83","","","","","","","","","","","","","","","",""
"","ITI","","html-keyboard-response","508","718079","0.0-1.0-756.0","0","0","38216","","224","","","68","83","","","","","","","","","","","","","","","d",""
"","S1","","html-keyboard-response","509","718332","0.0-1.0-758.0","0","0","38216","","null","","","null","84","","","","","","","","","","","","","","","",""
"","ISI","","html-keyboard-response","510","718836","0.0-1.0-759.0","0","0","38216","","33","","","75","84","k","","","","","","","","","","","","","","",""
"","S2","","html-keyboard-response","511","719096","0.0-1.0-760.0","0","0","38216","","null","","","null","84","","NaN","","","","","","","","","","","","","",""
"","response","","html-keyboard-response","512","719371","0.0-1.0-761.0-0.0","0","0","38216","","265","","","68","84","","","2","84","training","adjacent","CB","3","2","L.jpg","R.jpg","1","0","0","",""
"","feedback","","html-keyboard-response","513","720387","0.0-1.0-762.0-0.0","0","0","38216","","null","","","null","84","","","","","","","","","","","","","","","",""
"","time_out","","html-keyboard-response","514","722404","0.0-1.0-764.0-0.0","0","0","38216","","null","","","null","84","","","","","","","","","","","","","","","",""
"","ITI","","html-keyboard-response","515","723409","0.0-1.0-765.0","0","0","38216","","178","","","68","84","","","","","","","","","","","","","","","d",""
"","S1","","html-keyboard-response","516","723664","0.0-1.0-767.0","0","0","38216","","null","","","null","85","","","","","","","","","","","","","","","",""
"","ISI","","html-keyboard-response","517","724169","0.0-1.0-768.0","0","0","38216","","null","","","null","85","NaN","","","","","","","","","","","","","","",""
"","S2","","html-keyboard-response","518","724424","0.0-1.0-769.0","0","0","38216","","null","","","null","85","","NaN","","","","","","","","","","","","","",""
"","response","","html-keyboard-response","519","726073","0.0-1.0-770.0-0.0","0","0","38216","","1643","","","68","85","","","2","85","training","adjacent","BA","2","1","R.jpg","O.jpg","1","0","0","",""
"","feedback","","html-keyboard-response","520","727079","0.0-1.0-771.0-0.0","0","0","38216","","null","","","null","85","","","","","","","","","","","","","","","",""
"","time_out","","html-keyboard-response","521","729083","0.0-1.0-773.0-0.0","0","0","38216","","null","","","null","85","","","","","","","","","","","","","","","",""
"","ITI","","html-keyboard-response","522","730087","0.0-1.0-774.0","0","0","38216","","169","","","68","85","","","","","","","","","","","","","","","d",""
"","S1","","html-keyboard-response","523","730347","0.0-1.0-776.0","0","0","38216","","null","","","null","86","","","","","","","","","","","","","","","",""
"","ISI","","html-keyboard-response","524","730854","0.0-1.0-777.0","0","0","38216","","14","","","68","86","d","","","","","","","","","","","","","","",""
"","S2","","html-keyboard-response","525","730924","0.0-1.0-778.0","0","0","38216","","66","","","68","86","","d","2","86","training","adjacent","AB","1","2","O.jpg","R.jpg","1","1","1","",""
"","feedback","","html-keyboard-response","526","731931","0.0-1.0-780.0-0.0","0","0","38216","","null","","","null","86","","","","","","","","","","","","","","","",""
"","ITI","","html-keyboard-response","527","732938","0.0-1.0-783.0","0","0","38216","","171","","","75","86","","","","","","","","","","","","","","","k",""
"","S1","","html-keyboard-response","528","733194","0.0-1.0-785.0","0","0","38216","","null","","","null","87","","","","","","","","","","","","","","","",""
"","ISI","","html-keyboard-response","529","733699","0.0-1.0-786.0","0","0","38216","","80","","","68","87","d","","","","","","","","","","","","","","",""
"","S2","","html-keyboard-response","530","733803","0.0-1.0-787.0","0","0","38216","","98","","","68","87","","d","2","87","training","adjacent","ED","5","4","N.jpg","P.jpg","1","0","0","",""
"","feedback","","html-keyboard-response","531","734812","0.0-1.0-789.0-0.0","0","0","38216","","null","","","null","87","","","","","","","","","","","","","","","",""
"","time_out","","html-keyboard-response","532","736820","0.0-1.0-791.0-0.0","0","0","38216","","null","","","null","87","","","","","","","","","","","","","","","",""
"","ITI","","html-keyboard-response","533","737833","0.0-1.0-792.0","0","0","38216","","164","","","75","87","","","","","","","","","","","","","","","k",""
"","S1","","html-keyboard-response","534","738092","0.0-1.0-794.0","0","0","38216","","null","","","null","88","","","","","","","","","","","","","","","",""
"","ISI","","html-keyboard-response","535","738598","0.0-1.0-795.0","0","0","38216","","73","","","68","88","d","","","","","","","","","","","","","","",""
"","S2","","html-keyboard-response","536","738714","0.0-1.0-796.0","0","0","38216","","106","","","68","88","","d","2","88","training","adjacent","DE","4","5","P.jpg","N.jpg","1","1","1","",""
"","feedback","","html-keyboard-response","537","739726","0.0-1.0-798.0-0.0","0","0","38216","","null","","","null","88","","","","","","","","","","","","","","","",""
"","ITI","","html-keyboard-response","538","740740","0.0-1.0-801.0","0","0","38216","","22","","","68","88","","","","","","","","","","","","","","","d",""
"","S1","","html-keyboard-response","539","741000","0.0-1.0-803.0","0","0","38216","","null","","","null","89","","","","","","","","","","","","","","","",""
"","ISI","","html-keyboard-response","540","741509","0.0-1.0-804.0","0","0","38216","","481","","","68","89","d","","","","","","","","","","","","","","",""
"","S2","","html-keyboard-response","541","741557","0.0-1.0-805.0","0","0","38216","","40","","","68","89","","d","2","89","training","adjacent","CB","3","2","L.jpg","R.jpg","1","0","0","",""
"","feedback","","html-keyboard-response","542","742563","0.0-1.0-807.0-0.0","0","0","38216","","null","","","null","89","","","","","","","","","","","","","","","",""
"","time_out","","html-keyboard-response","543","744568","0.0-1.0-809.0-0.0","0","0","38216","","null","","","null","89","","","","","","","","","","","","","","","",""
"","ITI","","html-keyboard-response","544","745574","0.0-1.0-810.0","0","0","38216","","23","","","75","89","","","","","","","","","","","","","","","k",""
"","S1","","html-keyboard-response","545","745832","0.0-1.0-812.0","0","0","38216","","null","","","null","90","","","","","","","","","","","","","","","",""
"","ISI","","html-keyboard-response","546","746336","0.0-1.0-813.0","0","0","38216","","40","","","75","90","k","","","","","","","","","","","","","","",""
"","S2","","html-keyboard-response","547","746438","0.0-1.0-814.0","0","0","38216","","96","","","68","90","","d","2","90","training","adjacent","FE","6","5","M.jpg","N.jpg","1","0","0","",""
"","feedback","","html-keyboard-response","548","747447","0.0-1.0-816.0-0.0","0","0","38216","","null","","","null","90","","","","","","","","","","","","","","","",""
"","time_out","","html-keyboard-response","549","749457","0.0-1.0-818.0-0.0","0","0","38216","","null","","","null","90","","","","","","","","","","","","","","","",""
"","ITI","","html-keyboard-response","550","750463","0.0-1.0-819.0","0","0","38216","","222","","","75","90","","","","","","","","","","","","","","","k",""
"","S1","","html-keyboard-response","551","750733","0.0-1.0-821.0","0","0","38216","","null","","","null","91","","","","","","","","","","","","","","","",""
"","ISI","","html-keyboard-response","552","751239","0.0-1.0-822.0","0","0","38216","","81","","","68","91","d","","","","","","","","","","","","","","",""
"","S2","","html-keyboard-response","553","751267","0.0-1.0-823.0","0","0","38216","","24","","","75","91","","k","2","91","training","adjacent","EF","5","6","N.jpg","M.jpg","0","1","0","",""
"","feedback","","html-keyboard-response","554","752299","0.0-1.0-825.0-0.0","0","0","38216","","null","","","null","91","","","","","","","","","","","","","","","",""
"","time_out","","html-keyboard-response","555","754307","0.0-1.0-827.0-0.0","0","0","38216","","null","","","null","91","","","","","","","","","","","","","","","",""
"","ITI","","html-keyboard-response","556","755313","0.0-1.0-828.0","0","0","38216","","76","","","68","91","","","","","","","","","","","","","","","d",""
"","S1","","html-keyboard-response","557","755570","0.0-1.0-830.0","0","0","38216","","null","","","null","92","","","","","","","","","","","","","","","",""
"","ISI","","html-keyboard-response","558","756083","0.0-1.0-831.0","0","0","38216","","98","","","68","92","d","","","","","","","","","","","","","","",""
"","S2","","html-keyboard-response","559","756313","0.0-1.0-832.0","0","0","38216","","224","","","75","92","","k","2","92","training","adjacent","CB","3","2","L.jpg","R.jpg","0","0","1","",""
"","feedback","","html-keyboard-response","560","757319","0.0-1.0-834.0-0.0","0","0","38216","","null","","","null","92","","","","","","","","","","","","","","","",""
"","ITI","","html-keyboard-response","561","758325","0.0-1.0-837.0","0","0","38216","","21","","","68","92","","","","","","","","","","","","","","","d",""
"","S1","","html-keyboard-response","562","758580","0.0-1.0-839.0","0","0","38216","","null","","","null","93","","","","","","","","","","","","","","","",""
"","ISI","","html-keyboard-response","563","759085","0.0-1.0-840.0","0","0","38216","","456","","","68","93","d","","","","","","","","","","","","","","",""
"","S2","","html-keyboard-response","564","759179","0.0-1.0-841.0","0","0","38216","","87","","","75","93","","k","2","93","training","adjacent","GF","7","6","Q.jpg","M.jpg","0","0","1","",""
"","feedback","","html-keyboard-response","565","760186","0.0-1.0-843.0-0.0","0","0","38216","","null","","","null","93","","","","","","","","","","","","","","","",""
"","ITI","","html-keyboard-response","566","761194","0.0-1.0-846.0","0","0","38216","","130","","","68","93","","","","","","","","","","","","","","","d",""
"","S1","","html-keyboard-response","567","761449","0.0-1.0-848.0","0","0","38216","","null","","","null","94","","","","","","","","","","","","","","","",""
"","ISI","","html-keyboard-response","568","761956","0.0-1.0-849.0","0","0","38216","","155","","","68","94","d","","","","","","","","","","","","","","",""
"","S2","","html-keyboard-response","569","762211","0.0-1.0-850.0","0","0","38216","","null","","","null","94","","NaN","","","","","","","","","","","","","",""
"","response","","html-keyboard-response","570","762358","0.0-1.0-851.0-0.0","0","0","38216","","140","","","68","94","","","2","94","training","adjacent","CD","3","4","L.jpg","P.jpg","1","1","1","",""
"","feedback","","html-keyboard-response","571","763371","0.0-1.0-852.0-0.0","0","0","38216","","null","","","null","94","","","","","","","","","","","","","","","",""
"","ITI","","html-keyboard-response","572","764381","0.0-1.0-855.0","0","0","38216","","51","","","68","94","","","","","","","","","","","","","","","d",""
"","S1","","html-keyboard-response","573","764636","0.0-1.0-857.0","0","0","38216","","null","","","null","95","","","","","","","","","","","","","","","",""
"","ISI","","html-keyboard-response","574","765141","0.0-1.0-858.0","0","0","38216","","118","","","68","95","d","","","","","","","","","","","","","","",""
"","S2","","html-keyboard-response","575","765348","0.0-1.0-859.0","0","0","38216","","202","","","68","95","","d","2","95","training","adjacent","GF","7","6","Q.jpg","M.jpg","1","0","0","",""
"","feedback","","html-keyboard-response","576","766353","0.0-1.0-861.0-0.0","0","0","38216","","null","","","null","95","","","","","","","","","","","","","","","",""
"","time_out","","html-keyboard-response","577","768357","0.0-1.0-863.0-0.0","0","0","38216","","null","","","null","95","","","","","","","","","","","","","","","",""
