"success","ttype","start_time","trial_type","trial_index","time_elapsed","internal_node_id","warning","missed_checkup","PID","view_history","rt","responses","repeat_instructions","key_press","index","keypress_isi","keypress_S2","block","trial_num","phase","group_type","pair_type","S1_stim","S2_stim","S1_img","S2_img","S1_chosen","S1_higher","accuracy","keypress_iti","total_bonus_tally"
"true","full_screen","d04132023hr1816","fullscreen","0","15366","0.0-0.0","0","0","82946","","","","","","","","","","","","","","","","","","","","","",""
"","instructions","","instructions","1","30359","0.0-1.0-0.0-0.0","0","0","82946","[{""page_index"":0,""viewing_time"":2725},{""page_index"":1,""viewing_time"":5967},{""page_index"":2,""viewing_time"":3934},{""page_index"":3,""viewing_time"":2366}]","14992","","","","","","","","","","","","","","","","","","","",""
"","comprehension_check","","survey-multi-choice","2","46694","0.0-1.0-0.0-1.0","0","0","82946","","16331","{""Q0"":""True"",""Q1"":""D"",""Q2"":""Once the second image appears and while the screen 'MAKE A CHOICE' is shown"",""Q3"":""Green mark"",""Q4"":""either D or K""}","0","","","","","","","","","","","","","","","","","",""
"","start_exp","","html-keyboard-response","3","48254","0.0-1.0-1.0","0","0","82946","","1558","","","32","","","","","","","","","","","","","","","","",""
"","S1","","html-keyboard-response","4","48511","0.0-1.0-2.0","0","0","82946","","null","","","null","0","","","","","","","","","","","","","","","",""
"","ISI","","html-keyboard-response","5","49520","0.0-1.0-3.0","0","0","82946","","null","","","null","0","NaN","","","","","","","","","","","","","","",""
"","S2","","html-keyboard-response","6","49783","0.0-1.0-4.0","0","0","82946","","null","","","null","0","","NaN","","","","","","","","","","","","","",""
"","response","","html-keyboard-response","7","50292","0.0-1.0-5.0-0.0","0","0","82946","","508","","","75","0","","","1","0","training","adjacent","EF","5","6","N.jpg","P.jpg","0","1","0","",""
"","feedback","","html-keyboard-response","8","51302","0.0-1.0-6.0-0.0","0","0","82946","","null","","","null","0","","","","","","","","","","","","","","","",""
"","time_out","","html-keyboard-response","9","53310","0.0-1.0-8.0-0.0","0","0","82946","","null","","","null","0","","","","","","","","","","","","","","","",""
"","ITI","","html-keyboard-response","10","54320","0.0-1.0-9.0","0","0","82946","","null","","","null","0","","","","","","","","","","","","","","","NaN",""
"","S1","","html-keyboard-response","11","54582","0.0-1.0-11.0","0","0","82946","","null","","","null","1","","","","","","","","","","","","","","","",""
"","ISI","","html-keyboard-response","12","55591","0.0-1.0-12.0","0","0","82946","","null","","","null","1","NaN","","","","","","","","","","","","","","",""
"","S2","","html-keyboard-response","13","55846","0.0-1.0-13.0","0","0","82946","","null","","","null","1","","NaN","","","","","","","","","","","","","",""
"","response","","html-keyboard-response","14","57129","0.0-1.0-14.0-0.0","0","0","82946","","1280","","","75","1","","","1","1","training","adjacent","AB","1","2","Q.jpg","L.jpg","0","1","0","",""
"","feedback","","html-keyboard-response","15","58135","0.0-1.0-15.0-0.0","0","0","82946","","null","","","null","1","","","","","","","","","","","","","","","",""
"","time_out","","html-keyboard-response","16","60143","0.0-1.0-17.0-0.0","0","0","82946","","null","","","null","1","","","","","","","","","","","","","","","",""
"","ITI","","html-keyboard-response","17","61152","0.0-1.0-18.0","0","0","82946","","null","","","null","1","","","","","","","","","","","","","","","NaN",""
"","S1","","html-keyboard-response","18","61415","0.0-1.0-20.0","0","0","82946","","null","","","null","2","","","","","","","","","","","","","","","",""
"","ISI","","html-keyboard-response","19","62423","0.0-1.0-21.0","0","0","82946","","null","","","null","2","NaN","","","","","","","","","","","","","","",""
"","S2","","html-keyboard-response","20","62679","0.0-1.0-22.0","0","0","82946","","null","","","null","2","","NaN","","","","","","","","","","","","","",""
"","response","","html-keyboard-response","21","63038","0.0-1.0-23.0-0.0","0","0","82946","","358","","","68","2","","","1","2","training","adjacent","CB","3","2","O.jpg","L.jpg","1","0","0","",""
"","feedback","","html-keyboard-response","22","64046","0.0-1.0-24.0-0.0","0","0","82946","","null","","","null","2","","","","","","","","","","","","","","","",""
"","time_out","","html-keyboard-response","23","66055","0.0-1.0-26.0-0.0","0","0","82946","","null","","","null","2","","","","","","","","","","","","","","","",""
"","ITI","","html-keyboard-response","24","67063","0.0-1.0-27.0","0","0","82946","","null","","","null","2","","","","","","","","","","","","","","","NaN",""
"","S1","","html-keyboard-response","25","67328","0.0-1.0-29.0","0","0","82946","","null","","","null","3","","","","","","","","","","","","","","","",""
"","ISI","","html-keyboard-response","26","68336","0.0-1.0-30.0","0","0","82946","","null","","","null","3","NaN","","","","","","","","","","","","","","",""
"","S2","","html-keyboard-response","27","68598","0.0-1.0-31.0","0","0","82946","","null","","","null","3","","NaN","","","","","","","","","","","","","",""
"","response","","html-keyboard-response","28","68879","0.0-1.0-32.0-0.0","0","0","82946","","278","","","75","3","","","1","3","training","adjacent","FG","6","7","P.jpg","R.jpg","0","1","0","",""
"","feedback","","html-keyboard-response","29","69886","0.0-1.0-33.0-0.0","0","0","82946","","null","","","null","3","","","","","","","","","","","","","","","",""
"","time_out","","html-keyboard-response","30","71895","0.0-1.0-35.0-0.0","0","0","82946","","null","","","null","3","","","","","","","","","","","","","","","",""
"","ITI","","html-keyboard-response","31","72902","0.0-1.0-36.0","0","0","82946","","null","","","null","3","","","","","","","","","","","","","","","NaN",""
"","S1","","html-keyboard-response","32","73160","0.0-1.0-38.0","0","0","82946","","null","","","null","4","","","","","","","","","","","","","","","",""
"","ISI","","html-keyboard-response","33","74167","0.0-1.0-39.0","0","0","82946","","null","","","null","4","NaN","","","","","","","","","","","","","","",""
"","S2","","html-keyboard-response","34","74423","0.0-1.0-40.0","0","0","82946","","null","","","null","4","","NaN","","","","","","","","","","","","","",""
"","response","","html-keyboard-response","35","75485","0.0-1.0-41.0-0.0","0","0","82946","","1061","","","68","4","","","1","4","training","adjacent","DE","4","5","M.jpg","N.jpg","1","1","1","",""
"","feedback","","html-keyboard-response","36","76496","0.0-1.0-42.0-0.0","0","0","82946","","null","","","null","4","","","","","","","","","","","","","","","",""
"","ITI","","html-keyboard-response","37","77503","0.0-1.0-45.0","0","0","82946","","null","","","null","4","","","","","","","","","","","","","","","NaN",""
"","S1","","html-keyboard-response","38","77759","0.0-1.0-47.0","0","0","82946","","null","","","null","5","","","","","","","","","","","","","","","",""
"","ISI","","html-keyboard-response","39","78768","0.0-1.0-48.0","0","0","82946","","null","","","null","5","NaN","","","","","","","","","","","","","","",""
"","S2","","html-keyboard-response","40","79031","0.0-1.0-49.0","0","0","82946","","null","","","null","5","","NaN","","","","","","","","","","","","","",""
"","response","","html-keyboard-response","41","80591","0.0-1.0-50.0-0.0","0","0","82946","","1559","","","68","5","","","1","5","training","adjacent","EF","5","6","N.jpg","P.jpg","1","1","1","",""
"","feedback","","html-keyboard-response","42","81600","0.0-1.0-51.0-0.0","0","0","82946","","null","","","null","5","","","","","","","","","","","","","","","",""
"","ITI","","html-keyboard-response","43","82607","0.0-1.0-54.0","0","0","82946","","null","","","null","5","","","","","","","","","","","","","","","NaN",""
"","S1","","html-keyboard-response","44","82864","0.0-1.0-56.0","0","0","82946","","null","","","null","6","","","","","","","","","","","","","","","",""
"","ISI","","html-keyboard-response","45","83872","0.0-1.0-57.0","0","0","82946","","null","","","null","6","NaN","","","","","","","","","","","","","","",""
"","S2","","html-keyboard-response","46","84135","0.0-1.0-58.0","0","0","82946","","null","","","null","6","","NaN","","","","","","","","","","","","","",""
"","response","","html-keyboard-response","47","85124","0.0-1.0-59.0-0.0","0","0","82946","","988","","","75","6","","","1","6","training","adjacent","BC","2","3","L.jpg","O.jpg","0","1","0","",""
"","feedback","","html-keyboard-response","48","86135","0.0-1.0-60.0-0.0","0","0","82946","","null","","","null","6","","","","","","","","","","","","","","","",""
"","time_out","","html-keyboard-response","49","88143","0.0-1.0-62.0-0.0","0","0","82946","","null","","","null","6","","","","","","","","","","","","","","","",""
"","ITI","","html-keyboard-response","50","89153","0.0-1.0-63.0","0","0","82946","","null","","","null","6","","","","","","","","","","","","","","","NaN",""
"","S1","","html-keyboard-response","51","89415","0.0-1.0-65.0","0","0","82946","","null","","","null","7","","","","","","","","","","","","","","","",""
"","ISI","","html-keyboard-response","52","90424","0.0-1.0-66.0","0","0","82946","","null","","","null","7","NaN","","","","","","","","","","","","","","",""
"","S2","","html-keyboard-response","53","90680","0.0-1.0-67.0","0","0","82946","","null","","","null","7","","NaN","","","","","","","","","","","","","",""
"","response","","html-keyboard-response","54","92105","0.0-1.0-68.0-0.0","0","0","82946","","1424","","","68","7","","","1","7","training","adjacent","CB","3","2","O.jpg","L.jpg","1","0","0","",""
"","feedback","","html-keyboard-response","55","93111","0.0-1.0-69.0-0.0","0","0","82946","","null","","","null","7","","","","","","","","","","","","","","","",""
"","time_out","","html-keyboard-response","56","95120","0.0-1.0-71.0-0.0","0","0","82946","","null","","","null","7","","","","","","","","","","","","","","","",""
"","ITI","","html-keyboard-response","57","96128","0.0-1.0-72.0","0","0","82946","","null","","","null","7","","","","","","","","","","","","","","","NaN",""
"","S1","","html-keyboard-response","58","96384","0.0-1.0-74.0","0","0","82946","","null","","","null","8","","","","","","","","","","","","","","","",""
"","ISI","","html-keyboard-response","59","97393","0.0-1.0-75.0","0","0","82946","","null","","","null","8","NaN","","","","","","","","","","","","","","",""
"","S2","","html-keyboard-response","60","97656","0.0-1.0-76.0","0","0","82946","","null","","","null","8","","NaN","","","","","","","","","","","","","",""
"","response","","html-keyboard-response","61","99416","0.0-1.0-77.0-0.0","0","0","82946","","null","","","null","8","","","1","8","training","adjacent","FG","6","7","P.jpg","R.jpg","NaN","1","0","",""
"","too_slow_prompt","","html-keyboard-response","62","100423","0.0-1.0-79.0-0.0","1","0","82946","","null","","","null","","","","","","","","","","","","","","","","",""
"","time_out","","html-keyboard-response","63","102432","0.0-1.0-80.0-0.0","0","0","82946","","null","","","null","8","","","","","","","","","","","","","","","",""
"","ITI","","html-keyboard-response","64","103441","0.0-1.0-81.0","0","0","82946","","null","","","null","8","","","","","","","","","","","","","","","NaN",""
"","S1","","html-keyboard-response","65","103704","0.0-1.0-83.0","0","0","82946","","null","","","null","9","","","","","","","","","","","","","","","",""
"","ISI","","html-keyboard-response","66","104708","0.0-1.0-84.0","0","0","82946","","null","","","null","9","NaN","","","","","","","","","","","","","","",""
"","S2","","html-keyboard-response","67","104968","0.0-1.0-85.0","0","0","82946","","null","","","null","9","","NaN","","","","","","","","","","","","","",""
"","response","","html-keyboard-response","68","105792","0.0-1.0-86.0-0.0","0","0","82946","","822","","","75","9","","","1","9","training","adjacent","CB","3","2","O.jpg","L.jpg","0","0","1","",""
"","feedback","","html-keyboard-response","69","106800","0.0-1.0-87.0-0.0","0","0","82946","","null","","","null","9","","","","","","","","","","","","","","","",""
"","ITI","","html-keyboard-response","70","107809","0.0-1.0-90.0","0","0","82946","","null","","","null","9","","","","","","","","","","","","","","","NaN",""
"","S1","","html-keyboard-response","71","108072","0.0-1.0-92.0","0","0","82946","","null","","","null","10","","","","","","","","","","","","","","","",""
"","ISI","","html-keyboard-response","72","109080","0.0-1.0-93.0","0","0","82946","","null","","","null","10","NaN","","","","","","","","","","","","","","",""
"","S2","","html-keyboard-response","73","109336","0.0-1.0-94.0","0","0","82946","","null","","","null","10","","NaN","","","","","","","","","","","","","",""
"","response","","html-keyboard-response","74","110335","0.0-1.0-95.0-0.0","0","0","82946","","997","","","75","10","","","1","10","training","adjacent","DE","4","5","M.jpg","N.jpg","0","1","0","",""
"","feedback","","html-keyboard-response","75","111345","0.0-1.0-96.0-0.0","0","0","82946","","null","","","null","10","","","","","","","","","","","","","","","",""
"","time_out","","html-keyboard-response","76","113352","0.0-1.0-98.0-0.0","0","0","82946","","null","","","null","10","","","","","","","","","","","","","","","",""
"","ITI","","html-keyboard-response","77","114360","0.0-1.0-99.0","0","0","82946","","null","","","null","10","","","","","","","","","","","","","","","NaN",""
"","S1","","html-keyboard-response","78","114616","0.0-1.0-101.0","0","0","82946","","null","","","null","11","","","","","","","","","","","","","","","",""
"","ISI","","html-keyboard-response","79","115623","0.0-1.0-102.0","0","0","82946","","null","","","null","11","NaN","","","","","","","","","","","","","","",""
"","S2","","html-keyboard-response","80","115881","0.0-1.0-103.0","0","0","82946","","null","","","null","11","","NaN","","","","","","","","","","","","","",""
"","response","","html-keyboard-response","81","117071","0.0-1.0-104.0-0.0","0","0","82946","","1189","","","75","11","","","1","11","training","adjacent","GF","7","6","R.jpg","P.jpg","0","0","1","",""
"","feedback","","html-keyboard-response","82","118081","0.0-1.0-105.0-0.0","0","0","82946","","null","","","null","11","","","","","","","","","","","","","","","",""
"","ITI","","html-keyboard-response","83","119089","0.0-1.0-108.0","0","0","82946","","null","","","null","11","","","","","","","","","","","","","","","NaN",""
"","S1","","html-keyboard-response","84","119345","0.0-1.0-110.0","0","0","82946","","null","","","null","12","","","","","","","","","","","","","","","",""
"","ISI","","html-keyboard-response","85","120353","0.0-1.0-111.0","0","0","82946","","null","","","null","12","NaN","","","","","","","","","","","","","","",""
"","S2","","html-keyboard-response","86","120609","0.0-1.0-112.0","0","0","82946","","null","","","null","12","","NaN","","","","","","","","","","","","","",""
"","response","","html-keyboard-response","87","121966","0.0-1.0-113.0-0.0","0","0","82946","","1355","","","75","12","","","1","12","training","adjacent","CB","3","2","O.jpg","L.jpg","0","0","1","",""
"","feedback","","html-keyboard-response","88","122977","0.0-1.0-114.0-0.0","0","0","82946","","null","","","null","12","","","","","","","","","","","","","","","",""
"","ITI","","html-keyboard-response","89","123986","0.0-1.0-117.0","0","0","82946","","null","","","null","12","","","","","","","","","","","","","","","NaN",""
"","S1","","html-keyboard-response","90","124248","0.0-1.0-119.0","0","0","82946","","null","","","null","13","","","","","","","","","","","","","","","",""
"","ISI","","html-keyboard-response","91","125257","0.0-1.0-120.0","0","0","82946","","null","","","null","13","NaN","","","","","","","","","","","","","","",""
"","S2","","html-keyboard-response","92","125512","0.0-1.0-121.0","0","0","82946","","null","","","null","13","","NaN","","","","","","","","","","","","","",""
"","response","","html-keyboard-response","93","126186","0.0-1.0-122.0-0.0","0","0","82946","","673","","","68","13","","","1","13","training","adjacent","CD","3","4","O.jpg","M.jpg","1","1","1","",""
"","feedback","","html-keyboard-response","94","127192","0.0-1.0-123.0-0.0","0","0","82946","","null","","","null","13","","","","","","","","","","","","","","","",""
"","ITI","","html-keyboard-response","95","128200","0.0-1.0-126.0","0","0","82946","","null","","","null","13","","","","","","","","","","","","","","","NaN",""
"","S1","","html-keyboard-response","96","128456","0.0-1.0-128.0","0","0","82946","","null","","","null","14","","","","","","","","","","","","","","","",""
"","ISI","","html-keyboard-response","97","129464","0.0-1.0-129.0","0","0","82946","","null","","","null","14","NaN","","","","","","","","","","","","","","",""
"","S2","","html-keyboard-response","98","129718","0.0-1.0-130.0","0","0","82946","","null","","","null","14","","NaN","","","","","","","","","","","","","",""
"","response","","html-keyboard-response","99","130414","0.0-1.0-131.0-0.0","0","0","82946","","694","","","68","14","","","1","14","training","adjacent","BC","2","3","L.jpg","O.jpg","1","1","1","",""
"","feedback","","html-keyboard-response","100","131425","0.0-1.0-132.0-0.0","0","0","82946","","null","","","null","14","","","","","","","","","","","","","","","",""
"","ITI","","html-keyboard-response","101","132433","0.0-1.0-135.0","0","0","82946","","null","","","null","14","","","","","","","","","","","","","","","NaN",""
"","S1","","html-keyboard-response","102","132689","0.0-1.0-137.0","0","0","82946","","null","","","null","15","","","","","","","","","","","","","","","",""
"","ISI","","html-keyboard-response","103","133698","0.0-1.0-138.0","0","0","82946","","null","","","null","15","NaN","","","","","","","","","","","","","","",""
"","S2","","html-keyboard-response","104","133961","0.0-1.0-139.0","0","0","82946","","null","","","null","15","","NaN","","","","","","","","","","","","","",""
"","response","","html-keyboard-response","105","134450","0.0-1.0-140.0-0.0","0","0","82946","","487","","","68","15","","","1","15","training","adjacent","BC","2","3","L.jpg","O.jpg","1","1","1","",""
"","feedback","","html-keyboard-response","106","135458","0.0-1.0-141.0-0.0","0","0","82946","","null","","","null","15","","","","","","","","","","","","","","","",""
"","ITI","","html-keyboard-response","107","136465","0.0-1.0-144.0","0","0","82946","","null","","","null","15","","","","","","","","","","","","","","","NaN",""
"","S1","","html-keyboard-response","108","136717","0.0-1.0-146.0","0","0","82946","","null","","","null","16","","","","","","","","","","","","","","","",""
"","ISI","","html-keyboard-response","109","137730","0.0-1.0-147.0","0","0","82946","","null","","","null","16","NaN","","","","","","","","","","","","","","",""
"","S2","","html-keyboard-response","110","137993","0.0-1.0-148.0","0","0","82946","","null","","","null","16","","NaN","","","","","","","","","","","","","",""
"","response","","html-keyboard-response","111","138220","0.0-1.0-149.0-0.0","0","0","82946","","226","","","68","16","","","1","16","training","adjacent","BC","2","3","L.jpg","O.jpg","1","1","1","",""
"","feedback","","html-keyboard-response","112","139234","0.0-1.0-150.0-0.0","0","0","82946","","null","","","null","16","","","","","","","","","","","","","","","",""
"","ITI","","html-keyboard-response","113","140242","0.0-1.0-153.0","0","0","82946","","null","","","null","16","","","","","","","","","","","","","","","NaN",""
"","S1","","html-keyboard-response","114","140504","0.0-1.0-155.0","0","0","82946","","null","","","null","17","","","","","","","","","","","","","","","",""
"","ISI","","html-keyboard-response","115","141513","0.0-1.0-156.0","0","0","82946","","null","","","null","17","NaN","","","","","","","","","","","","","","",""
"","S2","","html-keyboard-response","116","141769","0.0-1.0-157.0","0","0","82946","","null","","","null","17","","NaN","","","","","","","","","","","","","",""
"","response","","html-keyboard-response","117","142545","0.0-1.0-158.0-0.0","0","0","82946","","775","","","68","17","","","1","17","training","adjacent","DE","4","5","M.jpg","N.jpg","1","1","1","",""
"","feedback","","html-keyboard-response","118","143552","0.0-1.0-159.0-0.0","0","0","82946","","null","","","null","17","","","","","","","","","","","","","","","",""
"","ITI","","html-keyboard-response","119","144561","0.0-1.0-162.0","0","0","82946","","null","","","null","17","","","","","","","","","","","","","","","NaN",""
"","S1","","html-keyboard-response","120","144818","0.0-1.0-164.0","0","0","82946","","null","","","null","18","","","","","","","","","","","","","","","",""
"","ISI","","html-keyboard-response","121","145825","0.0-1.0-165.0","0","0","82946","","null","","","null","18","NaN","","","","","","","","","","","","","","",""
"","S2","","html-keyboard-response","122","146081","0.0-1.0-166.0","0","0","82946","","null","","","null","18","","NaN","","","","","","","","","","","","","",""
"","response","","html-keyboard-response","123","146779","0.0-1.0-167.0-0.0","0","0","82946","","697","","","68","18","","","1","18","training","adjacent","EF","5","6","N.jpg","P.jpg","1","1","1","",""
"","feedback","","html-keyboard-response","124","147785","0.0-1.0-168.0-0.0","0","0","82946","","null","","","null","18","","","","","","","","","","","","","","","",""
"","ITI","","html-keyboard-response","125","148793","0.0-1.0-171.0","0","0","82946","","null","","","null","18","","","","","","","","","","","","","","","NaN",""
"","S1","","html-keyboard-response","126","149049","0.0-1.0-173.0","0","0","82946","","null","","","null","19","","","","","","","","","","","","","","","",""
"","ISI","","html-keyboard-response","127","150057","0.0-1.0-174.0","0","0","82946","","null","","","null","19","NaN","","","","","","","","","","","","","","",""
"","S2","","html-keyboard-response","128","150314","0.0-1.0-175.0","0","0","82946","","null","","","null","19","","NaN","","","","","","","","","","","","","",""
"","response","","html-keyboard-response","129","151046","0.0-1.0-176.0-0.0","0","0","82946","","731","","","68","19","","","1","19","training","adjacent","DC","4","3","M.jpg","O.jpg","1","0","0","",""
"","feedback","","html-keyboard-response","130","152057","0.0-1.0-177.0-0.0","0","0","82946","","null","","","null","19","","","","","","","","","","","","","","","",""
"","time_out","","html-keyboard-response","131","154066","0.0-1.0-179.0-0.0","0","0","82946","","null","","","null","19","","","","","","","","","","","","","","","",""
"","ITI","","html-keyboard-response","132","155075","0.0-1.0-180.0","0","0","82946","","null","","","null","19","","","","","","","","","","","","","","","NaN",""
"","S1","","html-keyboard-response","133","155337","0.0-1.0-182.0","0","0","82946","","null","","","null","20","","","","","","","","","","","","","","","",""
"","ISI","","html-keyboard-response","134","156345","0.0-1.0-183.0","0","0","82946","","null","","","null","20","NaN","","","","","","","","","","","","","","",""
"","S2","","html-keyboard-response","135","156602","0.0-1.0-184.0","0","0","82946","","null","","","null","20","","NaN","","","","","","","","","","","","","",""
"","response","","html-keyboard-response","136","157663","0.0-1.0-185.0-0.0","0","0","82946","","1060","","","75","20","","","1","20","training","adjacent","BA","2","1","L.jpg","Q.jpg","0","0","1","",""
"","feedback","","html-keyboard-response","137","158674","0.0-1.0-186.0-0.0","0","0","82946","","null","","","null","20","","","","","","","","","","","","","","","",""
"","ITI","","html-keyboard-response","138","159682","0.0-1.0-189.0","0","0","82946","","null","","","null","20","","","","","","","","","","","","","","","NaN",""
"","S1","","html-keyboard-response","139","159937","0.0-1.0-191.0","0","0","82946","","null","","","null","21","","","","","","","","","","","","","","","",""
"","ISI","","html-keyboard-response","140","160945","0.0-1.0-192.0","0","0","82946","","null","","","null","21","NaN","","","","","","","","","","","","","","",""
"","S2","","html-keyboard-response","141","161201","0.0-1.0-193.0","0","0","82946","","null","","","null","21","","NaN","","","","","","","","","","","","","",""
"","response","","html-keyboard-response","142","161494","0.0-1.0-194.0-0.0","0","0","82946","","292","","","75","21","","","1","21","training","adjacent","BA","2","1","L.jpg","Q.jpg","0","0","1","",""
"","feedback","","html-keyboard-response","143","162506","0.0-1.0-195.0-0.0","0","0","82946","","null","","","null","21","","","","","","","","","","","","","","","",""
"","ITI","","html-keyboard-response","144","163514","0.0-1.0-198.0","0","0","82946","","null","","","null","21","","","","","","","","","","","","","","","NaN",""
"","S1","","html-keyboard-response","145","163771","0.0-1.0-200.0","0","0","82946","","null","","","null","22","","","","","","","","","","","","","","","",""
"","ISI","","html-keyboard-response","146","164779","0.0-1.0-201.0","0","0","82946","","null","","","null","22","NaN","","","","","","","","","","","","","","",""
"","S2","","html-keyboard-response","147","165034","0.0-1.0-202.0","0","0","82946","","null","","","null","22","","NaN","","","","","","","","","","","","","",""
"","response","","html-keyboard-response","148","165230","0.0-1.0-203.0-0.0","0","0","82946","","193","","","68","22","","","1","22","training","adjacent","AB","1","2","Q.jpg","L.jpg","1","1","1","",""
"","feedback","","html-keyboard-response","149","166242","0.0-1.0-204.0-0.0","0","0","82946","","null","","","null","22","","","","","","","","","","","","","","","",""
"","ITI","","html-keyboard-response","150","167252","0.0-1.0-207.0","0","0","82946","","null","","","null","22","","","","","","","","","","","","","","","NaN",""
"","S1","","html-keyboard-response","151","167515","0.0-1.0-209.0","0","0","82946","","null","","","null","23","","","","","","","","","","","","","","","",""
"","ISI","","html-keyboard-response","152","168524","0.0-1.0-210.0","0","0","82946","","null","","","null","23","NaN","","","","","","","","","","","","","","",""
"","S2","","html-keyboard-response","153","168780","0.0-1.0-211.0","0","0","82946","","null","","","null","23","","NaN","","","","","","","","","","","","","",""
"","response","","html-keyboard-response","154","169662","0.0-1.0-212.0-0.0","0","0","82946","","881","","","75","23","","","1","23","training","adjacent","DC","4","3","M.jpg","O.jpg","0","0","1","",""
"","feedback","","html-keyboard-response","155","170669","0.0-1.0-213.0-0.0","0","0","82946","","null","","","null","23","","","","","","","","","","","","","","","",""
"","ITI","","html-keyboard-response","156","171676","0.0-1.0-216.0","0","0","82946","","null","","","null","23","","","","","","","","","","","","","","","NaN",""
"","S1","","html-keyboard-response","157","171932","0.0-1.0-218.0","0","0","82946","","null","","","null","24","","","","","","","","","","","","","","","",""
"","ISI","","html-keyboard-response","158","172940","0.0-1.0-219.0","0","0","82946","","null","","","null","24","NaN","","","","","","","","","","","","","","",""
"","S2","","html-keyboard-response","159","173197","0.0-1.0-220.0","0","0","82946","","null","","","null","24","","NaN","","","","","","","","","","","","","",""
"","response","","html-keyboard-response","160","173926","0.0-1.0-221.0-0.0","0","0","82946","","729","","","68","24","","","1","24","training","adjacent","ED","5","4","N.jpg","M.jpg","1","0","0","",""
"","feedback","","html-keyboard-response","161","174934","0.0-1.0-222.0-0.0","0","0","82946","","null","","","null","24","","","","","","","","","","","","","","","",""
"","time_out","","html-keyboard-response","162","176941","0.0-1.0-224.0-0.0","0","0","82946","","null","","","null","24","","","","","","","","","","","","","","","",""
"","ITI","","html-keyboard-response","163","177948","0.0-1.0-225.0","0","0","82946","","null","","","null","24","","","","","","","","","","","","","","","NaN",""
"","S1","","html-keyboard-response","164","178205","0.0-1.0-227.0","0","0","82946","","null","","","null","25","","","","","","","","","","","","","","","",""
"","ISI","","html-keyboard-response","165","179214","0.0-1.0-228.0","0","0","82946","","null","","","null","25","NaN","","","","","","","","","","","","","","",""
"","S2","","html-keyboard-response","166","179470","0.0-1.0-229.0","0","0","82946","","null","","","null","25","","NaN","","","","","","","","","","","","","",""
"","response","","html-keyboard-response","167","180813","0.0-1.0-230.0-0.0","0","0","82946","","1342","","","68","25","","","1","25","training","adjacent","ED","5","4","N.jpg","M.jpg","1","0","0","",""
"","feedback","","html-keyboard-response","168","181821","0.0-1.0-231.0-0.0","0","0","82946","","null","","","null","25","","","","","","","","","","","","","","","",""
"","time_out","","html-keyboard-response","169","183831","0.0-1.0-233.0-0.0","0","0","82946","","null","","","null","25","","","","","","","","","","","","","","","",""
"","ITI","","html-keyboard-response","170","184839","0.0-1.0-234.0","0","0","82946","","null","","","null","25","","","","","","","","","","","","","","","NaN",""
"","S1","","html-keyboard-response","171","185103","0.0-1.0-236.0","0","0","82946","","null","","","null","26","","","","","","","","","","","","","","","",""
"","ISI","","html-keyboard-response","172","186110","0.0-1.0-237.0","0","0","82946","","null","","","null","26","NaN","","","","","","","","","","","","","","",""
"","S2","","html-keyboard-response","173","186366","0.0-1.0-238.0","0","0","82946","","null","","","null","26","","NaN","","","","","","","","","","","","","",""
"","response","","html-keyboard-response","174","187216","0.0-1.0-239.0-0.0","0","0","82946","","849","","","68","26","","","1","26","training","adjacent","AB","1","2","Q.jpg","L.jpg","1","1","1","",""
"","feedback","","html-keyboard-response","175","188222","0.0-1.0-240.0-0.0","0","0","82946","","null","","","null","26","","","","","","","","","","","","","","","",""
"","ITI","","html-keyboard-response","176","189230","0.0-1.0-243.0","0","0","82946","","null","","","null","26","","","","","","","","","","","","","","","NaN",""
"","S1","","html-keyboard-response","177","189486","0.0-1.0-245.0","0","0","82946","","null","","","null","27","","","","","","","","","","","","","","","",""
"","ISI","","html-keyboard-response","178","190494","0.0-1.0-246.0","0","0","82946","","null","","","null","27","NaN","","","","","","","","","","","","","","",""
"","S2","","html-keyboard-response","179","190751","0.0-1.0-247.0","0","0","82946","","null","","","null","27","","NaN","","","","","","","","","","","","","",""
"","response","","html-keyboard-response","180","191475","0.0-1.0-248.0-0.0","0","0","82946","","722","","","68","27","","","1","27","training","adjacent","CD","3","4","O.jpg","M.jpg","1","1","1","",""
"","feedback","","html-keyboard-response","181","192488","0.0-1.0-249.0-0.0","0","0","82946","","null","","","null","27","","","","","","","","","","","","","","","",""
"","ITI","","html-keyboard-response","182","193496","0.0-1.0-252.0","0","0","82946","","null","","","null","27","","","","","","","","","","","","","","","NaN",""
"","S1","","html-keyboard-response","183","193759","0.0-1.0-254.0","0","0","82946","","null","","","null","28","","","","","","","","","","","","","","","",""
"","ISI","","html-keyboard-response","184","194767","0.0-1.0-255.0","0","0","82946","","null","","","null","28","NaN","","","","","","","","","","","","","","",""
"","S2","","html-keyboard-response","185","195023","0.0-1.0-256.0","0","0","82946","","null","","","null","28","","NaN","","","","","","","","","","","","","",""
"","response","","html-keyboard-response","186","195693","0.0-1.0-257.0-0.0","0","0","82946","","669","","","68","28","","","1","28","training","adjacent","EF","5","6","N.jpg","P.jpg","1","1","1","",""
"","feedback","","html-keyboard-response","187","196702","0.0-1.0-258.0-0.0","0","0","82946","","null","","","null","28","","","","","","","","","","","","","","","",""
"","ITI","","html-keyboard-response","188","197711","0.0-1.0-261.0","0","0","82946","","null","","","null","28","","","","","","","","","","","","","","","NaN",""
"","S1","","html-keyboard-response","189","197967","0.0-1.0-263.0","0","0","82946","","null","","","null","29","","","","","","","","","","","","","","","",""
"","ISI","","html-keyboard-response","190","198975","0.0-1.0-264.0","0","0","82946","","null","","","null","29","NaN","","","","","","","","","","","","","","",""
"","S2","","html-keyboard-response","191","199231","0.0-1.0-265.0","0","0","82946","","null","","","null","29","","NaN","","","","","","","","","","","","","",""
"","response","","html-keyboard-response","192","199951","0.0-1.0-266.0-0.0","0","0","82946","","719","","","75","29","","","1","29","training","adjacent","GF","7","6","R.jpg","P.jpg","0","0","1","",""
"","feedback","","html-keyboard-response","193","200959","0.0-1.0-267.0-0.0","0","0","82946","","null","","","null","29","","","","","","","","","","","","","","","",""
"","ITI","","html-keyboard-response","194","201967","0.0-1.0-270.0","0","0","82946","","null","","","null","29","","","","","","","","","","","","","","","NaN",""
"","S1","","html-keyboard-response","195","202223","0.0-1.0-272.0","0","0","82946","","null","","","null","30","","","","","","","","","","","","","","","",""
"","ISI","","html-keyboard-response","196","203232","0.0-1.0-273.0","0","0","82946","","null","","","null","30","NaN","","","","","","","","","","","","","","",""
"","S2","","html-keyboard-response","197","203496","0.0-1.0-274.0","0","0","82946","","null","","","null","30","","NaN","","","","","","","","","","","","","",""
"","response","","html-keyboard-response","198","203779","0.0-1.0-275.0-0.0","0","0","82946","","282","","","75","30","","","1","30","training","adjacent","FG","6","7","P.jpg","R.jpg","0","1","0","",""
"","feedback","","html-keyboard-response","199","204788","0.0-1.0-276.0-0.0","0","0","82946","","null","","","null","30","","","","","","","","","","","","","","","",""
"","time_out","","html-keyboard-response","200","206799","0.0-1.0-278.0-0.0","0","0","82946","","null","","","null","30","","","","","","","","","","","","","","","",""
"","ITI","","html-keyboard-response","201","207807","0.0-1.0-279.0","0","0","82946","","null","","","null","30","","","","","","","","","","","","","","","NaN",""
"","S1","","html-keyboard-response","202","208063","0.0-1.0-281.0","0","0","82946","","null","","","null","31","","","","","","","","","","","","","","","",""
"","ISI","","html-keyboard-response","203","209071","0.0-1.0-282.0","0","0","82946","","null","","","null","31","NaN","","","","","","","","","","","","","","",""
"","S2","","html-keyboard-response","204","209328","0.0-1.0-283.0","0","0","82946","","null","","","null","31","","NaN","","","","","","","","","","","","","",""
"","response","","html-keyboard-response","205","209832","0.0-1.0-284.0-0.0","0","0","82946","","502","","","68","31","","","1","31","training","adjacent","FG","6","7","P.jpg","R.jpg","1","1","1","",""
"","feedback","","html-keyboard-response","206","210841","0.0-1.0-285.0-0.0","0","0","82946","","null","","","null","31","","","","","","","","","","","","","","","",""
"","ITI","","html-keyboard-response","207","211849","0.0-1.0-288.0","0","0","82946","","null","","","null","31","","","","","","","","","","","","","","","NaN",""
"","S1","","html-keyboard-response","208","212111","0.0-1.0-290.0","0","0","82946","","null","","","null","32","","","","","","","","","","","","","","","",""
"","ISI","","html-keyboard-response","209","213119","0.0-1.0-291.0","0","0","82946","","null","","","null","32","NaN","","","","","","","","","","","","","","",""
"","S2","","html-keyboard-response","210","213375","0.0-1.0-292.0","0","0","82946","","null","","","null","32","","NaN","","","","","","","","","","","","","",""
"","response","","html-keyboard-response","211","213667","0.0-1.0-293.0-0.0","0","0","82946","","290","","","75","32","","","1","32","training","adjacent","BA","2","1","L.jpg","Q.jpg","0","0","1","",""
"","feedback","","html-keyboard-response","212","214681","0.0-1.0-294.0-0.0","0","0","82946","","null","","","null","32","","","","","","","","","","","","","","","",""
"","ITI","","html-keyboard-response","213","215689","0.0-1.0-297.0","0","0","82946","","null","","","null","32","","","","","","","","","","","","","","","NaN",""
"","S1","","html-keyboard-response","214","215952","0.0-1.0-299.0","0","0","82946","","null","","","null","33","","","","","","","","","","","","","","","",""
"","ISI","","html-keyboard-response","215","216960","0.0-1.0-300.0","0","0","82946","","null","","","null","33","NaN","","","","","","","","","","","","","","",""
"","S2","","html-keyboard-response","216","217216","0.0-1.0-301.0","0","0","82946","","null","","","null","33","","NaN","","","","","","","","","","","","","",""
"","response","","html-keyboard-response","217","218039","0.0-1.0-302.0-0.0","0","0","82946","","823","","","75","33","","","1","33","training","adjacent","DC","4","3","M.jpg","O.jpg","0","0","1","",""
"","feedback","","html-keyboard-response","218","219049","0.0-1.0-303.0-0.0","0","0","82946","","null","","","null","33","","","","","","","","","","","","","","","",""
"","ITI","","html-keyboard-response","219","220057","0.0-1.0-306.0","0","0","82946","","null","","","null","33","","","","","","","","","","","","","","","NaN",""
"","S1","","html-keyboard-response","220","220320","0.0-1.0-308.0","0","0","82946","","null","","","null","34","","","","","","","","","","","","","","","",""
"","ISI","","html-keyboard-response","221","221328","0.0-1.0-309.0","0","0","82946","","null","","","null","34","NaN","","","","","","","","","","","","","","",""
"","S2","","html-keyboard-response","222","221585","0.0-1.0-310.0","0","0","82946","","null","","","null","34","","NaN","","","","","","","","","","","","","",""
"","response","","html-keyboard-response","223","222865","0.0-1.0-311.0-0.0","0","0","82946","","1279","","","68","34","","","1","34","training","adjacent","ED","5","4","N.jpg","M.jpg","1","0","0","",""
"","feedback","","html-keyboard-response","224","223872","0.0-1.0-312.0-0.0","0","0","82946","","null","","","null","34","","","","","","","","","","","","","","","",""
"","time_out","","html-keyboard-response","225","225881","0.0-1.0-314.0-0.0","0","0","82946","","null","","","null","34","","","","","","","","","","","","","","","",""
"","ITI","","html-keyboard-response","226","226889","0.0-1.0-315.0","0","0","82946","","null","","","null","34","","","","","","","","","","","","","","","NaN",""
"","S1","","html-keyboard-response","227","227152","0.0-1.0-317.0","0","0","82946","","null","","","null","35","","","","","","","","","","","","","","","",""
"","ISI","","html-keyboard-response","228","228160","0.0-1.0-318.0","0","0","82946","","null","","","null","35","NaN","","","","","","","","","","","","","","",""
"","S2","","html-keyboard-response","229","228416","0.0-1.0-319.0","0","0","82946","","null","","","null","35","","NaN","","","","","","","","","","","","","",""
"","response","","html-keyboard-response","230","229696","0.0-1.0-320.0-0.0","0","0","82946","","1278","","","75","35","","","1","35","training","adjacent","DE","4","5","M.jpg","N.jpg","0","1","0","",""
"","feedback","","html-keyboard-response","231","230704","0.0-1.0-321.0-0.0","0","0","82946","","null","","","null","35","","","","","","","","","","","","","","","",""
"","time_out","","html-keyboard-response","232","232713","0.0-1.0-323.0-0.0","0","0","82946","","null","","","null","35","","","","","","","","","","","","","","","",""
"","ITI","","html-keyboard-response","233","233717","0.0-1.0-324.0","0","0","82946","","null","","","null","35","","","","","","","","","","","","","","","NaN",""
"","S1","","html-keyboard-response","234","233977","0.0-1.0-326.0","0","0","82946","","null","","","null","36","","","","","","","","","","","","","","","",""
"","ISI","","html-keyboard-response","235","234985","0.0-1.0-327.0","0","0","82946","","null","","","null","36","NaN","","","","","","","","","","","","","","",""
"","S2","","html-keyboard-response","236","235242","0.0-1.0-328.0","0","0","82946","","null","","","null","36","","NaN","","","","","","","","","","","","","",""
"","response","","html-keyboard-response","237","236026","0.0-1.0-329.0-0.0","0","0","82946","","783","","","75","36","","","1","36","training","adjacent","GF","7","6","R.jpg","P.jpg","0","0","1","",""
"","feedback","","html-keyboard-response","238","237033","0.0-1.0-330.0-0.0","0","0","82946","","null","","","null","36","","","","","","","","","","","","","","","",""
"","ITI","","html-keyboard-response","239","238041","0.0-1.0-333.0","0","0","82946","","null","","","null","36","","","","","","","","","","","","","","","NaN",""
"","S1","","html-keyboard-response","240","238298","0.0-1.0-335.0","0","0","82946","","null","","","null","37","","","","","","","","","","","","","","","",""
"","ISI","","html-keyboard-response","241","239306","0.0-1.0-336.0","0","0","82946","","null","","","null","37","NaN","","","","","","","","","","","","","","",""
"","S2","","html-keyboard-response","242","239569","0.0-1.0-337.0","0","0","82946","","null","","","null","37","","NaN","","","","","","","","","","","","","",""
"","response","","html-keyboard-response","243","240063","0.0-1.0-338.0-0.0","0","0","82946","","493","","","75","37","","","1","37","training","adjacent","FE","6","5","P.jpg","N.jpg","0","0","1","",""
"","feedback","","html-keyboard-response","244","241073","0.0-1.0-339.0-0.0","0","0","82946","","null","","","null","37","","","","","","","","","","","","","","","",""
"","ITI","","html-keyboard-response","245","242081","0.0-1.0-342.0","0","0","82946","","null","","","null","37","","","","","","","","","","","","","","","NaN",""
"","S1","","html-keyboard-response","246","242336","0.0-1.0-344.0","0","0","82946","","null","","","null","38","","","","","","","","","","","","","","","",""
"","ISI","","html-keyboard-response","247","243345","0.0-1.0-345.0","0","0","82946","","null","","","null","38","NaN","","","","","","","","","","","","","","",""
"","S2","","html-keyboard-response","248","243601","0.0-1.0-346.0","0","0","82946","","null","","","null","38","","NaN","","","","","","","","","","","","","",""
"","response","","html-keyboard-response","249","243899","0.0-1.0-347.0-0.0","0","0","82946","","298","","","68","38","","","1","38","training","adjacent","CD","3","4","O.jpg","M.jpg","1","1","1","",""
"","feedback","","html-keyboard-response","250","244905","0.0-1.0-348.0-0.0","0","0","82946","","null","","","null","38","","","","","","","","","","","","","","","",""
"","ITI","","html-keyboard-response","251","245913","0.0-1.0-351.0","0","0","82946","","null","","","null","38","","","","","","","","","","","","","","","NaN",""
"","S1","","html-keyboard-response","252","246169","0.0-1.0-353.0","0","0","82946","","null","","","null","39","","","","","","","","","","","","","","","",""
"","ISI","","html-keyboard-response","253","247178","0.0-1.0-354.0","0","0","82946","","null","","","null","39","NaN","","","","","","","","","","","","","","",""
"","S2","","html-keyboard-response","254","247433","0.0-1.0-355.0","0","0","82946","","null","","","null","39","","NaN","","","","","","","","","","","","","",""
"","response","","html-keyboard-response","255","248063","0.0-1.0-356.0-0.0","0","0","82946","","629","","","75","39","","","1","39","training","adjacent","FE","6","5","P.jpg","N.jpg","0","0","1","",""
"","feedback","","html-keyboard-response","256","249073","0.0-1.0-357.0-0.0","0","0","82946","","null","","","null","39","","","","","","","","","","","","","","","",""
"","ITI","","html-keyboard-response","257","250082","0.0-1.0-360.0","0","0","82946","","null","","","null","39","","","","","","","","","","","","","","","NaN",""
"","S1","","html-keyboard-response","258","250346","0.0-1.0-362.0","0","0","82946","","null","","","null","40","","","","","","","","","","","","","","","",""
"","ISI","","html-keyboard-response","259","251353","0.0-1.0-363.0","0","0","82946","","null","","","null","40","NaN","","","","","","","","","","","","","","",""
"","S2","","html-keyboard-response","260","251609","0.0-1.0-364.0","0","0","82946","","null","","","null","40","","NaN","","","","","","","","","","","","","",""
"","response","","html-keyboard-response","261","252305","0.0-1.0-365.0-0.0","0","0","82946","","693","","","75","40","","","1","40","training","adjacent","GF","7","6","R.jpg","P.jpg","0","0","1","",""
"","feedback","","html-keyboard-response","262","253312","0.0-1.0-366.0-0.0","0","0","82946","","null","","","null","40","","","","","","","","","","","","","","","",""
"","ITI","","html-keyboard-response","263","254321","0.0-1.0-369.0","0","0","82946","","null","","","null","40","","","","","","","","","","","","","","","NaN",""
"","S1","","html-keyboard-response","264","254576","0.0-1.0-371.0","0","0","82946","","null","","","null","41","","","","","","","","","","","","","","","",""
"","ISI","","html-keyboard-response","265","255584","0.0-1.0-372.0","0","0","82946","","null","","","null","41","NaN","","","","","","","","","","","","","","",""
"","S2","","html-keyboard-response","266","255841","0.0-1.0-373.0","0","0","82946","","null","","","null","41","","NaN","","","","","","","","","","","","","",""
"","response","","html-keyboard-response","267","256592","0.0-1.0-374.0-0.0","0","0","82946","","749","","","68","41","","","1","41","training","adjacent","AB","1","2","Q.jpg","L.jpg","1","1","1","",""
"","feedback","","html-keyboard-response","268","257601","0.0-1.0-375.0-0.0","0","0","82946","","null","","","null","41","","","","","","","","","","","","","","","",""
"","ITI","","html-keyboard-response","269","258609","0.0-1.0-378.0","0","0","82946","","null","","","null","41","","","","","","","","","","","","","","","NaN",""
"","S1","","html-keyboard-response","270","258865","0.0-1.0-380.0","0","0","82946","","null","","","null","42","","","","","","","","","","","","","","","",""
"","ISI","","html-keyboard-response","271","259873","0.0-1.0-381.0","0","0","82946","","null","","","null","42","NaN","","","","","","","","","","","","","","",""
"","S2","","html-keyboard-response","272","260129","0.0-1.0-382.0","0","0","82946","","null","","","null","42","","NaN","","","","","","","","","","","","","",""
"","response","","html-keyboard-response","273","260829","0.0-1.0-383.0-0.0","0","0","82946","","699","","","68","42","","","1","42","training","adjacent","ED","5","4","N.jpg","M.jpg","1","0","0","",""
"","feedback","","html-keyboard-response","274","261841","0.0-1.0-384.0-0.0","0","0","82946","","null","","","null","42","","","","","","","","","","","","","","","",""
"","time_out","","html-keyboard-response","275","263850","0.0-1.0-386.0-0.0","0","0","82946","","null","","","null","42","","","","","","","","","","","","","","","",""
"","ITI","","html-keyboard-response","276","264858","0.0-1.0-387.0","0","0","82946","","null","","","null","42","","","","","","","","","","","","","","","NaN",""
"","S1","","html-keyboard-response","277","265122","0.0-1.0-389.0","0","0","82946","","null","","","null","43","","","","","","","","","","","","","","","",""
"","ISI","","html-keyboard-response","278","266130","0.0-1.0-390.0","0","0","82946","","null","","","null","43","NaN","","","","","","","","","","","","","","",""
"","S2","","html-keyboard-response","279","266386","0.0-1.0-391.0","0","0","82946","","null","","","null","43","","NaN","","","","","","","","","","","","","",""
"","response","","html-keyboard-response","280","266960","0.0-1.0-392.0-0.0","0","0","82946","","573","","","75","43","","","1","43","training","adjacent","FE","6","5","P.jpg","N.jpg","0","0","1","",""
"","feedback","","html-keyboard-response","281","267969","0.0-1.0-393.0-0.0","0","0","82946","","null","","","null","43","","","","","","","","","","","","","","","",""
"","ITI","","html-keyboard-response","282","268978","0.0-1.0-396.0","0","0","82946","","null","","","null","43","","","","","","","","","","","","","","","NaN",""
"","S1","","html-keyboard-response","283","269234","0.0-1.0-398.0","0","0","82946","","null","","","null","44","","","","","","","","","","","","","","","",""
"","ISI","","html-keyboard-response","284","270242","0.0-1.0-399.0","0","0","82946","","null","","","null","44","NaN","","","","","","","","","","","","","","",""
"","S2","","html-keyboard-response","285","270498","0.0-1.0-400.0","0","0","82946","","null","","","null","44","","NaN","","","","","","","","","","","","","",""
"","response","","html-keyboard-response","286","270746","0.0-1.0-401.0-0.0","0","0","82946","","246","","","75","44","","","1","44","training","adjacent","BA","2","1","L.jpg","Q.jpg","0","0","1","",""
"","feedback","","html-keyboard-response","287","271755","0.0-1.0-402.0-0.0","0","0","82946","","null","","","null","44","","","","","","","","","","","","","","","",""
"","ITI","","html-keyboard-response","288","272762","0.0-1.0-405.0","0","0","82946","","null","","","null","44","","","","","","","","","","","","","","","NaN",""
"","S1","","html-keyboard-response","289","273018","0.0-1.0-407.0","0","0","82946","","null","","","null","45","","","","","","","","","","","","","","","",""
"","ISI","","html-keyboard-response","290","274026","0.0-1.0-408.0","0","0","82946","","null","","","null","45","NaN","","","","","","","","","","","","","","",""
"","S2","","html-keyboard-response","291","274283","0.0-1.0-409.0","0","0","82946","","null","","","null","45","","NaN","","","","","","","","","","","","","",""
"","response","","html-keyboard-response","292","274314","0.0-1.0-410.0-0.0","0","0","82946","","30","","","68","45","","","1","45","training","adjacent","CD","3","4","O.jpg","M.jpg","1","1","1","",""
"","feedback","","html-keyboard-response","293","275323","0.0-1.0-411.0-0.0","0","0","82946","","null","","","null","45","","","","","","","","","","","","","","","",""
"","ITI","","html-keyboard-response","294","276331","0.0-1.0-414.0","0","0","82946","","null","","","null","45","","","","","","","","","","","","","","","NaN",""
"","S1","","html-keyboard-response","295","276594","0.0-1.0-416.0","0","0","82946","","null","","","null","46","","","","","","","","","","","","","","","",""
"","ISI","","html-keyboard-response","296","277602","0.0-1.0-417.0","0","0","82946","","null","","","null","46","NaN","","","","","","","","","","","","","","",""
"","S2","","html-keyboard-response","297","277857","0.0-1.0-418.0","0","0","82946","","null","","","null","46","","NaN","","","","","","","","","","","","","",""
"","response","","html-keyboard-response","298","279147","0.0-1.0-419.0-0.0","0","0","82946","","1289","","","75","46","","","1","46","training","adjacent","FE","6","5","P.jpg","N.jpg","0","0","1","",""
"","feedback","","html-keyboard-response","299","280154","0.0-1.0-420.0-0.0","0","0","82946","","null","","","null","46","","","","","","","","","","","","","","","",""
"","ITI","","html-keyboard-response","300","281163","0.0-1.0-423.0","0","0","82946","","null","","","null","46","","","","","","","","","","","","","","","NaN",""
"","S1","","html-keyboard-response","301","281426","0.0-1.0-425.0","0","0","82946","","null","","","null","47","","","","","","","","","","","","","","","",""
"","ISI","","html-keyboard-response","302","282434","0.0-1.0-426.0","0","0","82946","","null","","","null","47","NaN","","","","","","","","","","","","","","",""
"","S2","","html-keyboard-response","303","282689","0.0-1.0-427.0","0","0","82946","","null","","","null","47","","NaN","","","","","","","","","","","","","",""
"","response","","html-keyboard-response","304","283226","0.0-1.0-428.0-0.0","0","0","82946","","536","","","75","47","","","1","47","training","adjacent","DC","4","3","M.jpg","O.jpg","0","0","1","",""
"","feedback","","html-keyboard-response","305","284234","0.0-1.0-429.0-0.0","0","0","82946","","null","","","null","47","","","","","","","","","","","","","","","",""
"","ITI","","html-keyboard-response","306","285243","0.0-1.0-432.0","0","0","82946","","null","","","null","47","","","","","","","","","","","","","","","NaN",""
"","block_over","","html-keyboard-response","307","294266","0.0-1.0-433.0-0.0","0","0","82946","","9021","","","32","47","","","","","","","","","","","","","","","",""
"","S1","","html-keyboard-response","308","294522","0.0-1.0-434.0","0","0","82946","","null","","","null","48","","","","","","","","","","","","","","","",""
"","ISI","","html-keyboard-response","309","295531","0.0-1.0-435.0","0","0","82946","","null","","","null","48","NaN","","","","","","","","","","","","","","",""
"","S2","","html-keyboard-response","310","295795","0.0-1.0-436.0","0","0","82946","","null","","","null","48","","NaN","","","","","","","","","","","","","",""
"","response","","html-keyboard-response","311","296581","0.0-1.0-437.0-0.0","0","0","82946","","785","","","75","48","","","2","48","training","adjacent","FE","6","5","P.jpg","N.jpg","0","0","1","",""
"","feedback","","html-keyboard-response","312","297586","0.0-1.0-438.0-0.0","0","0","82946","","null","","","null","48","","","","","","","","","","","","","","","",""
"","ITI","","html-keyboard-response","313","298594","0.0-1.0-441.0","0","0","82946","","null","","","null","48","","","","","","","","","","","","","","","NaN",""
"","S1","","html-keyboard-response","314","298850","0.0-1.0-443.0","0","0","82946","","null","","","null","49","","","","","","","","","","","","","","","",""
"","ISI","","html-keyboard-response","315","299858","0.0-1.0-444.0","0","0","82946","","null","","","null","49","NaN","","","","","","","","","","","","","","",""
"","S2","","html-keyboard-response","316","300114","0.0-1.0-445.0","0","0","82946","","null","","","null","49","","NaN","","","","","","","","","","","","","",""
"","response","","html-keyboard-response","317","300688","0.0-1.0-446.0-0.0","0","0","82946","","573","","","75","49","","","2","49","training","adjacent","DC","4","3","M.jpg","O.jpg","0","0","1","",""
"","feedback","","html-keyboard-response","318","301699","0.0-1.0-447.0-0.0","0","0","82946","","null","","","null","49","","","","","","","","","","","","","","","",""
"","ITI","","html-keyboard-response","319","302706","0.0-1.0-450.0","0","0","82946","","null","","","null","49","","","","","","","","","","","","","","","NaN",""
"","S1","","html-keyboard-response","320","302962","0.0-1.0-452.0","0","0","82946","","null","","","null","50","","","","","","","","","","","","","","","",""
"","ISI","","html-keyboard-response","321","303970","0.0-1.0-453.0","0","0","82946","","null","","","null","50","NaN","","","","","","","","","","","","","","",""
"","S2","","html-keyboard-response","322","304226","0.0-1.0-454.0","0","0","82946","","null","","","null","50","","NaN","","","","","","","","","","","","","",""
"","response","","html-keyboard-response","323","304813","0.0-1.0-455.0-0.0","0","0","82946","","586","","","75","50","","","2","50","training","adjacent","ED","5","4","N.jpg","M.jpg","0","0","1","",""
"","feedback","","html-keyboard-response","324","305820","0.0-1.0-456.0-0.0","0","0","82946","","null","","","null","50","","","","","","","","","","","","","","","",""
"","ITI","","html-keyboard-response","325","306827","0.0-1.0-459.0","0","0","82946","","null","","","null","50","","","","","","","","","","","","","","","NaN",""
"","S1","","html-keyboard-response","326","307091","0.0-1.0-461.0","0","0","82946","","null","","","null","51","","","","","","","","","","","","","","","",""
"","ISI","","html-keyboard-response","327","308098","0.0-1.0-462.0","0","0","82946","","null","","","null","51","NaN","","","","","","","","","","","","","","",""
"","S2","","html-keyboard-response","328","308355","0.0-1.0-463.0","0","0","82946","","null","","","null","51","","NaN","","","","","","","","","","","","","",""
"","response","","html-keyboard-response","329","308623","0.0-1.0-464.0-0.0","0","0","82946","","267","","","75","51","","","2","51","training","adjacent","BA","2","1","L.jpg","Q.jpg","0","0","1","",""
"","feedback","","html-keyboard-response","330","309635","0.0-1.0-465.0-0.0","0","0","82946","","null","","","null","51","","","","","","","","","","","","","","","",""
"","ITI","","html-keyboard-response","331","310643","0.0-1.0-468.0","0","0","82946","","null","","","null","51","","","","","","","","","","","","","","","NaN",""
"","S1","","html-keyboard-response","332","310897","0.0-1.0-470.0","0","0","82946","","null","","","null","52","","","","","","","","","","","","","","","",""
"","ISI","","html-keyboard-response","333","311907","0.0-1.0-471.0","0","0","82946","","null","","","null","52","NaN","","","","","","","","","","","","","","",""
"","S2","","html-keyboard-response","334","312163","0.0-1.0-472.0","0","0","82946","","null","","","null","52","","NaN","","","","","","","","","","","","","",""
"","response","","html-keyboard-response","335","312562","0.0-1.0-473.0-0.0","0","0","82946","","398","","","68","52","","","2","52","training","adjacent","AB","1","2","Q.jpg","L.jpg","1","1","1","",""
"","feedback","","html-keyboard-response","336","313571","0.0-1.0-474.0-0.0","0","0","82946","","null","","","null","52","","","","","","","","","","","","","","","",""
"","ITI","","html-keyboard-response","337","314579","0.0-1.0-477.0","0","0","82946","","null","","","null","52","","","","","","","","","","","","","","","NaN",""
"","S1","","html-keyboard-response","338","314836","0.0-1.0-479.0","0","0","82946","","null","","","null","53","","","","","","","","","","","","","","","",""
"","ISI","","html-keyboard-response","339","315843","0.0-1.0-480.0","0","0","82946","","null","","","null","53","NaN","","","","","","","","","","","","","","",""
"","S2","","html-keyboard-response","340","316099","0.0-1.0-481.0","0","0","82946","","null","","","null","53","","NaN","","","","","","","","","","","","","",""
"","response","","html-keyboard-response","341","316336","0.0-1.0-482.0-0.0","0","0","82946","","234","","","68","53","","","2","53","training","adjacent","AB","1","2","Q.jpg","L.jpg","1","1","1","",""
"","feedback","","html-keyboard-response","342","317347","0.0-1.0-483.0-0.0","0","0","82946","","null","","","null","53","","","","","","","","","","","","","","","",""
"","ITI","","html-keyboard-response","343","318354","0.0-1.0-486.0","0","0","82946","","null","","","null","53","","","","","","","","","","","","","","","NaN",""
"","S1","","html-keyboard-response","344","318611","0.0-1.0-488.0","0","0","82946","","null","","","null","54","","","","","","","","","","","","","","","",""
"","ISI","","html-keyboard-response","345","319618","0.0-1.0-489.0","0","0","82946","","null","","","null","54","NaN","","","","","","","","","","","","","","",""
"","S2","","html-keyboard-response","346","319875","0.0-1.0-490.0","0","0","82946","","null","","","null","54","","NaN","","","","","","","","","","","","","",""
"","response","","html-keyboard-response","347","320425","0.0-1.0-491.0-0.0","0","0","82946","","548","","","68","54","","","2","54","training","adjacent","DE","4","5","M.jpg","N.jpg","1","1","1","",""
"","feedback","","html-keyboard-response","348","321436","0.0-1.0-492.0-0.0","0","0","82946","","null","","","null","54","","","","","","","","","","","","","","","",""
"","ITI","","html-keyboard-response","349","322444","0.0-1.0-495.0","0","0","82946","","null","","","null","54","","","","","","","","","","","","","","","NaN",""
"","S1","","html-keyboard-response","350","322700","0.0-1.0-497.0","0","0","82946","","null","","","null","55","","","","","","","","","","","","","","","",""
"","ISI","","html-keyboard-response","351","323707","0.0-1.0-498.0","0","0","82946","","null","","","null","55","NaN","","","","","","","","","","","","","","",""
"","S2","","html-keyboard-response","352","323964","0.0-1.0-499.0","0","0","82946","","null","","","null","55","","NaN","","","","","","","","","","","","","",""
"","response","","html-keyboard-response","353","324452","0.0-1.0-500.0-0.0","0","0","82946","","485","","","75","55","","","2","55","training","adjacent","BC","2","3","L.jpg","O.jpg","0","1","0","",""
"","feedback","","html-keyboard-response","354","325459","0.0-1.0-501.0-0.0","0","0","82946","","null","","","null","55","","","","","","","","","","","","","","","",""
"","time_out","","html-keyboard-response","355","327468","0.0-1.0-503.0-0.0","0","0","82946","","null","","","null","55","","","","","","","","","","","","","","","",""
"","ITI","","html-keyboard-response","356","328477","0.0-1.0-504.0","0","0","82946","","null","","","null","55","","","","","","","","","","","","","","","NaN",""
"","S1","","html-keyboard-response","357","328739","0.0-1.0-506.0","0","0","82946","","null","","","null","56","","","","","","","","","","","","","","","",""
"","ISI","","html-keyboard-response","358","329747","0.0-1.0-507.0","0","0","82946","","null","","","null","56","NaN","","","","","","","","","","","","","","",""
"","S2","","html-keyboard-response","359","330004","0.0-1.0-508.0","0","0","82946","","null","","","null","56","","NaN","","","","","","","","","","","","","",""
"","response","","html-keyboard-response","360","330361","0.0-1.0-509.0-0.0","0","0","82946","","355","","","68","56","","","2","56","training","adjacent","DE","4","5","M.jpg","N.jpg","1","1","1","",""
"","feedback","","html-keyboard-response","361","331373","0.0-1.0-510.0-0.0","0","0","82946","","null","","","null","56","","","","","","","","","","","","","","","",""
"","ITI","","html-keyboard-response","362","332381","0.0-1.0-513.0","0","0","82946","","null","","","null","56","","","","","","","","","","","","","","","NaN",""
"","S1","","html-keyboard-response","363","332643","0.0-1.0-515.0","0","0","82946","","null","","","null","57","","","","","","","","","","","","","","","",""
"","ISI","","html-keyboard-response","364","333651","0.0-1.0-516.0","0","0","82946","","null","","","null","57","NaN","","","","","","","","","","","","","","",""
"","S2","","html-keyboard-response","365","333907","0.0-1.0-517.0","0","0","82946","","null","","","null","57","","NaN","","","","","","","","","","","","","",""
"","response","","html-keyboard-response","366","334262","0.0-1.0-518.0-0.0","0","0","82946","","354","","","68","57","","","2","57","training","adjacent","FG","6","7","P.jpg","R.jpg","1","1","1","",""
"","feedback","","html-keyboard-response","367","335268","0.0-1.0-519.0-0.0","0","0","82946","","null","","","null","57","","","","","","","","","","","","","","","",""
"","ITI","","html-keyboard-response","368","336276","0.0-1.0-522.0","0","0","82946","","null","","","null","57","","","","","","","","","","","","","","","NaN",""
"","S1","","html-keyboard-response","369","336531","0.0-1.0-524.0","0","0","82946","","null","","","null","58","","","","","","","","","","","","","","","",""
"","ISI","","html-keyboard-response","370","337540","0.0-1.0-525.0","0","0","82946","","null","","","null","58","NaN","","","","","","","","","","","","","","",""
"","S2","","html-keyboard-response","371","337805","0.0-1.0-526.0","0","0","82946","","null","","","null","58","","NaN","","","","","","","","","","","","","",""
"","response","","html-keyboard-response","372","338211","0.0-1.0-527.0-0.0","0","0","82946","","405","","","75","58","","","2","58","training","adjacent","ED","5","4","N.jpg","M.jpg","0","0","1","",""
"","feedback","","html-keyboard-response","373","339219","0.0-1.0-528.0-0.0","0","0","82946","","null","","","null","58","","","","","","","","","","","","","","","",""
"","ITI","","html-keyboard-response","374","340228","0.0-1.0-531.0","0","0","82946","","null","","","null","58","","","","","","","","","","","","","","","NaN",""
"","S1","","html-keyboard-response","375","340483","0.0-1.0-533.0","0","0","82946","","null","","","null","59","","","","","","","","","","","","","","","",""
"","ISI","","html-keyboard-response","376","341492","0.0-1.0-534.0","0","0","82946","","null","","","null","59","NaN","","","","","","","","","","","","","","",""
"","S2","","html-keyboard-response","377","341747","0.0-1.0-535.0","0","0","82946","","null","","","null","59","","NaN","","","","","","","","","","","","","",""
"","response","","html-keyboard-response","378","342845","0.0-1.0-536.0-0.0","0","0","82946","","1096","","","68","59","","","2","59","training","adjacent","FE","6","5","P.jpg","N.jpg","1","0","0","",""
"","feedback","","html-keyboard-response","379","343852","0.0-1.0-537.0-0.0","0","0","82946","","null","","","null","59","","","","","","","","","","","","","","","",""
"","time_out","","html-keyboard-response","380","345860","0.0-1.0-539.0-0.0","0","0","82946","","null","","","null","59","","","","","","","","","","","","","","","",""
"","ITI","","html-keyboard-response","381","346868","0.0-1.0-540.0","0","0","82946","","null","","","null","59","","","","","","","","","","","","","","","NaN",""
"","S1","","html-keyboard-response","382","347124","0.0-1.0-542.0","0","0","82946","","null","","","null","60","","","","","","","","","","","","","","","",""
"","ISI","","html-keyboard-response","383","348132","0.0-1.0-543.0","0","0","82946","","null","","","null","60","NaN","","","","","","","","","","","","","","",""
"","S2","","html-keyboard-response","384","348387","0.0-1.0-544.0","0","0","82946","","null","","","null","60","","NaN","","","","","","","","","","","","","",""
"","response","","html-keyboard-response","385","348768","0.0-1.0-545.0-0.0","0","0","82946","","379","","","75","60","","","2","60","training","adjacent","FE","6","5","P.jpg","N.jpg","0","0","1","",""
"","feedback","","html-keyboard-response","386","349779","0.0-1.0-546.0-0.0","0","0","82946","","null","","","null","60","","","","","","","","","","","","","","","",""
"","ITI","","html-keyboard-response","387","350788","0.0-1.0-549.0","0","0","82946","","null","","","null","60","","","","","","","","","","","","","","","NaN",""
"","S1","","html-keyboard-response","388","351044","0.0-1.0-551.0","0","0","82946","","null","","","null","61","","","","","","","","","","","","","","","",""
"","ISI","","html-keyboard-response","389","352051","0.0-1.0-552.0","0","0","82946","","null","","","null","61","NaN","","","","","","","","","","","","","","",""
"","S2","","html-keyboard-response","390","352309","0.0-1.0-553.0","0","0","82946","","null","","","null","61","","NaN","","","","","","","","","","","","","",""
"","response","","html-keyboard-response","391","352864","0.0-1.0-554.0-0.0","0","0","82946","","555","","","75","61","","","2","61","training","adjacent","BC","2","3","L.jpg","O.jpg","0","1","0","",""
"","feedback","","html-keyboard-response","392","353875","0.0-1.0-555.0-0.0","0","0","82946","","null","","","null","61","","","","","","","","","","","","","","","",""
"","time_out","","html-keyboard-response","393","355885","0.0-1.0-557.0-0.0","0","0","82946","","null","","","null","61","","","","","","","","","","","","","","","",""
"","ITI","","html-keyboard-response","394","356893","0.0-1.0-558.0","0","0","82946","","null","","","null","61","","","","","","","","","","","","","","","NaN",""
"","S1","","html-keyboard-response","395","357157","0.0-1.0-560.0","0","0","82946","","null","","","null","62","","","","","","","","","","","","","","","",""
"","ISI","","html-keyboard-response","396","358164","0.0-1.0-561.0","0","0","82946","","null","","","null","62","NaN","","","","","","","","","","","","","","",""
"","S2","","html-keyboard-response","397","358420","0.0-1.0-562.0","0","0","82946","","null","","","null","62","","NaN","","","","","","","","","","","","","",""
"","response","","html-keyboard-response","398","359562","0.0-1.0-563.0-0.0","0","0","82946","","1141","","","75","62","","","2","62","training","adjacent","ED","5","4","N.jpg","M.jpg","0","0","1","",""
"","feedback","","html-keyboard-response","399","360572","0.0-1.0-564.0-0.0","0","0","82946","","null","","","null","62","","","","","","","","","","","","","","","",""
"","ITI","","html-keyboard-response","400","361580","0.0-1.0-567.0","0","0","82946","","null","","","null","62","","","","","","","","","","","","","","","NaN",""
"","S1","","html-keyboard-response","401","361837","0.0-1.0-569.0","0","0","82946","","null","","","null","63","","","","","","","","","","","","","","","",""
"","ISI","","html-keyboard-response","402","362844","0.0-1.0-570.0","0","0","82946","","null","","","null","63","NaN","","","","","","","","","","","","","","",""
"","S2","","html-keyboard-response","403","363101","0.0-1.0-571.0","0","0","82946","","null","","","null","63","","NaN","","","","","","","","","","","","","",""
"","response","","html-keyboard-response","404","363920","0.0-1.0-572.0-0.0","0","0","82946","","817","","","68","63","","","2","63","training","adjacent","CD","3","4","O.jpg","M.jpg","1","1","1","",""
"","feedback","","html-keyboard-response","405","364933","0.0-1.0-573.0-0.0","0","0","82946","","null","","","null","63","","","","","","","","","","","","","","","",""
"","ITI","","html-keyboard-response","406","365940","0.0-1.0-576.0","0","0","82946","","null","","","null","63","","","","","","","","","","","","","","","NaN",""
"","S1","","html-keyboard-response","407","366196","0.0-1.0-578.0","0","0","82946","","null","","","null","64","","","","","","","","","","","","","","","",""
"","ISI","","html-keyboard-response","408","367205","0.0-1.0-579.0","0","0","82946","","null","","","null","64","NaN","","","","","","","","","","","","","","",""
"","S2","","html-keyboard-response","409","367461","0.0-1.0-580.0","0","0","82946","","null","","","null","64","","NaN","","","","","","","","","","","","","",""
"","response","","html-keyboard-response","410","367798","0.0-1.0-581.0-0.0","0","0","82946","","336","","","75","64","","","2","64","training","adjacent","GF","7","6","R.jpg","P.jpg","0","0","1","",""
"","feedback","","html-keyboard-response","411","368805","0.0-1.0-582.0-0.0","0","0","82946","","null","","","null","64","","","","","","","","","","","","","","","",""
"","ITI","","html-keyboard-response","412","369813","0.0-1.0-585.0","0","0","82946","","null","","","null","64","","","","","","","","","","","","","","","NaN",""
"","S1","","html-keyboard-response","413","370068","0.0-1.0-587.0","0","0","82946","","null","","","null","65","","","","","","","","","","","","","","","",""
"","ISI","","html-keyboard-response","414","371077","0.0-1.0-588.0","0","0","82946","","null","","","null","65","NaN","","","","","","","","","","","","","","",""
"","S2","","html-keyboard-response","415","371333","0.0-1.0-589.0","0","0","82946","","null","","","null","65","","NaN","","","","","","","","","","","","","",""
"","response","","html-keyboard-response","416","372243","0.0-1.0-590.0-0.0","0","0","82946","","909","","","75","65","","","2","65","training","adjacent","DC","4","3","M.jpg","O.jpg","0","0","1","",""
"","feedback","","html-keyboard-response","417","373253","0.0-1.0-591.0-0.0","0","0","82946","","null","","","null","65","","","","","","","","","","","","","","","",""
"","ITI","","html-keyboard-response","418","374261","0.0-1.0-594.0","0","0","82946","","null","","","null","65","","","","","","","","","","","","","","","NaN",""
"","S1","","html-keyboard-response","419","374516","0.0-1.0-596.0","0","0","82946","","null","","","null","66","","","","","","","","","","","","","","","",""
"","ISI","","html-keyboard-response","420","375525","0.0-1.0-597.0","0","0","82946","","null","","","null","66","NaN","","","","","","","","","","","","","","",""
"","S2","","html-keyboard-response","421","375780","0.0-1.0-598.0","0","0","82946","","null","","","null","66","","NaN","","","","","","","","","","","","","",""
"","response","","html-keyboard-response","422","376459","0.0-1.0-599.0-0.0","0","0","82946","","678","","","68","66","","","2","66","training","adjacent","EF","5","6","N.jpg","P.jpg","1","1","1","",""
"","feedback","","html-keyboard-response","423","377470","0.0-1.0-600.0-0.0","0","0","82946","","null","","","null","66","","","","","","","","","","","","","","","",""
"","ITI","","html-keyboard-response","424","378478","0.0-1.0-603.0","0","0","82946","","null","","","null","66","","","","","","","","","","","","","","","NaN",""
"","S1","","html-keyboard-response","425","378741","0.0-1.0-605.0","0","0","82946","","null","","","null","67","","","","","","","","","","","","","","","",""
"","ISI","","html-keyboard-response","426","379749","0.0-1.0-606.0","0","0","82946","","null","","","null","67","NaN","","","","","","","","","","","","","","",""
"","S2","","html-keyboard-response","427","380004","0.0-1.0-607.0","0","0","82946","","null","","","null","67","","NaN","","","","","","","","","","","","","",""
"","response","","html-keyboard-response","428","380661","0.0-1.0-608.0-0.0","0","0","82946","","654","","","75","67","","","2","67","training","adjacent","BA","2","1","L.jpg","Q.jpg","0","0","1","",""
"","feedback","","html-keyboard-response","429","381669","0.0-1.0-609.0-0.0","0","0","82946","","null","","","null","67","","","","","","","","","","","","","","","",""
"","ITI","","html-keyboard-response","430","382676","0.0-1.0-612.0","0","0","82946","","null","","","null","67","","","","","","","","","","","","","","","NaN",""
"","S1","","html-keyboard-response","431","382933","0.0-1.0-614.0","0","0","82946","","null","","","null","68","","","","","","","","","","","","","","","",""
"","ISI","","html-keyboard-response","432","383942","0.0-1.0-615.0","0","0","82946","","null","","","null","68","NaN","","","","","","","","","","","","","","",""
"","S2","","html-keyboard-response","433","384198","0.0-1.0-616.0","0","0","82946","","null","","","null","68","","NaN","","","","","","","","","","","","","",""
"","response","","html-keyboard-response","434","384390","0.0-1.0-617.0-0.0","0","0","82946","","191","","","75","68","","","2","68","training","adjacent","BA","2","1","L.jpg","Q.jpg","0","0","1","",""
"","feedback","","html-keyboard-response","435","385397","0.0-1.0-618.0-0.0","0","0","82946","","null","","","null","68","","","","","","","","","","","","","","","",""
"","ITI","","html-keyboard-response","436","386405","0.0-1.0-621.0","0","0","82946","","null","","","null","68","","","","","","","","","","","","","","","NaN",""
"","S1","","html-keyboard-response","437","386661","0.0-1.0-623.0","0","0","82946","","null","","","null","69","","","","","","","","","","","","","","","",""
"","ISI","","html-keyboard-response","438","387669","0.0-1.0-624.0","0","0","82946","","null","","","null","69","NaN","","","","","","","","","","","","","","",""
"","S2","","html-keyboard-response","439","387925","0.0-1.0-625.0","0","0","82946","","null","","","null","69","","NaN","","","","","","","","","","","","","",""
"","response","","html-keyboard-response","440","388013","0.0-1.0-626.0-0.0","0","0","82946","","87","","","68","69","","","2","69","training","adjacent","AB","1","2","Q.jpg","L.jpg","1","1","1","",""
"","feedback","","html-keyboard-response","441","389021","0.0-1.0-627.0-0.0","0","0","82946","","null","","","null","69","","","","","","","","","","","","","","","",""
"","ITI","","html-keyboard-response","442","390030","0.0-1.0-630.0","0","0","82946","","null","","","null","69","","","","","","","","","","","","","","","NaN",""
"","S1","","html-keyboard-response","443","390286","0.0-1.0-632.0","0","0","82946","","null","","","null","70","","","","","","","","","","","","","","","",""
"","ISI","","html-keyboard-response","444","391294","0.0-1.0-633.0","0","0","82946","","null","","","null","70","NaN","","","","","","","","","","","","","","",""
"","S2","","html-keyboard-response","445","391557","0.0-1.0-634.0","0","0","82946","","null","","","null","70","","NaN","","","","","","","","","","","","","",""
"","response","","html-keyboard-response","446","392165","0.0-1.0-635.0-0.0","0","0","82946","","607","","","75","70","","","2","70","training","adjacent","DC","4","3","M.jpg","O.jpg","0","0","1","",""
"","feedback","","html-keyboard-response","447","393173","0.0-1.0-636.0-0.0","0","0","82946","","null","","","null","70","","","","","","","","","","","","","","","",""
"","ITI","","html-keyboard-response","448","394182","0.0-1.0-639.0","0","0","82946","","null","","","null","70","","","","","","","","","","","","","","","NaN",""
"","S1","","html-keyboard-response","449","394446","0.0-1.0-641.0","0","0","82946","","null","","","null","71","","","","","","","","","","","","","","","",""
"","ISI","","html-keyboard-response","450","395453","0.0-1.0-642.0","0","0","82946","","null","","","null","71","NaN","","","","","","","","","","","","","","",""
"","S2","","html-keyboard-response","451","395710","0.0-1.0-643.0","0","0","82946","","null","","","null","71","","NaN","","","","","","","","","","","","","",""
"","response","","html-keyboard-response","452","396494","0.0-1.0-644.0-0.0","0","0","82946","","783","","","68","71","","","2","71","training","adjacent","EF","5","6","N.jpg","P.jpg","1","1","1","",""
"","feedback","","html-keyboard-response","453","397503","0.0-1.0-645.0-0.0","0","0","82946","","null","","","null","71","","","","","","","","","","","","","","","",""
"","ITI","","html-keyboard-response","454","398510","0.0-1.0-648.0","0","0","82946","","null","","","null","71","","","","","","","","","","","","","","","NaN",""
"","S1","","html-keyboard-response","455","398773","0.0-1.0-650.0","0","0","82946","","null","","","null","72","","","","","","","","","","","","","","","",""
"","ISI","","html-keyboard-response","456","399781","0.0-1.0-651.0","0","0","82946","","null","","","null","72","NaN","","","","","","","","","","","","","","",""
"","S2","","html-keyboard-response","457","400038","0.0-1.0-652.0","0","0","82946","","null","","","null","72","","NaN","","","","","","","","","","","","","",""
"","response","","html-keyboard-response","458","400614","0.0-1.0-653.0-0.0","0","0","82946","","575","","","75","72","","","2","72","training","adjacent","CB","3","2","O.jpg","L.jpg","0","0","1","",""
"","feedback","","html-keyboard-response","459","401621","0.0-1.0-654.0-0.0","0","0","82946","","null","","","null","72","","","","","","","","","","","","","","","",""
"","ITI","","html-keyboard-response","460","402630","0.0-1.0-657.0","0","0","82946","","null","","","null","72","","","","","","","","","","","","","","","NaN",""
"","S1","","html-keyboard-response","461","402885","0.0-1.0-659.0","0","0","82946","","null","","","null","73","","","","","","","","","","","","","","","",""
"","ISI","","html-keyboard-response","462","403894","0.0-1.0-660.0","0","0","82946","","null","","","null","73","NaN","","","","","","","","","","","","","","",""
"","S2","","html-keyboard-response","463","404149","0.0-1.0-661.0","0","0","82946","","null","","","null","73","","NaN","","","","","","","","","","","","","",""
"","response","","html-keyboard-response","464","404722","0.0-1.0-662.0-0.0","0","0","82946","","572","","","68","73","","","2","73","training","adjacent","DE","4","5","M.jpg","N.jpg","1","1","1","",""
"","feedback","","html-keyboard-response","465","405732","0.0-1.0-663.0-0.0","0","0","82946","","null","","","null","73","","","","","","","","","","","","","","","",""
"","ITI","","html-keyboard-response","466","406742","0.0-1.0-666.0","0","0","82946","","null","","","null","73","","","","","","","","","","","","","","","NaN",""
"","S1","","html-keyboard-response","467","406998","0.0-1.0-668.0","0","0","82946","","null","","","null","74","","","","","","","","","","","","","","","",""
"","ISI","","html-keyboard-response","468","408006","0.0-1.0-669.0","0","0","82946","","null","","","null","74","NaN","","","","","","","","","","","","","","",""
"","S2","","html-keyboard-response","469","408232","0.0-1.0-670.0","0","0","82946","","224","","","68","74","","d","2","74","training","adjacent","AB","1","2","Q.jpg","L.jpg","1","1","1","",""
"","feedback","","html-keyboard-response","470","409247","0.0-1.0-672.0-0.0","0","0","82946","","null","","","null","74","","","","","","","","","","","","","","","",""
"","ITI","","html-keyboard-response","471","410253","0.0-1.0-675.0","0","0","82946","","null","","","null","74","","","","","","","","","","","","","","","NaN",""
"","S1","","html-keyboard-response","472","410511","0.0-1.0-677.0","0","0","82946","","null","","","null","75","","","","","","","","","","","","","","","",""
"","ISI","","html-keyboard-response","473","411519","0.0-1.0-678.0","0","0","82946","","null","","","null","75","NaN","","","","","","","","","","","","","","",""
"","S2","","html-keyboard-response","474","411782","0.0-1.0-679.0","0","0","82946","","null","","","null","75","","NaN","","","","","","","","","","","","","",""
"","response","","html-keyboard-response","475","412096","0.0-1.0-680.0-0.0","0","0","82946","","313","","","68","75","","","2","75","training","adjacent","FG","6","7","P.jpg","R.jpg","1","1","1","",""
"","feedback","","html-keyboard-response","476","413103","0.0-1.0-681.0-0.0","0","0","82946","","null","","","null","75","","","","","","","","","","","","","","","",""
"","ITI","","html-keyboard-response","477","414111","0.0-1.0-684.0","0","0","82946","","null","","","null","75","","","","","","","","","","","","","","","NaN",""
"","S1","","html-keyboard-response","478","414374","0.0-1.0-686.0","0","0","82946","","null","","","null","76","","","","","","","","","","","","","","","",""
"","ISI","","html-keyboard-response","479","415382","0.0-1.0-687.0","0","0","82946","","null","","","null","76","NaN","","","","","","","","","","","","","","",""
"","S2","","html-keyboard-response","480","415638","0.0-1.0-688.0","0","0","82946","","null","","","null","76","","NaN","","","","","","","","","","","","","",""
"","response","","html-keyboard-response","481","416123","0.0-1.0-689.0-0.0","0","0","82946","","484","","","68","76","","","2","76","training","adjacent","EF","5","6","N.jpg","P.jpg","1","1","1","",""
"","feedback","","html-keyboard-response","482","417135","0.0-1.0-690.0-0.0","0","0","82946","","null","","","null","76","","","","","","","","","","","","","","","",""
"","ITI","","html-keyboard-response","483","418143","0.0-1.0-693.0","0","0","82946","","null","","","null","76","","","","","","","","","","","","","","","NaN",""
"","S1","","html-keyboard-response","484","418406","0.0-1.0-695.0","0","0","82946","","null","","","null","77","","","","","","","","","","","","","","","",""
"","ISI","","html-keyboard-response","485","419414","0.0-1.0-696.0","0","0","82946","","null","","","null","77","NaN","","","","","","","","","","","","","","",""
"","S2","","html-keyboard-response","486","419670","0.0-1.0-697.0","0","0","82946","","null","","","null","77","","NaN","","","","","","","","","","","","","",""
"","response","","html-keyboard-response","487","420021","0.0-1.0-698.0-0.0","0","0","82946","","349","","","68","77","","","2","77","training","adjacent","CD","3","4","O.jpg","M.jpg","1","1","1","",""
"","feedback","","html-keyboard-response","488","421029","0.0-1.0-699.0-0.0","0","0","82946","","null","","","null","77","","","","","","","","","","","","","","","",""
"","ITI","","html-keyboard-response","489","422038","0.0-1.0-702.0","0","0","82946","","null","","","null","77","","","","","","","","","","","","","","","NaN",""
"","S1","","html-keyboard-response","490","422296","0.0-1.0-704.0","0","0","82946","","null","","","null","78","","","","","","","","","","","","","","","",""
"","ISI","","html-keyboard-response","491","423302","0.0-1.0-705.0","0","0","82946","","null","","","null","78","NaN","","","","","","","","","","","","","","",""
"","S2","","html-keyboard-response","492","423559","0.0-1.0-706.0","0","0","82946","","null","","","null","78","","NaN","","","","","","","","","","","","","",""
"","response","","html-keyboard-response","493","424112","0.0-1.0-707.0-0.0","0","0","82946","","552","","","75","78","","","2","78","training","adjacent","ED","5","4","N.jpg","M.jpg","0","0","1","",""
"","feedback","","html-keyboard-response","494","425118","0.0-1.0-708.0-0.0","0","0","82946","","null","","","null","78","","","","","","","","","","","","","","","",""
"","ITI","","html-keyboard-response","495","426127","0.0-1.0-711.0","0","0","82946","","null","","","null","78","","","","","","","","","","","","","","","NaN",""
"","S1","","html-keyboard-response","496","426390","0.0-1.0-713.0","0","0","82946","","null","","","null","79","","","","","","","","","","","","","","","",""
"","ISI","","html-keyboard-response","497","427399","0.0-1.0-714.0","0","0","82946","","null","","","null","79","NaN","","","","","","","","","","","","","","",""
"","S2","","html-keyboard-response","498","427655","0.0-1.0-715.0","0","0","82946","","null","","","null","79","","NaN","","","","","","","","","","","","","",""
"","response","","html-keyboard-response","499","427923","0.0-1.0-716.0-0.0","0","0","82946","","267","","","68","79","","","2","79","training","adjacent","CD","3","4","O.jpg","M.jpg","1","1","1","",""
"","feedback","","html-keyboard-response","500","428934","0.0-1.0-717.0-0.0","0","0","82946","","null","","","null","79","","","","","","","","","","","","","","","",""
"","ITI","","html-keyboard-response","501","429942","0.0-1.0-720.0","0","0","82946","","null","","","null","79","","","","","","","","","","","","","","","NaN",""
"","S1","","html-keyboard-response","502","430198","0.0-1.0-722.0","0","0","82946","","null","","","null","80","","","","","","","","","","","","","","","",""
"","ISI","","html-keyboard-response","503","431206","0.0-1.0-723.0","0","0","82946","","null","","","null","80","NaN","","","","","","","","","","","","","","",""
"","S2","","html-keyboard-response","504","431463","0.0-1.0-724.0","0","0","82946","","null","","","null","80","","NaN","","","","","","","","","","","","","",""
"","response","","html-keyboard-response","505","432012","0.0-1.0-725.0-0.0","0","0","82946","","548","","","75","80","","","2","80","training","adjacent","CB","3","2","O.jpg","L.jpg","0","0","1","",""
"","feedback","","html-keyboard-response","506","433024","0.0-1.0-726.0-0.0","0","0","82946","","null","","","null","80","","","","","","","","","","","","","","","",""
"","ITI","","html-keyboard-response","507","434032","0.0-1.0-729.0","0","0","82946","","null","","","null","80","","","","","","","","","","","","","","","NaN",""
"","S1","","html-keyboard-response","508","434295","0.0-1.0-731.0","0","0","82946","","null","","","null","81","","","","","","","","","","","","","","","",""
"","ISI","","html-keyboard-response","509","435302","0.0-1.0-732.0","0","0","82946","","null","","","null","81","NaN","","","","","","","","","","","","","","",""
"","S2","","html-keyboard-response","510","435558","0.0-1.0-733.0","0","0","82946","","null","","","null","81","","NaN","","","","","","","","","","","","","",""
"","response","","html-keyboard-response","511","435785","0.0-1.0-734.0-0.0","0","0","82946","","226","","","75","81","","","2","81","training","adjacent","CB","3","2","O.jpg","L.jpg","0","0","1","",""
"","feedback","","html-keyboard-response","512","436791","0.0-1.0-735.0-0.0","0","0","82946","","null","","","null","81","","","","","","","","","","","","","","","",""
"","ITI","","html-keyboard-response","513","437798","0.0-1.0-738.0","0","0","82946","","null","","","null","81","","","","","","","","","","","","","","","NaN",""
"","S1","","html-keyboard-response","514","438055","0.0-1.0-740.0","0","0","82946","","null","","","null","82","","","","","","","","","","","","","","","",""
"","ISI","","html-keyboard-response","515","439063","0.0-1.0-741.0","0","0","82946","","null","","","null","82","NaN","","","","","","","","","","","","","","",""
"","S2","","html-keyboard-response","516","439318","0.0-1.0-742.0","0","0","82946","","null","","","null","82","","NaN","","","","","","","","","","","","","",""
"","response","","html-keyboard-response","517","440370","0.0-1.0-743.0-0.0","0","0","82946","","1050","","","68","82","","","2","82","training","adjacent","DE","4","5","M.jpg","N.jpg","1","1","1","",""
"","feedback","","html-keyboard-response","518","441383","0.0-1.0-744.0-0.0","0","0","82946","","null","","","null","82","","","","","","","","","","","","","","","",""
"","ITI","","html-keyboard-response","519","442391","0.0-1.0-747.0","0","0","82946","","null","","","null","82","","","","","","","","","","","","","","","NaN",""
"","S1","","html-keyboard-response","520","442647","0.0-1.0-749.0","0","0","82946","","null","","","null","83","","","","","","","","","","","","","","","",""
"","ISI","","html-keyboard-response","521","443655","0.0-1.0-750.0","0","0","82946","","null","","","null","83","NaN","","","","","","","","","","","","","","",""
"","S2","","html-keyboard-response","522","443920","0.0-1.0-751.0","0","0","82946","","null","","","null","83","","NaN","","","","","","","","","","","","","",""
"","response","","html-keyboard-response","523","444527","0.0-1.0-752.0-0.0","0","0","82946","","605","","","68","83","","","2","83","training","adjacent","CD","3","4","O.jpg","M.jpg","1","1","1","",""
"","feedback","","html-keyboard-response","524","445536","0.0-1.0-753.0-0.0","0","0","82946","","null","","","null","83","","","","","","","","","","","","","","","",""
"","ITI","","html-keyboard-response","525","446542","0.0-1.0-756.0","0","0","82946","","null","","","null","83","","","","","","","","","","","","","","","NaN",""
"","S1","","html-keyboard-response","526","446800","0.0-1.0-758.0","0","0","82946","","null","","","null","84","","","","","","","","","","","","","","","",""
"","ISI","","html-keyboard-response","527","447807","0.0-1.0-759.0","0","0","82946","","null","","","null","84","NaN","","","","","","","","","","","","","","",""
"","S2","","html-keyboard-response","528","448064","0.0-1.0-760.0","0","0","82946","","null","","","null","84","","NaN","","","","","","","","","","","","","",""
"","response","","html-keyboard-response","529","449213","0.0-1.0-761.0-0.0","0","0","82946","","1147","","","68","84","","","2","84","training","adjacent","FG","6","7","P.jpg","R.jpg","1","1","1","",""
"","feedback","","html-keyboard-response","530","450224","0.0-1.0-762.0-0.0","0","0","82946","","null","","","null","84","","","","","","","","","","","","","","","",""
"","ITI","","html-keyboard-response","531","451232","0.0-1.0-765.0","0","0","82946","","null","","","null","84","","","","","","","","","","","","","","","NaN",""
"","S1","","html-keyboard-response","532","451494","0.0-1.0-767.0","0","0","82946","","null","","","null","85","","","","","","","","","","","","","","","",""
"","ISI","","html-keyboard-response","533","452503","0.0-1.0-768.0","0","0","82946","","null","","","null","85","NaN","","","","","","","","","","","","","","",""
"","S2","","html-keyboard-response","534","452759","0.0-1.0-769.0","0","0","82946","","null","","","null","85","","NaN","","","","","","","","","","","","","",""
"","response","","html-keyboard-response","535","453526","0.0-1.0-770.0-0.0","0","0","82946","","766","","","68","85","","","2","85","training","adjacent","EF","5","6","N.jpg","P.jpg","1","1","1","",""
"","feedback","","html-keyboard-response","536","454535","0.0-1.0-771.0-0.0","0","0","82946","","null","","","null","85","","","","","","","","","","","","","","","",""
"","ITI","","html-keyboard-response","537","455543","0.0-1.0-774.0","0","0","82946","","null","","","null","85","","","","","","","","","","","","","","","NaN",""
"","S1","","html-keyboard-response","538","455799","0.0-1.0-776.0","0","0","82946","","null","","","null","86","","","","","","","","","","","","","","","",""
"","ISI","","html-keyboard-response","539","456807","0.0-1.0-777.0","0","0","82946","","null","","","null","86","NaN","","","","","","","","","","","","","","",""
"","S2","","html-keyboard-response","540","457063","0.0-1.0-778.0","0","0","82946","","null","","","null","86","","NaN","","","","","","","","","","","","","",""
"","response","","html-keyboard-response","541","457346","0.0-1.0-779.0-0.0","0","0","82946","","282","","","68","86","","","2","86","training","adjacent","BC","2","3","L.jpg","O.jpg","1","1","1","",""
"","feedback","","html-keyboard-response","542","458352","0.0-1.0-780.0-0.0","0","0","82946","","null","","","null","86","","","","","","","","","","","","","","","",""
"","ITI","","html-keyboard-response","543","459357","0.0-1.0-783.0","0","0","82946","","null","","","null","86","","","","","","","","","","","","","","","NaN",""
"","S1","","html-keyboard-response","544","459616","0.0-1.0-785.0","0","0","82946","","null","","","null","87","","","","","","","","","","","","","","","",""
"","ISI","","html-keyboard-response","545","460623","0.0-1.0-786.0","0","0","82946","","null","","","null","87","NaN","","","","","","","","","","","","","","",""
"","S2","","html-keyboard-response","546","460879","0.0-1.0-787.0","0","0","82946","","null","","","null","87","","NaN","","","","","","","","","","","","","",""
"","response","","html-keyboard-response","547","461585","0.0-1.0-788.0-0.0","0","0","82946","","705","","","75","87","","","2","87","training","adjacent","GF","7","6","R.jpg","P.jpg","0","0","1","",""
"","feedback","","html-keyboard-response","548","462592","0.0-1.0-789.0-0.0","0","0","82946","","null","","","null","87","","","","","","","","","","","","","","","",""
"","ITI","","html-keyboard-response","549","463600","0.0-1.0-792.0","0","0","82946","","null","","","null","87","","","","","","","","","","","","","","","NaN",""
"","S1","","html-keyboard-response","550","463864","0.0-1.0-794.0","0","0","82946","","null","","","null","88","","","","","","","","","","","","","","","",""
"","ISI","","html-keyboard-response","551","464871","0.0-1.0-795.0","0","0","82946","","null","","","null","88","NaN","","","","","","","","","","","","","","",""
"","S2","","html-keyboard-response","552","465127","0.0-1.0-796.0","0","0","82946","","null","","","null","88","","NaN","","","","","","","","","","","","","",""
"","response","","html-keyboard-response","553","465944","0.0-1.0-797.0-0.0","0","0","82946","","815","","","75","88","","","2","88","training","adjacent","FE","6","5","P.jpg","N.jpg","0","0","1","",""
"","feedback","","html-keyboard-response","554","466951","0.0-1.0-798.0-0.0","0","0","82946","","null","","","null","88","","","","","","","","","","","","","","","",""
"","ITI","","html-keyboard-response","555","467960","0.0-1.0-801.0","0","0","82946","","null","","","null","88","","","","","","","","","","","","","","","NaN",""
"","S1","","html-keyboard-response","556","468215","0.0-1.0-803.0","0","0","82946","","null","","","null","89","","","","","","","","","","","","","","","",""
"","ISI","","html-keyboard-response","557","469223","0.0-1.0-804.0","0","0","82946","","null","","","null","89","NaN","","","","","","","","","","","","","","",""
"","S2","","html-keyboard-response","558","469479","0.0-1.0-805.0","0","0","82946","","null","","","null","89","","NaN","","","","","","","","","","","","","",""
"","response","","html-keyboard-response","559","469642","0.0-1.0-806.0-0.0","0","0","82946","","161","","","75","89","","","2","89","training","adjacent","BA","2","1","L.jpg","Q.jpg","0","0","1","",""
"","feedback","","html-keyboard-response","560","470648","0.0-1.0-807.0-0.0","0","0","82946","","null","","","null","89","","","","","","","","","","","","","","","",""
"","ITI","","html-keyboard-response","561","471655","0.0-1.0-810.0","0","0","82946","","null","","","null","89","","","","","","","","","","","","","","","NaN",""
"","S1","","html-keyboard-response","562","471912","0.0-1.0-812.0","0","0","82946","","null","","","null","90","","","","","","","","","","","","","","","",""
"","ISI","","html-keyboard-response","563","472919","0.0-1.0-813.0","0","0","82946","","null","","","null","90","NaN","","","","","","","","","","","","","","",""
"","S2","","html-keyboard-response","564","473176","0.0-1.0-814.0","0","0","82946","","null","","","null","90","","NaN","","","","","","","","","","","","","",""
"","response","","html-keyboard-response","565","473667","0.0-1.0-815.0-0.0","0","0","82946","","489","","","68","90","","","2","90","training","adjacent","FG","6","7","P.jpg","R.jpg","1","1","1","",""
"","feedback","","html-keyboard-response","566","474680","0.0-1.0-816.0-0.0","0","0","82946","","null","","","null","90","","","","","","","","","","","","","","","",""
"","ITI","","html-keyboard-response","567","475687","0.0-1.0-819.0","0","0","82946","","null","","","null","90","","","","","","","","","","","","","","","NaN",""
"","S1","","html-keyboard-response","568","475944","0.0-1.0-821.0","0","0","82946","","null","","","null","91","","","","","","","","","","","","","","","",""
"","ISI","","html-keyboard-response","569","476951","0.0-1.0-822.0","0","0","82946","","null","","","null","91","NaN","","","","","","","","","","","","","","",""
"","S2","","html-keyboard-response","570","477208","0.0-1.0-823.0","0","0","82946","","null","","","null","91","","NaN","","","","","","","","","","","","","",""
"","response","","html-keyboard-response","571","477858","0.0-1.0-824.0-0.0","0","0","82946","","648","","","68","91","","","2","91","training","adjacent","BC","2","3","L.jpg","O.jpg","1","1","1","",""
"","feedback","","html-keyboard-response","572","478864","0.0-1.0-825.0-0.0","0","0","82946","","null","","","null","91","","","","","","","","","","","","","","","",""
"","ITI","","html-keyboard-response","573","479873","0.0-1.0-828.0","0","0","82946","","null","","","null","91","","","","","","","","","","","","","","","NaN",""
"","S1","","html-keyboard-response","574","480136","0.0-1.0-830.0","0","0","82946","","null","","","null","92","","","","","","","","","","","","","","","",""
"","ISI","","html-keyboard-response","575","481144","0.0-1.0-831.0","0","0","82946","","null","","","null","92","NaN","","","","","","","","","","","","","","",""
"","S2","","html-keyboard-response","576","481400","0.0-1.0-832.0","0","0","82946","","null","","","null","92","","NaN","","","","","","","","","","","","","",""
"","response","","html-keyboard-response","577","481903","0.0-1.0-833.0-0.0","0","0","82946","","502","","","75","92","","","2","92","training","adjacent","DC","4","3","M.jpg","O.jpg","0","0","1","",""
"","feedback","","html-keyboard-response","578","482912","0.0-1.0-834.0-0.0","0","0","82946","","null","","","null","92","","","","","","","","","","","","","","","",""
"","ITI","","html-keyboard-response","579","483921","0.0-1.0-837.0","0","0","82946","","null","","","null","92","","","","","","","","","","","","","","","NaN",""
"","S1","","html-keyboard-response","580","484185","0.0-1.0-839.0","0","0","82946","","null","","","null","93","","","","","","","","","","","","","","","",""
"","ISI","","html-keyboard-response","581","485192","0.0-1.0-840.0","0","0","82946","","null","","","null","93","NaN","","","","","","","","","","","","","","",""
"","S2","","html-keyboard-response","582","485448","0.0-1.0-841.0","0","0","82946","","null","","","null","93","","NaN","","","","","","","","","","","","","",""
