"success","ttype","start_time","trial_type","trial_index","time_elapsed","internal_node_id","warning","missed_checkup","PID","view_history","rt","responses","repeat_instructions","key_press","index","keypress_isi","keypress_S2","block","trial_num","phase","group_type","pair_type","S1_stim","S2_stim","S1_img","S2_img","S1_chosen","S1_higher","accuracy","keypress_iti","total_bonus_tally"
"true","full_screen","d04132023hr1540","fullscreen","0","2691","0.0-0.0","0","0","78781","","","","","","","","","","","","","","","","","","","","","",""
"","instructions","","instructions","1","16429","0.0-1.0-0.0-0.0","0","0","78781","[{""page_index"":0,""viewing_time"":2275},{""page_index"":1,""viewing_time"":7214},{""page_index"":2,""viewing_time"":3108},{""page_index"":3,""viewing_time"":1137}]","13734","","","","","","","","","","","","","","","","","","","",""
"","comprehension_check","","survey-multi-choice","2","30025","0.0-1.0-0.0-1.0","0","0","78781","","13588","{""Q0"":""True"",""Q1"":""D"",""Q2"":""Only when the screen 'MAKE A CHOICE' is shown"",""Q3"":""Green mark"",""Q4"":""either D or K""}","1","","","","","","","","","","","","","","","","","",""
"","missed_instruction_checkup","","html-keyboard-response","3","31180","0.0-1.0-0.0-2.0-0.0","0","1","78781","","1153","","","32","","","","","","","","","","","","","","","","",""
"","instructions","","instructions","4","40605","0.0-1.0-0.1-0.1","0","0","78781","[{""page_index"":0,""viewing_time"":1412},{""page_index"":1,""viewing_time"":6076},{""page_index"":2,""viewing_time"":1160},{""page_index"":3,""viewing_time"":774}]","9422","","","","","","","","","","","","","","","","","","","",""
"","comprehension_check","","survey-multi-choice","5","49671","0.0-1.0-0.1-1.1","0","0","78781","","9060","{""Q0"":""True"",""Q1"":""D"",""Q2"":""Once the second image appears and while the screen 'MAKE A CHOICE' is shown"",""Q3"":""Green mark"",""Q4"":""either D or K""}","1","","","","","","","","","","","","","","","","","",""
"","missed_instruction_checkup","","html-keyboard-response","6","50520","0.0-1.0-0.1-2.1-0.1","0","1","78781","","846","","","32","","","","","","","","","","","","","","","","",""
"","instructions","","instructions","7","62336","0.0-1.0-0.2-0.2","0","0","78781","[{""page_index"":0,""viewing_time"":2276},{""page_index"":1,""viewing_time"":6729},{""page_index"":2,""viewing_time"":1575},{""page_index"":3,""viewing_time"":1233}]","11813","","","","","","","","","","","","","","","","","","","",""
"","comprehension_check","","survey-multi-choice","8","69648","0.0-1.0-0.2-1.2","0","0","78781","","7306","{""Q0"":""True"",""Q1"":""K"",""Q2"":""Once the second image appears and while the screen 'MAKE A CHOICE' is shown"",""Q3"":""Green mark"",""Q4"":""either D or K""}","0","","","","","","","","","","","","","","","","","",""
"","start_exp","","html-keyboard-response","9","70722","0.0-1.0-1.0","0","0","78781","","1071","","","32","","","","","","","","","","","","","","","","",""
"","S1","","html-keyboard-response","10","70983","0.0-1.0-2.0","0","0","78781","","null","","","null","0","","","","","","","","","","","","","","","",""
"","ISI","","html-keyboard-response","11","71997","0.0-1.0-3.0","0","0","78781","","null","","","null","0","NaN","","","","","","","","","","","","","","",""
"","S2","","html-keyboard-response","12","72258","0.0-1.0-4.0","0","0","78781","","null","","","null","0","","NaN","","","","","","","","","","","","","",""
"","response","","html-keyboard-response","13","72676","0.0-1.0-5.0-0.0","0","0","78781","","416","","","75","0","","","1","0","training","adjacent","EF","5","6","M.jpg","O.jpg","1","1","1","",""
"","feedback","","html-keyboard-response","14","73687","0.0-1.0-6.0-0.0","0","0","78781","","null","","","null","0","","","","","","","","","","","","","","","",""
"","ITI","","html-keyboard-response","15","74695","0.0-1.0-9.0","0","0","78781","","null","","","null","0","","","","","","","","","","","","","","","NaN",""
"","S1","","html-keyboard-response","16","74951","0.0-1.0-11.0","0","0","78781","","null","","","null","1","","","","","","","","","","","","","","","",""
"","ISI","","html-keyboard-response","17","75959","0.0-1.0-12.0","0","0","78781","","null","","","null","1","NaN","","","","","","","","","","","","","","",""
"","S2","","html-keyboard-response","18","76215","0.0-1.0-13.0","0","0","78781","","null","","","null","1","","NaN","","","","","","","","","","","","","",""
"","response","","html-keyboard-response","19","76752","0.0-1.0-14.0-0.0","0","0","78781","","534","","","75","1","","","1","1","training","adjacent","DE","4","5","N.jpg","M.jpg","1","1","1","",""
"","feedback","","html-keyboard-response","20","77762","0.0-1.0-15.0-0.0","0","0","78781","","null","","","null","1","","","","","","","","","","","","","","","",""
"","ITI","","html-keyboard-response","21","78770","0.0-1.0-18.0","0","0","78781","","null","","","null","1","","","","","","","","","","","","","","","NaN",""
"","S1","","html-keyboard-response","22","79031","0.0-1.0-20.0","0","0","78781","","null","","","null","2","","","","","","","","","","","","","","","",""
"","ISI","","html-keyboard-response","23","80038","0.0-1.0-21.0","0","0","78781","","null","","","null","2","NaN","","","","","","","","","","","","","","",""
"","S2","","html-keyboard-response","24","80296","0.0-1.0-22.0","0","0","78781","","null","","","null","2","","NaN","","","","","","","","","","","","","",""
"","response","","html-keyboard-response","25","80678","0.0-1.0-23.0-0.0","0","0","78781","","379","","","75","2","","","1","2","training","adjacent","CD","3","4","P.jpg","N.jpg","1","1","1","",""
"","feedback","","html-keyboard-response","26","81682","0.0-1.0-24.0-0.0","0","0","78781","","null","","","null","2","","","","","","","","","","","","","","","",""
"","ITI","","html-keyboard-response","27","82689","0.0-1.0-27.0","0","0","78781","","null","","","null","2","","","","","","","","","","","","","","","NaN",""
"","S1","","html-keyboard-response","28","82951","0.0-1.0-29.0","0","0","78781","","null","","","null","3","","","","","","","","","","","","","","","",""
"","ISI","","html-keyboard-response","29","83964","0.0-1.0-30.0","0","0","78781","","null","","","null","3","NaN","","","","","","","","","","","","","","",""
"","S2","","html-keyboard-response","30","84225","0.0-1.0-31.0","0","0","78781","","null","","","null","3","","NaN","","","","","","","","","","","","","",""
"","response","","html-keyboard-response","31","84581","0.0-1.0-32.0-0.0","0","0","78781","","353","","","75","3","","","1","3","training","adjacent","FE","6","5","O.jpg","M.jpg","1","0","0","",""
"","feedback","","html-keyboard-response","32","85591","0.0-1.0-33.0-0.0","0","0","78781","","null","","","null","3","","","","","","","","","","","","","","","",""
"","time_out","","html-keyboard-response","33","87607","0.0-1.0-35.0-0.0","0","0","78781","","null","","","null","3","","","","","","","","","","","","","","","",""
"","ITI","","html-keyboard-response","34","88615","0.0-1.0-36.0","0","0","78781","","null","","","null","3","","","","","","","","","","","","","","","NaN",""
"","S1","","html-keyboard-response","35","88871","0.0-1.0-38.0","0","0","78781","","null","","","null","4","","","","","","","","","","","","","","","",""
"","ISI","","html-keyboard-response","36","89879","0.0-1.0-39.0","0","0","78781","","null","","","null","4","NaN","","","","","","","","","","","","","","",""
"","S2","","html-keyboard-response","37","90135","0.0-1.0-40.0","0","0","78781","","null","","","null","4","","NaN","","","","","","","","","","","","","",""
"","response","","html-keyboard-response","38","90200","0.0-1.0-41.0-0.0","0","0","78781","","62","","","75","4","","","1","4","training","adjacent","AB","1","2","Q.jpg","L.jpg","1","1","1","",""
"","feedback","","html-keyboard-response","39","91207","0.0-1.0-42.0-0.0","0","0","78781","","null","","","null","4","","","","","","","","","","","","","","","",""
"","ITI","","html-keyboard-response","40","92216","0.0-1.0-45.0","0","0","78781","","null","","","null","4","","","","","","","","","","","","","","","NaN",""
"","S1","","html-keyboard-response","41","92471","0.0-1.0-47.0","0","0","78781","","null","","","null","5","","","","","","","","","","","","","","","",""
"","ISI","","html-keyboard-response","42","93478","0.0-1.0-48.0","0","0","78781","","null","","","null","5","NaN","","","","","","","","","","","","","","",""
"","S2","","html-keyboard-response","43","93735","0.0-1.0-49.0","0","0","78781","","null","","","null","5","","NaN","","","","","","","","","","","","","",""
"","response","","html-keyboard-response","44","94153","0.0-1.0-50.0-0.0","0","0","78781","","415","","","75","5","","","1","5","training","adjacent","FE","6","5","O.jpg","M.jpg","1","0","0","",""
"","feedback","","html-keyboard-response","45","95159","0.0-1.0-51.0-0.0","0","0","78781","","null","","","null","5","","","","","","","","","","","","","","","",""
"","time_out","","html-keyboard-response","46","97170","0.0-1.0-53.0-0.0","0","0","78781","","null","","","null","5","","","","","","","","","","","","","","","",""
"","ITI","","html-keyboard-response","47","98178","0.0-1.0-54.0","0","0","78781","","null","","","null","5","","","","","","","","","","","","","","","NaN",""
"","S1","","html-keyboard-response","48","98438","0.0-1.0-56.0","0","0","78781","","null","","","null","6","","","","","","","","","","","","","","","",""
"","ISI","","html-keyboard-response","49","99448","0.0-1.0-57.0","0","0","78781","","361","","","68","6","d","","","","","","","","","","","","","","",""
"","S2","","html-keyboard-response","50","99654","0.0-1.0-58.0","0","0","78781","","202","","","68","6","","d","1","6","training","adjacent","GF","7","6","R.jpg","O.jpg","0","0","1","",""
"","feedback","","html-keyboard-response","51","100669","0.0-1.0-60.0-0.0","0","0","78781","","null","","","null","6","","","","","","","","","","","","","","","",""
"","ITI","","html-keyboard-response","52","101687","0.0-1.0-63.0","0","0","78781","","null","","","null","6","","","","","","","","","","","","","","","NaN",""
"","S1","","html-keyboard-response","53","101943","0.0-1.0-65.0","0","0","78781","","null","","","null","7","","","","","","","","","","","","","","","",""
"","ISI","","html-keyboard-response","54","102950","0.0-1.0-66.0","0","0","78781","","null","","","null","7","NaN","","","","","","","","","","","","","","",""
"","S2","","html-keyboard-response","55","103207","0.0-1.0-67.0","0","0","78781","","null","","","null","7","","NaN","","","","","","","","","","","","","",""
"","response","","html-keyboard-response","56","103640","0.0-1.0-68.0-0.0","0","0","78781","","431","","","75","7","","","1","7","training","adjacent","BA","2","1","L.jpg","Q.jpg","1","0","0","",""
"","feedback","","html-keyboard-response","57","104647","0.0-1.0-69.0-0.0","0","0","78781","","null","","","null","7","","","","","","","","","","","","","","","",""
"","time_out","","html-keyboard-response","58","106658","0.0-1.0-71.0-0.0","0","0","78781","","null","","","null","7","","","","","","","","","","","","","","","",""
"","ITI","","html-keyboard-response","59","107665","0.0-1.0-72.0","0","0","78781","","null","","","null","7","","","","","","","","","","","","","","","NaN",""
"","S1","","html-keyboard-response","60","107927","0.0-1.0-74.0","0","0","78781","","null","","","null","8","","","","","","","","","","","","","","","",""
"","ISI","","html-keyboard-response","61","108935","0.0-1.0-75.0","0","0","78781","","null","","","null","8","NaN","","","","","","","","","","","","","","",""
"","S2","","html-keyboard-response","62","109191","0.0-1.0-76.0","0","0","78781","","null","","","null","8","","NaN","","","","","","","","","","","","","",""
"","response","","html-keyboard-response","63","109459","0.0-1.0-77.0-0.0","0","0","78781","","267","","","68","8","","","1","8","training","adjacent","GF","7","6","R.jpg","O.jpg","0","0","1","",""
"","feedback","","html-keyboard-response","64","110471","0.0-1.0-78.0-0.0","0","0","78781","","null","","","null","8","","","","","","","","","","","","","","","",""
"","ITI","","html-keyboard-response","65","111484","0.0-1.0-81.0","0","0","78781","","null","","","null","8","","","","","","","","","","","","","","","NaN",""
"","S1","","html-keyboard-response","66","111750","0.0-1.0-83.0","0","0","78781","","null","","","null","9","","","","","","","","","","","","","","","",""
"","ISI","","html-keyboard-response","67","112759","0.0-1.0-84.0","0","0","78781","","null","","","null","9","NaN","","","","","","","","","","","","","","",""
"","S2","","html-keyboard-response","68","113015","0.0-1.0-85.0","0","0","78781","","null","","","null","9","","NaN","","","","","","","","","","","","","",""
"","response","","html-keyboard-response","69","113366","0.0-1.0-86.0-0.0","0","0","78781","","348","","","75","9","","","1","9","training","adjacent","BA","2","1","L.jpg","Q.jpg","1","0","0","",""
"","feedback","","html-keyboard-response","70","114375","0.0-1.0-87.0-0.0","0","0","78781","","null","","","null","9","","","","","","","","","","","","","","","",""
"","time_out","","html-keyboard-response","71","116391","0.0-1.0-89.0-0.0","0","0","78781","","null","","","null","9","","","","","","","","","","","","","","","",""
"","ITI","","html-keyboard-response","72","117404","0.0-1.0-90.0","0","0","78781","","null","","","null","9","","","","","","","","","","","","","","","NaN",""
"","S1","","html-keyboard-response","73","117665","0.0-1.0-92.0","0","0","78781","","null","","","null","10","","","","","","","","","","","","","","","",""
"","ISI","","html-keyboard-response","74","118673","0.0-1.0-93.0","0","0","78781","","null","","","null","10","NaN","","","","","","","","","","","","","","",""
"","S2","","html-keyboard-response","75","118935","0.0-1.0-94.0","0","0","78781","","null","","","null","10","","NaN","","","","","","","","","","","","","",""
"","response","","html-keyboard-response","76","119004","0.0-1.0-95.0-0.0","0","0","78781","","66","","","68","10","","","1","10","training","adjacent","FG","6","7","O.jpg","R.jpg","0","1","0","",""
"","feedback","","html-keyboard-response","77","120016","0.0-1.0-96.0-0.0","0","0","78781","","null","","","null","10","","","","","","","","","","","","","","","",""
"","time_out","","html-keyboard-response","78","122022","0.0-1.0-98.0-0.0","0","0","78781","","null","","","null","10","","","","","","","","","","","","","","","",""
"","ITI","","html-keyboard-response","79","123030","0.0-1.0-99.0","0","0","78781","","null","","","null","10","","","","","","","","","","","","","","","NaN",""
"","S1","","html-keyboard-response","80","123286","0.0-1.0-101.0","0","0","78781","","null","","","null","11","","","","","","","","","","","","","","","",""
"","ISI","","html-keyboard-response","81","124295","0.0-1.0-102.0","0","0","78781","","null","","","null","11","NaN","","","","","","","","","","","","","","",""
"","S2","","html-keyboard-response","82","124551","0.0-1.0-103.0","0","0","78781","","null","","","null","11","","NaN","","","","","","","","","","","","","",""
"","response","","html-keyboard-response","83","124918","0.0-1.0-104.0-0.0","0","0","78781","","364","","","75","11","","","1","11","training","adjacent","BC","2","3","L.jpg","P.jpg","1","1","1","",""
"","feedback","","html-keyboard-response","84","125926","0.0-1.0-105.0-0.0","0","0","78781","","null","","","null","11","","","","","","","","","","","","","","","",""
"","ITI","","html-keyboard-response","85","126934","0.0-1.0-108.0","0","0","78781","","null","","","null","11","","","","","","","","","","","","","","","NaN",""
"","S1","","html-keyboard-response","86","127190","0.0-1.0-110.0","0","0","78781","","null","","","null","12","","","","","","","","","","","","","","","",""
"","ISI","","html-keyboard-response","87","128198","0.0-1.0-111.0","0","0","78781","","null","","","null","12","NaN","","","","","","","","","","","","","","",""
"","S2","","html-keyboard-response","88","128455","0.0-1.0-112.0","0","0","78781","","null","","","null","12","","NaN","","","","","","","","","","","","","",""
"","response","","html-keyboard-response","89","128927","0.0-1.0-113.0-0.0","0","0","78781","","469","","","75","12","","","1","12","training","adjacent","EF","5","6","M.jpg","O.jpg","1","1","1","",""
"","feedback","","html-keyboard-response","90","129937","0.0-1.0-114.0-0.0","0","0","78781","","null","","","null","12","","","","","","","","","","","","","","","",""
"","ITI","","html-keyboard-response","91","130945","0.0-1.0-117.0","0","0","78781","","null","","","null","12","","","","","","","","","","","","","","","NaN",""
"","S1","","html-keyboard-response","92","131207","0.0-1.0-119.0","0","0","78781","","null","","","null","13","","","","","","","","","","","","","","","",""
"","ISI","","html-keyboard-response","93","132216","0.0-1.0-120.0","0","0","78781","","null","","","null","13","NaN","","","","","","","","","","","","","","",""
"","S2","","html-keyboard-response","94","132470","0.0-1.0-121.0","0","0","78781","","null","","","null","13","","NaN","","","","","","","","","","","","","",""
"","response","","html-keyboard-response","95","133082","0.0-1.0-122.0-0.0","0","0","78781","","610","","","75","13","","","1","13","training","adjacent","CD","3","4","P.jpg","N.jpg","1","1","1","",""
"","feedback","","html-keyboard-response","96","134086","0.0-1.0-123.0-0.0","0","0","78781","","null","","","null","13","","","","","","","","","","","","","","","",""
"","ITI","","html-keyboard-response","97","135095","0.0-1.0-126.0","0","0","78781","","null","","","null","13","","","","","","","","","","","","","","","NaN",""
"","S1","","html-keyboard-response","98","135350","0.0-1.0-128.0","0","0","78781","","null","","","null","14","","","","","","","","","","","","","","","",""
"","ISI","","html-keyboard-response","99","136359","0.0-1.0-129.0","0","0","78781","","null","","","null","14","NaN","","","","","","","","","","","","","","",""
"","S2","","html-keyboard-response","100","136614","0.0-1.0-130.0","0","0","78781","","null","","","null","14","","NaN","","","","","","","","","","","","","",""
"","response","","html-keyboard-response","101","137268","0.0-1.0-131.0-0.0","0","0","78781","","652","","","75","14","","","1","14","training","adjacent","DC","4","3","N.jpg","P.jpg","1","0","0","",""
"","feedback","","html-keyboard-response","102","138288","0.0-1.0-132.0-0.0","0","0","78781","","null","","","null","14","","","","","","","","","","","","","","","",""
"","time_out","","html-keyboard-response","103","140295","0.0-1.0-134.0-0.0","0","0","78781","","null","","","null","14","","","","","","","","","","","","","","","",""
"","ITI","","html-keyboard-response","104","141303","0.0-1.0-135.0","0","0","78781","","null","","","null","14","","","","","","","","","","","","","","","NaN",""
"","S1","","html-keyboard-response","105","141568","0.0-1.0-137.0","0","0","78781","","null","","","null","15","","","","","","","","","","","","","","","",""
"","ISI","","html-keyboard-response","106","142576","0.0-1.0-138.0","0","0","78781","","null","","","null","15","NaN","","","","","","","","","","","","","","",""
"","S2","","html-keyboard-response","107","142839","0.0-1.0-139.0","0","0","78781","","null","","","null","15","","NaN","","","","","","","","","","","","","",""
"","response","","html-keyboard-response","108","143674","0.0-1.0-140.0-0.0","0","0","78781","","832","","","68","15","","","1","15","training","adjacent","AB","1","2","Q.jpg","L.jpg","0","1","0","",""
"","feedback","","html-keyboard-response","109","144687","0.0-1.0-141.0-0.0","0","0","78781","","null","","","null","15","","","","","","","","","","","","","","","",""
"","time_out","","html-keyboard-response","110","146698","0.0-1.0-143.0-0.0","0","0","78781","","null","","","null","15","","","","","","","","","","","","","","","",""
"","ITI","","html-keyboard-response","111","147703","0.0-1.0-144.0","0","0","78781","","null","","","null","15","","","","","","","","","","","","","","","NaN",""
"","S1","","html-keyboard-response","112","147959","0.0-1.0-146.0","0","0","78781","","null","","","null","16","","","","","","","","","","","","","","","",""
"","ISI","","html-keyboard-response","113","148966","0.0-1.0-147.0","0","0","78781","","null","","","null","16","NaN","","","","","","","","","","","","","","",""
"","S2","","html-keyboard-response","114","149231","0.0-1.0-148.0","0","0","78781","","null","","","null","16","","NaN","","","","","","","","","","","","","",""
"","response","","html-keyboard-response","115","149693","0.0-1.0-149.0-0.0","0","0","78781","","460","","","75","16","","","1","16","training","adjacent","CB","3","2","P.jpg","L.jpg","1","0","0","",""
"","feedback","","html-keyboard-response","116","150705","0.0-1.0-150.0-0.0","0","0","78781","","null","","","null","16","","","","","","","","","","","","","","","",""
"","time_out","","html-keyboard-response","117","152711","0.0-1.0-152.0-0.0","0","0","78781","","null","","","null","16","","","","","","","","","","","","","","","",""
"","ITI","","html-keyboard-response","118","153724","0.0-1.0-153.0","0","0","78781","","null","","","null","16","","","","","","","","","","","","","","","NaN",""
"","S1","","html-keyboard-response","119","153985","0.0-1.0-155.0","0","0","78781","","null","","","null","17","","","","","","","","","","","","","","","",""
"","ISI","","html-keyboard-response","120","154993","0.0-1.0-156.0","0","0","78781","","null","","","null","17","NaN","","","","","","","","","","","","","","",""
"","S2","","html-keyboard-response","121","155255","0.0-1.0-157.0","0","0","78781","","null","","","null","17","","NaN","","","","","","","","","","","","","",""
"","response","","html-keyboard-response","122","156009","0.0-1.0-158.0-0.0","0","0","78781","","753","","","75","17","","","1","17","training","adjacent","ED","5","4","M.jpg","N.jpg","1","0","0","",""
"","feedback","","html-keyboard-response","123","157014","0.0-1.0-159.0-0.0","0","0","78781","","null","","","null","17","","","","","","","","","","","","","","","",""
"","time_out","","html-keyboard-response","124","159025","0.0-1.0-161.0-0.0","0","0","78781","","null","","","null","17","","","","","","","","","","","","","","","",""
"","ITI","","html-keyboard-response","125","160033","0.0-1.0-162.0","0","0","78781","","null","","","null","17","","","","","","","","","","","","","","","NaN",""
"","S1","","html-keyboard-response","126","160295","0.0-1.0-164.0","0","0","78781","","null","","","null","18","","","","","","","","","","","","","","","",""
"","ISI","","html-keyboard-response","127","161302","0.0-1.0-165.0","0","0","78781","","null","","","null","18","NaN","","","","","","","","","","","","","","",""
"","S2","","html-keyboard-response","128","161563","0.0-1.0-166.0","0","0","78781","","null","","","null","18","","NaN","","","","","","","","","","","","","",""
"","response","","html-keyboard-response","129","162084","0.0-1.0-167.0-0.0","0","0","78781","","519","","","68","18","","","1","18","training","adjacent","EF","5","6","M.jpg","O.jpg","0","1","0","",""
"","feedback","","html-keyboard-response","130","163093","0.0-1.0-168.0-0.0","0","0","78781","","null","","","null","18","","","","","","","","","","","","","","","",""
"","time_out","","html-keyboard-response","131","165105","0.0-1.0-170.0-0.0","0","0","78781","","null","","","null","18","","","","","","","","","","","","","","","",""
"","ITI","","html-keyboard-response","132","166112","0.0-1.0-171.0","0","0","78781","","null","","","null","18","","","","","","","","","","","","","","","NaN",""
"","S1","","html-keyboard-response","133","166369","0.0-1.0-173.0","0","0","78781","","null","","","null","19","","","","","","","","","","","","","","","",""
"","ISI","","html-keyboard-response","134","167377","0.0-1.0-174.0","0","0","78781","","null","","","null","19","NaN","","","","","","","","","","","","","","",""
"","S2","","html-keyboard-response","135","167638","0.0-1.0-175.0","0","0","78781","","null","","","null","19","","NaN","","","","","","","","","","","","","",""
"","response","","html-keyboard-response","136","168591","0.0-1.0-176.0-0.0","0","0","78781","","950","","","75","19","","","1","19","training","adjacent","EF","5","6","M.jpg","O.jpg","1","1","1","",""
"","feedback","","html-keyboard-response","137","169601","0.0-1.0-177.0-0.0","0","0","78781","","null","","","null","19","","","","","","","","","","","","","","","",""
"","ITI","","html-keyboard-response","138","170609","0.0-1.0-180.0","0","0","78781","","null","","","null","19","","","","","","","","","","","","","","","NaN",""
"","S1","","html-keyboard-response","139","170870","0.0-1.0-182.0","0","0","78781","","null","","","null","20","","","","","","","","","","","","","","","",""
"","ISI","","html-keyboard-response","140","171878","0.0-1.0-183.0","0","0","78781","","null","","","null","20","NaN","","","","","","","","","","","","","","",""
"","S2","","html-keyboard-response","141","172143","0.0-1.0-184.0","0","0","78781","","null","","","null","20","","NaN","","","","","","","","","","","","","",""
"","response","","html-keyboard-response","142","173905","0.0-1.0-185.0-0.0","0","0","78781","","null","","","null","20","","","1","20","training","adjacent","FE","6","5","O.jpg","M.jpg","NaN","0","0","",""
"","too_slow_prompt","","html-keyboard-response","143","174912","0.0-1.0-187.0-0.0","1","0","78781","","null","","","null","","","","","","","","","","","","","","","","",""
"","time_out","","html-keyboard-response","144","176918","0.0-1.0-188.0-0.0","0","0","78781","","null","","","null","20","","","","","","","","","","","","","","","",""
"","ITI","","html-keyboard-response","145","177926","0.0-1.0-189.0","0","0","78781","","null","","","null","20","","","","","","","","","","","","","","","NaN",""
"","S1","","html-keyboard-response","146","178188","0.0-1.0-191.0","0","0","78781","","null","","","null","21","","","","","","","","","","","","","","","",""
"","ISI","","html-keyboard-response","147","179201","0.0-1.0-192.0","0","0","78781","","null","","","null","21","NaN","","","","","","","","","","","","","","",""
"","S2","","html-keyboard-response","148","179462","0.0-1.0-193.0","0","0","78781","","null","","","null","21","","NaN","","","","","","","","","","","","","",""
"","response","","html-keyboard-response","149","180126","0.0-1.0-194.0-0.0","0","0","78781","","661","","","75","21","","","1","21","training","adjacent","CB","3","2","P.jpg","L.jpg","1","0","0","",""
"","feedback","","html-keyboard-response","150","181137","0.0-1.0-195.0-0.0","0","0","78781","","null","","","null","21","","","","","","","","","","","","","","","",""
"","time_out","","html-keyboard-response","151","183142","0.0-1.0-197.0-0.0","0","0","78781","","null","","","null","21","","","","","","","","","","","","","","","",""
"","ITI","","html-keyboard-response","152","184150","0.0-1.0-198.0","0","0","78781","","null","","","null","21","","","","","","","","","","","","","","","NaN",""
"","S1","","html-keyboard-response","153","184415","0.0-1.0-200.0","0","0","78781","","null","","","null","22","","","","","","","","","","","","","","","",""
"","ISI","","html-keyboard-response","154","185424","0.0-1.0-201.0","0","0","78781","","null","","","null","22","NaN","","","","","","","","","","","","","","",""
"","S2","","html-keyboard-response","155","185685","0.0-1.0-202.0","0","0","78781","","null","","","null","22","","NaN","","","","","","","","","","","","","",""
"","response","","html-keyboard-response","156","186223","0.0-1.0-203.0-0.0","0","0","78781","","536","","","75","22","","","1","22","training","adjacent","ED","5","4","M.jpg","N.jpg","1","0","0","",""
"","feedback","","html-keyboard-response","157","187233","0.0-1.0-204.0-0.0","0","0","78781","","null","","","null","22","","","","","","","","","","","","","","","",""
"","time_out","","html-keyboard-response","158","189238","0.0-1.0-206.0-0.0","0","0","78781","","null","","","null","22","","","","","","","","","","","","","","","",""
"","ITI","","html-keyboard-response","159","190247","0.0-1.0-207.0","0","0","78781","","null","","","null","22","","","","","","","","","","","","","","","NaN",""
"","S1","","html-keyboard-response","160","190502","0.0-1.0-209.0","0","0","78781","","null","","","null","23","","","","","","","","","","","","","","","",""
"","ISI","","html-keyboard-response","161","191510","0.0-1.0-210.0","0","0","78781","","null","","","null","23","NaN","","","","","","","","","","","","","","",""
"","S2","","html-keyboard-response","162","191766","0.0-1.0-211.0","0","0","78781","","null","","","null","23","","NaN","","","","","","","","","","","","","",""
"","response","","html-keyboard-response","163","191801","0.0-1.0-212.0-0.0","0","0","78781","","32","","","68","23","","","1","23","training","adjacent","DC","4","3","N.jpg","P.jpg","0","0","1","",""
"","feedback","","html-keyboard-response","164","192812","0.0-1.0-213.0-0.0","0","0","78781","","null","","","null","23","","","","","","","","","","","","","","","",""
"","ITI","","html-keyboard-response","165","193823","0.0-1.0-216.0","0","0","78781","","null","","","null","23","","","","","","","","","","","","","","","NaN",""
"","S1","","html-keyboard-response","166","194085","0.0-1.0-218.0","0","0","78781","","null","","","null","24","","","","","","","","","","","","","","","",""
"","ISI","","html-keyboard-response","167","195095","0.0-1.0-219.0","0","0","78781","","null","","","null","24","NaN","","","","","","","","","","","","","","",""
"","S2","","html-keyboard-response","168","195350","0.0-1.0-220.0","0","0","78781","","null","","","null","24","","NaN","","","","","","","","","","","","","",""
"","response","","html-keyboard-response","169","195830","0.0-1.0-221.0-0.0","0","0","78781","","477","","","68","24","","","1","24","training","adjacent","DE","4","5","N.jpg","M.jpg","0","1","0","",""
"","feedback","","html-keyboard-response","170","196838","0.0-1.0-222.0-0.0","0","0","78781","","null","","","null","24","","","","","","","","","","","","","","","",""
"","time_out","","html-keyboard-response","171","198849","0.0-1.0-224.0-0.0","0","0","78781","","null","","","null","24","","","","","","","","","","","","","","","",""
"","ITI","","html-keyboard-response","172","199856","0.0-1.0-225.0","0","0","78781","","null","","","null","24","","","","","","","","","","","","","","","NaN",""
"","S1","","html-keyboard-response","173","200118","0.0-1.0-227.0","0","0","78781","","null","","","null","25","","","","","","","","","","","","","","","",""
"","ISI","","html-keyboard-response","174","201126","0.0-1.0-228.0","0","0","78781","","null","","","null","25","NaN","","","","","","","","","","","","","","",""
"","S2","","html-keyboard-response","175","201382","0.0-1.0-229.0","0","0","78781","","null","","","null","25","","NaN","","","","","","","","","","","","","",""
"","response","","html-keyboard-response","176","201703","0.0-1.0-230.0-0.0","0","0","78781","","319","","","75","25","","","1","25","training","adjacent","BC","2","3","L.jpg","P.jpg","1","1","1","",""
"","feedback","","html-keyboard-response","177","202719","0.0-1.0-231.0-0.0","0","0","78781","","null","","","null","25","","","","","","","","","","","","","","","",""
"","ITI","","html-keyboard-response","178","203729","0.0-1.0-234.0","0","0","78781","","null","","","null","25","","","","","","","","","","","","","","","NaN",""
"","S1","","html-keyboard-response","179","203990","0.0-1.0-236.0","0","0","78781","","null","","","null","26","","","","","","","","","","","","","","","",""
"","ISI","","html-keyboard-response","180","204998","0.0-1.0-237.0","0","0","78781","","null","","","null","26","NaN","","","","","","","","","","","","","","",""
"","S2","","html-keyboard-response","181","205254","0.0-1.0-238.0","0","0","78781","","null","","","null","26","","NaN","","","","","","","","","","","","","",""
"","response","","html-keyboard-response","182","205561","0.0-1.0-239.0-0.0","0","0","78781","","304","","","75","26","","","1","26","training","adjacent","BA","2","1","L.jpg","Q.jpg","1","0","0","",""
"","feedback","","html-keyboard-response","183","206572","0.0-1.0-240.0-0.0","0","0","78781","","null","","","null","26","","","","","","","","","","","","","","","",""
"","time_out","","html-keyboard-response","184","208582","0.0-1.0-242.0-0.0","0","0","78781","","null","","","null","26","","","","","","","","","","","","","","","",""
"","ITI","","html-keyboard-response","185","209599","0.0-1.0-243.0","0","0","78781","","null","","","null","26","","","","","","","","","","","","","","","NaN",""
"","S1","","html-keyboard-response","186","209857","0.0-1.0-245.0","0","0","78781","","null","","","null","27","","","","","","","","","","","","","","","",""
"","ISI","","html-keyboard-response","187","210864","0.0-1.0-246.0","0","0","78781","","null","","","null","27","NaN","","","","","","","","","","","","","","",""
"","S2","","html-keyboard-response","188","211126","0.0-1.0-247.0","0","0","78781","","null","","","null","27","","NaN","","","","","","","","","","","","","",""
"","response","","html-keyboard-response","189","211474","0.0-1.0-248.0-0.0","0","0","78781","","346","","","68","27","","","1","27","training","adjacent","GF","7","6","R.jpg","O.jpg","0","0","1","",""
"","feedback","","html-keyboard-response","190","212481","0.0-1.0-249.0-0.0","0","0","78781","","null","","","null","27","","","","","","","","","","","","","","","",""
"","ITI","","html-keyboard-response","191","213489","0.0-1.0-252.0","0","0","78781","","null","","","null","27","","","","","","","","","","","","","","","NaN",""
"","S1","","html-keyboard-response","192","213756","0.0-1.0-254.0","0","0","78781","","null","","","null","28","","","","","","","","","","","","","","","",""
"","ISI","","html-keyboard-response","193","214768","0.0-1.0-255.0","0","0","78781","","null","","","null","28","NaN","","","","","","","","","","","","","","",""
"","S2","","html-keyboard-response","194","215030","0.0-1.0-256.0","0","0","78781","","null","","","null","28","","NaN","","","","","","","","","","","","","",""
"","response","","html-keyboard-response","195","215450","0.0-1.0-257.0-0.0","0","0","78781","","417","","","68","28","","","1","28","training","adjacent","DC","4","3","N.jpg","P.jpg","0","0","1","",""
"","feedback","","html-keyboard-response","196","216464","0.0-1.0-258.0-0.0","0","0","78781","","null","","","null","28","","","","","","","","","","","","","","","",""
"","ITI","","html-keyboard-response","197","217473","0.0-1.0-261.0","0","0","78781","","null","","","null","28","","","","","","","","","","","","","","","NaN",""
"","S1","","html-keyboard-response","198","217734","0.0-1.0-263.0","0","0","78781","","null","","","null","29","","","","","","","","","","","","","","","",""
"","ISI","","html-keyboard-response","199","218749","0.0-1.0-264.0","0","0","78781","","null","","","null","29","NaN","","","","","","","","","","","","","","",""
"","S2","","html-keyboard-response","200","219008","0.0-1.0-265.0","0","0","78781","","null","","","null","29","","NaN","","","","","","","","","","","","","",""
"","response","","html-keyboard-response","201","219305","0.0-1.0-266.0-0.0","0","0","78781","","295","","","68","29","","","1","29","training","adjacent","CD","3","4","P.jpg","N.jpg","0","1","0","",""
"","feedback","","html-keyboard-response","202","220310","0.0-1.0-267.0-0.0","0","0","78781","","null","","","null","29","","","","","","","","","","","","","","","",""
"","time_out","","html-keyboard-response","203","222321","0.0-1.0-269.0-0.0","0","0","78781","","null","","","null","29","","","","","","","","","","","","","","","",""
"","ITI","","html-keyboard-response","204","223329","0.0-1.0-270.0","0","0","78781","","null","","","null","29","","","","","","","","","","","","","","","NaN",""
"","S1","","html-keyboard-response","205","223590","0.0-1.0-272.0","0","0","78781","","null","","","null","30","","","","","","","","","","","","","","","",""
"","ISI","","html-keyboard-response","206","224598","0.0-1.0-273.0","0","0","78781","","152","","","75","30","k","","","","","","","","","","","","","","",""
"","S2","","html-keyboard-response","207","224854","0.0-1.0-274.0","0","0","78781","","null","","","null","30","","NaN","","","","","","","","","","","","","",""
"","response","","html-keyboard-response","208","225360","0.0-1.0-275.0-0.0","0","0","78781","","505","","","75","30","","","1","30","training","adjacent","BC","2","3","L.jpg","P.jpg","1","1","1","",""
"","feedback","","html-keyboard-response","209","226368","0.0-1.0-276.0-0.0","0","0","78781","","null","","","null","30","","","","","","","","","","","","","","","",""
"","ITI","","html-keyboard-response","210","227375","0.0-1.0-279.0","0","0","78781","","null","","","null","30","","","","","","","","","","","","","","","NaN",""
"","S1","","html-keyboard-response","211","227633","0.0-1.0-281.0","0","0","78781","","null","","","null","31","","","","","","","","","","","","","","","",""
"","ISI","","html-keyboard-response","212","228640","0.0-1.0-282.0","0","0","78781","","null","","","null","31","NaN","","","","","","","","","","","","","","",""
"","S2","","html-keyboard-response","213","228901","0.0-1.0-283.0","0","0","78781","","null","","","null","31","","NaN","","","","","","","","","","","","","",""
"","response","","html-keyboard-response","214","229402","0.0-1.0-284.0-0.0","0","0","78781","","498","","","75","31","","","1","31","training","adjacent","ED","5","4","M.jpg","N.jpg","1","0","0","",""
"","feedback","","html-keyboard-response","215","230417","0.0-1.0-285.0-0.0","0","0","78781","","null","","","null","31","","","","","","","","","","","","","","","",""
"","time_out","","html-keyboard-response","216","232422","0.0-1.0-287.0-0.0","0","0","78781","","null","","","null","31","","","","","","","","","","","","","","","",""
"","ITI","","html-keyboard-response","217","233433","0.0-1.0-288.0","0","0","78781","","null","","","null","31","","","","","","","","","","","","","","","NaN",""
"","S1","","html-keyboard-response","218","233697","0.0-1.0-290.0","0","0","78781","","null","","","null","32","","","","","","","","","","","","","","","",""
"","ISI","","html-keyboard-response","219","234704","0.0-1.0-291.0","0","0","78781","","null","","","null","32","NaN","","","","","","","","","","","","","","",""
"","S2","","html-keyboard-response","220","234966","0.0-1.0-292.0","0","0","78781","","null","","","null","32","","NaN","","","","","","","","","","","","","",""
"","response","","html-keyboard-response","221","235479","0.0-1.0-293.0-0.0","0","0","78781","","510","","","68","32","","","1","32","training","adjacent","AB","1","2","Q.jpg","L.jpg","0","1","0","",""
"","feedback","","html-keyboard-response","222","236485","0.0-1.0-294.0-0.0","0","0","78781","","null","","","null","32","","","","","","","","","","","","","","","",""
"","time_out","","html-keyboard-response","223","238496","0.0-1.0-296.0-0.0","0","0","78781","","null","","","null","32","","","","","","","","","","","","","","","",""
"","ITI","","html-keyboard-response","224","239505","0.0-1.0-297.0","0","0","78781","","null","","","null","32","","","","","","","","","","","","","","","NaN",""
"","S1","","html-keyboard-response","225","239766","0.0-1.0-299.0","0","0","78781","","null","","","null","33","","","","","","","","","","","","","","","",""
"","ISI","","html-keyboard-response","226","240774","0.0-1.0-300.0","0","0","78781","","null","","","null","33","NaN","","","","","","","","","","","","","","",""
"","S2","","html-keyboard-response","227","241030","0.0-1.0-301.0","0","0","78781","","null","","","null","33","","NaN","","","","","","","","","","","","","",""
"","response","","html-keyboard-response","228","241368","0.0-1.0-302.0-0.0","0","0","78781","","335","","","75","33","","","1","33","training","adjacent","FG","6","7","O.jpg","R.jpg","1","1","1","",""
"","feedback","","html-keyboard-response","229","242373","0.0-1.0-303.0-0.0","0","0","78781","","null","","","null","33","","","","","","","","","","","","","","","",""
"","ITI","","html-keyboard-response","230","243390","0.0-1.0-306.0","0","0","78781","","null","","","null","33","","","","","","","","","","","","","","","NaN",""
"","S1","","html-keyboard-response","231","243648","0.0-1.0-308.0","0","0","78781","","null","","","null","34","","","","","","","","","","","","","","","",""
"","ISI","","html-keyboard-response","232","244656","0.0-1.0-309.0","0","0","78781","","null","","","null","34","NaN","","","","","","","","","","","","","","",""
"","S2","","html-keyboard-response","233","244918","0.0-1.0-310.0","0","0","78781","","null","","","null","34","","NaN","","","","","","","","","","","","","",""
"","response","","html-keyboard-response","234","245452","0.0-1.0-311.0-0.0","0","0","78781","","531","","","68","34","","","1","34","training","adjacent","BC","2","3","L.jpg","P.jpg","0","1","0","",""
"","feedback","","html-keyboard-response","235","246464","0.0-1.0-312.0-0.0","0","0","78781","","null","","","null","34","","","","","","","","","","","","","","","",""
"","time_out","","html-keyboard-response","236","248470","0.0-1.0-314.0-0.0","0","0","78781","","null","","","null","34","","","","","","","","","","","","","","","",""
"","ITI","","html-keyboard-response","237","249478","0.0-1.0-315.0","0","0","78781","","null","","","null","34","","","","","","","","","","","","","","","NaN",""
"","S1","","html-keyboard-response","238","249734","0.0-1.0-317.0","0","0","78781","","null","","","null","35","","","","","","","","","","","","","","","",""
"","ISI","","html-keyboard-response","239","250748","0.0-1.0-318.0","0","0","78781","","null","","","null","35","NaN","","","","","","","","","","","","","","",""
"","S2","","html-keyboard-response","240","251008","0.0-1.0-319.0","0","0","78781","","null","","","null","35","","NaN","","","","","","","","","","","","","",""
"","response","","html-keyboard-response","241","251623","0.0-1.0-320.0-0.0","0","0","78781","","612","","","75","35","","","1","35","training","adjacent","DE","4","5","N.jpg","M.jpg","1","1","1","",""
"","feedback","","html-keyboard-response","242","252630","0.0-1.0-321.0-0.0","0","0","78781","","null","","","null","35","","","","","","","","","","","","","","","",""
"","ITI","","html-keyboard-response","243","253639","0.0-1.0-324.0","0","0","78781","","null","","","null","35","","","","","","","","","","","","","","","NaN",""
"","S1","","html-keyboard-response","244","253894","0.0-1.0-326.0","0","0","78781","","null","","","null","36","","","","","","","","","","","","","","","",""
"","ISI","","html-keyboard-response","245","254901","0.0-1.0-327.0","0","0","78781","","null","","","null","36","NaN","","","","","","","","","","","","","","",""
"","S2","","html-keyboard-response","246","255162","0.0-1.0-328.0","0","0","78781","","null","","","null","36","","NaN","","","","","","","","","","","","","",""
"","response","","html-keyboard-response","247","255556","0.0-1.0-329.0-0.0","0","0","78781","","391","","","75","36","","","1","36","training","adjacent","CD","3","4","P.jpg","N.jpg","1","1","1","",""
"","feedback","","html-keyboard-response","248","256566","0.0-1.0-330.0-0.0","0","0","78781","","null","","","null","36","","","","","","","","","","","","","","","",""
"","ITI","","html-keyboard-response","249","257574","0.0-1.0-333.0","0","0","78781","","null","","","null","36","","","","","","","","","","","","","","","NaN",""
"","S1","","html-keyboard-response","250","257830","0.0-1.0-335.0","0","0","78781","","null","","","null","37","","","","","","","","","","","","","","","",""
"","ISI","","html-keyboard-response","251","258837","0.0-1.0-336.0","0","0","78781","","null","","","null","37","NaN","","","","","","","","","","","","","","",""
"","S2","","html-keyboard-response","252","259094","0.0-1.0-337.0","0","0","78781","","null","","","null","37","","NaN","","","","","","","","","","","","","",""
"","response","","html-keyboard-response","253","259792","0.0-1.0-338.0-0.0","0","0","78781","","695","","","75","37","","","1","37","training","adjacent","BA","2","1","L.jpg","Q.jpg","1","0","0","",""
"","feedback","","html-keyboard-response","254","260800","0.0-1.0-339.0-0.0","0","0","78781","","null","","","null","37","","","","","","","","","","","","","","","",""
"","time_out","","html-keyboard-response","255","262806","0.0-1.0-341.0-0.0","0","0","78781","","null","","","null","37","","","","","","","","","","","","","","","",""
"","ITI","","html-keyboard-response","256","263813","0.0-1.0-342.0","0","0","78781","","null","","","null","37","","","","","","","","","","","","","","","NaN",""
"","S1","","html-keyboard-response","257","264070","0.0-1.0-344.0","0","0","78781","","null","","","null","38","","","","","","","","","","","","","","","",""
"","ISI","","html-keyboard-response","258","265077","0.0-1.0-345.0","0","0","78781","","null","","","null","38","NaN","","","","","","","","","","","","","","",""
"","S2","","html-keyboard-response","259","265333","0.0-1.0-346.0","0","0","78781","","null","","","null","38","","NaN","","","","","","","","","","","","","",""
"","response","","html-keyboard-response","260","265721","0.0-1.0-347.0-0.0","0","0","78781","","385","","","68","38","","","1","38","training","adjacent","ED","5","4","M.jpg","N.jpg","0","0","1","",""
"","feedback","","html-keyboard-response","261","266732","0.0-1.0-348.0-0.0","0","0","78781","","null","","","null","38","","","","","","","","","","","","","","","",""
"","ITI","","html-keyboard-response","262","267748","0.0-1.0-351.0","0","0","78781","","null","","","null","38","","","","","","","","","","","","","","","NaN",""
"","S1","","html-keyboard-response","263","268006","0.0-1.0-353.0","0","0","78781","","null","","","null","39","","","","","","","","","","","","","","","",""
"","ISI","","html-keyboard-response","264","269013","0.0-1.0-354.0","0","0","78781","","null","","","null","39","NaN","","","","","","","","","","","","","","",""
"","S2","","html-keyboard-response","265","269269","0.0-1.0-355.0","0","0","78781","","null","","","null","39","","NaN","","","","","","","","","","","","","",""
"","response","","html-keyboard-response","266","270208","0.0-1.0-356.0-0.0","0","0","78781","","937","","","75","39","","","1","39","training","adjacent","DC","4","3","N.jpg","P.jpg","1","0","0","",""
"","feedback","","html-keyboard-response","267","271216","0.0-1.0-357.0-0.0","0","0","78781","","null","","","null","39","","","","","","","","","","","","","","","",""
"","time_out","","html-keyboard-response","268","273222","0.0-1.0-359.0-0.0","0","0","78781","","null","","","null","39","","","","","","","","","","","","","","","",""
"","ITI","","html-keyboard-response","269","274230","0.0-1.0-360.0","0","0","78781","","null","","","null","39","","","","","","","","","","","","","","","NaN",""
"","S1","","html-keyboard-response","270","274486","0.0-1.0-362.0","0","0","78781","","null","","","null","40","","","","","","","","","","","","","","","",""
"","ISI","","html-keyboard-response","271","275494","0.0-1.0-363.0","0","0","78781","","null","","","null","40","NaN","","","","","","","","","","","","","","",""
"","S2","","html-keyboard-response","272","275755","0.0-1.0-364.0","0","0","78781","","null","","","null","40","","NaN","","","","","","","","","","","","","",""
"","response","","html-keyboard-response","273","276607","0.0-1.0-365.0-0.0","0","0","78781","","850","","","68","40","","","1","40","training","adjacent","FE","6","5","O.jpg","M.jpg","0","0","1","",""
"","feedback","","html-keyboard-response","274","277616","0.0-1.0-366.0-0.0","0","0","78781","","null","","","null","40","","","","","","","","","","","","","","","",""
"","ITI","","html-keyboard-response","275","278624","0.0-1.0-369.0","0","0","78781","","null","","","null","40","","","","","","","","","","","","","","","NaN",""
"","S1","","html-keyboard-response","276","278884","0.0-1.0-371.0","0","0","78781","","null","","","null","41","","","","","","","","","","","","","","","",""
"","ISI","","html-keyboard-response","277","279893","0.0-1.0-372.0","0","0","78781","","null","","","null","41","NaN","","","","","","","","","","","","","","",""
"","S2","","html-keyboard-response","278","280149","0.0-1.0-373.0","0","0","78781","","null","","","null","41","","NaN","","","","","","","","","","","","","",""
"","response","","html-keyboard-response","279","280606","0.0-1.0-374.0-0.0","0","0","78781","","455","","","68","41","","","1","41","training","adjacent","AB","1","2","Q.jpg","L.jpg","0","1","0","",""
"","feedback","","html-keyboard-response","280","281617","0.0-1.0-375.0-0.0","0","0","78781","","null","","","null","41","","","","","","","","","","","","","","","",""
"","time_out","","html-keyboard-response","281","283628","0.0-1.0-377.0-0.0","0","0","78781","","null","","","null","41","","","","","","","","","","","","","","","",""
"","ITI","","html-keyboard-response","282","284638","0.0-1.0-378.0","0","0","78781","","null","","","null","41","","","","","","","","","","","","","","","NaN",""
"","S1","","html-keyboard-response","283","284896","0.0-1.0-380.0","0","0","78781","","null","","","null","42","","","","","","","","","","","","","","","",""
"","ISI","","html-keyboard-response","284","285909","0.0-1.0-381.0","0","0","78781","","987","","","75","42","k","","","","","","","","","","","","","","",""
"","S2","","html-keyboard-response","285","286165","0.0-1.0-382.0","0","0","78781","","null","","","null","42","","NaN","","","","","","","","","","","","","",""
"","response","","html-keyboard-response","286","287008","0.0-1.0-383.0-0.0","0","0","78781","","840","","","75","42","","","1","42","training","adjacent","DE","4","5","N.jpg","M.jpg","1","1","1","",""
"","feedback","","html-keyboard-response","287","288016","0.0-1.0-384.0-0.0","0","0","78781","","null","","","null","42","","","","","","","","","","","","","","","",""
"","ITI","","html-keyboard-response","288","289024","0.0-1.0-387.0","0","0","78781","","null","","","null","42","","","","","","","","","","","","","","","NaN",""
"","S1","","html-keyboard-response","289","289290","0.0-1.0-389.0","0","0","78781","","null","","","null","43","","","","","","","","","","","","","","","",""
"","ISI","","html-keyboard-response","290","290304","0.0-1.0-390.0","0","0","78781","","null","","","null","43","NaN","","","","","","","","","","","","","","",""
"","S2","","html-keyboard-response","291","290571","0.0-1.0-391.0","0","0","78781","","null","","","null","43","","NaN","","","","","","","","","","","","","",""
"","response","","html-keyboard-response","292","291706","0.0-1.0-392.0-0.0","0","0","78781","","1132","","","75","43","","","1","43","training","adjacent","CB","3","2","P.jpg","L.jpg","1","0","0","",""
"","feedback","","html-keyboard-response","293","292718","0.0-1.0-393.0-0.0","0","0","78781","","null","","","null","43","","","","","","","","","","","","","","","",""
"","time_out","","html-keyboard-response","294","294725","0.0-1.0-395.0-0.0","0","0","78781","","null","","","null","43","","","","","","","","","","","","","","","",""
"","ITI","","html-keyboard-response","295","295734","0.0-1.0-396.0","0","0","78781","","null","","","null","43","","","","","","","","","","","","","","","NaN",""
"","S1","","html-keyboard-response","296","295989","0.0-1.0-398.0","0","0","78781","","null","","","null","44","","","","","","","","","","","","","","","",""
"","ISI","","html-keyboard-response","297","296996","0.0-1.0-399.0","0","0","78781","","734","","","68","44","d","","","","","","","","","","","","","","",""
"","S2","","html-keyboard-response","298","297263","0.0-1.0-400.0","0","0","78781","","null","","","null","44","","NaN","","","","","","","","","","","","","",""
"","response","","html-keyboard-response","299","297317","0.0-1.0-401.0-0.0","0","0","78781","","52","","","68","44","","","1","44","training","adjacent","CB","3","2","P.jpg","L.jpg","0","0","1","",""
"","feedback","","html-keyboard-response","300","298325","0.0-1.0-402.0-0.0","0","0","78781","","null","","","null","44","","","","","","","","","","","","","","","",""
"","ITI","","html-keyboard-response","301","299333","0.0-1.0-405.0","0","0","78781","","null","","","null","44","","","","","","","","","","","","","","","NaN",""
"","S1","","html-keyboard-response","302","299589","0.0-1.0-407.0","0","0","78781","","null","","","null","45","","","","","","","","","","","","","","","",""
"","ISI","","html-keyboard-response","303","300598","0.0-1.0-408.0","0","0","78781","","null","","","null","45","NaN","","","","","","","","","","","","","","",""
"","S2","","html-keyboard-response","304","300853","0.0-1.0-409.0","0","0","78781","","null","","","null","45","","NaN","","","","","","","","","","","","","",""
"","response","","html-keyboard-response","305","301251","0.0-1.0-410.0-0.0","0","0","78781","","395","","","68","45","","","1","45","training","adjacent","FG","6","7","O.jpg","R.jpg","0","1","0","",""
"","feedback","","html-keyboard-response","306","302266","0.0-1.0-411.0-0.0","0","0","78781","","null","","","null","45","","","","","","","","","","","","","","","",""
"","time_out","","html-keyboard-response","307","304277","0.0-1.0-413.0-0.0","0","0","78781","","null","","","null","45","","","","","","","","","","","","","","","",""
"","ITI","","html-keyboard-response","308","305285","0.0-1.0-414.0","0","0","78781","","null","","","null","45","","","","","","","","","","","","","","","NaN",""
"","S1","","html-keyboard-response","309","305541","0.0-1.0-416.0","0","0","78781","","null","","","null","46","","","","","","","","","","","","","","","",""
"","ISI","","html-keyboard-response","310","306549","0.0-1.0-417.0","0","0","78781","","null","","","null","46","NaN","","","","","","","","","","","","","","",""
"","S2","","html-keyboard-response","311","306805","0.0-1.0-418.0","0","0","78781","","null","","","null","46","","NaN","","","","","","","","","","","","","",""
"","response","","html-keyboard-response","312","307222","0.0-1.0-419.0-0.0","0","0","78781","","415","","","75","46","","","1","46","training","adjacent","FG","6","7","O.jpg","R.jpg","1","1","1","",""
"","feedback","","html-keyboard-response","313","308228","0.0-1.0-420.0-0.0","0","0","78781","","null","","","null","46","","","","","","","","","","","","","","","",""
"","ITI","","html-keyboard-response","314","309237","0.0-1.0-423.0","0","0","78781","","null","","","null","46","","","","","","","","","","","","","","","NaN",""
"","S1","","html-keyboard-response","315","309493","0.0-1.0-425.0","0","0","78781","","null","","","null","47","","","","","","","","","","","","","","","",""
"","ISI","","html-keyboard-response","316","310501","0.0-1.0-426.0","0","0","78781","","null","","","null","47","NaN","","","","","","","","","","","","","","",""
"","S2","","html-keyboard-response","317","310757","0.0-1.0-427.0","0","0","78781","","null","","","null","47","","NaN","","","","","","","","","","","","","",""
"","response","","html-keyboard-response","318","311578","0.0-1.0-428.0-0.0","0","0","78781","","819","","","68","47","","","1","47","training","adjacent","GF","7","6","R.jpg","O.jpg","0","0","1","",""
"","feedback","","html-keyboard-response","319","312592","0.0-1.0-429.0-0.0","0","0","78781","","null","","","null","47","","","","","","","","","","","","","","","",""
"","ITI","","html-keyboard-response","320","313600","0.0-1.0-432.0","0","0","78781","","null","","","null","47","","","","","","","","","","","","","","","NaN",""
"","block_over","","html-keyboard-response","321","316596","0.0-1.0-433.0-0.0","0","0","78781","","2992","","","32","47","","","","","","","","","","","","","","","",""
"","S1","","html-keyboard-response","322","316853","0.0-1.0-434.0","0","0","78781","","null","","","null","48","","","","","","","","","","","","","","","",""
"","ISI","","html-keyboard-response","323","317861","0.0-1.0-435.0","0","0","78781","","null","","","null","48","NaN","","","","","","","","","","","","","","",""
"","S2","","html-keyboard-response","324","318117","0.0-1.0-436.0","0","0","78781","","null","","","null","48","","NaN","","","","","","","","","","","","","",""
"","response","","html-keyboard-response","325","318546","0.0-1.0-437.0-0.0","0","0","78781","","426","","","75","48","","","2","48","training","adjacent","BC","2","3","L.jpg","P.jpg","1","1","1","",""
"","feedback","","html-keyboard-response","326","319557","0.0-1.0-438.0-0.0","0","0","78781","","null","","","null","48","","","","","","","","","","","","","","","",""
"","ITI","","html-keyboard-response","327","320570","0.0-1.0-441.0","0","0","78781","","null","","","null","48","","","","","","","","","","","","","","","NaN",""
"","S1","","html-keyboard-response","328","320831","0.0-1.0-443.0","0","0","78781","","null","","","null","49","","","","","","","","","","","","","","","",""
"","ISI","","html-keyboard-response","329","321840","0.0-1.0-444.0","0","0","78781","","null","","","null","49","NaN","","","","","","","","","","","","","","",""
"","S2","","html-keyboard-response","330","322101","0.0-1.0-445.0","0","0","78781","","null","","","null","49","","NaN","","","","","","","","","","","","","",""
"","response","","html-keyboard-response","331","323060","0.0-1.0-446.0-0.0","0","0","78781","","956","","","75","49","","","2","49","training","adjacent","CD","3","4","P.jpg","N.jpg","1","1","1","",""
"","feedback","","html-keyboard-response","332","324069","0.0-1.0-447.0-0.0","0","0","78781","","null","","","null","49","","","","","","","","","","","","","","","",""
"","ITI","","html-keyboard-response","333","325083","0.0-1.0-450.0","0","0","78781","","null","","","null","49","","","","","","","","","","","","","","","NaN",""
"","S1","","html-keyboard-response","334","325344","0.0-1.0-452.0","0","0","78781","","null","","","null","50","","","","","","","","","","","","","","","",""
"","ISI","","html-keyboard-response","335","326350","0.0-1.0-453.0","0","0","78781","","null","","","null","50","NaN","","","","","","","","","","","","","","",""
"","S2","","html-keyboard-response","336","326607","0.0-1.0-454.0","0","0","78781","","null","","","null","50","","NaN","","","","","","","","","","","","","",""
"","response","","html-keyboard-response","337","326969","0.0-1.0-455.0-0.0","0","0","78781","","358","","","68","50","","","2","50","training","adjacent","FG","6","7","O.jpg","R.jpg","0","1","0","",""
"","feedback","","html-keyboard-response","338","327973","0.0-1.0-456.0-0.0","0","0","78781","","null","","","null","50","","","","","","","","","","","","","","","",""
"","time_out","","html-keyboard-response","339","329989","0.0-1.0-458.0-0.0","0","0","78781","","null","","","null","50","","","","","","","","","","","","","","","",""
"","ITI","","html-keyboard-response","340","330997","0.0-1.0-459.0","0","0","78781","","null","","","null","50","","","","","","","","","","","","","","","NaN",""
"","S1","","html-keyboard-response","341","331262","0.0-1.0-461.0","0","0","78781","","null","","","null","51","","","","","","","","","","","","","","","",""
"","ISI","","html-keyboard-response","342","332272","0.0-1.0-462.0","0","0","78781","","null","","","null","51","NaN","","","","","","","","","","","","","","",""
"","S2","","html-keyboard-response","343","332532","0.0-1.0-463.0","0","0","78781","","null","","","null","51","","NaN","","","","","","","","","","","","","",""
"","response","","html-keyboard-response","344","332959","0.0-1.0-464.0-0.0","0","0","78781","","424","","","75","51","","","2","51","training","adjacent","BA","2","1","L.jpg","Q.jpg","1","0","0","",""
"","feedback","","html-keyboard-response","345","333972","0.0-1.0-465.0-0.0","0","0","78781","","null","","","null","51","","","","","","","","","","","","","","","",""
"","time_out","","html-keyboard-response","346","335984","0.0-1.0-467.0-0.0","0","0","78781","","null","","","null","51","","","","","","","","","","","","","","","",""
"","ITI","","html-keyboard-response","347","336991","0.0-1.0-468.0","0","0","78781","","null","","","null","51","","","","","","","","","","","","","","","NaN",""
"","S1","","html-keyboard-response","348","337253","0.0-1.0-470.0","0","0","78781","","null","","","null","52","","","","","","","","","","","","","","","",""
"","ISI","","html-keyboard-response","349","338261","0.0-1.0-471.0","0","0","78781","","null","","","null","52","NaN","","","","","","","","","","","","","","",""
"","S2","","html-keyboard-response","350","338517","0.0-1.0-472.0","0","0","78781","","null","","","null","52","","NaN","","","","","","","","","","","","","",""
"","response","","html-keyboard-response","351","339541","0.0-1.0-473.0-0.0","0","0","78781","","1021","","","75","52","","","2","52","training","adjacent","DC","4","3","N.jpg","P.jpg","1","0","0","",""
"","feedback","","html-keyboard-response","352","340549","0.0-1.0-474.0-0.0","0","0","78781","","null","","","null","52","","","","","","","","","","","","","","","",""
"","time_out","","html-keyboard-response","353","342560","0.0-1.0-476.0-0.0","0","0","78781","","null","","","null","52","","","","","","","","","","","","","","","",""
"","ITI","","html-keyboard-response","354","343567","0.0-1.0-477.0","0","0","78781","","null","","","null","52","","","","","","","","","","","","","","","NaN",""
"","S1","","html-keyboard-response","355","343828","0.0-1.0-479.0","0","0","78781","","null","","","null","53","","","","","","","","","","","","","","","",""
"","ISI","","html-keyboard-response","356","344843","0.0-1.0-480.0","0","0","78781","","null","","","null","53","NaN","","","","","","","","","","","","","","",""
"","S2","","html-keyboard-response","357","345102","0.0-1.0-481.0","0","0","78781","","null","","","null","53","","NaN","","","","","","","","","","","","","",""
"","response","","html-keyboard-response","358","345522","0.0-1.0-482.0-0.0","0","0","78781","","418","","","68","53","","","2","53","training","adjacent","CB","3","2","P.jpg","L.jpg","0","0","1","",""
"","feedback","","html-keyboard-response","359","346532","0.0-1.0-483.0-0.0","0","0","78781","","null","","","null","53","","","","","","","","","","","","","","","",""
"","ITI","","html-keyboard-response","360","347540","0.0-1.0-486.0","0","0","78781","","null","","","null","53","","","","","","","","","","","","","","","NaN",""
"","S1","","html-keyboard-response","361","347796","0.0-1.0-488.0","0","0","78781","","null","","","null","54","","","","","","","","","","","","","","","",""
"","ISI","","html-keyboard-response","362","348805","0.0-1.0-489.0","0","0","78781","","null","","","null","54","NaN","","","","","","","","","","","","","","",""
"","S2","","html-keyboard-response","363","349061","0.0-1.0-490.0","0","0","78781","","null","","","null","54","","NaN","","","","","","","","","","","","","",""
"","response","","html-keyboard-response","364","349605","0.0-1.0-491.0-0.0","0","0","78781","","541","","","68","54","","","2","54","training","adjacent","BC","2","3","L.jpg","P.jpg","0","1","0","",""
"","feedback","","html-keyboard-response","365","350613","0.0-1.0-492.0-0.0","0","0","78781","","null","","","null","54","","","","","","","","","","","","","","","",""
"","time_out","","html-keyboard-response","366","352628","0.0-1.0-494.0-0.0","0","0","78781","","null","","","null","54","","","","","","","","","","","","","","","",""
"","ITI","","html-keyboard-response","367","353637","0.0-1.0-495.0","0","0","78781","","null","","","null","54","","","","","","","","","","","","","","","NaN",""
"","S1","","html-keyboard-response","368","353894","0.0-1.0-497.0","0","0","78781","","null","","","null","55","","","","","","","","","","","","","","","",""
"","ISI","","html-keyboard-response","369","354900","0.0-1.0-498.0","0","0","78781","","null","","","null","55","NaN","","","","","","","","","","","","","","",""
"","S2","","html-keyboard-response","370","355157","0.0-1.0-499.0","0","0","78781","","null","","","null","55","","NaN","","","","","","","","","","","","","",""
"","response","","html-keyboard-response","371","355823","0.0-1.0-500.0-0.0","0","0","78781","","663","","","68","55","","","2","55","training","adjacent","AB","1","2","Q.jpg","L.jpg","0","1","0","",""
"","feedback","","html-keyboard-response","372","356832","0.0-1.0-501.0-0.0","0","0","78781","","null","","","null","55","","","","","","","","","","","","","","","",""
"","time_out","","html-keyboard-response","373","358844","0.0-1.0-503.0-0.0","0","0","78781","","null","","","null","55","","","","","","","","","","","","","","","",""
"","ITI","","html-keyboard-response","374","359856","0.0-1.0-504.0","0","0","78781","","null","","","null","55","","","","","","","","","","","","","","","NaN",""
"","S1","","html-keyboard-response","375","360117","0.0-1.0-506.0","0","0","78781","","null","","","null","56","","","","","","","","","","","","","","","",""
"","ISI","","html-keyboard-response","376","361125","0.0-1.0-507.0","0","0","78781","","null","","","null","56","NaN","","","","","","","","","","","","","","",""
"","S2","","html-keyboard-response","377","361386","0.0-1.0-508.0","0","0","78781","","null","","","null","56","","NaN","","","","","","","","","","","","","",""
"","response","","html-keyboard-response","378","361947","0.0-1.0-509.0-0.0","0","0","78781","","558","","","75","56","","","2","56","training","adjacent","FG","6","7","O.jpg","R.jpg","1","1","1","",""
"","feedback","","html-keyboard-response","379","362958","0.0-1.0-510.0-0.0","0","0","78781","","null","","","null","56","","","","","","","","","","","","","","","",""
"","ITI","","html-keyboard-response","380","363968","0.0-1.0-513.0","0","0","78781","","null","","","null","56","","","","","","","","","","","","","","","NaN",""
"","S1","","html-keyboard-response","381","364229","0.0-1.0-515.0","0","0","78781","","null","","","null","57","","","","","","","","","","","","","","","",""
"","ISI","","html-keyboard-response","382","365236","0.0-1.0-516.0","0","0","78781","","null","","","null","57","NaN","","","","","","","","","","","","","","",""
"","S2","","html-keyboard-response","383","365493","0.0-1.0-517.0","0","0","78781","","null","","","null","57","","NaN","","","","","","","","","","","","","",""
"","response","","html-keyboard-response","384","365955","0.0-1.0-518.0-0.0","0","0","78781","","459","","","75","57","","","2","57","training","adjacent","DC","4","3","N.jpg","P.jpg","1","0","0","",""
"","feedback","","html-keyboard-response","385","366965","0.0-1.0-519.0-0.0","0","0","78781","","null","","","null","57","","","","","","","","","","","","","","","",""
"","time_out","","html-keyboard-response","386","368975","0.0-1.0-521.0-0.0","0","0","78781","","null","","","null","57","","","","","","","","","","","","","","","",""
"","ITI","","html-keyboard-response","387","369983","0.0-1.0-522.0","0","0","78781","","null","","","null","57","","","","","","","","","","","","","","","NaN",""
"","S1","","html-keyboard-response","388","370244","0.0-1.0-524.0","0","0","78781","","null","","","null","58","","","","","","","","","","","","","","","",""
"","ISI","","html-keyboard-response","389","371253","0.0-1.0-525.0","0","0","78781","","null","","","null","58","NaN","","","","","","","","","","","","","","",""
"","S2","","html-keyboard-response","390","371508","0.0-1.0-526.0","0","0","78781","","null","","","null","58","","NaN","","","","","","","","","","","","","",""
"","response","","html-keyboard-response","391","372075","0.0-1.0-527.0-0.0","0","0","78781","","565","","","75","58","","","2","58","training","adjacent","EF","5","6","M.jpg","O.jpg","1","1","1","",""
"","feedback","","html-keyboard-response","392","373087","0.0-1.0-528.0-0.0","0","0","78781","","null","","","null","58","","","","","","","","","","","","","","","",""
"","ITI","","html-keyboard-response","393","374094","0.0-1.0-531.0","0","0","78781","","null","","","null","58","","","","","","","","","","","","","","","NaN",""
"","S1","","html-keyboard-response","394","374352","0.0-1.0-533.0","0","0","78781","","null","","","null","59","","","","","","","","","","","","","","","",""
"","ISI","","html-keyboard-response","395","375365","0.0-1.0-534.0","0","0","78781","","null","","","null","59","NaN","","","","","","","","","","","","","","",""
"","S2","","html-keyboard-response","396","375621","0.0-1.0-535.0","0","0","78781","","null","","","null","59","","NaN","","","","","","","","","","","","","",""
"","response","","html-keyboard-response","397","376516","0.0-1.0-536.0-0.0","0","0","78781","","892","","","75","59","","","2","59","training","adjacent","AB","1","2","Q.jpg","L.jpg","1","1","1","",""
"","feedback","","html-keyboard-response","398","377524","0.0-1.0-537.0-0.0","0","0","78781","","null","","","null","59","","","","","","","","","","","","","","","",""
"","ITI","","html-keyboard-response","399","378532","0.0-1.0-540.0","0","0","78781","","null","","","null","59","","","","","","","","","","","","","","","NaN",""
"","S1","","html-keyboard-response","400","378798","0.0-1.0-542.0","0","0","78781","","null","","","null","60","","","","","","","","","","","","","","","",""
"","ISI","","html-keyboard-response","401","379807","0.0-1.0-543.0","0","0","78781","","null","","","null","60","NaN","","","","","","","","","","","","","","",""
"","S2","","html-keyboard-response","402","380063","0.0-1.0-544.0","0","0","78781","","null","","","null","60","","NaN","","","","","","","","","","","","","",""
"","response","","html-keyboard-response","403","380830","0.0-1.0-545.0-0.0","0","0","78781","","764","","","68","60","","","2","60","training","adjacent","GF","7","6","R.jpg","O.jpg","0","0","1","",""
"","feedback","","html-keyboard-response","404","381839","0.0-1.0-546.0-0.0","0","0","78781","","null","","","null","60","","","","","","","","","","","","","","","",""
"","ITI","","html-keyboard-response","405","382853","0.0-1.0-549.0","0","0","78781","","null","","","null","60","","","","","","","","","","","","","","","NaN",""
"","S1","","html-keyboard-response","406","383109","0.0-1.0-551.0","0","0","78781","","null","","","null","61","","","","","","","","","","","","","","","",""
"","ISI","","html-keyboard-response","407","384116","0.0-1.0-552.0","0","0","78781","","null","","","null","61","NaN","","","","","","","","","","","","","","",""
"","S2","","html-keyboard-response","408","384371","0.0-1.0-553.0","0","0","78781","","null","","","null","61","","NaN","","","","","","","","","","","","","",""
"","response","","html-keyboard-response","409","386133","0.0-1.0-554.0-0.0","0","0","78781","","null","","","null","61","","","2","61","training","adjacent","GF","7","6","R.jpg","O.jpg","NaN","0","0","",""
"","too_slow_prompt","","html-keyboard-response","410","387140","0.0-1.0-556.0-0.0","1","0","78781","","null","","","null","","","","","","","","","","","","","","","","",""
"","time_out","","html-keyboard-response","411","389151","0.0-1.0-557.0-0.0","0","0","78781","","null","","","null","61","","","","","","","","","","","","","","","",""
"","ITI","","html-keyboard-response","412","390159","0.0-1.0-558.0","0","0","78781","","null","","","null","61","","","","","","","","","","","","","","","NaN",""
"","S1","","html-keyboard-response","413","390421","0.0-1.0-560.0","0","0","78781","","null","","","null","62","","","","","","","","","","","","","","","",""
"","ISI","","html-keyboard-response","414","391433","0.0-1.0-561.0","0","0","78781","","582","","","68","62","d","","","","","","","","","","","","","","",""
"","S2","","html-keyboard-response","415","391694","0.0-1.0-562.0","0","0","78781","","null","","","null","62","","NaN","","","","","","","","","","","","","",""
"","response","","html-keyboard-response","416","392374","0.0-1.0-563.0-0.0","0","0","78781","","678","","","75","62","","","2","62","training","adjacent","FE","6","5","O.jpg","M.jpg","1","0","0","",""
"","feedback","","html-keyboard-response","417","393380","0.0-1.0-564.0-0.0","0","0","78781","","null","","","null","62","","","","","","","","","","","","","","","",""
"","time_out","","html-keyboard-response","418","395391","0.0-1.0-566.0-0.0","0","0","78781","","null","","","null","62","","","","","","","","","","","","","","","",""
"","ITI","","html-keyboard-response","419","396399","0.0-1.0-567.0","0","0","78781","","null","","","null","62","","","","","","","","","","","","","","","NaN",""
"","S1","","html-keyboard-response","420","396660","0.0-1.0-569.0","0","0","78781","","null","","","null","63","","","","","","","","","","","","","","","",""
"","ISI","","html-keyboard-response","421","397668","0.0-1.0-570.0","0","0","78781","","null","","","null","63","NaN","","","","","","","","","","","","","","",""
"","S2","","html-keyboard-response","422","397708","0.0-1.0-571.0","0","0","78781","","38","","","75","63","","k","2","63","training","adjacent","BA","2","1","L.jpg","Q.jpg","1","0","0","",""
"","feedback","","html-keyboard-response","423","398721","0.0-1.0-573.0-0.0","0","0","78781","","null","","","null","63","","","","","","","","","","","","","","","",""
"","time_out","","html-keyboard-response","424","400740","0.0-1.0-575.0-0.0","0","0","78781","","null","","","null","63","","","","","","","","","","","","","","","",""
"","ITI","","html-keyboard-response","425","401754","0.0-1.0-576.0","0","0","78781","","null","","","null","63","","","","","","","","","","","","","","","NaN",""
"","S1","","html-keyboard-response","426","402015","0.0-1.0-578.0","0","0","78781","","null","","","null","64","","","","","","","","","","","","","","","",""
"","ISI","","html-keyboard-response","427","403023","0.0-1.0-579.0","0","0","78781","","113","","","68","64","d","","","","","","","","","","","","","","",""
"","S2","","html-keyboard-response","428","403279","0.0-1.0-580.0","0","0","78781","","null","","","null","64","","NaN","","","","","","","","","","","","","",""
"","response","","html-keyboard-response","429","403319","0.0-1.0-581.0-0.0","0","0","78781","","39","","","68","64","","","2","64","training","adjacent","DC","4","3","N.jpg","P.jpg","0","0","1","",""
"","feedback","","html-keyboard-response","430","404324","0.0-1.0-582.0-0.0","0","0","78781","","null","","","null","64","","","","","","","","","","","","","","","",""
"","ITI","","html-keyboard-response","431","405339","0.0-1.0-585.0","0","0","78781","","null","","","null","64","","","","","","","","","","","","","","","NaN",""
"","S1","","html-keyboard-response","432","405599","0.0-1.0-587.0","0","0","78781","","null","","","null","65","","","","","","","","","","","","","","","",""
"","ISI","","html-keyboard-response","433","406611","0.0-1.0-588.0","0","0","78781","","null","","","null","65","NaN","","","","","","","","","","","","","","",""
"","S2","","html-keyboard-response","434","406868","0.0-1.0-589.0","0","0","78781","","null","","","null","65","","NaN","","","","","","","","","","","","","",""
"","response","","html-keyboard-response","435","407467","0.0-1.0-590.0-0.0","0","0","78781","","596","","","75","65","","","2","65","training","adjacent","FE","6","5","O.jpg","M.jpg","1","0","0","",""
"","feedback","","html-keyboard-response","436","408479","0.0-1.0-591.0-0.0","0","0","78781","","null","","","null","65","","","","","","","","","","","","","","","",""
"","time_out","","html-keyboard-response","437","410484","0.0-1.0-593.0-0.0","0","0","78781","","null","","","null","65","","","","","","","","","","","","","","","",""
"","ITI","","html-keyboard-response","438","411492","0.0-1.0-594.0","0","0","78781","","null","","","null","65","","","","","","","","","","","","","","","NaN",""
"","S1","","html-keyboard-response","439","411754","0.0-1.0-596.0","0","0","78781","","null","","","null","66","","","","","","","","","","","","","","","",""
"","ISI","","html-keyboard-response","440","412767","0.0-1.0-597.0","0","0","78781","","104","","","68","66","d","","","","","","","","","","","","","","",""
"","S2","","html-keyboard-response","441","413028","0.0-1.0-598.0","0","0","78781","","null","","","null","66","","NaN","","","","","","","","","","","","","",""
"","response","","html-keyboard-response","442","413052","0.0-1.0-599.0-0.0","0","0","78781","","22","","","68","66","","","2","66","training","adjacent","FG","6","7","O.jpg","R.jpg","0","1","0","",""
"","feedback","","html-keyboard-response","443","414063","0.0-1.0-600.0-0.0","0","0","78781","","null","","","null","66","","","","","","","","","","","","","","","",""
"","time_out","","html-keyboard-response","444","416068","0.0-1.0-602.0-0.0","0","0","78781","","null","","","null","66","","","","","","","","","","","","","","","",""
"","ITI","","html-keyboard-response","445","417085","0.0-1.0-603.0","0","0","78781","","null","","","null","66","","","","","","","","","","","","","","","NaN",""
"","S1","","html-keyboard-response","446","417343","0.0-1.0-605.0","0","0","78781","","null","","","null","67","","","","","","","","","","","","","","","",""
"","ISI","","html-keyboard-response","447","418351","0.0-1.0-606.0","0","0","78781","","167","","","75","67","k","","","","","","","","","","","","","","",""
"","S2","","html-keyboard-response","448","418590","0.0-1.0-607.0","0","0","78781","","237","","","75","67","","k","2","67","training","adjacent","DE","4","5","N.jpg","M.jpg","1","1","1","",""
"","feedback","","html-keyboard-response","449","419598","0.0-1.0-609.0-0.0","0","0","78781","","null","","","null","67","","","","","","","","","","","","","","","",""
"","ITI","","html-keyboard-response","450","420606","0.0-1.0-612.0","0","0","78781","","null","","","null","67","","","","","","","","","","","","","","","NaN",""
"","S1","","html-keyboard-response","451","420874","0.0-1.0-614.0","0","0","78781","","null","","","null","68","","","","","","","","","","","","","","","",""
"","ISI","","html-keyboard-response","452","421887","0.0-1.0-615.0","0","0","78781","","null","","","null","68","NaN","","","","","","","","","","","","","","",""
"","S2","","html-keyboard-response","453","422148","0.0-1.0-616.0","0","0","78781","","null","","","null","68","","NaN","","","","","","","","","","","","","",""
"","response","","html-keyboard-response","454","422501","0.0-1.0-617.0-0.0","0","0","78781","","350","","","68","68","","","2","68","training","adjacent","EF","5","6","M.jpg","O.jpg","0","1","0","",""
"","feedback","","html-keyboard-response","455","423508","0.0-1.0-618.0-0.0","0","0","78781","","null","","","null","68","","","","","","","","","","","","","","","",""
"","time_out","","html-keyboard-response","456","425519","0.0-1.0-620.0-0.0","0","0","78781","","null","","","null","68","","","","","","","","","","","","","","","",""
"","ITI","","html-keyboard-response","457","426525","0.0-1.0-621.0","0","0","78781","","null","","","null","68","","","","","","","","","","","","","","","NaN",""
"","S1","","html-keyboard-response","458","426783","0.0-1.0-623.0","0","0","78781","","null","","","null","69","","","","","","","","","","","","","","","",""
"","ISI","","html-keyboard-response","459","427791","0.0-1.0-624.0","0","0","78781","","null","","","null","69","NaN","","","","","","","","","","","","","","",""
"","S2","","html-keyboard-response","460","428052","0.0-1.0-625.0","0","0","78781","","null","","","null","69","","NaN","","","","","","","","","","","","","",""
"","response","","html-keyboard-response","461","428646","0.0-1.0-626.0-0.0","0","0","78781","","592","","","68","69","","","2","69","training","adjacent","BA","2","1","L.jpg","Q.jpg","0","0","1","",""
"","feedback","","html-keyboard-response","462","429653","0.0-1.0-627.0-0.0","0","0","78781","","null","","","null","69","","","","","","","","","","","","","","","",""
"","ITI","","html-keyboard-response","463","430665","0.0-1.0-630.0","0","0","78781","","null","","","null","69","","","","","","","","","","","","","","","NaN",""
"","S1","","html-keyboard-response","464","430926","0.0-1.0-632.0","0","0","78781","","null","","","null","70","","","","","","","","","","","","","","","",""
"","ISI","","html-keyboard-response","465","431933","0.0-1.0-633.0","0","0","78781","","null","","","null","70","NaN","","","","","","","","","","","","","","",""
"","S2","","html-keyboard-response","466","432191","0.0-1.0-634.0","0","0","78781","","null","","","null","70","","NaN","","","","","","","","","","","","","",""
"","response","","html-keyboard-response","467","433343","0.0-1.0-635.0-0.0","0","0","78781","","1149","","","75","70","","","2","70","training","adjacent","AB","1","2","Q.jpg","L.jpg","1","1","1","",""
"","feedback","","html-keyboard-response","468","434351","0.0-1.0-636.0-0.0","0","0","78781","","null","","","null","70","","","","","","","","","","","","","","","",""
"","ITI","","html-keyboard-response","469","435358","0.0-1.0-639.0","0","0","78781","","null","","","null","70","","","","","","","","","","","","","","","NaN",""
"","S1","","html-keyboard-response","470","435626","0.0-1.0-641.0","0","0","78781","","null","","","null","71","","","","","","","","","","","","","","","",""
"","ISI","","html-keyboard-response","471","436638","0.0-1.0-642.0","0","0","78781","","null","","","null","71","NaN","","","","","","","","","","","","","","",""
"","S2","","html-keyboard-response","472","436906","0.0-1.0-643.0","0","0","78781","","null","","","null","71","","NaN","","","","","","","","","","","","","",""
"","response","","html-keyboard-response","473","437330","0.0-1.0-644.0-0.0","0","0","78781","","421","","","75","71","","","2","71","training","adjacent","FE","6","5","O.jpg","M.jpg","1","0","0","",""
"","feedback","","html-keyboard-response","474","438340","0.0-1.0-645.0-0.0","0","0","78781","","null","","","null","71","","","","","","","","","","","","","","","",""
"","time_out","","html-keyboard-response","475","440351","0.0-1.0-647.0-0.0","0","0","78781","","null","","","null","71","","","","","","","","","","","","","","","",""
"","ITI","","html-keyboard-response","476","441359","0.0-1.0-648.0","0","0","78781","","null","","","null","71","","","","","","","","","","","","","","","NaN",""
"","S1","","html-keyboard-response","477","441620","0.0-1.0-650.0","0","0","78781","","null","","","null","72","","","","","","","","","","","","","","","",""
"","ISI","","html-keyboard-response","478","442634","0.0-1.0-651.0","0","0","78781","","null","","","null","72","NaN","","","","","","","","","","","","","","",""
"","S2","","html-keyboard-response","479","442894","0.0-1.0-652.0","0","0","78781","","null","","","null","72","","NaN","","","","","","","","","","","","","",""
"","response","","html-keyboard-response","480","443359","0.0-1.0-653.0-0.0","0","0","78781","","462","","","68","72","","","2","72","training","adjacent","CD","3","4","P.jpg","N.jpg","0","1","0","",""
"","feedback","","html-keyboard-response","481","444366","0.0-1.0-654.0-0.0","0","0","78781","","null","","","null","72","","","","","","","","","","","","","","","",""
"","time_out","","html-keyboard-response","482","446381","0.0-1.0-656.0-0.0","0","0","78781","","null","","","null","72","","","","","","","","","","","","","","","",""
"","ITI","","html-keyboard-response","483","447390","0.0-1.0-657.0","0","0","78781","","null","","","null","72","","","","","","","","","","","","","","","NaN",""
"","S1","","html-keyboard-response","484","447652","0.0-1.0-659.0","0","0","78781","","null","","","null","73","","","","","","","","","","","","","","","",""
"","ISI","","html-keyboard-response","485","448660","0.0-1.0-660.0","0","0","78781","","null","","","null","73","NaN","","","","","","","","","","","","","","",""
"","S2","","html-keyboard-response","486","448916","0.0-1.0-661.0","0","0","78781","","null","","","null","73","","NaN","","","","","","","","","","","","","",""
"","response","","html-keyboard-response","487","448965","0.0-1.0-662.0-0.0","0","0","78781","","46","","","75","73","","","2","73","training","adjacent","ED","5","4","M.jpg","N.jpg","1","0","0","",""
"","feedback","","html-keyboard-response","488","449972","0.0-1.0-663.0-0.0","0","0","78781","","null","","","null","73","","","","","","","","","","","","","","","",""
"","time_out","","html-keyboard-response","489","451983","0.0-1.0-665.0-0.0","0","0","78781","","null","","","null","73","","","","","","","","","","","","","","","",""
"","ITI","","html-keyboard-response","490","452991","0.0-1.0-666.0","0","0","78781","","null","","","null","73","","","","","","","","","","","","","","","NaN",""
"","S1","","html-keyboard-response","491","453252","0.0-1.0-668.0","0","0","78781","","null","","","null","74","","","","","","","","","","","","","","","",""
"","ISI","","html-keyboard-response","492","454260","0.0-1.0-669.0","0","0","78781","","null","","","null","74","NaN","","","","","","","","","","","","","","",""
"","S2","","html-keyboard-response","493","454516","0.0-1.0-670.0","0","0","78781","","null","","","null","74","","NaN","","","","","","","","","","","","","",""
"","response","","html-keyboard-response","494","454864","0.0-1.0-671.0-0.0","0","0","78781","","346","","","68","74","","","2","74","training","adjacent","FE","6","5","O.jpg","M.jpg","0","0","1","",""
"","feedback","","html-keyboard-response","495","455875","0.0-1.0-672.0-0.0","0","0","78781","","null","","","null","74","","","","","","","","","","","","","","","",""
"","ITI","","html-keyboard-response","496","456884","0.0-1.0-675.0","0","0","78781","","null","","","null","74","","","","","","","","","","","","","","","NaN",""
"","S1","","html-keyboard-response","497","457140","0.0-1.0-677.0","0","0","78781","","null","","","null","75","","","","","","","","","","","","","","","",""
"","ISI","","html-keyboard-response","498","458148","0.0-1.0-678.0","0","0","78781","","null","","","null","75","NaN","","","","","","","","","","","","","","",""
"","S2","","html-keyboard-response","499","458404","0.0-1.0-679.0","0","0","78781","","null","","","null","75","","NaN","","","","","","","","","","","","","",""
"","response","","html-keyboard-response","500","459235","0.0-1.0-680.0-0.0","0","0","78781","","829","","","75","75","","","2","75","training","adjacent","DE","4","5","N.jpg","M.jpg","1","1","1","",""
"","feedback","","html-keyboard-response","501","460244","0.0-1.0-681.0-0.0","0","0","78781","","null","","","null","75","","","","","","","","","","","","","","","",""
"","ITI","","html-keyboard-response","502","461252","0.0-1.0-684.0","0","0","78781","","null","","","null","75","","","","","","","","","","","","","","","NaN",""
"","S1","","html-keyboard-response","503","461508","0.0-1.0-686.0","0","0","78781","","null","","","null","76","","","","","","","","","","","","","","","",""
"","ISI","","html-keyboard-response","504","462516","0.0-1.0-687.0","0","0","78781","","null","","","null","76","NaN","","","","","","","","","","","","","","",""
"","S2","","html-keyboard-response","505","462772","0.0-1.0-688.0","0","0","78781","","null","","","null","76","","NaN","","","","","","","","","","","","","",""
"","response","","html-keyboard-response","506","463380","0.0-1.0-689.0-0.0","0","0","78781","","605","","","68","76","","","2","76","training","adjacent","EF","5","6","M.jpg","O.jpg","0","1","0","",""
"","feedback","","html-keyboard-response","507","464388","0.0-1.0-690.0-0.0","0","0","78781","","null","","","null","76","","","","","","","","","","","","","","","",""
"","time_out","","html-keyboard-response","508","466398","0.0-1.0-692.0-0.0","0","0","78781","","null","","","null","76","","","","","","","","","","","","","","","",""
"","ITI","","html-keyboard-response","509","467406","0.0-1.0-693.0","0","0","78781","","null","","","null","76","","","","","","","","","","","","","","","NaN",""
"","S1","","html-keyboard-response","510","467667","0.0-1.0-695.0","0","0","78781","","null","","","null","77","","","","","","","","","","","","","","","",""
"","ISI","","html-keyboard-response","511","468676","0.0-1.0-696.0","0","0","78781","","null","","","null","77","NaN","","","","","","","","","","","","","","",""
"","S2","","html-keyboard-response","512","468931","0.0-1.0-697.0","0","0","78781","","null","","","null","77","","NaN","","","","","","","","","","","","","",""
"","response","","html-keyboard-response","513","469293","0.0-1.0-698.0-0.0","0","0","78781","","359","","","75","77","","","2","77","training","adjacent","GF","7","6","R.jpg","O.jpg","1","0","0","",""
"","feedback","","html-keyboard-response","514","470301","0.0-1.0-699.0-0.0","0","0","78781","","null","","","null","77","","","","","","","","","","","","","","","",""
"","time_out","","html-keyboard-response","515","472308","0.0-1.0-701.0-0.0","0","0","78781","","null","","","null","77","","","","","","","","","","","","","","","",""
"","ITI","","html-keyboard-response","516","473316","0.0-1.0-702.0","0","0","78781","","null","","","null","77","","","","","","","","","","","","","","","NaN",""
"","S1","","html-keyboard-response","517","473571","0.0-1.0-704.0","0","0","78781","","null","","","null","78","","","","","","","","","","","","","","","",""
"","ISI","","html-keyboard-response","518","474580","0.0-1.0-705.0","0","0","78781","","null","","","null","78","NaN","","","","","","","","","","","","","","",""
"","S2","","html-keyboard-response","519","474842","0.0-1.0-706.0","0","0","78781","","null","","","null","78","","NaN","","","","","","","","","","","","","",""
"","response","","html-keyboard-response","520","475545","0.0-1.0-707.0-0.0","0","0","78781","","701","","","68","78","","","2","78","training","adjacent","CD","3","4","P.jpg","N.jpg","0","1","0","",""
"","feedback","","html-keyboard-response","521","476558","0.0-1.0-708.0-0.0","0","0","78781","","null","","","null","78","","","","","","","","","","","","","","","",""
"","time_out","","html-keyboard-response","522","478564","0.0-1.0-710.0-0.0","0","0","78781","","null","","","null","78","","","","","","","","","","","","","","","",""
"","ITI","","html-keyboard-response","523","479572","0.0-1.0-711.0","0","0","78781","","null","","","null","78","","","","","","","","","","","","","","","NaN",""
"","S1","","html-keyboard-response","524","479827","0.0-1.0-713.0","0","0","78781","","null","","","null","79","","","","","","","","","","","","","","","",""
"","ISI","","html-keyboard-response","525","480835","0.0-1.0-714.0","0","0","78781","","null","","","null","79","NaN","","","","","","","","","","","","","","",""
"","S2","","html-keyboard-response","526","481091","0.0-1.0-715.0","0","0","78781","","null","","","null","79","","NaN","","","","","","","","","","","","","",""
"","response","","html-keyboard-response","527","481554","0.0-1.0-716.0-0.0","0","0","78781","","460","","","75","79","","","2","79","training","adjacent","FG","6","7","O.jpg","R.jpg","1","1","1","",""
"","feedback","","html-keyboard-response","528","482564","0.0-1.0-717.0-0.0","0","0","78781","","null","","","null","79","","","","","","","","","","","","","","","",""
"","ITI","","html-keyboard-response","529","483572","0.0-1.0-720.0","0","0","78781","","null","","","null","79","","","","","","","","","","","","","","","NaN",""
"","S1","","html-keyboard-response","530","483829","0.0-1.0-722.0","0","0","78781","","null","","","null","80","","","","","","","","","","","","","","","",""
"","ISI","","html-keyboard-response","531","484836","0.0-1.0-723.0","0","0","78781","","null","","","null","80","NaN","","","","","","","","","","","","","","",""
"","S2","","html-keyboard-response","532","485093","0.0-1.0-724.0","0","0","78781","","null","","","null","80","","NaN","","","","","","","","","","","","","",""
"","response","","html-keyboard-response","533","485864","0.0-1.0-725.0-0.0","0","0","78781","","769","","","75","80","","","2","80","training","adjacent","BC","2","3","L.jpg","P.jpg","1","1","1","",""
"","feedback","","html-keyboard-response","534","486878","0.0-1.0-726.0-0.0","0","0","78781","","null","","","null","80","","","","","","","","","","","","","","","",""
"","ITI","","html-keyboard-response","535","487886","0.0-1.0-729.0","0","0","78781","","null","","","null","80","","","","","","","","","","","","","","","NaN",""
"","S1","","html-keyboard-response","536","488148","0.0-1.0-731.0","0","0","78781","","null","","","null","81","","","","","","","","","","","","","","","",""
"","ISI","","html-keyboard-response","537","489155","0.0-1.0-732.0","0","0","78781","","null","","","null","81","NaN","","","","","","","","","","","","","","",""
"","S2","","html-keyboard-response","538","489412","0.0-1.0-733.0","0","0","78781","","null","","","null","81","","NaN","","","","","","","","","","","","","",""
"","response","","html-keyboard-response","539","490151","0.0-1.0-734.0-0.0","0","0","78781","","736","","","75","81","","","2","81","training","adjacent","DE","4","5","N.jpg","M.jpg","1","1","1","",""
"","feedback","","html-keyboard-response","540","491166","0.0-1.0-735.0-0.0","0","0","78781","","null","","","null","81","","","","","","","","","","","","","","","",""
"","ITI","","html-keyboard-response","541","492174","0.0-1.0-738.0","0","0","78781","","724","","","75","81","","","","","","","","","","","","","","","k",""
"","S1","","html-keyboard-response","542","492435","0.0-1.0-740.0","0","0","78781","","null","","","null","82","","","","","","","","","","","","","","","",""
"","ISI","","html-keyboard-response","543","493443","0.0-1.0-741.0","0","0","78781","","null","","","null","82","NaN","","","","","","","","","","","","","","",""
"","S2","","html-keyboard-response","544","493699","0.0-1.0-742.0","0","0","78781","","null","","","null","82","","NaN","","","","","","","","","","","","","",""
"","response","","html-keyboard-response","545","494258","0.0-1.0-743.0-0.0","0","0","78781","","556","","","75","82","","","2","82","training","adjacent","GF","7","6","R.jpg","O.jpg","1","0","0","",""
"","feedback","","html-keyboard-response","546","495266","0.0-1.0-744.0-0.0","0","0","78781","","null","","","null","82","","","","","","","","","","","","","","","",""
"","time_out","","html-keyboard-response","547","497278","0.0-1.0-746.0-0.0","0","0","78781","","null","","","null","82","","","","","","","","","","","","","","","",""
"","ITI","","html-keyboard-response","548","498284","0.0-1.0-747.0","0","0","78781","","null","","","null","82","","","","","","","","","","","","","","","NaN",""
"","S1","","html-keyboard-response","549","498542","0.0-1.0-749.0","0","0","78781","","null","","","null","83","","","","","","","","","","","","","","","",""
"","ISI","","html-keyboard-response","550","499548","0.0-1.0-750.0","0","0","78781","","null","","","null","83","NaN","","","","","","","","","","","","","","",""
"","S2","","html-keyboard-response","551","499807","0.0-1.0-751.0","0","0","78781","","null","","","null","83","","NaN","","","","","","","","","","","","","",""
"","response","","html-keyboard-response","552","500451","0.0-1.0-752.0-0.0","0","0","78781","","641","","","75","83","","","2","83","training","adjacent","DE","4","5","N.jpg","M.jpg","1","1","1","",""
"","feedback","","html-keyboard-response","553","501462","0.0-1.0-753.0-0.0","0","0","78781","","null","","","null","83","","","","","","","","","","","","","","","",""
"","ITI","","html-keyboard-response","554","502468","0.0-1.0-756.0","0","0","78781","","null","","","null","83","","","","","","","","","","","","","","","NaN",""
"","S1","","html-keyboard-response","555","502723","0.0-1.0-758.0","0","0","78781","","null","","","null","84","","","","","","","","","","","","","","","",""
"","ISI","","html-keyboard-response","556","503731","0.0-1.0-759.0","0","0","78781","","null","","","null","84","NaN","","","","","","","","","","","","","","",""
"","S2","","html-keyboard-response","557","503993","0.0-1.0-760.0","0","0","78781","","null","","","null","84","","NaN","","","","","","","","","","","","","",""
"","response","","html-keyboard-response","558","505311","0.0-1.0-761.0-0.0","0","0","78781","","1315","","","68","84","","","2","84","training","adjacent","CB","3","2","P.jpg","L.jpg","0","0","1","",""
"","feedback","","html-keyboard-response","559","506318","0.0-1.0-762.0-0.0","0","0","78781","","null","","","null","84","","","","","","","","","","","","","","","",""
"","ITI","","html-keyboard-response","560","507325","0.0-1.0-765.0","0","0","78781","","null","","","null","84","","","","","","","","","","","","","","","NaN",""
"","S1","","html-keyboard-response","561","507581","0.0-1.0-767.0","0","0","78781","","null","","","null","85","","","","","","","","","","","","","","","",""
"","ISI","","html-keyboard-response","562","508590","0.0-1.0-768.0","0","0","78781","","null","","","null","85","NaN","","","","","","","","","","","","","","",""
"","S2","","html-keyboard-response","563","508852","0.0-1.0-769.0","0","0","78781","","null","","","null","85","","NaN","","","","","","","","","","","","","",""
"","response","","html-keyboard-response","564","509557","0.0-1.0-770.0-0.0","0","0","78781","","703","","","68","85","","","2","85","training","adjacent","ED","5","4","M.jpg","N.jpg","0","0","1","",""
"","feedback","","html-keyboard-response","565","510568","0.0-1.0-771.0-0.0","0","0","78781","","null","","","null","85","","","","","","","","","","","","","","","",""
"","ITI","","html-keyboard-response","566","511588","0.0-1.0-774.0","0","0","78781","","null","","","null","85","","","","","","","","","","","","","","","NaN",""
"","S1","","html-keyboard-response","567","511844","0.0-1.0-776.0","0","0","78781","","null","","","null","86","","","","","","","","","","","","","","","",""
"","ISI","","html-keyboard-response","568","512852","0.0-1.0-777.0","0","0","78781","","null","","","null","86","NaN","","","","","","","","","","","","","","",""
"","S2","","html-keyboard-response","569","513115","0.0-1.0-778.0","0","0","78781","","null","","","null","86","","NaN","","","","","","","","","","","","","",""
"","response","","html-keyboard-response","570","513845","0.0-1.0-779.0-0.0","0","0","78781","","727","","","68","86","","","2","86","training","adjacent","CB","3","2","P.jpg","L.jpg","0","0","1","",""
"","feedback","","html-keyboard-response","571","514851","0.0-1.0-780.0-0.0","0","0","78781","","null","","","null","86","","","","","","","","","","","","","","","",""
"","ITI","","html-keyboard-response","572","515864","0.0-1.0-783.0","0","0","78781","","null","","","null","86","","","","","","","","","","","","","","","NaN",""
"","S1","","html-keyboard-response","573","516126","0.0-1.0-785.0","0","0","78781","","null","","","null","87","","","","","","","","","","","","","","","",""
"","ISI","","html-keyboard-response","574","517134","0.0-1.0-786.0","0","0","78781","","null","","","null","87","NaN","","","","","","","","","","","","","","",""
"","S2","","html-keyboard-response","575","517395","0.0-1.0-787.0","0","0","78781","","null","","","null","87","","NaN","","","","","","","","","","","","","",""
"","response","","html-keyboard-response","576","517951","0.0-1.0-788.0-0.0","0","0","78781","","553","","","68","87","","","2","87","training","adjacent","ED","5","4","M.jpg","N.jpg","0","0","1","",""
"","feedback","","html-keyboard-response","577","518956","0.0-1.0-789.0-0.0","0","0","78781","","null","","","null","87","","","","","","","","","","","","","","","",""
"","ITI","","html-keyboard-response","578","519966","0.0-1.0-792.0","0","0","78781","","null","","","null","87","","","","","","","","","","","","","","","NaN",""
"","S1","","html-keyboard-response","579","520228","0.0-1.0-794.0","0","0","78781","","null","","","null","88","","","","","","","","","","","","","","","",""
