"success","ttype","start_time","trial_type","trial_index","time_elapsed","internal_node_id","warning","missed_checkup","PID","view_history","rt","responses","repeat_instructions","key_press","index","keypress_isi","keypress_S2","block","trial_num","phase","group_type","pair_type","S1_stim","S2_stim","S1_img","S2_img","S1_chosen","S1_higher","accuracy","keypress_iti","total_bonus_tally"
"true","full_screen","d03032023hr2014","fullscreen","0","14842","0.0-0.0","0","0","86282","","","","","","","","","","","","","","","","","","","","","",""
"","instructions","","instructions","1","59078","0.0-1.0-0.0-0.0","0","0","86282","[{""page_index"":0,""viewing_time"":6395},{""page_index"":1,""viewing_time"":31531},{""page_index"":2,""viewing_time"":4239},{""page_index"":3,""viewing_time"":2055}]","44222","","","","","","","","","","","","","","","","","","","",""
"","comprehension_check","","survey-multi-choice","2","76466","0.0-1.0-0.0-1.0","0","0","86282","","17370","{""Q0"":""True"",""Q1"":""D"",""Q2"":""Only when the screen 'MAKE A CHOICE' is shown"",""Q3"":""Green mark"",""Q4"":""either D or K""}","1","","","","","","","","","","","","","","","","","",""
"","missed_instruction_checkup","","html-keyboard-response","3","79962","0.0-1.0-0.0-2.0-0.0","0","1","86282","","3485","","","32","","","","","","","","","","","","","","","","",""
"","instructions","","instructions","4","108404","0.0-1.0-0.1-0.1","0","0","86282","[{""page_index"":0,""viewing_time"":2407},{""page_index"":1,""viewing_time"":17602},{""page_index"":2,""viewing_time"":6675},{""page_index"":3,""viewing_time"":1744}]","28429","","","","","","","","","","","","","","","","","","","",""
"","comprehension_check","","survey-multi-choice","5","126472","0.0-1.0-0.1-1.1","0","0","86282","","18051","{""Q0"":""True"",""Q1"":""D"",""Q2"":""Only when the screen 'MAKE A CHOICE' is shown"",""Q3"":""Green mark"",""Q4"":""either D or K""}","1","","","","","","","","","","","","","","","","","",""
"","missed_instruction_checkup","","html-keyboard-response","6","127549","0.0-1.0-0.1-2.1-0.1","0","1","86282","","1069","","","32","","","","","","","","","","","","","","","","",""
"","instructions","","instructions","7","142481","0.0-1.0-0.2-0.2","0","0","86282","[{""page_index"":0,""viewing_time"":2255},{""page_index"":1,""viewing_time"":6429},{""page_index"":2,""viewing_time"":4982},{""page_index"":3,""viewing_time"":1244}]","14912","","","","","","","","","","","","","","","","","","","",""
"","comprehension_check","","survey-multi-choice","8","158366","0.0-1.0-0.2-1.2","0","0","86282","","15862","{""Q0"":""True"",""Q1"":""D"",""Q2"":""Once the second image appears and while the screen 'MAKE A CHOICE' is shown"",""Q3"":""Green mark"",""Q4"":""either D or K""}","0","","","","","","","","","","","","","","","","","",""
"","start_exp","","html-keyboard-response","9","161153","0.0-1.0-1.0","0","0","86282","","2776","","","32","","","","","","","","","","","","","","","","",""
"","S1","","html-keyboard-response","10","161412","0.0-1.0-2.0","0","0","86282","","null","","","null","0","","","","","","","","","","","","","","","",""
"","ISI","","html-keyboard-response","11","161916","0.0-1.0-3.0","0","0","86282","","null","","","null","0","NaN","","","","","","","","","","","","","","",""
"","S2","","html-keyboard-response","12","162173","0.0-1.0-4.0","0","0","86282","","null","","","null","0","","NaN","","","","","","","","","","","","","",""
"","response","","html-keyboard-response","13","162983","0.0-1.0-5.0-0.0","0","0","86282","","802","","","68","0","","","1","0","training","adjacent","DC","4","3","Q.jpg","R.jpg","1","0","0","",""
"","feedback","","html-keyboard-response","14","163990","0.0-1.0-6.0-0.0","0","0","86282","","null","","","null","0","","","","","","","","","","","","","","","",""
"","time_out","","html-keyboard-response","15","166010","0.0-1.0-8.0-0.0","0","0","86282","","null","","","null","0","","","","","","","","","","","","","","","",""
"","ITI","","html-keyboard-response","16","167018","0.0-1.0-9.0","0","0","86282","","null","","","null","0","","","","","","","","","","","","","","","NaN",""
"","S1","","html-keyboard-response","17","167275","0.0-1.0-11.0","0","0","86282","","null","","","null","1","","","","","","","","","","","","","","","",""
"","ISI","","html-keyboard-response","18","167780","0.0-1.0-12.0","0","0","86282","","null","","","null","1","NaN","","","","","","","","","","","","","","",""
"","S2","","html-keyboard-response","19","168035","0.0-1.0-13.0","0","0","86282","","null","","","null","1","","NaN","","","","","","","","","","","","","",""
"","response","","html-keyboard-response","20","168137","0.0-1.0-14.0-0.0","0","0","86282","","96","","","75","1","","","1","1","training","adjacent","DE","4","5","Q.jpg","M.jpg","0","1","0","",""
"","feedback","","html-keyboard-response","21","169142","0.0-1.0-15.0-0.0","0","0","86282","","null","","","null","1","","","","","","","","","","","","","","","",""
"","time_out","","html-keyboard-response","22","171150","0.0-1.0-17.0-0.0","0","0","86282","","null","","","null","1","","","","","","","","","","","","","","","",""
"","ITI","","html-keyboard-response","23","172156","0.0-1.0-18.0","0","0","86282","","null","","","null","1","","","","","","","","","","","","","","","NaN",""
"","S1","","html-keyboard-response","24","172413","0.0-1.0-20.0","0","0","86282","","null","","","null","2","","","","","","","","","","","","","","","",""
"","ISI","","html-keyboard-response","25","172919","0.0-1.0-21.0","0","0","86282","","null","","","null","2","NaN","","","","","","","","","","","","","","",""
"","S2","","html-keyboard-response","26","173309","0.0-1.0-22.0","0","0","86282","","null","","","null","2","","NaN","","","","","","","","","","","","","",""
"","response","","html-keyboard-response","27","173327","0.0-1.0-23.0-0.0","0","0","86282","","9","","","68","2","","","1","2","training","adjacent","AB","1","2","L.jpg","O.jpg","1","1","1","",""
"","feedback","","html-keyboard-response","28","174335","0.0-1.0-24.0-0.0","0","0","86282","","null","","","null","2","","","","","","","","","","","","","","","",""
"","ITI","","html-keyboard-response","29","175343","0.0-1.0-27.0","0","0","86282","","null","","","null","2","","","","","","","","","","","","","","","NaN",""
"","S1","","html-keyboard-response","30","175612","0.0-1.0-29.0","0","0","86282","","null","","","null","3","","","","","","","","","","","","","","","",""
"","ISI","","html-keyboard-response","31","176117","0.0-1.0-30.0","0","0","86282","","null","","","null","3","NaN","","","","","","","","","","","","","","",""
"","S2","","html-keyboard-response","32","176374","0.0-1.0-31.0","0","0","86282","","null","","","null","3","","NaN","","","","","","","","","","","","","",""
"","response","","html-keyboard-response","33","177106","0.0-1.0-32.0-0.0","0","0","86282","","724","","","75","3","","","1","3","training","adjacent","CD","3","4","R.jpg","Q.jpg","0","1","0","",""
"","feedback","","html-keyboard-response","34","178114","0.0-1.0-33.0-0.0","0","0","86282","","null","","","null","3","","","","","","","","","","","","","","","",""
"","time_out","","html-keyboard-response","35","180207","0.0-1.0-35.0-0.0","0","0","86282","","null","","","null","3","","","","","","","","","","","","","","","",""
"","ITI","","html-keyboard-response","36","181219","0.0-1.0-36.0","0","0","86282","","null","","","null","3","","","","","","","","","","","","","","","NaN",""
"","S1","","html-keyboard-response","37","181476","0.0-1.0-38.0","0","0","86282","","null","","","null","4","","","","","","","","","","","","","","","",""
"","ISI","","html-keyboard-response","38","181990","0.0-1.0-39.0","0","0","86282","","null","","","null","4","NaN","","","","","","","","","","","","","","",""
"","S2","","html-keyboard-response","39","182229","0.0-1.0-40.0","0","0","86282","","235","","","68","4","","d","1","4","training","adjacent","BC","2","3","O.jpg","R.jpg","1","1","1","",""
"","feedback","","html-keyboard-response","40","183236","0.0-1.0-42.0-0.0","0","0","86282","","null","","","null","4","","","","","","","","","","","","","","","",""
"","ITI","","html-keyboard-response","41","184245","0.0-1.0-45.0","0","0","86282","","null","","","null","4","","","","","","","","","","","","","","","NaN",""
"","S1","","html-keyboard-response","42","184502","0.0-1.0-47.0","0","0","86282","","null","","","null","5","","","","","","","","","","","","","","","",""
"","ISI","","html-keyboard-response","43","185007","0.0-1.0-48.0","0","0","86282","","null","","","null","5","NaN","","","","","","","","","","","","","","",""
"","S2","","html-keyboard-response","44","185263","0.0-1.0-49.0","0","0","86282","","null","","","null","5","","NaN","","","","","","","","","","","","","",""
"","response","","html-keyboard-response","45","185318","0.0-1.0-50.0-0.0","0","0","86282","","49","","","68","5","","","1","5","training","adjacent","AB","1","2","L.jpg","O.jpg","1","1","1","",""
"","feedback","","html-keyboard-response","46","186324","0.0-1.0-51.0-0.0","0","0","86282","","null","","","null","5","","","","","","","","","","","","","","","",""
"","ITI","","html-keyboard-response","47","187401","0.0-1.0-54.0","0","0","86282","","null","","","null","5","","","","","","","","","","","","","","","NaN",""
"","S1","","html-keyboard-response","48","187656","0.0-1.0-56.0","0","0","86282","","null","","","null","6","","","","","","","","","","","","","","","",""
"","ISI","","html-keyboard-response","49","188162","0.0-1.0-57.0","0","0","86282","","null","","","null","6","NaN","","","","","","","","","","","","","","",""
"","S2","","html-keyboard-response","50","188419","0.0-1.0-58.0","0","0","86282","","null","","","null","6","","NaN","","","","","","","","","","","","","",""
"","response","","html-keyboard-response","51","189420","0.0-1.0-59.0-0.0","0","0","86282","","997","","","75","6","","","1","6","training","adjacent","EF","5","6","M.jpg","N.jpg","0","1","0","",""
"","feedback","","html-keyboard-response","52","190428","0.0-1.0-60.0-0.0","0","0","86282","","null","","","null","6","","","","","","","","","","","","","","","",""
"","time_out","","html-keyboard-response","53","192446","0.0-1.0-62.0-0.0","0","0","86282","","null","","","null","6","","","","","","","","","","","","","","","",""
"","ITI","","html-keyboard-response","54","193467","0.0-1.0-63.0","0","0","86282","","null","","","null","6","","","","","","","","","","","","","","","NaN",""
"","S1","","html-keyboard-response","55","193726","0.0-1.0-65.0","0","0","86282","","null","","","null","7","","","","","","","","","","","","","","","",""
"","ISI","","html-keyboard-response","56","194239","0.0-1.0-66.0","0","0","86282","","null","","","null","7","NaN","","","","","","","","","","","","","","",""
"","S2","","html-keyboard-response","57","194495","0.0-1.0-67.0","0","0","86282","","null","","","null","7","","NaN","","","","","","","","","","","","","",""
"","response","","html-keyboard-response","58","195268","0.0-1.0-68.0-0.0","0","0","86282","","769","","","75","7","","","1","7","training","adjacent","ED","5","4","M.jpg","Q.jpg","0","0","1","",""
"","feedback","","html-keyboard-response","59","196292","0.0-1.0-69.0-0.0","0","0","86282","","null","","","null","7","","","","","","","","","","","","","","","",""
"","ITI","","html-keyboard-response","60","197304","0.0-1.0-72.0","0","0","86282","","null","","","null","7","","","","","","","","","","","","","","","NaN",""
"","S1","","html-keyboard-response","61","197597","0.0-1.0-74.0","0","0","86282","","null","","","null","8","","","","","","","","","","","","","","","",""
"","ISI","","html-keyboard-response","62","198102","0.0-1.0-75.0","0","0","86282","","null","","","null","8","NaN","","","","","","","","","","","","","","",""
"","S2","","html-keyboard-response","63","198358","0.0-1.0-76.0","0","0","86282","","null","","","null","8","","NaN","","","","","","","","","","","","","",""
"","response","","html-keyboard-response","64","199078","0.0-1.0-77.0-0.0","0","0","86282","","715","","","75","8","","","1","8","training","adjacent","DE","4","5","Q.jpg","M.jpg","0","1","0","",""
"","feedback","","html-keyboard-response","65","200087","0.0-1.0-78.0-0.0","0","0","86282","","null","","","null","8","","","","","","","","","","","","","","","",""
"","time_out","","html-keyboard-response","66","202097","0.0-1.0-80.0-0.0","0","0","86282","","null","","","null","8","","","","","","","","","","","","","","","",""
"","ITI","","html-keyboard-response","67","203113","0.0-1.0-81.0","0","0","86282","","null","","","null","8","","","","","","","","","","","","","","","NaN",""
"","S1","","html-keyboard-response","68","203371","0.0-1.0-83.0","0","0","86282","","null","","","null","9","","","","","","","","","","","","","","","",""
"","ISI","","html-keyboard-response","69","203878","0.0-1.0-84.0","0","0","86282","","null","","","null","9","NaN","","","","","","","","","","","","","","",""
"","S2","","html-keyboard-response","70","204134","0.0-1.0-85.0","0","0","86282","","null","","","null","9","","NaN","","","","","","","","","","","","","",""
"","response","","html-keyboard-response","71","204958","0.0-1.0-86.0-0.0","0","0","86282","","817","","","68","9","","","1","9","training","adjacent","DE","4","5","Q.jpg","M.jpg","1","1","1","",""
"","feedback","","html-keyboard-response","72","205964","0.0-1.0-87.0-0.0","0","0","86282","","null","","","null","9","","","","","","","","","","","","","","","",""
"","ITI","","html-keyboard-response","73","206974","0.0-1.0-90.0","0","0","86282","","null","","","null","9","","","","","","","","","","","","","","","NaN",""
"","S1","","html-keyboard-response","74","207229","0.0-1.0-92.0","0","0","86282","","null","","","null","10","","","","","","","","","","","","","","","",""
"","ISI","","html-keyboard-response","75","207734","0.0-1.0-93.0","0","0","86282","","null","","","null","10","NaN","","","","","","","","","","","","","","",""
"","S2","","html-keyboard-response","76","207996","0.0-1.0-94.0","0","0","86282","","null","","","null","10","","NaN","","","","","","","","","","","","","",""
"","response","","html-keyboard-response","77","208796","0.0-1.0-95.0-0.0","0","0","86282","","794","","","75","10","","","1","10","training","adjacent","BC","2","3","O.jpg","R.jpg","0","1","0","",""
"","feedback","","html-keyboard-response","78","209804","0.0-1.0-96.0-0.0","0","0","86282","","null","","","null","10","","","","","","","","","","","","","","","",""
"","time_out","","html-keyboard-response","79","211810","0.0-1.0-98.0-0.0","0","0","86282","","null","","","null","10","","","","","","","","","","","","","","","",""
"","ITI","","html-keyboard-response","80","212816","0.0-1.0-99.0","0","0","86282","","null","","","null","10","","","","","","","","","","","","","","","NaN",""
"","S1","","html-keyboard-response","81","213073","0.0-1.0-101.0","0","0","86282","","null","","","null","11","","","","","","","","","","","","","","","",""
"","ISI","","html-keyboard-response","82","213578","0.0-1.0-102.0","0","0","86282","","null","","","null","11","NaN","","","","","","","","","","","","","","",""
"","S2","","html-keyboard-response","83","213837","0.0-1.0-103.0","0","0","86282","","null","","","null","11","","NaN","","","","","","","","","","","","","",""
"","response","","html-keyboard-response","84","214648","0.0-1.0-104.0-0.0","0","0","86282","","804","","","68","11","","","1","11","training","adjacent","DC","4","3","Q.jpg","R.jpg","1","0","0","",""
"","feedback","","html-keyboard-response","85","215654","0.0-1.0-105.0-0.0","0","0","86282","","null","","","null","11","","","","","","","","","","","","","","","",""
"","time_out","","html-keyboard-response","86","217717","0.0-1.0-107.0-0.0","0","0","86282","","null","","","null","11","","","","","","","","","","","","","","","",""
"","ITI","","html-keyboard-response","87","218726","0.0-1.0-108.0","0","0","86282","","null","","","null","11","","","","","","","","","","","","","","","NaN",""
"","S1","","html-keyboard-response","88","218982","0.0-1.0-110.0","0","0","86282","","null","","","null","12","","","","","","","","","","","","","","","",""
"","ISI","","html-keyboard-response","89","219489","0.0-1.0-111.0","0","0","86282","","null","","","null","12","NaN","","","","","","","","","","","","","","",""
"","S2","","html-keyboard-response","90","219753","0.0-1.0-112.0","0","0","86282","","null","","","null","12","","NaN","","","","","","","","","","","","","",""
"","response","","html-keyboard-response","91","220505","0.0-1.0-113.0-0.0","0","0","86282","","742","","","68","12","","","1","12","training","adjacent","FG","6","7","N.jpg","P.jpg","1","1","1","",""
"","feedback","","html-keyboard-response","92","221512","0.0-1.0-114.0-0.0","0","0","86282","","null","","","null","12","","","","","","","","","","","","","","","",""
"","ITI","","html-keyboard-response","93","222523","0.0-1.0-117.0","0","0","86282","","null","","","null","12","","","","","","","","","","","","","","","NaN",""
"","S1","","html-keyboard-response","94","222778","0.0-1.0-119.0","0","0","86282","","null","","","null","13","","","","","","","","","","","","","","","",""
"","ISI","","html-keyboard-response","95","223283","0.0-1.0-120.0","0","0","86282","","null","","","null","13","NaN","","","","","","","","","","","","","","",""
"","S2","","html-keyboard-response","96","223582","0.0-1.0-121.0","0","0","86282","","null","","","null","13","","NaN","","","","","","","","","","","","","",""
"","response","","html-keyboard-response","97","224346","0.0-1.0-122.0-0.0","0","0","86282","","759","","","68","13","","","1","13","training","adjacent","FG","6","7","N.jpg","P.jpg","1","1","1","",""
"","feedback","","html-keyboard-response","98","225352","0.0-1.0-123.0-0.0","0","0","86282","","null","","","null","13","","","","","","","","","","","","","","","",""
"","ITI","","html-keyboard-response","99","226362","0.0-1.0-126.0","0","0","86282","","null","","","null","13","","","","","","","","","","","","","","","NaN",""
"","S1","","html-keyboard-response","100","226619","0.0-1.0-128.0","0","0","86282","","null","","","null","14","","","","","","","","","","","","","","","",""
"","ISI","","html-keyboard-response","101","227125","0.0-1.0-129.0","0","0","86282","","null","","","null","14","NaN","","","","","","","","","","","","","","",""
"","S2","","html-keyboard-response","102","227384","0.0-1.0-130.0","0","0","86282","","null","","","null","14","","NaN","","","","","","","","","","","","","",""
"","response","","html-keyboard-response","103","227978","0.0-1.0-131.0-0.0","0","0","86282","","589","","","68","14","","","1","14","training","adjacent","ED","5","4","M.jpg","Q.jpg","1","0","0","",""
"","feedback","","html-keyboard-response","104","228983","0.0-1.0-132.0-0.0","0","0","86282","","null","","","null","14","","","","","","","","","","","","","","","",""
"","time_out","","html-keyboard-response","105","230989","0.0-1.0-134.0-0.0","0","0","86282","","null","","","null","14","","","","","","","","","","","","","","","",""
"","ITI","","html-keyboard-response","106","232002","0.0-1.0-135.0","0","0","86282","","null","","","null","14","","","","","","","","","","","","","","","NaN",""
"","S1","","html-keyboard-response","107","232260","0.0-1.0-137.0","0","0","86282","","null","","","null","15","","","","","","","","","","","","","","","",""
"","ISI","","html-keyboard-response","108","232765","0.0-1.0-138.0","0","0","86282","","null","","","null","15","NaN","","","","","","","","","","","","","","",""
"","S2","","html-keyboard-response","109","233026","0.0-1.0-139.0","0","0","86282","","null","","","null","15","","NaN","","","","","","","","","","","","","",""
"","response","","html-keyboard-response","110","233655","0.0-1.0-140.0-0.0","0","0","86282","","623","","","75","15","","","1","15","training","adjacent","CD","3","4","R.jpg","Q.jpg","0","1","0","",""
"","feedback","","html-keyboard-response","111","234661","0.0-1.0-141.0-0.0","0","0","86282","","null","","","null","15","","","","","","","","","","","","","","","",""
"","time_out","","html-keyboard-response","112","236674","0.0-1.0-143.0-0.0","0","0","86282","","null","","","null","15","","","","","","","","","","","","","","","",""
"","ITI","","html-keyboard-response","113","237684","0.0-1.0-144.0","0","0","86282","","null","","","null","15","","","","","","","","","","","","","","","NaN",""
"","S1","","html-keyboard-response","114","237938","0.0-1.0-146.0","0","0","86282","","null","","","null","16","","","","","","","","","","","","","","","",""
"","ISI","","html-keyboard-response","115","238451","0.0-1.0-147.0","0","0","86282","","null","","","null","16","NaN","","","","","","","","","","","","","","",""
"","S2","","html-keyboard-response","116","238712","0.0-1.0-148.0","0","0","86282","","null","","","null","16","","NaN","","","","","","","","","","","","","",""
"","response","","html-keyboard-response","117","239107","0.0-1.0-149.0-0.0","0","0","86282","","391","","","68","16","","","1","16","training","adjacent","BA","2","1","O.jpg","L.jpg","1","0","0","",""
"","feedback","","html-keyboard-response","118","240114","0.0-1.0-150.0-0.0","0","0","86282","","null","","","null","16","","","","","","","","","","","","","","","",""
"","time_out","","html-keyboard-response","119","242122","0.0-1.0-152.0-0.0","0","0","86282","","null","","","null","16","","","","","","","","","","","","","","","",""
"","ITI","","html-keyboard-response","120","243132","0.0-1.0-153.0","0","0","86282","","null","","","null","16","","","","","","","","","","","","","","","NaN",""
"","S1","","html-keyboard-response","121","243390","0.0-1.0-155.0","0","0","86282","","null","","","null","17","","","","","","","","","","","","","","","",""
"","ISI","","html-keyboard-response","122","243894","0.0-1.0-156.0","0","0","86282","","null","","","null","17","NaN","","","","","","","","","","","","","","",""
"","S2","","html-keyboard-response","123","244176","0.0-1.0-157.0","0","0","86282","","null","","","null","17","","NaN","","","","","","","","","","","","","",""
"","response","","html-keyboard-response","124","244436","0.0-1.0-158.0-0.0","0","0","86282","","255","","","75","17","","","1","17","training","adjacent","FE","6","5","N.jpg","M.jpg","0","0","1","",""
"","feedback","","html-keyboard-response","125","245441","0.0-1.0-159.0-0.0","0","0","86282","","null","","","null","17","","","","","","","","","","","","","","","",""
"","ITI","","html-keyboard-response","126","246445","0.0-1.0-162.0","0","0","86282","","null","","","null","17","","","","","","","","","","","","","","","NaN",""
"","S1","","html-keyboard-response","127","246700","0.0-1.0-164.0","0","0","86282","","null","","","null","18","","","","","","","","","","","","","","","",""
"","ISI","","html-keyboard-response","128","247205","0.0-1.0-165.0","0","0","86282","","null","","","null","18","NaN","","","","","","","","","","","","","","",""
"","S2","","html-keyboard-response","129","247470","0.0-1.0-166.0","0","0","86282","","null","","","null","18","","NaN","","","","","","","","","","","","","",""
"","response","","html-keyboard-response","130","248315","0.0-1.0-167.0-0.0","0","0","86282","","839","","","68","18","","","1","18","training","adjacent","ED","5","4","M.jpg","Q.jpg","1","0","0","",""
"","feedback","","html-keyboard-response","131","249339","0.0-1.0-168.0-0.0","0","0","86282","","null","","","null","18","","","","","","","","","","","","","","","",""
"","time_out","","html-keyboard-response","132","251346","0.0-1.0-170.0-0.0","0","0","86282","","null","","","null","18","","","","","","","","","","","","","","","",""
"","ITI","","html-keyboard-response","133","252352","0.0-1.0-171.0","0","0","86282","","null","","","null","18","","","","","","","","","","","","","","","NaN",""
"","S1","","html-keyboard-response","134","252650","0.0-1.0-173.0","0","0","86282","","null","","","null","19","","","","","","","","","","","","","","","",""
"","ISI","","html-keyboard-response","135","253155","0.0-1.0-174.0","0","0","86282","","null","","","null","19","NaN","","","","","","","","","","","","","","",""
"","S2","","html-keyboard-response","136","253410","0.0-1.0-175.0","0","0","86282","","null","","","null","19","","NaN","","","","","","","","","","","","","",""
"","response","","html-keyboard-response","137","254041","0.0-1.0-176.0-0.0","0","0","86282","","623","","","68","19","","","1","19","training","adjacent","BA","2","1","O.jpg","L.jpg","1","0","0","",""
"","feedback","","html-keyboard-response","138","255048","0.0-1.0-177.0-0.0","0","0","86282","","null","","","null","19","","","","","","","","","","","","","","","",""
"","time_out","","html-keyboard-response","139","257057","0.0-1.0-179.0-0.0","0","0","86282","","null","","","null","19","","","","","","","","","","","","","","","",""
"","ITI","","html-keyboard-response","140","258064","0.0-1.0-180.0","0","0","86282","","null","","","null","19","","","","","","","","","","","","","","","NaN",""
"","S1","","html-keyboard-response","141","258318","0.0-1.0-182.0","0","0","86282","","null","","","null","20","","","","","","","","","","","","","","","",""
"","ISI","","html-keyboard-response","142","258943","0.0-1.0-183.0","0","0","86282","","null","","","null","20","NaN","","","","","","","","","","","","","","",""
"","S2","","html-keyboard-response","143","259205","0.0-1.0-184.0","0","0","86282","","null","","","null","20","","NaN","","","","","","","","","","","","","",""
"","response","","html-keyboard-response","144","259577","0.0-1.0-185.0-0.0","0","0","86282","","363","","","68","20","","","1","20","training","adjacent","CB","3","2","R.jpg","O.jpg","1","0","0","",""
"","feedback","","html-keyboard-response","145","260585","0.0-1.0-186.0-0.0","0","0","86282","","null","","","null","20","","","","","","","","","","","","","","","",""
"","time_out","","html-keyboard-response","146","262591","0.0-1.0-188.0-0.0","0","0","86282","","null","","","null","20","","","","","","","","","","","","","","","",""
"","ITI","","html-keyboard-response","147","263633","0.0-1.0-189.0","0","0","86282","","null","","","null","20","","","","","","","","","","","","","","","NaN",""
"","S1","","html-keyboard-response","148","263887","0.0-1.0-191.0","0","0","86282","","null","","","null","21","","","","","","","","","","","","","","","",""
"","ISI","","html-keyboard-response","149","264394","0.0-1.0-192.0","0","0","86282","","null","","","null","21","NaN","","","","","","","","","","","","","","",""
"","S2","","html-keyboard-response","150","264656","0.0-1.0-193.0","0","0","86282","","null","","","null","21","","NaN","","","","","","","","","","","","","",""
"","response","","html-keyboard-response","151","266415","0.0-1.0-194.0-0.0","0","0","86282","","null","","","null","21","","","1","21","training","adjacent","CB","3","2","R.jpg","O.jpg","NaN","0","0","",""
"","too_slow_prompt","","html-keyboard-response","152","267419","0.0-1.0-196.0-0.0","1","0","86282","","null","","","null","","","","","","","","","","","","","","","","",""
"","time_out","","html-keyboard-response","153","269428","0.0-1.0-197.0-0.0","0","0","86282","","null","","","null","21","","","","","","","","","","","","","","","",""
"","ITI","","html-keyboard-response","154","270436","0.0-1.0-198.0","0","0","86282","","825","","","68","21","","","","","","","","","","","","","","","d",""
"","S1","","html-keyboard-response","155","270694","0.0-1.0-200.0","0","0","86282","","null","","","null","22","","","","","","","","","","","","","","","",""
"","ISI","","html-keyboard-response","156","271203","0.0-1.0-201.0","0","0","86282","","null","","","null","22","NaN","","","","","","","","","","","","","","",""
"","S2","","html-keyboard-response","157","271463","0.0-1.0-202.0","0","0","86282","","null","","","null","22","","NaN","","","","","","","","","","","","","",""
"","response","","html-keyboard-response","158","271969","0.0-1.0-203.0-0.0","0","0","86282","","499","","","68","22","","","1","22","training","adjacent","GF","7","6","P.jpg","N.jpg","1","0","0","",""
"","feedback","","html-keyboard-response","159","272980","0.0-1.0-204.0-0.0","0","0","86282","","null","","","null","22","","","","","","","","","","","","","","","",""
"","time_out","","html-keyboard-response","160","274991","0.0-1.0-206.0-0.0","0","0","86282","","null","","","null","22","","","","","","","","","","","","","","","",""
"","ITI","","html-keyboard-response","161","275999","0.0-1.0-207.0","0","0","86282","","null","","","null","22","","","","","","","","","","","","","","","NaN",""
"","S1","","html-keyboard-response","162","276261","0.0-1.0-209.0","0","0","86282","","null","","","null","23","","","","","","","","","","","","","","","",""
"","ISI","","html-keyboard-response","163","276767","0.0-1.0-210.0","0","0","86282","","null","","","null","23","NaN","","","","","","","","","","","","","","",""
"","S2","","html-keyboard-response","164","277027","0.0-1.0-211.0","0","0","86282","","null","","","null","23","","NaN","","","","","","","","","","","","","",""
"","response","","html-keyboard-response","165","277548","0.0-1.0-212.0-0.0","0","0","86282","","513","","","75","23","","","1","23","training","adjacent","CD","3","4","R.jpg","Q.jpg","0","1","0","",""
"","feedback","","html-keyboard-response","166","278555","0.0-1.0-213.0-0.0","0","0","86282","","null","","","null","23","","","","","","","","","","","","","","","",""
"","time_out","","html-keyboard-response","167","280562","0.0-1.0-215.0-0.0","0","0","86282","","null","","","null","23","","","","","","","","","","","","","","","",""
"","ITI","","html-keyboard-response","168","281568","0.0-1.0-216.0","0","0","86282","","null","","","null","23","","","","","","","","","","","","","","","NaN",""
"","S1","","html-keyboard-response","169","281825","0.0-1.0-218.0","0","0","86282","","null","","","null","24","","","","","","","","","","","","","","","",""
"","ISI","","html-keyboard-response","170","282328","0.0-1.0-219.0","0","0","86282","","null","","","null","24","NaN","","","","","","","","","","","","","","",""
"","S2","","html-keyboard-response","171","282584","0.0-1.0-220.0","0","0","86282","","null","","","null","24","","NaN","","","","","","","","","","","","","",""
"","response","","html-keyboard-response","172","283083","0.0-1.0-221.0-0.0","0","0","86282","","494","","","68","24","","","1","24","training","adjacent","DE","4","5","Q.jpg","M.jpg","1","1","1","",""
"","feedback","","html-keyboard-response","173","284097","0.0-1.0-222.0-0.0","0","0","86282","","null","","","null","24","","","","","","","","","","","","","","","",""
"","ITI","","html-keyboard-response","174","285105","0.0-1.0-225.0","0","0","86282","","null","","","null","24","","","","","","","","","","","","","","","NaN",""
"","S1","","html-keyboard-response","175","285361","0.0-1.0-227.0","0","0","86282","","null","","","null","25","","","","","","","","","","","","","","","",""
"","ISI","","html-keyboard-response","176","285867","0.0-1.0-228.0","0","0","86282","","null","","","null","25","NaN","","","","","","","","","","","","","","",""
"","S2","","html-keyboard-response","177","286124","0.0-1.0-229.0","0","0","86282","","null","","","null","25","","NaN","","","","","","","","","","","","","",""
"","response","","html-keyboard-response","178","287118","0.0-1.0-230.0-0.0","0","0","86282","","986","","","68","25","","","1","25","training","adjacent","FE","6","5","N.jpg","M.jpg","1","0","0","",""
"","feedback","","html-keyboard-response","179","288128","0.0-1.0-231.0-0.0","0","0","86282","","null","","","null","25","","","","","","","","","","","","","","","",""
"","time_out","","html-keyboard-response","180","290136","0.0-1.0-233.0-0.0","0","0","86282","","null","","","null","25","","","","","","","","","","","","","","","",""
"","ITI","","html-keyboard-response","181","291164","0.0-1.0-234.0","0","0","86282","","null","","","null","25","","","","","","","","","","","","","","","NaN",""
"","S1","","html-keyboard-response","182","291430","0.0-1.0-236.0","0","0","86282","","null","","","null","26","","","","","","","","","","","","","","","",""
"","ISI","","html-keyboard-response","183","291938","0.0-1.0-237.0","0","0","86282","","null","","","null","26","NaN","","","","","","","","","","","","","","",""
"","S2","","html-keyboard-response","184","292194","0.0-1.0-238.0","0","0","86282","","null","","","null","26","","NaN","","","","","","","","","","","","","",""
"","response","","html-keyboard-response","185","292866","0.0-1.0-239.0-0.0","0","0","86282","","667","","","75","26","","","1","26","training","adjacent","DC","4","3","Q.jpg","R.jpg","0","0","1","",""
"","feedback","","html-keyboard-response","186","293870","0.0-1.0-240.0-0.0","0","0","86282","","null","","","null","26","","","","","","","","","","","","","","","",""
"","ITI","","html-keyboard-response","187","294880","0.0-1.0-243.0","0","0","86282","","null","","","null","26","","","","","","","","","","","","","","","NaN",""
"","S1","","html-keyboard-response","188","295137","0.0-1.0-245.0","0","0","86282","","null","","","null","27","","","","","","","","","","","","","","","",""
"","ISI","","html-keyboard-response","189","295641","0.0-1.0-246.0","0","0","86282","","null","","","null","27","NaN","","","","","","","","","","","","","","",""
"","S2","","html-keyboard-response","190","295958","0.0-1.0-247.0","0","0","86282","","null","","","null","27","","NaN","","","","","","","","","","","","","",""
"","response","","html-keyboard-response","191","296625","0.0-1.0-248.0-0.0","0","0","86282","","663","","","68","27","","","1","27","training","adjacent","FG","6","7","N.jpg","P.jpg","1","1","1","",""
"","feedback","","html-keyboard-response","192","297630","0.0-1.0-249.0-0.0","0","0","86282","","null","","","null","27","","","","","","","","","","","","","","","",""
"","ITI","","html-keyboard-response","193","298639","0.0-1.0-252.0","0","0","86282","","null","","","null","27","","","","","","","","","","","","","","","NaN",""
"","S1","","html-keyboard-response","194","298895","0.0-1.0-254.0","0","0","86282","","null","","","null","28","","","","","","","","","","","","","","","",""
"","ISI","","html-keyboard-response","195","299417","0.0-1.0-255.0","0","0","86282","","null","","","null","28","NaN","","","","","","","","","","","","","","",""
"","S2","","html-keyboard-response","196","299676","0.0-1.0-256.0","0","0","86282","","null","","","null","28","","NaN","","","","","","","","","","","","","",""
"","response","","html-keyboard-response","197","300362","0.0-1.0-257.0-0.0","0","0","86282","","678","","","68","28","","","1","28","training","adjacent","BA","2","1","O.jpg","L.jpg","1","0","0","",""
"","feedback","","html-keyboard-response","198","301394","0.0-1.0-258.0-0.0","0","0","86282","","null","","","null","28","","","","","","","","","","","","","","","",""
"","time_out","","html-keyboard-response","199","303423","0.0-1.0-260.0-0.0","0","0","86282","","null","","","null","28","","","","","","","","","","","","","","","",""
"","ITI","","html-keyboard-response","200","304434","0.0-1.0-261.0","0","0","86282","","null","","","null","28","","","","","","","","","","","","","","","NaN",""
"","S1","","html-keyboard-response","201","304688","0.0-1.0-263.0","0","0","86282","","null","","","null","29","","","","","","","","","","","","","","","",""
"","ISI","","html-keyboard-response","202","305193","0.0-1.0-264.0","0","0","86282","","null","","","null","29","NaN","","","","","","","","","","","","","","",""
"","S2","","html-keyboard-response","203","305451","0.0-1.0-265.0","0","0","86282","","null","","","null","29","","NaN","","","","","","","","","","","","","",""
"","response","","html-keyboard-response","204","305856","0.0-1.0-266.0-0.0","0","0","86282","","399","","","75","29","","","1","29","training","adjacent","FG","6","7","N.jpg","P.jpg","0","1","0","",""
"","feedback","","html-keyboard-response","205","306957","0.0-1.0-267.0-0.0","0","0","86282","","null","","","null","29","","","","","","","","","","","","","","","",""
"","time_out","","html-keyboard-response","206","308965","0.0-1.0-269.0-0.0","0","0","86282","","null","","","null","29","","","","","","","","","","","","","","","",""
"","ITI","","html-keyboard-response","207","309972","0.0-1.0-270.0","0","0","86282","","null","","","null","29","","","","","","","","","","","","","","","NaN",""
"","S1","","html-keyboard-response","208","310229","0.0-1.0-272.0","0","0","86282","","null","","","null","30","","","","","","","","","","","","","","","",""
"","ISI","","html-keyboard-response","209","310736","0.0-1.0-273.0","0","0","86282","","null","","","null","30","NaN","","","","","","","","","","","","","","",""
"","S2","","html-keyboard-response","210","310990","0.0-1.0-274.0","0","0","86282","","null","","","null","30","","NaN","","","","","","","","","","","","","",""
"","response","","html-keyboard-response","211","312105","0.0-1.0-275.0-0.0","0","0","86282","","1105","","","68","30","","","1","30","training","adjacent","BA","2","1","O.jpg","L.jpg","1","0","0","",""
"","feedback","","html-keyboard-response","212","313115","0.0-1.0-276.0-0.0","0","0","86282","","null","","","null","30","","","","","","","","","","","","","","","",""
"","time_out","","html-keyboard-response","213","315132","0.0-1.0-278.0-0.0","0","0","86282","","null","","","null","30","","","","","","","","","","","","","","","",""
"","ITI","","html-keyboard-response","214","316138","0.0-1.0-279.0","0","0","86282","","null","","","null","30","","","","","","","","","","","","","","","NaN",""
"","S1","","html-keyboard-response","215","316395","0.0-1.0-281.0","0","0","86282","","null","","","null","31","","","","","","","","","","","","","","","",""
"","ISI","","html-keyboard-response","216","316916","0.0-1.0-282.0","0","0","86282","","null","","","null","31","NaN","","","","","","","","","","","","","","",""
"","S2","","html-keyboard-response","217","317171","0.0-1.0-283.0","0","0","86282","","null","","","null","31","","NaN","","","","","","","","","","","","","",""
"","response","","html-keyboard-response","218","317582","0.0-1.0-284.0-0.0","0","0","86282","","402","","","68","31","","","1","31","training","adjacent","EF","5","6","M.jpg","N.jpg","1","1","1","",""
"","feedback","","html-keyboard-response","219","318592","0.0-1.0-285.0-0.0","0","0","86282","","null","","","null","31","","","","","","","","","","","","","","","",""
"","ITI","","html-keyboard-response","220","319694","0.0-1.0-288.0","0","0","86282","","null","","","null","31","","","","","","","","","","","","","","","NaN",""
"","S1","","html-keyboard-response","221","319959","0.0-1.0-290.0","0","0","86282","","null","","","null","32","","","","","","","","","","","","","","","",""
"","ISI","","html-keyboard-response","222","320472","0.0-1.0-291.0","0","0","86282","","null","","","null","32","NaN","","","","","","","","","","","","","","",""
"","S2","","html-keyboard-response","223","320733","0.0-1.0-292.0","0","0","86282","","null","","","null","32","","NaN","","","","","","","","","","","","","",""
"","response","","html-keyboard-response","224","321317","0.0-1.0-293.0-0.0","0","0","86282","","575","","","68","32","","","1","32","training","adjacent","ED","5","4","M.jpg","Q.jpg","1","0","0","",""
"","feedback","","html-keyboard-response","225","322322","0.0-1.0-294.0-0.0","0","0","86282","","null","","","null","32","","","","","","","","","","","","","","","",""
"","time_out","","html-keyboard-response","226","324412","0.0-1.0-296.0-0.0","0","0","86282","","null","","","null","32","","","","","","","","","","","","","","","",""
"","ITI","","html-keyboard-response","227","325419","0.0-1.0-297.0","0","0","86282","","null","","","null","32","","","","","","","","","","","","","","","NaN",""
"","S1","","html-keyboard-response","228","325673","0.0-1.0-299.0","0","0","86282","","null","","","null","33","","","","","","","","","","","","","","","",""
"","ISI","","html-keyboard-response","229","326177","0.0-1.0-300.0","0","0","86282","","null","","","null","33","NaN","","","","","","","","","","","","","","",""
"","S2","","html-keyboard-response","230","326438","0.0-1.0-301.0","0","0","86282","","null","","","null","33","","NaN","","","","","","","","","","","","","",""
"","response","","html-keyboard-response","231","327408","0.0-1.0-302.0-0.0","0","0","86282","","965","","","75","33","","","1","33","training","adjacent","GF","7","6","P.jpg","N.jpg","0","0","1","",""
"","feedback","","html-keyboard-response","232","328416","0.0-1.0-303.0-0.0","0","0","86282","","null","","","null","33","","","","","","","","","","","","","","","",""
"","ITI","","html-keyboard-response","233","329424","0.0-1.0-306.0","0","0","86282","","null","","","null","33","","","","","","","","","","","","","","","NaN",""
"","S1","","html-keyboard-response","234","329679","0.0-1.0-308.0","0","0","86282","","null","","","null","34","","","","","","","","","","","","","","","",""
"","ISI","","html-keyboard-response","235","330183","0.0-1.0-309.0","0","0","86282","","null","","","null","34","NaN","","","","","","","","","","","","","","",""
"","S2","","html-keyboard-response","236","330441","0.0-1.0-310.0","0","0","86282","","null","","","null","34","","NaN","","","","","","","","","","","","","",""
"","response","","html-keyboard-response","237","331087","0.0-1.0-311.0-0.0","0","0","86282","","640","","","75","34","","","1","34","training","adjacent","EF","5","6","M.jpg","N.jpg","0","1","0","",""
"","feedback","","html-keyboard-response","238","332095","0.0-1.0-312.0-0.0","0","0","86282","","null","","","null","34","","","","","","","","","","","","","","","",""
"","time_out","","html-keyboard-response","239","334104","0.0-1.0-314.0-0.0","0","0","86282","","null","","","null","34","","","","","","","","","","","","","","","",""
"","ITI","","html-keyboard-response","240","335120","0.0-1.0-315.0","0","0","86282","","null","","","null","34","","","","","","","","","","","","","","","NaN",""
"","S1","","html-keyboard-response","241","335375","0.0-1.0-317.0","0","0","86282","","null","","","null","35","","","","","","","","","","","","","","","",""
"","ISI","","html-keyboard-response","242","335881","0.0-1.0-318.0","0","0","86282","","null","","","null","35","NaN","","","","","","","","","","","","","","",""
"","S2","","html-keyboard-response","243","336143","0.0-1.0-319.0","0","0","86282","","null","","","null","35","","NaN","","","","","","","","","","","","","",""
"","response","","html-keyboard-response","244","336641","0.0-1.0-320.0-0.0","0","0","86282","","493","","","75","35","","","1","35","training","adjacent","AB","1","2","L.jpg","O.jpg","0","1","0","",""
"","feedback","","html-keyboard-response","245","337680","0.0-1.0-321.0-0.0","0","0","86282","","null","","","null","35","","","","","","","","","","","","","","","",""
"","time_out","","html-keyboard-response","246","339695","0.0-1.0-323.0-0.0","0","0","86282","","null","","","null","35","","","","","","","","","","","","","","","",""
"","ITI","","html-keyboard-response","247","340737","0.0-1.0-324.0","0","0","86282","","null","","","null","35","","","","","","","","","","","","","","","NaN",""
"","S1","","html-keyboard-response","248","341012","0.0-1.0-326.0","0","0","86282","","null","","","null","36","","","","","","","","","","","","","","","",""
"","ISI","","html-keyboard-response","249","341522","0.0-1.0-327.0","0","0","86282","","null","","","null","36","NaN","","","","","","","","","","","","","","",""
"","S2","","html-keyboard-response","250","341784","0.0-1.0-328.0","0","0","86282","","null","","","null","36","","NaN","","","","","","","","","","","","","",""
"","response","","html-keyboard-response","251","343025","0.0-1.0-329.0-0.0","0","0","86282","","1235","","","75","36","","","1","36","training","adjacent","AB","1","2","L.jpg","O.jpg","0","1","0","",""
"","feedback","","html-keyboard-response","252","344032","0.0-1.0-330.0-0.0","0","0","86282","","null","","","null","36","","","","","","","","","","","","","","","",""
"","time_out","","html-keyboard-response","253","346040","0.0-1.0-332.0-0.0","0","0","86282","","null","","","null","36","","","","","","","","","","","","","","","",""
"","ITI","","html-keyboard-response","254","347048","0.0-1.0-333.0","0","0","86282","","null","","","null","36","","","","","","","","","","","","","","","NaN",""
"","S1","","html-keyboard-response","255","347302","0.0-1.0-335.0","0","0","86282","","null","","","null","37","","","","","","","","","","","","","","","",""
"","ISI","","html-keyboard-response","256","347809","0.0-1.0-336.0","0","0","86282","","null","","","null","37","NaN","","","","","","","","","","","","","","",""
"","S2","","html-keyboard-response","257","348067","0.0-1.0-337.0","0","0","86282","","null","","","null","37","","NaN","","","","","","","","","","","","","",""
"","response","","html-keyboard-response","258","348636","0.0-1.0-338.0-0.0","0","0","86282","","564","","","75","37","","","1","37","training","adjacent","FE","6","5","N.jpg","M.jpg","0","0","1","",""
"","feedback","","html-keyboard-response","259","349645","0.0-1.0-339.0-0.0","0","0","86282","","null","","","null","37","","","","","","","","","","","","","","","",""
"","ITI","","html-keyboard-response","260","350653","0.0-1.0-342.0","0","0","86282","","null","","","null","37","","","","","","","","","","","","","","","NaN",""
"","S1","","html-keyboard-response","261","350910","0.0-1.0-344.0","0","0","86282","","null","","","null","38","","","","","","","","","","","","","","","",""
"","ISI","","html-keyboard-response","262","351415","0.0-1.0-345.0","0","0","86282","","null","","","null","38","NaN","","","","","","","","","","","","","","",""
"","S2","","html-keyboard-response","263","351683","0.0-1.0-346.0","0","0","86282","","null","","","null","38","","NaN","","","","","","","","","","","","","",""
"","response","","html-keyboard-response","264","352394","0.0-1.0-347.0-0.0","0","0","86282","","702","","","75","38","","","1","38","training","adjacent","CB","3","2","R.jpg","O.jpg","0","0","1","",""
"","feedback","","html-keyboard-response","265","353414","0.0-1.0-348.0-0.0","0","0","86282","","null","","","null","38","","","","","","","","","","","","","","","",""
"","ITI","","html-keyboard-response","266","354420","0.0-1.0-351.0","0","0","86282","","null","","","null","38","","","","","","","","","","","","","","","NaN",""
"","S1","","html-keyboard-response","267","354676","0.0-1.0-353.0","0","0","86282","","null","","","null","39","","","","","","","","","","","","","","","",""
"","ISI","","html-keyboard-response","268","355181","0.0-1.0-354.0","0","0","86282","","null","","","null","39","NaN","","","","","","","","","","","","","","",""
"","S2","","html-keyboard-response","269","355439","0.0-1.0-355.0","0","0","86282","","null","","","null","39","","NaN","","","","","","","","","","","","","",""
"","response","","html-keyboard-response","270","356092","0.0-1.0-356.0-0.0","0","0","86282","","645","","","75","39","","","1","39","training","adjacent","CD","3","4","R.jpg","Q.jpg","0","1","0","",""
"","feedback","","html-keyboard-response","271","357101","0.0-1.0-357.0-0.0","0","0","86282","","null","","","null","39","","","","","","","","","","","","","","","",""
"","time_out","","html-keyboard-response","272","359121","0.0-1.0-359.0-0.0","0","0","86282","","null","","","null","39","","","","","","","","","","","","","","","",""
"","ITI","","html-keyboard-response","273","360128","0.0-1.0-360.0","0","0","86282","","null","","","null","39","","","","","","","","","","","","","","","NaN",""
"","S1","","html-keyboard-response","274","360400","0.0-1.0-362.0","0","0","86282","","null","","","null","40","","","","","","","","","","","","","","","",""
"","ISI","","html-keyboard-response","275","360908","0.0-1.0-363.0","0","0","86282","","null","","","null","40","NaN","","","","","","","","","","","","","","",""
"","S2","","html-keyboard-response","276","361165","0.0-1.0-364.0","0","0","86282","","null","","","null","40","","NaN","","","","","","","","","","","","","",""
"","response","","html-keyboard-response","277","361878","0.0-1.0-365.0-0.0","0","0","86282","","709","","","75","40","","","1","40","training","adjacent","BC","2","3","O.jpg","R.jpg","0","1","0","",""
"","feedback","","html-keyboard-response","278","362885","0.0-1.0-366.0-0.0","0","0","86282","","null","","","null","40","","","","","","","","","","","","","","","",""
"","time_out","","html-keyboard-response","279","364894","0.0-1.0-368.0-0.0","0","0","86282","","null","","","null","40","","","","","","","","","","","","","","","",""
"","ITI","","html-keyboard-response","280","365916","0.0-1.0-369.0","0","0","86282","","null","","","null","40","","","","","","","","","","","","","","","NaN",""
"","S1","","html-keyboard-response","281","366174","0.0-1.0-371.0","0","0","86282","","null","","","null","41","","","","","","","","","","","","","","","",""
"","ISI","","html-keyboard-response","282","366679","0.0-1.0-372.0","0","0","86282","","null","","","null","41","NaN","","","","","","","","","","","","","","",""
"","S2","","html-keyboard-response","283","366937","0.0-1.0-373.0","0","0","86282","","null","","","null","41","","NaN","","","","","","","","","","","","","",""
"","response","","html-keyboard-response","284","367687","0.0-1.0-374.0-0.0","0","0","86282","","744","","","68","41","","","1","41","training","adjacent","DC","4","3","Q.jpg","R.jpg","1","0","0","",""
"","feedback","","html-keyboard-response","285","368695","0.0-1.0-375.0-0.0","0","0","86282","","null","","","null","41","","","","","","","","","","","","","","","",""
"","time_out","","html-keyboard-response","286","370713","0.0-1.0-377.0-0.0","0","0","86282","","null","","","null","41","","","","","","","","","","","","","","","",""
"","ITI","","html-keyboard-response","287","371722","0.0-1.0-378.0","0","0","86282","","null","","","null","41","","","","","","","","","","","","","","","NaN",""
"","S1","","html-keyboard-response","288","371979","0.0-1.0-380.0","0","0","86282","","null","","","null","42","","","","","","","","","","","","","","","",""
"","ISI","","html-keyboard-response","289","372486","0.0-1.0-381.0","0","0","86282","","null","","","null","42","NaN","","","","","","","","","","","","","","",""
"","S2","","html-keyboard-response","290","372745","0.0-1.0-382.0","0","0","86282","","null","","","null","42","","NaN","","","","","","","","","","","","","",""
"","response","","html-keyboard-response","291","373362","0.0-1.0-383.0-0.0","0","0","86282","","611","","","75","42","","","1","42","training","adjacent","CB","3","2","R.jpg","O.jpg","0","0","1","",""
"","feedback","","html-keyboard-response","292","374384","0.0-1.0-384.0-0.0","0","0","86282","","null","","","null","42","","","","","","","","","","","","","","","",""
"","ITI","","html-keyboard-response","293","375395","0.0-1.0-387.0","0","0","86282","","null","","","null","42","","","","","","","","","","","","","","","NaN",""
"","S1","","html-keyboard-response","294","375651","0.0-1.0-389.0","0","0","86282","","null","","","null","43","","","","","","","","","","","","","","","",""
"","ISI","","html-keyboard-response","295","376159","0.0-1.0-390.0","0","0","86282","","null","","","null","43","NaN","","","","","","","","","","","","","","",""
"","S2","","html-keyboard-response","296","376431","0.0-1.0-391.0","0","0","86282","","null","","","null","43","","NaN","","","","","","","","","","","","","",""
"","response","","html-keyboard-response","297","377459","0.0-1.0-392.0-0.0","0","0","86282","","1020","","","75","43","","","1","43","training","adjacent","BC","2","3","O.jpg","R.jpg","0","1","0","",""
"","feedback","","html-keyboard-response","298","378480","0.0-1.0-393.0-0.0","0","0","86282","","null","","","null","43","","","","","","","","","","","","","","","",""
"","time_out","","html-keyboard-response","299","380494","0.0-1.0-395.0-0.0","0","0","86282","","null","","","null","43","","","","","","","","","","","","","","","",""
"","ITI","","html-keyboard-response","300","381501","0.0-1.0-396.0","0","0","86282","","null","","","null","43","","","","","","","","","","","","","","","NaN",""
"","S1","","html-keyboard-response","301","381756","0.0-1.0-398.0","0","0","86282","","null","","","null","44","","","","","","","","","","","","","","","",""
"","ISI","","html-keyboard-response","302","382259","0.0-1.0-399.0","0","0","86282","","null","","","null","44","NaN","","","","","","","","","","","","","","",""
"","S2","","html-keyboard-response","303","382514","0.0-1.0-400.0","0","0","86282","","null","","","null","44","","NaN","","","","","","","","","","","","","",""
"","response","","html-keyboard-response","304","383313","0.0-1.0-401.0-0.0","0","0","86282","","792","","","68","44","","","1","44","training","adjacent","GF","7","6","P.jpg","N.jpg","1","0","0","",""
"","feedback","","html-keyboard-response","305","384320","0.0-1.0-402.0-0.0","0","0","86282","","null","","","null","44","","","","","","","","","","","","","","","",""
"","time_out","","html-keyboard-response","306","386329","0.0-1.0-404.0-0.0","0","0","86282","","null","","","null","44","","","","","","","","","","","","","","","",""
"","ITI","","html-keyboard-response","307","387343","0.0-1.0-405.0","0","0","86282","","null","","","null","44","","","","","","","","","","","","","","","NaN",""
"","S1","","html-keyboard-response","308","387599","0.0-1.0-407.0","0","0","86282","","null","","","null","45","","","","","","","","","","","","","","","",""
"","ISI","","html-keyboard-response","309","388103","0.0-1.0-408.0","0","0","86282","","null","","","null","45","NaN","","","","","","","","","","","","","","",""
"","S2","","html-keyboard-response","310","388362","0.0-1.0-409.0","0","0","86282","","null","","","null","45","","NaN","","","","","","","","","","","","","",""
"","response","","html-keyboard-response","311","389268","0.0-1.0-410.0-0.0","0","0","86282","","884","","","68","45","","","1","45","training","adjacent","FE","6","5","N.jpg","M.jpg","1","0","0","",""
"","feedback","","html-keyboard-response","312","390278","0.0-1.0-411.0-0.0","0","0","86282","","null","","","null","45","","","","","","","","","","","","","","","",""
"","time_out","","html-keyboard-response","313","392285","0.0-1.0-413.0-0.0","0","0","86282","","null","","","null","45","","","","","","","","","","","","","","","",""
"","ITI","","html-keyboard-response","314","393294","0.0-1.0-414.0","0","0","86282","","null","","","null","45","","","","","","","","","","","","","","","NaN",""
"","S1","","html-keyboard-response","315","393550","0.0-1.0-416.0","0","0","86282","","null","","","null","46","","","","","","","","","","","","","","","",""
"","ISI","","html-keyboard-response","316","394146","0.0-1.0-417.0","0","0","86282","","null","","","null","46","NaN","","","","","","","","","","","","","","",""
"","S2","","html-keyboard-response","317","394407","0.0-1.0-418.0","0","0","86282","","null","","","null","46","","NaN","","","","","","","","","","","","","",""
"","response","","html-keyboard-response","318","395563","0.0-1.0-419.0-0.0","0","0","86282","","1147","","","75","46","","","1","46","training","adjacent","GF","7","6","P.jpg","N.jpg","0","0","1","",""
"","feedback","","html-keyboard-response","319","396574","0.0-1.0-420.0-0.0","0","0","86282","","null","","","null","46","","","","","","","","","","","","","","","",""
"","ITI","","html-keyboard-response","320","397591","0.0-1.0-423.0","0","0","86282","","null","","","null","46","","","","","","","","","","","","","","","NaN",""
"","S1","","html-keyboard-response","321","397848","0.0-1.0-425.0","0","0","86282","","null","","","null","47","","","","","","","","","","","","","","","",""
"","ISI","","html-keyboard-response","322","398362","0.0-1.0-426.0","0","0","86282","","null","","","null","47","NaN","","","","","","","","","","","","","","",""
"","S2","","html-keyboard-response","323","398625","0.0-1.0-427.0","0","0","86282","","null","","","null","47","","NaN","","","","","","","","","","","","","",""
"","response","","html-keyboard-response","324","399222","0.0-1.0-428.0-0.0","0","0","86282","","587","","","75","47","","","1","47","training","adjacent","EF","5","6","M.jpg","N.jpg","0","1","0","",""
"","feedback","","html-keyboard-response","325","400232","0.0-1.0-429.0-0.0","0","0","86282","","null","","","null","47","","","","","","","","","","","","","","","",""
"","time_out","","html-keyboard-response","326","402242","0.0-1.0-431.0-0.0","0","0","86282","","null","","","null","47","","","","","","","","","","","","","","","",""
"","ITI","","html-keyboard-response","327","403245","0.0-1.0-432.0","0","0","86282","","null","","","null","47","","","","","","","","","","","","","","","NaN",""
"","block_over","","html-keyboard-response","328","409477","0.0-1.0-433.0-0.0","0","0","86282","","6217","","","32","47","","","","","","","","","","","","","","","",""
"","S1","","html-keyboard-response","329","409751","0.0-1.0-434.0","0","0","86282","","null","","","null","48","","","","","","","","","","","","","","","",""
"","ISI","","html-keyboard-response","330","410255","0.0-1.0-435.0","0","0","86282","","null","","","null","48","NaN","","","","","","","","","","","","","","",""
"","S2","","html-keyboard-response","331","410511","0.0-1.0-436.0","0","0","86282","","null","","","null","48","","NaN","","","","","","","","","","","","","",""
"","response","","html-keyboard-response","332","411390","0.0-1.0-437.0-0.0","0","0","86282","","859","","","68","48","","","2","48","training","adjacent","BC","2","3","O.jpg","R.jpg","1","1","1","",""
"","feedback","","html-keyboard-response","333","412396","0.0-1.0-438.0-0.0","0","0","86282","","null","","","null","48","","","","","","","","","","","","","","","",""
"","ITI","","html-keyboard-response","334","413403","0.0-1.0-441.0","0","0","86282","","null","","","null","48","","","","","","","","","","","","","","","NaN",""
"","S1","","html-keyboard-response","335","413708","0.0-1.0-443.0","0","0","86282","","null","","","null","49","","","","","","","","","","","","","","","",""
"","ISI","","html-keyboard-response","336","414212","0.0-1.0-444.0","0","0","86282","","null","","","null","49","NaN","","","","","","","","","","","","","","",""
"","S2","","html-keyboard-response","337","414469","0.0-1.0-445.0","0","0","86282","","null","","","null","49","","NaN","","","","","","","","","","","","","",""
"","response","","html-keyboard-response","338","415149","0.0-1.0-446.0-0.0","0","0","86282","","672","","","75","49","","","2","49","training","adjacent","EF","5","6","M.jpg","N.jpg","0","1","0","",""
"","feedback","","html-keyboard-response","339","416159","0.0-1.0-447.0-0.0","0","0","86282","","null","","","null","49","","","","","","","","","","","","","","","",""
"","time_out","","html-keyboard-response","340","418172","0.0-1.0-449.0-0.0","0","0","86282","","null","","","null","49","","","","","","","","","","","","","","","",""
"","ITI","","html-keyboard-response","341","419180","0.0-1.0-450.0","0","0","86282","","null","","","null","49","","","","","","","","","","","","","","","NaN",""
"","S1","","html-keyboard-response","342","419448","0.0-1.0-452.0","0","0","86282","","null","","","null","50","","","","","","","","","","","","","","","",""
"","ISI","","html-keyboard-response","343","419954","0.0-1.0-453.0","0","0","86282","","null","","","null","50","NaN","","","","","","","","","","","","","","",""
"","S2","","html-keyboard-response","344","420210","0.0-1.0-454.0","0","0","86282","","null","","","null","50","","NaN","","","","","","","","","","","","","",""
"","response","","html-keyboard-response","345","420893","0.0-1.0-455.0-0.0","0","0","86282","","676","","","68","50","","","2","50","training","adjacent","FG","6","7","N.jpg","P.jpg","1","1","1","",""
"","feedback","","html-keyboard-response","346","421901","0.0-1.0-456.0-0.0","0","0","86282","","null","","","null","50","","","","","","","","","","","","","","","",""
"","ITI","","html-keyboard-response","347","422906","0.0-1.0-459.0","0","0","86282","","null","","","null","50","","","","","","","","","","","","","","","NaN",""
"","S1","","html-keyboard-response","348","423172","0.0-1.0-461.0","0","0","86282","","null","","","null","51","","","","","","","","","","","","","","","",""
"","ISI","","html-keyboard-response","349","423677","0.0-1.0-462.0","0","0","86282","","null","","","null","51","NaN","","","","","","","","","","","","","","",""
"","S2","","html-keyboard-response","350","423934","0.0-1.0-463.0","0","0","86282","","null","","","null","51","","NaN","","","","","","","","","","","","","",""
"","response","","html-keyboard-response","351","424892","0.0-1.0-464.0-0.0","0","0","86282","","946","","","68","51","","","2","51","training","adjacent","BA","2","1","O.jpg","L.jpg","1","0","0","",""
"","feedback","","html-keyboard-response","352","425904","0.0-1.0-465.0-0.0","0","0","86282","","null","","","null","51","","","","","","","","","","","","","","","",""
"","time_out","","html-keyboard-response","353","427914","0.0-1.0-467.0-0.0","0","0","86282","","null","","","null","51","","","","","","","","","","","","","","","",""
"","ITI","","html-keyboard-response","354","428922","0.0-1.0-468.0","0","0","86282","","null","","","null","51","","","","","","","","","","","","","","","NaN",""
"","S1","","html-keyboard-response","355","429179","0.0-1.0-470.0","0","0","86282","","null","","","null","52","","","","","","","","","","","","","","","",""
"","ISI","","html-keyboard-response","356","429684","0.0-1.0-471.0","0","0","86282","","null","","","null","52","NaN","","","","","","","","","","","","","","",""
"","S2","","html-keyboard-response","357","429936","0.0-1.0-472.0","0","0","86282","","null","","","null","52","","NaN","","","","","","","","","","","","","",""
"","response","","html-keyboard-response","358","431217","0.0-1.0-473.0-0.0","0","0","86282","","1276","","","68","52","","","2","52","training","adjacent","BC","2","3","O.jpg","R.jpg","1","1","1","",""
"","feedback","","html-keyboard-response","359","432224","0.0-1.0-474.0-0.0","0","0","86282","","null","","","null","52","","","","","","","","","","","","","","","",""
"","ITI","","html-keyboard-response","360","433232","0.0-1.0-477.0","0","0","86282","","null","","","null","52","","","","","","","","","","","","","","","NaN",""
"","S1","","html-keyboard-response","361","433577","0.0-1.0-479.0","0","0","86282","","null","","","null","53","","","","","","","","","","","","","","","",""
"","ISI","","html-keyboard-response","362","434082","0.0-1.0-480.0","0","0","86282","","null","","","null","53","NaN","","","","","","","","","","","","","","",""
"","S2","","html-keyboard-response","363","434336","0.0-1.0-481.0","0","0","86282","","null","","","null","53","","NaN","","","","","","","","","","","","","",""
"","response","","html-keyboard-response","364","435006","0.0-1.0-482.0-0.0","0","0","86282","","666","","","68","53","","","2","53","training","adjacent","EF","5","6","M.jpg","N.jpg","1","1","1","",""
"","feedback","","html-keyboard-response","365","436012","0.0-1.0-483.0-0.0","0","0","86282","","null","","","null","53","","","","","","","","","","","","","","","",""
"","ITI","","html-keyboard-response","366","437037","0.0-1.0-486.0","0","0","86282","","null","","","null","53","","","","","","","","","","","","","","","NaN",""
"","S1","","html-keyboard-response","367","437299","0.0-1.0-488.0","0","0","86282","","null","","","null","54","","","","","","","","","","","","","","","",""
"","ISI","","html-keyboard-response","368","437804","0.0-1.0-489.0","0","0","86282","","null","","","null","54","NaN","","","","","","","","","","","","","","",""
"","S2","","html-keyboard-response","369","438075","0.0-1.0-490.0","0","0","86282","","null","","","null","54","","NaN","","","","","","","","","","","","","",""
"","response","","html-keyboard-response","370","438425","0.0-1.0-491.0-0.0","0","0","86282","","303","","","75","54","","","2","54","training","adjacent","BA","2","1","O.jpg","L.jpg","0","0","1","",""
"","feedback","","html-keyboard-response","371","439430","0.0-1.0-492.0-0.0","0","0","86282","","null","","","null","54","","","","","","","","","","","","","","","",""
"","ITI","","html-keyboard-response","372","440435","0.0-1.0-495.0","0","0","86282","","null","","","null","54","","","","","","","","","","","","","","","NaN",""
"","S1","","html-keyboard-response","373","440690","0.0-1.0-497.0","0","0","86282","","null","","","null","55","","","","","","","","","","","","","","","",""
"","ISI","","html-keyboard-response","374","441195","0.0-1.0-498.0","0","0","86282","","null","","","null","55","NaN","","","","","","","","","","","","","","",""
"","S2","","html-keyboard-response","375","441450","0.0-1.0-499.0","0","0","86282","","null","","","null","55","","NaN","","","","","","","","","","","","","",""
"","response","","html-keyboard-response","376","442093","0.0-1.0-500.0-0.0","0","0","86282","","634","","","68","55","","","2","55","training","adjacent","CB","3","2","R.jpg","O.jpg","1","0","0","",""
"","feedback","","html-keyboard-response","377","443098","0.0-1.0-501.0-0.0","0","0","86282","","null","","","null","55","","","","","","","","","","","","","","","",""
"","time_out","","html-keyboard-response","378","445109","0.0-1.0-503.0-0.0","0","0","86282","","null","","","null","55","","","","","","","","","","","","","","","",""
"","ITI","","html-keyboard-response","379","446116","0.0-1.0-504.0","0","0","86282","","null","","","null","55","","","","","","","","","","","","","","","NaN",""
"","S1","","html-keyboard-response","380","446370","0.0-1.0-506.0","0","0","86282","","null","","","null","56","","","","","","","","","","","","","","","",""
"","ISI","","html-keyboard-response","381","446874","0.0-1.0-507.0","0","0","86282","","null","","","null","56","NaN","","","","","","","","","","","","","","",""
"","S2","","html-keyboard-response","382","447192","0.0-1.0-508.0","0","0","86282","","null","","","null","56","","NaN","","","","","","","","","","","","","",""
"","response","","html-keyboard-response","383","447877","0.0-1.0-509.0-0.0","0","0","86282","","677","","","75","56","","","2","56","training","adjacent","FG","6","7","N.jpg","P.jpg","0","1","0","",""
"","feedback","","html-keyboard-response","384","448884","0.0-1.0-510.0-0.0","0","0","86282","","null","","","null","56","","","","","","","","","","","","","","","",""
"","time_out","","html-keyboard-response","385","450893","0.0-1.0-512.0-0.0","0","0","86282","","null","","","null","56","","","","","","","","","","","","","","","",""
"","ITI","","html-keyboard-response","386","451899","0.0-1.0-513.0","0","0","86282","","null","","","null","56","","","","","","","","","","","","","","","NaN",""
"","S1","","html-keyboard-response","387","452154","0.0-1.0-515.0","0","0","86282","","null","","","null","57","","","","","","","","","","","","","","","",""
"","ISI","","html-keyboard-response","388","452659","0.0-1.0-516.0","0","0","86282","","null","","","null","57","NaN","","","","","","","","","","","","","","",""
"","S2","","html-keyboard-response","389","452917","0.0-1.0-517.0","0","0","86282","","null","","","null","57","","NaN","","","","","","","","","","","","","",""
"","response","","html-keyboard-response","390","454166","0.0-1.0-518.0-0.0","0","0","86282","","1242","","","75","57","","","2","57","training","adjacent","FE","6","5","N.jpg","M.jpg","0","0","1","",""
"","feedback","","html-keyboard-response","391","455177","0.0-1.0-519.0-0.0","0","0","86282","","null","","","null","57","","","","","","","","","","","","","","","",""
"","ITI","","html-keyboard-response","392","456186","0.0-1.0-522.0","0","0","86282","","null","","","null","57","","","","","","","","","","","","","","","NaN",""
"","S1","","html-keyboard-response","393","456445","0.0-1.0-524.0","0","0","86282","","null","","","null","58","","","","","","","","","","","","","","","",""
"","ISI","","html-keyboard-response","394","456948","0.0-1.0-525.0","0","0","86282","","null","","","null","58","NaN","","","","","","","","","","","","","","",""
"","S2","","html-keyboard-response","395","457222","0.0-1.0-526.0","0","0","86282","","null","","","null","58","","NaN","","","","","","","","","","","","","",""
"","response","","html-keyboard-response","396","457977","0.0-1.0-527.0-0.0","0","0","86282","","748","","","68","58","","","2","58","training","adjacent","EF","5","6","M.jpg","N.jpg","1","1","1","",""
"","feedback","","html-keyboard-response","397","458987","0.0-1.0-528.0-0.0","0","0","86282","","null","","","null","58","","","","","","","","","","","","","","","",""
"","ITI","","html-keyboard-response","398","460013","0.0-1.0-531.0","0","0","86282","","null","","","null","58","","","","","","","","","","","","","","","NaN",""
"","S1","","html-keyboard-response","399","460270","0.0-1.0-533.0","0","0","86282","","null","","","null","59","","","","","","","","","","","","","","","",""
"","ISI","","html-keyboard-response","400","460774","0.0-1.0-534.0","0","0","86282","","null","","","null","59","NaN","","","","","","","","","","","","","","",""
"","S2","","html-keyboard-response","401","461030","0.0-1.0-535.0","0","0","86282","","null","","","null","59","","NaN","","","","","","","","","","","","","",""
"","response","","html-keyboard-response","402","461878","0.0-1.0-536.0-0.0","0","0","86282","","844","","","75","59","","","2","59","training","adjacent","CB","3","2","R.jpg","O.jpg","0","0","1","",""
"","feedback","","html-keyboard-response","403","462886","0.0-1.0-537.0-0.0","0","0","86282","","null","","","null","59","","","","","","","","","","","","","","","",""
"","ITI","","html-keyboard-response","404","463892","0.0-1.0-540.0","0","0","86282","","null","","","null","59","","","","","","","","","","","","","","","NaN",""
"","S1","","html-keyboard-response","405","464148","0.0-1.0-542.0","0","0","86282","","null","","","null","60","","","","","","","","","","","","","","","",""
"","ISI","","html-keyboard-response","406","464654","0.0-1.0-543.0","0","0","86282","","null","","","null","60","NaN","","","","","","","","","","","","","","",""
"","S2","","html-keyboard-response","407","465031","0.0-1.0-544.0","0","0","86282","","null","","","null","60","","NaN","","","","","","","","","","","","","",""
"","response","","html-keyboard-response","408","466216","0.0-1.0-545.0-0.0","0","0","86282","","1179","","","68","60","","","2","60","training","adjacent","BC","2","3","O.jpg","R.jpg","1","1","1","",""
"","feedback","","html-keyboard-response","409","467228","0.0-1.0-546.0-0.0","0","0","86282","","null","","","null","60","","","","","","","","","","","","","","","",""
"","ITI","","html-keyboard-response","410","468242","0.0-1.0-549.0","0","0","86282","","null","","","null","60","","","","","","","","","","","","","","","NaN",""
"","S1","","html-keyboard-response","411","468594","0.0-1.0-551.0","0","0","86282","","null","","","null","61","","","","","","","","","","","","","","","",""
"","ISI","","html-keyboard-response","412","469101","0.0-1.0-552.0","0","0","86282","","null","","","null","61","NaN","","","","","","","","","","","","","","",""
"","S2","","html-keyboard-response","413","469363","0.0-1.0-553.0","0","0","86282","","null","","","null","61","","NaN","","","","","","","","","","","","","",""
"","response","","html-keyboard-response","414","470932","0.0-1.0-554.0-0.0","0","0","86282","","1562","","","68","61","","","2","61","training","adjacent","FG","6","7","N.jpg","P.jpg","1","1","1","",""
"","feedback","","html-keyboard-response","415","471940","0.0-1.0-555.0-0.0","0","0","86282","","null","","","null","61","","","","","","","","","","","","","","","",""
"","ITI","","html-keyboard-response","416","472959","0.0-1.0-558.0","0","0","86282","","null","","","null","61","","","","","","","","","","","","","","","NaN",""
"","S1","","html-keyboard-response","417","473214","0.0-1.0-560.0","0","0","86282","","null","","","null","62","","","","","","","","","","","","","","","",""
"","ISI","","html-keyboard-response","418","473726","0.0-1.0-561.0","0","0","86282","","null","","","null","62","NaN","","","","","","","","","","","","","","",""
"","S2","","html-keyboard-response","419","474001","0.0-1.0-562.0","0","0","86282","","null","","","null","62","","NaN","","","","","","","","","","","","","",""
"","response","","html-keyboard-response","420","474648","0.0-1.0-563.0-0.0","0","0","86282","","640","","","75","62","","","2","62","training","adjacent","CB","3","2","R.jpg","O.jpg","0","0","1","",""
"","feedback","","html-keyboard-response","421","475658","0.0-1.0-564.0-0.0","0","0","86282","","null","","","null","62","","","","","","","","","","","","","","","",""
"","ITI","","html-keyboard-response","422","476665","0.0-1.0-567.0","0","0","86282","","null","","","null","62","","","","","","","","","","","","","","","NaN",""
"","S1","","html-keyboard-response","423","476923","0.0-1.0-569.0","0","0","86282","","null","","","null","63","","","","","","","","","","","","","","","",""
"","ISI","","html-keyboard-response","424","477431","0.0-1.0-570.0","0","0","86282","","null","","","null","63","NaN","","","","","","","","","","","","","","",""
"","S2","","html-keyboard-response","425","477695","0.0-1.0-571.0","0","0","86282","","null","","","null","63","","NaN","","","","","","","","","","","","","",""
"","response","","html-keyboard-response","426","479154","0.0-1.0-572.0-0.0","0","0","86282","","1450","","","75","63","","","2","63","training","adjacent","DC","4","3","Q.jpg","R.jpg","0","0","1","",""
"","feedback","","html-keyboard-response","427","480159","0.0-1.0-573.0-0.0","0","0","86282","","null","","","null","63","","","","","","","","","","","","","","","",""
"","ITI","","html-keyboard-response","428","481165","0.0-1.0-576.0","0","0","86282","","null","","","null","63","","","","","","","","","","","","","","","NaN",""
"","S1","","html-keyboard-response","429","481428","0.0-1.0-578.0","0","0","86282","","null","","","null","64","","","","","","","","","","","","","","","",""
"","ISI","","html-keyboard-response","430","481934","0.0-1.0-579.0","0","0","86282","","null","","","null","64","NaN","","","","","","","","","","","","","","",""
"","S2","","html-keyboard-response","431","482189","0.0-1.0-580.0","0","0","86282","","null","","","null","64","","NaN","","","","","","","","","","","","","",""
"","response","","html-keyboard-response","432","483127","0.0-1.0-581.0-0.0","0","0","86282","","934","","","75","64","","","2","64","training","adjacent","DE","4","5","Q.jpg","M.jpg","0","1","0","",""
"","feedback","","html-keyboard-response","433","484133","0.0-1.0-582.0-0.0","0","0","86282","","null","","","null","64","","","","","","","","","","","","","","","",""
"","time_out","","html-keyboard-response","434","486138","0.0-1.0-584.0-0.0","0","0","86282","","null","","","null","64","","","","","","","","","","","","","","","",""
"","ITI","","html-keyboard-response","435","487147","0.0-1.0-585.0","0","0","86282","","null","","","null","64","","","","","","","","","","","","","","","NaN",""
"","S1","","html-keyboard-response","436","487404","0.0-1.0-587.0","0","0","86282","","null","","","null","65","","","","","","","","","","","","","","","",""
"","ISI","","html-keyboard-response","437","487911","0.0-1.0-588.0","0","0","86282","","null","","","null","65","NaN","","","","","","","","","","","","","","",""
"","S2","","html-keyboard-response","438","488169","0.0-1.0-589.0","0","0","86282","","null","","","null","65","","NaN","","","","","","","","","","","","","",""
"","response","","html-keyboard-response","439","489930","0.0-1.0-590.0-0.0","0","0","86282","","null","","","null","65","","","2","65","training","adjacent","FE","6","5","N.jpg","M.jpg","NaN","0","0","",""
"","too_slow_prompt","","html-keyboard-response","440","490938","0.0-1.0-592.0-0.0","1","0","86282","","null","","","null","","","","","","","","","","","","","","","","",""
"","time_out","","html-keyboard-response","441","492944","0.0-1.0-593.0-0.0","0","0","86282","","null","","","null","65","","","","","","","","","","","","","","","",""
"","ITI","","html-keyboard-response","442","493954","0.0-1.0-594.0","0","0","86282","","null","","","null","65","","","","","","","","","","","","","","","NaN",""
"","S1","","html-keyboard-response","443","494225","0.0-1.0-596.0","0","0","86282","","null","","","null","66","","","","","","","","","","","","","","","",""
"","ISI","","html-keyboard-response","444","494730","0.0-1.0-597.0","0","0","86282","","null","","","null","66","NaN","","","","","","","","","","","","","","",""
"","S2","","html-keyboard-response","445","494990","0.0-1.0-598.0","0","0","86282","","null","","","null","66","","NaN","","","","","","","","","","","","","",""
"","response","","html-keyboard-response","446","495616","0.0-1.0-599.0-0.0","0","0","86282","","620","","","68","66","","","2","66","training","adjacent","DC","4","3","Q.jpg","R.jpg","1","0","0","",""
"","feedback","","html-keyboard-response","447","496625","0.0-1.0-600.0-0.0","0","0","86282","","null","","","null","66","","","","","","","","","","","","","","","",""
"","time_out","","html-keyboard-response","448","498632","0.0-1.0-602.0-0.0","0","0","86282","","null","","","null","66","","","","","","","","","","","","","","","",""
"","ITI","","html-keyboard-response","449","499643","0.0-1.0-603.0","0","0","86282","","null","","","null","66","","","","","","","","","","","","","","","NaN",""
"","S1","","html-keyboard-response","450","499900","0.0-1.0-605.0","0","0","86282","","null","","","null","67","","","","","","","","","","","","","","","",""
"","ISI","","html-keyboard-response","451","500421","0.0-1.0-606.0","0","0","86282","","null","","","null","67","NaN","","","","","","","","","","","","","","",""
"","S2","","html-keyboard-response","452","500678","0.0-1.0-607.0","0","0","86282","","null","","","null","67","","NaN","","","","","","","","","","","","","",""
"","response","","html-keyboard-response","453","501551","0.0-1.0-608.0-0.0","0","0","86282","","866","","","68","67","","","2","67","training","adjacent","DC","4","3","Q.jpg","R.jpg","1","0","0","",""
"","feedback","","html-keyboard-response","454","502561","0.0-1.0-609.0-0.0","0","0","86282","","null","","","null","67","","","","","","","","","","","","","","","",""
"","time_out","","html-keyboard-response","455","504569","0.0-1.0-611.0-0.0","0","0","86282","","null","","","null","67","","","","","","","","","","","","","","","",""
"","ITI","","html-keyboard-response","456","505580","0.0-1.0-612.0","0","0","86282","","null","","","null","67","","","","","","","","","","","","","","","NaN",""
"","S1","","html-keyboard-response","457","505838","0.0-1.0-614.0","0","0","86282","","null","","","null","68","","","","","","","","","","","","","","","",""
"","ISI","","html-keyboard-response","458","506345","0.0-1.0-615.0","0","0","86282","","null","","","null","68","NaN","","","","","","","","","","","","","","",""
"","S2","","html-keyboard-response","459","506605","0.0-1.0-616.0","0","0","86282","","null","","","null","68","","NaN","","","","","","","","","","","","","",""
"","response","","html-keyboard-response","460","506989","0.0-1.0-617.0-0.0","0","0","86282","","377","","","75","68","","","2","68","training","adjacent","DC","4","3","Q.jpg","R.jpg","0","0","1","",""
"","feedback","","html-keyboard-response","461","508016","0.0-1.0-618.0-0.0","0","0","86282","","null","","","null","68","","","","","","","","","","","","","","","",""
"","ITI","","html-keyboard-response","462","509022","0.0-1.0-621.0","0","0","86282","","null","","","null","68","","","","","","","","","","","","","","","NaN",""
"","S1","","html-keyboard-response","463","509294","0.0-1.0-623.0","0","0","86282","","null","","","null","69","","","","","","","","","","","","","","","",""
"","ISI","","html-keyboard-response","464","509802","0.0-1.0-624.0","0","0","86282","","null","","","null","69","NaN","","","","","","","","","","","","","","",""
"","S2","","html-keyboard-response","465","510059","0.0-1.0-625.0","0","0","86282","","null","","","null","69","","NaN","","","","","","","","","","","","","",""
"","response","","html-keyboard-response","466","511158","0.0-1.0-626.0-0.0","0","0","86282","","1090","","","75","69","","","2","69","training","adjacent","AB","1","2","L.jpg","O.jpg","0","1","0","",""
"","feedback","","html-keyboard-response","467","512168","0.0-1.0-627.0-0.0","0","0","86282","","null","","","null","69","","","","","","","","","","","","","","","",""
"","time_out","","html-keyboard-response","468","514176","0.0-1.0-629.0-0.0","0","0","86282","","null","","","null","69","","","","","","","","","","","","","","","",""
"","ITI","","html-keyboard-response","469","515184","0.0-1.0-630.0","0","0","86282","","null","","","null","69","","","","","","","","","","","","","","","NaN",""
"","S1","","html-keyboard-response","470","515439","0.0-1.0-632.0","0","0","86282","","null","","","null","70","","","","","","","","","","","","","","","",""
"","ISI","","html-keyboard-response","471","515943","0.0-1.0-633.0","0","0","86282","","null","","","null","70","NaN","","","","","","","","","","","","","","",""
"","S2","","html-keyboard-response","472","516206","0.0-1.0-634.0","0","0","86282","","null","","","null","70","","NaN","","","","","","","","","","","","","",""
"","response","","html-keyboard-response","473","517240","0.0-1.0-635.0-0.0","0","0","86282","","1026","","","75","70","","","2","70","training","adjacent","DE","4","5","Q.jpg","M.jpg","0","1","0","",""
"","feedback","","html-keyboard-response","474","518250","0.0-1.0-636.0-0.0","0","0","86282","","null","","","null","70","","","","","","","","","","","","","","","",""
"","time_out","","html-keyboard-response","475","520259","0.0-1.0-638.0-0.0","0","0","86282","","null","","","null","70","","","","","","","","","","","","","","","",""
"","ITI","","html-keyboard-response","476","521271","0.0-1.0-639.0","0","0","86282","","null","","","null","70","","","","","","","","","","","","","","","NaN",""
"","S1","","html-keyboard-response","477","521527","0.0-1.0-641.0","0","0","86282","","null","","","null","71","","","","","","","","","","","","","","","",""
"","ISI","","html-keyboard-response","478","522033","0.0-1.0-642.0","0","0","86282","","null","","","null","71","NaN","","","","","","","","","","","","","","",""
"","S2","","html-keyboard-response","479","522289","0.0-1.0-643.0","0","0","86282","","null","","","null","71","","NaN","","","","","","","","","","","","","",""
"","response","","html-keyboard-response","480","522649","0.0-1.0-644.0-0.0","0","0","86282","","355","","","68","71","","","2","71","training","adjacent","FE","6","5","N.jpg","M.jpg","1","0","0","",""
"","feedback","","html-keyboard-response","481","523670","0.0-1.0-645.0-0.0","0","0","86282","","null","","","null","71","","","","","","","","","","","","","","","",""
"","time_out","","html-keyboard-response","482","525701","0.0-1.0-647.0-0.0","0","0","86282","","null","","","null","71","","","","","","","","","","","","","","","",""
"","ITI","","html-keyboard-response","483","526705","0.0-1.0-648.0","0","0","86282","","null","","","null","71","","","","","","","","","","","","","","","NaN",""
"","S1","","html-keyboard-response","484","526960","0.0-1.0-650.0","0","0","86282","","null","","","null","72","","","","","","","","","","","","","","","",""
"","ISI","","html-keyboard-response","485","527468","0.0-1.0-651.0","0","0","86282","","null","","","null","72","NaN","","","","","","","","","","","","","","",""
"","S2","","html-keyboard-response","486","527724","0.0-1.0-652.0","0","0","86282","","null","","","null","72","","NaN","","","","","","","","","","","","","",""
"","response","","html-keyboard-response","487","528676","0.0-1.0-653.0-0.0","0","0","86282","","946","","","75","72","","","2","72","training","adjacent","AB","1","2","L.jpg","O.jpg","0","1","0","",""
"","feedback","","html-keyboard-response","488","529684","0.0-1.0-654.0-0.0","0","0","86282","","null","","","null","72","","","","","","","","","","","","","","","",""
"","time_out","","html-keyboard-response","489","531691","0.0-1.0-656.0-0.0","0","0","86282","","null","","","null","72","","","","","","","","","","","","","","","",""
"","ITI","","html-keyboard-response","490","532698","0.0-1.0-657.0","0","0","86282","","null","","","null","72","","","","","","","","","","","","","","","NaN",""
"","S1","","html-keyboard-response","491","532956","0.0-1.0-659.0","0","0","86282","","null","","","null","73","","","","","","","","","","","","","","","",""
"","ISI","","html-keyboard-response","492","533464","0.0-1.0-660.0","0","0","86282","","null","","","null","73","NaN","","","","","","","","","","","","","","",""
"","S2","","html-keyboard-response","493","533720","0.0-1.0-661.0","0","0","86282","","null","","","null","73","","NaN","","","","","","","","","","","","","",""
"","response","","html-keyboard-response","494","533788","0.0-1.0-662.0-0.0","0","0","86282","","61","","","75","73","","","2","73","training","adjacent","FE","6","5","N.jpg","M.jpg","0","0","1","",""
"","feedback","","html-keyboard-response","495","534798","0.0-1.0-663.0-0.0","0","0","86282","","null","","","null","73","","","","","","","","","","","","","","","",""
"","ITI","","html-keyboard-response","496","535809","0.0-1.0-666.0","0","0","86282","","null","","","null","73","","","","","","","","","","","","","","","NaN",""
"","S1","","html-keyboard-response","497","536067","0.0-1.0-668.0","0","0","86282","","null","","","null","74","","","","","","","","","","","","","","","",""
"","ISI","","html-keyboard-response","498","536574","0.0-1.0-669.0","0","0","86282","","null","","","null","74","NaN","","","","","","","","","","","","","","",""
"","S2","","html-keyboard-response","499","536839","0.0-1.0-670.0","0","0","86282","","null","","","null","74","","NaN","","","","","","","","","","","","","",""
"","response","","html-keyboard-response","500","537080","0.0-1.0-671.0-0.0","0","0","86282","","234","","","68","74","","","2","74","training","adjacent","AB","1","2","L.jpg","O.jpg","1","1","1","",""
"","feedback","","html-keyboard-response","501","538092","0.0-1.0-672.0-0.0","0","0","86282","","null","","","null","74","","","","","","","","","","","","","","","",""
"","ITI","","html-keyboard-response","502","539097","0.0-1.0-675.0","0","0","86282","","null","","","null","74","","","","","","","","","","","","","","","NaN",""
"","S1","","html-keyboard-response","503","539356","0.0-1.0-677.0","0","0","86282","","null","","","null","75","","","","","","","","","","","","","","","",""
"","ISI","","html-keyboard-response","504","539863","0.0-1.0-678.0","0","0","86282","","null","","","null","75","NaN","","","","","","","","","","","","","","",""
"","S2","","html-keyboard-response","505","540116","0.0-1.0-679.0","0","0","86282","","249","","","68","75","","d","2","75","training","adjacent","ED","5","4","M.jpg","Q.jpg","1","0","0","",""
"","feedback","","html-keyboard-response","506","541125","0.0-1.0-681.0-0.0","0","0","86282","","null","","","null","75","","","","","","","","","","","","","","","",""
"","time_out","","html-keyboard-response","507","543134","0.0-1.0-683.0-0.0","0","0","86282","","null","","","null","75","","","","","","","","","","","","","","","",""
"","ITI","","html-keyboard-response","508","544145","0.0-1.0-684.0","0","0","86282","","null","","","null","75","","","","","","","","","","","","","","","NaN",""
"","S1","","html-keyboard-response","509","544401","0.0-1.0-686.0","0","0","86282","","null","","","null","76","","","","","","","","","","","","","","","",""
"","ISI","","html-keyboard-response","510","544906","0.0-1.0-687.0","0","0","86282","","null","","","null","76","NaN","","","","","","","","","","","","","","",""
"","S2","","html-keyboard-response","511","545163","0.0-1.0-688.0","0","0","86282","","null","","","null","76","","NaN","","","","","","","","","","","","","",""
"","response","","html-keyboard-response","512","545509","0.0-1.0-689.0-0.0","0","0","86282","","337","","","68","76","","","2","76","training","adjacent","GF","7","6","P.jpg","N.jpg","1","0","0","",""
"","feedback","","html-keyboard-response","513","546517","0.0-1.0-690.0-0.0","0","0","86282","","null","","","null","76","","","","","","","","","","","","","","","",""
"","time_out","","html-keyboard-response","514","548525","0.0-1.0-692.0-0.0","0","0","86282","","null","","","null","76","","","","","","","","","","","","","","","",""
"","ITI","","html-keyboard-response","515","549532","0.0-1.0-693.0","0","0","86282","","null","","","null","76","","","","","","","","","","","","","","","NaN",""
"","S1","","html-keyboard-response","516","549787","0.0-1.0-695.0","0","0","86282","","null","","","null","77","","","","","","","","","","","","","","","",""
"","ISI","","html-keyboard-response","517","550293","0.0-1.0-696.0","0","0","86282","","null","","","null","77","NaN","","","","","","","","","","","","","","",""
"","S2","","html-keyboard-response","518","550591","0.0-1.0-697.0","0","0","86282","","null","","","null","77","","NaN","","","","","","","","","","","","","",""
"","response","","html-keyboard-response","519","550697","0.0-1.0-698.0-0.0","0","0","86282","","101","","","75","77","","","2","77","training","adjacent","BC","2","3","O.jpg","R.jpg","0","1","0","",""
"","feedback","","html-keyboard-response","520","551762","0.0-1.0-699.0-0.0","0","0","86282","","null","","","null","77","","","","","","","","","","","","","","","",""
"","time_out","","html-keyboard-response","521","553774","0.0-1.0-701.0-0.0","0","0","86282","","null","","","null","77","","","","","","","","","","","","","","","",""
"","ITI","","html-keyboard-response","522","554779","0.0-1.0-702.0","0","0","86282","","null","","","null","77","","","","","","","","","","","","","","","NaN",""
"","S1","","html-keyboard-response","523","555042","0.0-1.0-704.0","0","0","86282","","null","","","null","78","","","","","","","","","","","","","","","",""
"","ISI","","html-keyboard-response","524","555547","0.0-1.0-705.0","0","0","86282","","null","","","null","78","NaN","","","","","","","","","","","","","","",""
"","S2","","html-keyboard-response","525","555811","0.0-1.0-706.0","0","0","86282","","null","","","null","78","","NaN","","","","","","","","","","","","","",""
"","response","","html-keyboard-response","526","556067","0.0-1.0-707.0-0.0","0","0","86282","","250","","","68","78","","","2","78","training","adjacent","CD","3","4","R.jpg","Q.jpg","1","1","1","",""
"","feedback","","html-keyboard-response","527","557113","0.0-1.0-708.0-0.0","0","0","86282","","null","","","null","78","","","","","","","","","","","","","","","",""
"","ITI","","html-keyboard-response","528","558143","0.0-1.0-711.0","0","0","86282","","null","","","null","78","","","","","","","","","","","","","","","NaN",""
"","S1","","html-keyboard-response","529","558403","0.0-1.0-713.0","0","0","86282","","null","","","null","79","","","","","","","","","","","","","","","",""
"","ISI","","html-keyboard-response","530","558910","0.0-1.0-714.0","0","0","86282","","null","","","null","79","NaN","","","","","","","","","","","","","","",""
"","S2","","html-keyboard-response","531","559172","0.0-1.0-715.0","0","0","86282","","null","","","null","79","","NaN","","","","","","","","","","","","","",""
"","response","","html-keyboard-response","532","559325","0.0-1.0-716.0-0.0","0","0","86282","","148","","","68","79","","","2","79","training","adjacent","ED","5","4","M.jpg","Q.jpg","1","0","0","",""
"","feedback","","html-keyboard-response","533","560331","0.0-1.0-717.0-0.0","0","0","86282","","null","","","null","79","","","","","","","","","","","","","","","",""
"","time_out","","html-keyboard-response","534","562340","0.0-1.0-719.0-0.0","0","0","86282","","null","","","null","79","","","","","","","","","","","","","","","",""
"","ITI","","html-keyboard-response","535","563345","0.0-1.0-720.0","0","0","86282","","null","","","null","79","","","","","","","","","","","","","","","NaN",""
"","S1","","html-keyboard-response","536","563601","0.0-1.0-722.0","0","0","86282","","null","","","null","80","","","","","","","","","","","","","","","",""
"","ISI","","html-keyboard-response","537","564124","0.0-1.0-723.0","0","0","86282","","null","","","null","80","NaN","","","","","","","","","","","","","","",""
"","S2","","html-keyboard-response","538","564406","0.0-1.0-724.0","0","0","86282","","null","","","null","80","","NaN","","","","","","","","","","","","","",""
"","response","","html-keyboard-response","539","564615","0.0-1.0-725.0-0.0","0","0","86282","","200","","","68","80","","","2","80","training","adjacent","FG","6","7","N.jpg","P.jpg","1","1","1","",""
"","feedback","","html-keyboard-response","540","565626","0.0-1.0-726.0-0.0","0","0","86282","","null","","","null","80","","","","","","","","","","","","","","","",""
"","ITI","","html-keyboard-response","541","566636","0.0-1.0-729.0","0","0","86282","","null","","","null","80","","","","","","","","","","","","","","","NaN",""
"","S1","","html-keyboard-response","542","566893","0.0-1.0-731.0","0","0","86282","","null","","","null","81","","","","","","","","","","","","","","","",""
"","ISI","","html-keyboard-response","543","567415","0.0-1.0-732.0","0","0","86282","","null","","","null","81","NaN","","","","","","","","","","","","","","",""
"","S2","","html-keyboard-response","544","567673","0.0-1.0-733.0","0","0","86282","","null","","","null","81","","NaN","","","","","","","","","","","","","",""
"","response","","html-keyboard-response","545","568554","0.0-1.0-734.0-0.0","0","0","86282","","873","","","68","81","","","2","81","training","adjacent","GF","7","6","P.jpg","N.jpg","1","0","0","",""
"","feedback","","html-keyboard-response","546","569564","0.0-1.0-735.0-0.0","0","0","86282","","null","","","null","81","","","","","","","","","","","","","","","",""
"","time_out","","html-keyboard-response","547","571576","0.0-1.0-737.0-0.0","0","0","86282","","null","","","null","81","","","","","","","","","","","","","","","",""
"","ITI","","html-keyboard-response","548","572585","0.0-1.0-738.0","0","0","86282","","null","","","null","81","","","","","","","","","","","","","","","NaN",""
"","S1","","html-keyboard-response","549","572841","0.0-1.0-740.0","0","0","86282","","null","","","null","82","","","","","","","","","","","","","","","",""
"","ISI","","html-keyboard-response","550","573351","0.0-1.0-741.0","0","0","86282","","null","","","null","82","NaN","","","","","","","","","","","","","","",""
"","S2","","html-keyboard-response","551","573608","0.0-1.0-742.0","0","0","86282","","null","","","null","82","","NaN","","","","","","","","","","","","","",""
"","response","","html-keyboard-response","552","573924","0.0-1.0-743.0-0.0","0","0","86282","","310","","","75","82","","","2","82","training","adjacent","AB","1","2","L.jpg","O.jpg","0","1","0","",""
"","feedback","","html-keyboard-response","553","574930","0.0-1.0-744.0-0.0","0","0","86282","","null","","","null","82","","","","","","","","","","","","","","","",""
"","time_out","","html-keyboard-response","554","576939","0.0-1.0-746.0-0.0","0","0","86282","","null","","","null","82","","","","","","","","","","","","","","","",""
"","ITI","","html-keyboard-response","555","577947","0.0-1.0-747.0","0","0","86282","","null","","","null","82","","","","","","","","","","","","","","","NaN",""
"","S1","","html-keyboard-response","556","578202","0.0-1.0-749.0","0","0","86282","","null","","","null","83","","","","","","","","","","","","","","","",""
"","ISI","","html-keyboard-response","557","578734","0.0-1.0-750.0","0","0","86282","","null","","","null","83","NaN","","","","","","","","","","","","","","",""
"","S2","","html-keyboard-response","558","578795","0.0-1.0-751.0","0","0","86282","","56","","","68","83","","d","2","83","training","adjacent","CD","3","4","R.jpg","Q.jpg","1","1","1","",""
"","feedback","","html-keyboard-response","559","579804","0.0-1.0-753.0-0.0","0","0","86282","","null","","","null","83","","","","","","","","","","","","","","","",""
"","ITI","","html-keyboard-response","560","580815","0.0-1.0-756.0","0","0","86282","","null","","","null","83","","","","","","","","","","","","","","","NaN",""
"","S1","","html-keyboard-response","561","581074","0.0-1.0-758.0","0","0","86282","","null","","","null","84","","","","","","","","","","","","","","","",""
"","ISI","","html-keyboard-response","562","581581","0.0-1.0-759.0","0","0","86282","","null","","","null","84","NaN","","","","","","","","","","","","","","",""
"","S2","","html-keyboard-response","563","581837","0.0-1.0-760.0","0","0","86282","","null","","","null","84","","NaN","","","","","","","","","","","","","",""
"","response","","html-keyboard-response","564","582073","0.0-1.0-761.0-0.0","0","0","86282","","231","","","68","84","","","2","84","training","adjacent","CD","3","4","R.jpg","Q.jpg","1","1","1","",""
"","feedback","","html-keyboard-response","565","583080","0.0-1.0-762.0-0.0","0","0","86282","","null","","","null","84","","","","","","","","","","","","","","","",""
"","ITI","","html-keyboard-response","566","584090","0.0-1.0-765.0","0","0","86282","","null","","","null","84","","","","","","","","","","","","","","","NaN",""
"","S1","","html-keyboard-response","567","584345","0.0-1.0-767.0","0","0","86282","","null","","","null","85","","","","","","","","","","","","","","","",""
"","ISI","","html-keyboard-response","568","584852","0.0-1.0-768.0","0","0","86282","","null","","","null","85","NaN","","","","","","","","","","","","","","",""
"","S2","","html-keyboard-response","569","585113","0.0-1.0-769.0","0","0","86282","","null","","","null","85","","NaN","","","","","","","","","","","","","",""
"","response","","html-keyboard-response","570","585805","0.0-1.0-770.0-0.0","0","0","86282","","687","","","68","85","","","2","85","training","adjacent","EF","5","6","M.jpg","N.jpg","1","1","1","",""
"","feedback","","html-keyboard-response","571","586821","0.0-1.0-771.0-0.0","0","0","86282","","null","","","null","85","","","","","","","","","","","","","","","",""
"","ITI","","html-keyboard-response","572","587988","0.0-1.0-774.0","0","0","86282","","null","","","null","85","","","","","","","","","","","","","","","NaN",""
"","S1","","html-keyboard-response","573","588248","0.0-1.0-776.0","0","0","86282","","null","","","null","86","","","","","","","","","","","","","","","",""
"","ISI","","html-keyboard-response","574","588758","0.0-1.0-777.0","0","0","86282","","null","","","null","86","NaN","","","","","","","","","","","","","","",""
"","S2","","html-keyboard-response","575","589015","0.0-1.0-778.0","0","0","86282","","null","","","null","86","","NaN","","","","","","","","","","","","","",""
"","response","","html-keyboard-response","576","589821","0.0-1.0-779.0-0.0","0","0","86282","","798","","","75","86","","","2","86","training","adjacent","ED","5","4","M.jpg","Q.jpg","0","0","1","",""
"","feedback","","html-keyboard-response","577","590830","0.0-1.0-780.0-0.0","0","0","86282","","null","","","null","86","","","","","","","","","","","","","","","",""
"","ITI","","html-keyboard-response","578","591837","0.0-1.0-783.0","0","0","86282","","null","","","null","86","","","","","","","","","","","","","","","NaN",""
"","S1","","html-keyboard-response","579","592095","0.0-1.0-785.0","0","0","86282","","null","","","null","87","","","","","","","","","","","","","","","",""
