"success","ttype","start_time","trial_type","trial_index","time_elapsed","internal_node_id","warning","missed_checkup","PID","view_history","rt","responses","repeat_instructions","key_press","index","keypress_isi","keypress_S2","block","trial_num","phase","group_type","pair_type","S1_stim","S2_stim","S1_img","S2_img","S1_chosen","S1_higher","accuracy","keypress_iti","total_bonus_tally"
"true","full_screen","d04132023hr2051","fullscreen","0","7052","0.0-0.0","0","0","97586","","","","","","","","","","","","","","","","","","","","","",""
"","instructions","","instructions","1","33565","0.0-1.0-0.0-0.0","0","0","97586","[{""page_index"":0,""viewing_time"":5760},{""page_index"":1,""viewing_time"":6701},{""page_index"":2,""viewing_time"":11838},{""page_index"":3,""viewing_time"":2196}]","26499","","","","","","","","","","","","","","","","","","","",""
"","comprehension_check","","survey-multi-choice","2","59219","0.0-1.0-0.0-1.0","0","0","97586","","25617","{""Q0"":""True"",""Q1"":""D"",""Q2"":""Once the second image appears and while the screen 'MAKE A CHOICE' is shown"",""Q3"":""Green mark"",""Q4"":""either D or K""}","0","","","","","","","","","","","","","","","","","",""
"","start_exp","","html-keyboard-response","3","61357","0.0-1.0-1.0","0","0","97586","","2112","","","32","","","","","","","","","","","","","","","","",""
"","S1","","html-keyboard-response","4","61624","0.0-1.0-2.0","0","0","97586","","null","","","null","0","","","","","","","","","","","","","","","",""
"","ISI","","html-keyboard-response","5","62639","0.0-1.0-3.0","0","0","97586","","null","","","null","0","NaN","","","","","","","","","","","","","","",""
"","S2","","html-keyboard-response","6","62909","0.0-1.0-4.0","0","0","97586","","null","","","null","0","","NaN","","","","","","","","","","","","","",""
"","response","","html-keyboard-response","7","63767","0.0-1.0-5.0-0.0","0","0","97586","","845","","","68","0","","","1","0","training","adjacent","FE","6","5","N.jpg","M.jpg","1","0","0","",""
"","feedback","","html-keyboard-response","8","64790","0.0-1.0-6.0-0.0","0","0","97586","","null","","","null","0","","","","","","","","","","","","","","","",""
"","time_out","","html-keyboard-response","9","66814","0.0-1.0-8.0-0.0","0","0","97586","","null","","","null","0","","","","","","","","","","","","","","","",""
"","ITI","","html-keyboard-response","10","67830","0.0-1.0-9.0","0","0","97586","","null","","","null","0","","","","","","","","","","","","","","","NaN",""
"","S1","","html-keyboard-response","11","68101","0.0-1.0-11.0","0","0","97586","","null","","","null","1","","","","","","","","","","","","","","","",""
"","ISI","","html-keyboard-response","12","69118","0.0-1.0-12.0","0","0","97586","","null","","","null","1","NaN","","","","","","","","","","","","","","",""
"","S2","","html-keyboard-response","13","69392","0.0-1.0-13.0","0","0","97586","","null","","","null","1","","NaN","","","","","","","","","","","","","",""
"","response","","html-keyboard-response","14","70534","0.0-1.0-14.0-0.0","0","0","97586","","1132","","","68","1","","","1","1","training","adjacent","FG","6","7","N.jpg","L.jpg","1","1","1","",""
"","feedback","","html-keyboard-response","15","71547","0.0-1.0-15.0-0.0","0","0","97586","","null","","","null","1","","","","","","","","","","","","","","","",""
"","ITI","","html-keyboard-response","16","72567","0.0-1.0-18.0","0","0","97586","","null","","","null","1","","","","","","","","","","","","","","","NaN",""
"","S1","","html-keyboard-response","17","72831","0.0-1.0-20.0","0","0","97586","","null","","","null","2","","","","","","","","","","","","","","","",""
"","ISI","","html-keyboard-response","18","73845","0.0-1.0-21.0","0","0","97586","","null","","","null","2","NaN","","","","","","","","","","","","","","",""
"","S2","","html-keyboard-response","19","74118","0.0-1.0-22.0","0","0","97586","","null","","","null","2","","NaN","","","","","","","","","","","","","",""
"","response","","html-keyboard-response","20","75167","0.0-1.0-23.0-0.0","0","0","97586","","1039","","","75","2","","","1","2","training","adjacent","BC","2","3","P.jpg","Q.jpg","0","1","0","",""
"","feedback","","html-keyboard-response","21","76178","0.0-1.0-24.0-0.0","0","0","97586","","null","","","null","2","","","","","","","","","","","","","","","",""
"","time_out","","html-keyboard-response","22","78199","0.0-1.0-26.0-0.0","0","0","97586","","null","","","null","2","","","","","","","","","","","","","","","",""
"","ITI","","html-keyboard-response","23","79221","0.0-1.0-27.0","0","0","97586","","null","","","null","2","","","","","","","","","","","","","","","NaN",""
"","S1","","html-keyboard-response","24","79482","0.0-1.0-29.0","0","0","97586","","null","","","null","3","","","","","","","","","","","","","","","",""
"","ISI","","html-keyboard-response","25","80502","0.0-1.0-30.0","0","0","97586","","null","","","null","3","NaN","","","","","","","","","","","","","","",""
"","S2","","html-keyboard-response","26","80767","0.0-1.0-31.0","0","0","97586","","null","","","null","3","","NaN","","","","","","","","","","","","","",""
"","response","","html-keyboard-response","27","81959","0.0-1.0-32.0-0.0","0","0","97586","","1182","","","68","3","","","1","3","training","adjacent","EF","5","6","M.jpg","N.jpg","1","1","1","",""
"","feedback","","html-keyboard-response","28","82978","0.0-1.0-33.0-0.0","0","0","97586","","null","","","null","3","","","","","","","","","","","","","","","",""
"","ITI","","html-keyboard-response","29","83997","0.0-1.0-36.0","0","0","97586","","null","","","null","3","","","","","","","","","","","","","","","NaN",""
"","S1","","html-keyboard-response","30","84270","0.0-1.0-38.0","0","0","97586","","null","","","null","4","","","","","","","","","","","","","","","",""
"","ISI","","html-keyboard-response","31","85287","0.0-1.0-39.0","0","0","97586","","null","","","null","4","NaN","","","","","","","","","","","","","","",""
"","S2","","html-keyboard-response","32","85557","0.0-1.0-40.0","0","0","97586","","null","","","null","4","","NaN","","","","","","","","","","","","","",""
"","response","","html-keyboard-response","33","86245","0.0-1.0-41.0-0.0","0","0","97586","","676","","","68","4","","","1","4","training","adjacent","CB","3","2","Q.jpg","P.jpg","1","0","0","",""
"","feedback","","html-keyboard-response","34","87262","0.0-1.0-42.0-0.0","0","0","97586","","null","","","null","4","","","","","","","","","","","","","","","",""
"","time_out","","html-keyboard-response","35","89293","0.0-1.0-44.0-0.0","0","0","97586","","null","","","null","4","","","","","","","","","","","","","","","",""
"","ITI","","html-keyboard-response","36","90309","0.0-1.0-45.0","0","0","97586","","null","","","null","4","","","","","","","","","","","","","","","NaN",""
"","S1","","html-keyboard-response","37","90574","0.0-1.0-47.0","0","0","97586","","null","","","null","5","","","","","","","","","","","","","","","",""
"","ISI","","html-keyboard-response","38","91590","0.0-1.0-48.0","0","0","97586","","null","","","null","5","NaN","","","","","","","","","","","","","","",""
"","S2","","html-keyboard-response","39","91855","0.0-1.0-49.0","0","0","97586","","null","","","null","5","","NaN","","","","","","","","","","","","","",""
"","response","","html-keyboard-response","40","92827","0.0-1.0-50.0-0.0","0","0","97586","","962","","","75","5","","","1","5","training","adjacent","CD","3","4","Q.jpg","R.jpg","0","1","0","",""
"","feedback","","html-keyboard-response","41","93847","0.0-1.0-51.0-0.0","0","0","97586","","null","","","null","5","","","","","","","","","","","","","","","",""
"","time_out","","html-keyboard-response","42","95864","0.0-1.0-53.0-0.0","0","0","97586","","null","","","null","5","","","","","","","","","","","","","","","",""
"","ITI","","html-keyboard-response","43","96888","0.0-1.0-54.0","0","0","97586","","null","","","null","5","","","","","","","","","","","","","","","NaN",""
"","S1","","html-keyboard-response","44","97158","0.0-1.0-56.0","0","0","97586","","null","","","null","6","","","","","","","","","","","","","","","",""
"","ISI","","html-keyboard-response","45","98175","0.0-1.0-57.0","0","0","97586","","null","","","null","6","NaN","","","","","","","","","","","","","","",""
"","S2","","html-keyboard-response","46","98446","0.0-1.0-58.0","0","0","97586","","null","","","null","6","","NaN","","","","","","","","","","","","","",""
"","response","","html-keyboard-response","47","99626","0.0-1.0-59.0-0.0","0","0","97586","","1168","","","68","6","","","1","6","training","adjacent","DC","4","3","R.jpg","Q.jpg","1","0","0","",""
"","feedback","","html-keyboard-response","48","100646","0.0-1.0-60.0-0.0","0","0","97586","","null","","","null","6","","","","","","","","","","","","","","","",""
"","time_out","","html-keyboard-response","49","102661","0.0-1.0-62.0-0.0","0","0","97586","","null","","","null","6","","","","","","","","","","","","","","","",""
"","ITI","","html-keyboard-response","50","103678","0.0-1.0-63.0","0","0","97586","","null","","","null","6","","","","","","","","","","","","","","","NaN",""
"","S1","","html-keyboard-response","51","103954","0.0-1.0-65.0","0","0","97586","","null","","","null","7","","","","","","","","","","","","","","","",""
"","ISI","","html-keyboard-response","52","104972","0.0-1.0-66.0","0","0","97586","","null","","","null","7","NaN","","","","","","","","","","","","","","",""
"","S2","","html-keyboard-response","53","105234","0.0-1.0-67.0","0","0","97586","","null","","","null","7","","NaN","","","","","","","","","","","","","",""
"","response","","html-keyboard-response","54","106238","0.0-1.0-68.0-0.0","0","0","97586","","993","","","68","7","","","1","7","training","adjacent","FG","6","7","N.jpg","L.jpg","1","1","1","",""
"","feedback","","html-keyboard-response","55","107261","0.0-1.0-69.0-0.0","0","0","97586","","null","","","null","7","","","","","","","","","","","","","","","",""
"","ITI","","html-keyboard-response","56","108279","0.0-1.0-72.0","0","0","97586","","null","","","null","7","","","","","","","","","","","","","","","NaN",""
"","S1","","html-keyboard-response","57","108543","0.0-1.0-74.0","0","0","97586","","null","","","null","8","","","","","","","","","","","","","","","",""
"","ISI","","html-keyboard-response","58","109558","0.0-1.0-75.0","0","0","97586","","null","","","null","8","NaN","","","","","","","","","","","","","","",""
"","S2","","html-keyboard-response","59","109830","0.0-1.0-76.0","0","0","97586","","null","","","null","8","","NaN","","","","","","","","","","","","","",""
"","response","","html-keyboard-response","60","110375","0.0-1.0-77.0-0.0","0","0","97586","","532","","","75","8","","","1","8","training","adjacent","AB","1","2","O.jpg","P.jpg","0","1","0","",""
"","feedback","","html-keyboard-response","61","111397","0.0-1.0-78.0-0.0","0","0","97586","","null","","","null","8","","","","","","","","","","","","","","","",""
"","time_out","","html-keyboard-response","62","113414","0.0-1.0-80.0-0.0","0","0","97586","","null","","","null","8","","","","","","","","","","","","","","","",""
"","ITI","","html-keyboard-response","63","114430","0.0-1.0-81.0","0","0","97586","","null","","","null","8","","","","","","","","","","","","","","","NaN",""
"","S1","","html-keyboard-response","64","114699","0.0-1.0-83.0","0","0","97586","","null","","","null","9","","","","","","","","","","","","","","","",""
"","ISI","","html-keyboard-response","65","115712","0.0-1.0-84.0","0","0","97586","","null","","","null","9","NaN","","","","","","","","","","","","","","",""
"","S2","","html-keyboard-response","66","115975","0.0-1.0-85.0","0","0","97586","","null","","","null","9","","NaN","","","","","","","","","","","","","",""
"","response","","html-keyboard-response","67","116781","0.0-1.0-86.0-0.0","0","0","97586","","793","","","75","9","","","1","9","training","adjacent","CD","3","4","Q.jpg","R.jpg","0","1","0","",""
"","feedback","","html-keyboard-response","68","117799","0.0-1.0-87.0-0.0","0","0","97586","","null","","","null","9","","","","","","","","","","","","","","","",""
"","time_out","","html-keyboard-response","69","119823","0.0-1.0-89.0-0.0","0","0","97586","","null","","","null","9","","","","","","","","","","","","","","","",""
"","ITI","","html-keyboard-response","70","120846","0.0-1.0-90.0","0","0","97586","","null","","","null","9","","","","","","","","","","","","","","","NaN",""
"","S1","","html-keyboard-response","71","121117","0.0-1.0-92.0","0","0","97586","","null","","","null","10","","","","","","","","","","","","","","","",""
"","ISI","","html-keyboard-response","72","122135","0.0-1.0-93.0","0","0","97586","","null","","","null","10","NaN","","","","","","","","","","","","","","",""
"","S2","","html-keyboard-response","73","122405","0.0-1.0-94.0","0","0","97586","","null","","","null","10","","NaN","","","","","","","","","","","","","",""
"","response","","html-keyboard-response","74","123158","0.0-1.0-95.0-0.0","0","0","97586","","741","","","68","10","","","1","10","training","adjacent","FG","6","7","N.jpg","L.jpg","1","1","1","",""
"","feedback","","html-keyboard-response","75","124174","0.0-1.0-96.0-0.0","0","0","97586","","null","","","null","10","","","","","","","","","","","","","","","",""
"","ITI","","html-keyboard-response","76","125189","0.0-1.0-99.0","0","0","97586","","null","","","null","10","","","","","","","","","","","","","","","NaN",""
"","S1","","html-keyboard-response","77","125459","0.0-1.0-101.0","0","0","97586","","null","","","null","11","","","","","","","","","","","","","","","",""
"","ISI","","html-keyboard-response","78","126477","0.0-1.0-102.0","0","0","97586","","null","","","null","11","NaN","","","","","","","","","","","","","","",""
"","S2","","html-keyboard-response","79","126750","0.0-1.0-103.0","0","0","97586","","null","","","null","11","","NaN","","","","","","","","","","","","","",""
"","response","","html-keyboard-response","80","127096","0.0-1.0-104.0-0.0","0","0","97586","","334","","","75","11","","","1","11","training","adjacent","AB","1","2","O.jpg","P.jpg","0","1","0","",""
"","feedback","","html-keyboard-response","81","128119","0.0-1.0-105.0-0.0","0","0","97586","","null","","","null","11","","","","","","","","","","","","","","","",""
"","time_out","","html-keyboard-response","82","130134","0.0-1.0-107.0-0.0","0","0","97586","","null","","","null","11","","","","","","","","","","","","","","","",""
"","ITI","","html-keyboard-response","83","131150","0.0-1.0-108.0","0","0","97586","","null","","","null","11","","","","","","","","","","","","","","","NaN",""
"","S1","","html-keyboard-response","84","131421","0.0-1.0-110.0","0","0","97586","","null","","","null","12","","","","","","","","","","","","","","","",""
"","ISI","","html-keyboard-response","85","132437","0.0-1.0-111.0","0","0","97586","","null","","","null","12","NaN","","","","","","","","","","","","","","",""
"","S2","","html-keyboard-response","86","132710","0.0-1.0-112.0","0","0","97586","","null","","","null","12","","NaN","","","","","","","","","","","","","",""
"","response","","html-keyboard-response","87","133266","0.0-1.0-113.0-0.0","0","0","97586","","542","","","75","12","","","1","12","training","adjacent","DE","4","5","R.jpg","M.jpg","0","1","0","",""
"","feedback","","html-keyboard-response","88","134285","0.0-1.0-114.0-0.0","0","0","97586","","null","","","null","12","","","","","","","","","","","","","","","",""
"","time_out","","html-keyboard-response","89","136302","0.0-1.0-116.0-0.0","0","0","97586","","null","","","null","12","","","","","","","","","","","","","","","",""
"","ITI","","html-keyboard-response","90","137327","0.0-1.0-117.0","0","0","97586","","null","","","null","12","","","","","","","","","","","","","","","NaN",""
"","S1","","html-keyboard-response","91","137598","0.0-1.0-119.0","0","0","97586","","null","","","null","13","","","","","","","","","","","","","","","",""
"","ISI","","html-keyboard-response","92","138615","0.0-1.0-120.0","0","0","97586","","null","","","null","13","NaN","","","","","","","","","","","","","","",""
"","S2","","html-keyboard-response","93","138888","0.0-1.0-121.0","0","0","97586","","null","","","null","13","","NaN","","","","","","","","","","","","","",""
"","response","","html-keyboard-response","94","139407","0.0-1.0-122.0-0.0","0","0","97586","","506","","","68","13","","","1","13","training","adjacent","CB","3","2","Q.jpg","P.jpg","1","0","0","",""
"","feedback","","html-keyboard-response","95","140432","0.0-1.0-123.0-0.0","0","0","97586","","null","","","null","13","","","","","","","","","","","","","","","",""
"","time_out","","html-keyboard-response","96","142455","0.0-1.0-125.0-0.0","0","0","97586","","null","","","null","13","","","","","","","","","","","","","","","",""
"","ITI","","html-keyboard-response","97","143470","0.0-1.0-126.0","0","0","97586","","null","","","null","13","","","","","","","","","","","","","","","NaN",""
"","S1","","html-keyboard-response","98","143743","0.0-1.0-128.0","0","0","97586","","null","","","null","14","","","","","","","","","","","","","","","",""
"","ISI","","html-keyboard-response","99","144757","0.0-1.0-129.0","0","0","97586","","null","","","null","14","NaN","","","","","","","","","","","","","","",""
"","S2","","html-keyboard-response","100","145029","0.0-1.0-130.0","0","0","97586","","null","","","null","14","","NaN","","","","","","","","","","","","","",""
"","response","","html-keyboard-response","101","146005","0.0-1.0-131.0-0.0","0","0","97586","","961","","","68","14","","","1","14","training","adjacent","DE","4","5","R.jpg","M.jpg","1","1","1","",""
"","feedback","","html-keyboard-response","102","147023","0.0-1.0-132.0-0.0","0","0","97586","","null","","","null","14","","","","","","","","","","","","","","","",""
"","ITI","","html-keyboard-response","103","148045","0.0-1.0-135.0","0","0","97586","","null","","","null","14","","","","","","","","","","","","","","","NaN",""
"","S1","","html-keyboard-response","104","148318","0.0-1.0-137.0","0","0","97586","","null","","","null","15","","","","","","","","","","","","","","","",""
"","ISI","","html-keyboard-response","105","149334","0.0-1.0-138.0","0","0","97586","","null","","","null","15","NaN","","","","","","","","","","","","","","",""
"","S2","","html-keyboard-response","106","149605","0.0-1.0-139.0","0","0","97586","","null","","","null","15","","NaN","","","","","","","","","","","","","",""
"","response","","html-keyboard-response","107","150582","0.0-1.0-140.0-0.0","0","0","97586","","965","","","75","15","","","1","15","training","adjacent","GF","7","6","L.jpg","N.jpg","0","0","1","",""
"","feedback","","html-keyboard-response","108","151598","0.0-1.0-141.0-0.0","0","0","97586","","null","","","null","15","","","","","","","","","","","","","","","",""
"","ITI","","html-keyboard-response","109","152616","0.0-1.0-144.0","0","0","97586","","null","","","null","15","","","","","","","","","","","","","","","NaN",""
"","S1","","html-keyboard-response","110","152885","0.0-1.0-146.0","0","0","97586","","null","","","null","16","","","","","","","","","","","","","","","",""
"","ISI","","html-keyboard-response","111","153903","0.0-1.0-147.0","0","0","97586","","null","","","null","16","NaN","","","","","","","","","","","","","","",""
"","S2","","html-keyboard-response","112","154173","0.0-1.0-148.0","0","0","97586","","null","","","null","16","","NaN","","","","","","","","","","","","","",""
"","response","","html-keyboard-response","113","154636","0.0-1.0-149.0-0.0","0","0","97586","","449","","","75","16","","","1","16","training","adjacent","CB","3","2","Q.jpg","P.jpg","0","0","1","",""
"","feedback","","html-keyboard-response","114","155650","0.0-1.0-150.0-0.0","0","0","97586","","null","","","null","16","","","","","","","","","","","","","","","",""
"","ITI","","html-keyboard-response","115","156670","0.0-1.0-153.0","0","0","97586","","null","","","null","16","","","","","","","","","","","","","","","NaN",""
"","S1","","html-keyboard-response","116","156942","0.0-1.0-155.0","0","0","97586","","null","","","null","17","","","","","","","","","","","","","","","",""
"","ISI","","html-keyboard-response","117","157957","0.0-1.0-156.0","0","0","97586","","null","","","null","17","NaN","","","","","","","","","","","","","","",""
"","S2","","html-keyboard-response","118","158230","0.0-1.0-157.0","0","0","97586","","null","","","null","17","","NaN","","","","","","","","","","","","","",""
"","response","","html-keyboard-response","119","158727","0.0-1.0-158.0-0.0","0","0","97586","","484","","","68","17","","","1","17","training","adjacent","BA","2","1","P.jpg","O.jpg","1","0","0","",""
"","feedback","","html-keyboard-response","120","159750","0.0-1.0-159.0-0.0","0","0","97586","","null","","","null","17","","","","","","","","","","","","","","","",""
"","time_out","","html-keyboard-response","121","161766","0.0-1.0-161.0-0.0","0","0","97586","","null","","","null","17","","","","","","","","","","","","","","","",""
"","ITI","","html-keyboard-response","122","162785","0.0-1.0-162.0","0","0","97586","","null","","","null","17","","","","","","","","","","","","","","","NaN",""
"","S1","","html-keyboard-response","123","163052","0.0-1.0-164.0","0","0","97586","","null","","","null","18","","","","","","","","","","","","","","","",""
"","ISI","","html-keyboard-response","124","164070","0.0-1.0-165.0","0","0","97586","","null","","","null","18","NaN","","","","","","","","","","","","","","",""
"","S2","","html-keyboard-response","125","164341","0.0-1.0-166.0","0","0","97586","","null","","","null","18","","NaN","","","","","","","","","","","","","",""
"","response","","html-keyboard-response","126","164456","0.0-1.0-167.0-0.0","0","0","97586","","102","","","75","18","","","1","18","training","adjacent","GF","7","6","L.jpg","N.jpg","0","0","1","",""
"","feedback","","html-keyboard-response","127","165477","0.0-1.0-168.0-0.0","0","0","97586","","null","","","null","18","","","","","","","","","","","","","","","",""
"","ITI","","html-keyboard-response","128","166496","0.0-1.0-171.0","0","0","97586","","null","","","null","18","","","","","","","","","","","","","","","NaN",""
"","S1","","html-keyboard-response","129","166767","0.0-1.0-173.0","0","0","97586","","null","","","null","19","","","","","","","","","","","","","","","",""
"","ISI","","html-keyboard-response","130","167784","0.0-1.0-174.0","0","0","97586","","null","","","null","19","NaN","","","","","","","","","","","","","","",""
"","S2","","html-keyboard-response","131","168054","0.0-1.0-175.0","0","0","97586","","null","","","null","19","","NaN","","","","","","","","","","","","","",""
"","response","","html-keyboard-response","132","168823","0.0-1.0-176.0-0.0","0","0","97586","","758","","","75","19","","","1","19","training","adjacent","FE","6","5","N.jpg","M.jpg","0","0","1","",""
"","feedback","","html-keyboard-response","133","169847","0.0-1.0-177.0-0.0","0","0","97586","","null","","","null","19","","","","","","","","","","","","","","","",""
"","ITI","","html-keyboard-response","134","170868","0.0-1.0-180.0","0","0","97586","","null","","","null","19","","","","","","","","","","","","","","","NaN",""
"","S1","","html-keyboard-response","135","171143","0.0-1.0-182.0","0","0","97586","","null","","","null","20","","","","","","","","","","","","","","","",""
"","ISI","","html-keyboard-response","136","172156","0.0-1.0-183.0","0","0","97586","","null","","","null","20","NaN","","","","","","","","","","","","","","",""
"","S2","","html-keyboard-response","137","172423","0.0-1.0-184.0","0","0","97586","","null","","","null","20","","NaN","","","","","","","","","","","","","",""
"","response","","html-keyboard-response","138","173013","0.0-1.0-185.0-0.0","0","0","97586","","578","","","68","20","","","1","20","training","adjacent","ED","5","4","M.jpg","R.jpg","1","0","0","",""
"","feedback","","html-keyboard-response","139","174029","0.0-1.0-186.0-0.0","0","0","97586","","null","","","null","20","","","","","","","","","","","","","","","",""
"","time_out","","html-keyboard-response","140","176059","0.0-1.0-188.0-0.0","0","0","97586","","null","","","null","20","","","","","","","","","","","","","","","",""
"","ITI","","html-keyboard-response","141","177076","0.0-1.0-189.0","0","0","97586","","null","","","null","20","","","","","","","","","","","","","","","NaN",""
"","S1","","html-keyboard-response","142","177344","0.0-1.0-191.0","0","0","97586","","null","","","null","21","","","","","","","","","","","","","","","",""
"","ISI","","html-keyboard-response","143","178366","0.0-1.0-192.0","0","0","97586","","null","","","null","21","NaN","","","","","","","","","","","","","","",""
"","S2","","html-keyboard-response","144","178638","0.0-1.0-193.0","0","0","97586","","null","","","null","21","","NaN","","","","","","","","","","","","","",""
"","response","","html-keyboard-response","145","179047","0.0-1.0-194.0-0.0","0","0","97586","","397","","","75","21","","","1","21","training","adjacent","ED","5","4","M.jpg","R.jpg","0","0","1","",""
"","feedback","","html-keyboard-response","146","180076","0.0-1.0-195.0-0.0","0","0","97586","","null","","","null","21","","","","","","","","","","","","","","","",""
"","ITI","","html-keyboard-response","147","181092","0.0-1.0-198.0","0","0","97586","","null","","","null","21","","","","","","","","","","","","","","","NaN",""
"","S1","","html-keyboard-response","148","181367","0.0-1.0-200.0","0","0","97586","","null","","","null","22","","","","","","","","","","","","","","","",""
"","ISI","","html-keyboard-response","149","182381","0.0-1.0-201.0","0","0","97586","","null","","","null","22","NaN","","","","","","","","","","","","","","",""
"","S2","","html-keyboard-response","150","182653","0.0-1.0-202.0","0","0","97586","","null","","","null","22","","NaN","","","","","","","","","","","","","",""
"","response","","html-keyboard-response","151","183277","0.0-1.0-203.0-0.0","0","0","97586","","612","","","68","22","","","1","22","training","adjacent","DC","4","3","R.jpg","Q.jpg","1","0","0","",""
"","feedback","","html-keyboard-response","152","184294","0.0-1.0-204.0-0.0","0","0","97586","","null","","","null","22","","","","","","","","","","","","","","","",""
"","time_out","","html-keyboard-response","153","186309","0.0-1.0-206.0-0.0","0","0","97586","","null","","","null","22","","","","","","","","","","","","","","","",""
"","ITI","","html-keyboard-response","154","187327","0.0-1.0-207.0","0","0","97586","","null","","","null","22","","","","","","","","","","","","","","","NaN",""
"","S1","","html-keyboard-response","155","187596","0.0-1.0-209.0","0","0","97586","","null","","","null","23","","","","","","","","","","","","","","","",""
"","ISI","","html-keyboard-response","156","188615","0.0-1.0-210.0","0","0","97586","","null","","","null","23","NaN","","","","","","","","","","","","","","",""
"","S2","","html-keyboard-response","157","188887","0.0-1.0-211.0","0","0","97586","","null","","","null","23","","NaN","","","","","","","","","","","","","",""
"","response","","html-keyboard-response","158","189758","0.0-1.0-212.0-0.0","0","0","97586","","859","","","68","23","","","1","23","training","adjacent","BC","2","3","P.jpg","Q.jpg","1","1","1","",""
"","feedback","","html-keyboard-response","159","190785","0.0-1.0-213.0-0.0","0","0","97586","","null","","","null","23","","","","","","","","","","","","","","","",""
"","ITI","","html-keyboard-response","160","191806","0.0-1.0-216.0","0","0","97586","","null","","","null","23","","","","","","","","","","","","","","","NaN",""
"","S1","","html-keyboard-response","161","192086","0.0-1.0-218.0","0","0","97586","","null","","","null","24","","","","","","","","","","","","","","","",""
"","ISI","","html-keyboard-response","162","193102","0.0-1.0-219.0","0","0","97586","","null","","","null","24","NaN","","","","","","","","","","","","","","",""
"","S2","","html-keyboard-response","163","193374","0.0-1.0-220.0","0","0","97586","","null","","","null","24","","NaN","","","","","","","","","","","","","",""
"","response","","html-keyboard-response","164","193881","0.0-1.0-221.0-0.0","0","0","97586","","493","","","75","24","","","1","24","training","adjacent","BA","2","1","P.jpg","O.jpg","0","0","1","",""
"","feedback","","html-keyboard-response","165","194895","0.0-1.0-222.0-0.0","0","0","97586","","null","","","null","24","","","","","","","","","","","","","","","",""
"","ITI","","html-keyboard-response","166","195910","0.0-1.0-225.0","0","0","97586","","null","","","null","24","","","","","","","","","","","","","","","NaN",""
"","S1","","html-keyboard-response","167","196184","0.0-1.0-227.0","0","0","97586","","null","","","null","25","","","","","","","","","","","","","","","",""
"","ISI","","html-keyboard-response","168","197204","0.0-1.0-228.0","0","0","97586","","null","","","null","25","NaN","","","","","","","","","","","","","","",""
"","S2","","html-keyboard-response","169","197478","0.0-1.0-229.0","0","0","97586","","null","","","null","25","","NaN","","","","","","","","","","","","","",""
"","response","","html-keyboard-response","170","198117","0.0-1.0-230.0-0.0","0","0","97586","","626","","","68","25","","","1","25","training","adjacent","CB","3","2","Q.jpg","P.jpg","1","0","0","",""
"","feedback","","html-keyboard-response","171","199130","0.0-1.0-231.0-0.0","0","0","97586","","null","","","null","25","","","","","","","","","","","","","","","",""
"","time_out","","html-keyboard-response","172","201148","0.0-1.0-233.0-0.0","0","0","97586","","null","","","null","25","","","","","","","","","","","","","","","",""
"","ITI","","html-keyboard-response","173","202167","0.0-1.0-234.0","0","0","97586","","null","","","null","25","","","","","","","","","","","","","","","NaN",""
"","S1","","html-keyboard-response","174","202438","0.0-1.0-236.0","0","0","97586","","null","","","null","26","","","","","","","","","","","","","","","",""
"","ISI","","html-keyboard-response","175","203454","0.0-1.0-237.0","0","0","97586","","null","","","null","26","NaN","","","","","","","","","","","","","","",""
"","S2","","html-keyboard-response","176","203724","0.0-1.0-238.0","0","0","97586","","null","","","null","26","","NaN","","","","","","","","","","","","","",""
"","response","","html-keyboard-response","177","204356","0.0-1.0-239.0-0.0","0","0","97586","","619","","","68","26","","","1","26","training","adjacent","FE","6","5","N.jpg","M.jpg","1","0","0","",""
"","feedback","","html-keyboard-response","178","205372","0.0-1.0-240.0-0.0","0","0","97586","","null","","","null","26","","","","","","","","","","","","","","","",""
"","time_out","","html-keyboard-response","179","207389","0.0-1.0-242.0-0.0","0","0","97586","","null","","","null","26","","","","","","","","","","","","","","","",""
"","ITI","","html-keyboard-response","180","208405","0.0-1.0-243.0","0","0","97586","","null","","","null","26","","","","","","","","","","","","","","","NaN",""
"","S1","","html-keyboard-response","181","208675","0.0-1.0-245.0","0","0","97586","","null","","","null","27","","","","","","","","","","","","","","","",""
"","ISI","","html-keyboard-response","182","209693","0.0-1.0-246.0","0","0","97586","","null","","","null","27","NaN","","","","","","","","","","","","","","",""
"","S2","","html-keyboard-response","183","209967","0.0-1.0-247.0","0","0","97586","","null","","","null","27","","NaN","","","","","","","","","","","","","",""
"","response","","html-keyboard-response","184","210829","0.0-1.0-248.0-0.0","0","0","97586","","849","","","75","27","","","1","27","training","adjacent","CD","3","4","Q.jpg","R.jpg","0","1","0","",""
"","feedback","","html-keyboard-response","185","211856","0.0-1.0-249.0-0.0","0","0","97586","","null","","","null","27","","","","","","","","","","","","","","","",""
"","time_out","","html-keyboard-response","186","213874","0.0-1.0-251.0-0.0","0","0","97586","","null","","","null","27","","","","","","","","","","","","","","","",""
"","ITI","","html-keyboard-response","187","214894","0.0-1.0-252.0","0","0","97586","","null","","","null","27","","","","","","","","","","","","","","","NaN",""
"","S1","","html-keyboard-response","188","215166","0.0-1.0-254.0","0","0","97586","","null","","","null","28","","","","","","","","","","","","","","","",""
"","ISI","","html-keyboard-response","189","216181","0.0-1.0-255.0","0","0","97586","","null","","","null","28","NaN","","","","","","","","","","","","","","",""
"","S2","","html-keyboard-response","190","216455","0.0-1.0-256.0","0","0","97586","","null","","","null","28","","NaN","","","","","","","","","","","","","",""
"","response","","html-keyboard-response","191","216993","0.0-1.0-257.0-0.0","0","0","97586","","525","","","68","28","","","1","28","training","adjacent","CD","3","4","Q.jpg","R.jpg","1","1","1","",""
"","feedback","","html-keyboard-response","192","218014","0.0-1.0-258.0-0.0","0","0","97586","","null","","","null","28","","","","","","","","","","","","","","","",""
"","ITI","","html-keyboard-response","193","219031","0.0-1.0-261.0","0","0","97586","","null","","","null","28","","","","","","","","","","","","","","","NaN",""
"","S1","","html-keyboard-response","194","219303","0.0-1.0-263.0","0","0","97586","","null","","","null","29","","","","","","","","","","","","","","","",""
"","ISI","","html-keyboard-response","195","220319","0.0-1.0-264.0","0","0","97586","","null","","","null","29","NaN","","","","","","","","","","","","","","",""
"","S2","","html-keyboard-response","196","220589","0.0-1.0-265.0","0","0","97586","","null","","","null","29","","NaN","","","","","","","","","","","","","",""
"","response","","html-keyboard-response","197","221150","0.0-1.0-266.0-0.0","0","0","97586","","548","","","68","29","","","1","29","training","adjacent","BC","2","3","P.jpg","Q.jpg","1","1","1","",""
"","feedback","","html-keyboard-response","198","222167","0.0-1.0-267.0-0.0","0","0","97586","","null","","","null","29","","","","","","","","","","","","","","","",""
"","ITI","","html-keyboard-response","199","223189","0.0-1.0-270.0","0","0","97586","","null","","","null","29","","","","","","","","","","","","","","","NaN",""
"","S1","","html-keyboard-response","200","223462","0.0-1.0-272.0","0","0","97586","","null","","","null","30","","","","","","","","","","","","","","","",""
"","ISI","","html-keyboard-response","201","224478","0.0-1.0-273.0","0","0","97586","","null","","","null","30","NaN","","","","","","","","","","","","","","",""
"","S2","","html-keyboard-response","202","224749","0.0-1.0-274.0","0","0","97586","","null","","","null","30","","NaN","","","","","","","","","","","","","",""
"","response","","html-keyboard-response","203","225210","0.0-1.0-275.0-0.0","0","0","97586","","449","","","68","30","","","1","30","training","adjacent","FE","6","5","N.jpg","M.jpg","1","0","0","",""
"","feedback","","html-keyboard-response","204","226229","0.0-1.0-276.0-0.0","0","0","97586","","null","","","null","30","","","","","","","","","","","","","","","",""
"","time_out","","html-keyboard-response","205","228244","0.0-1.0-278.0-0.0","0","0","97586","","null","","","null","30","","","","","","","","","","","","","","","",""
"","ITI","","html-keyboard-response","206","229263","0.0-1.0-279.0","0","0","97586","","null","","","null","30","","","","","","","","","","","","","","","NaN",""
"","S1","","html-keyboard-response","207","229532","0.0-1.0-281.0","0","0","97586","","null","","","null","31","","","","","","","","","","","","","","","",""
"","ISI","","html-keyboard-response","208","230551","0.0-1.0-282.0","0","0","97586","","null","","","null","31","NaN","","","","","","","","","","","","","","",""
"","S2","","html-keyboard-response","209","230822","0.0-1.0-283.0","0","0","97586","","null","","","null","31","","NaN","","","","","","","","","","","","","",""
"","response","","html-keyboard-response","210","231564","0.0-1.0-284.0-0.0","0","0","97586","","730","","","68","31","","","1","31","training","adjacent","DE","4","5","R.jpg","M.jpg","1","1","1","",""
"","feedback","","html-keyboard-response","211","232583","0.0-1.0-285.0-0.0","0","0","97586","","null","","","null","31","","","","","","","","","","","","","","","",""
"","ITI","","html-keyboard-response","212","233605","0.0-1.0-288.0","0","0","97586","","null","","","null","31","","","","","","","","","","","","","","","NaN",""
"","S1","","html-keyboard-response","213","233878","0.0-1.0-290.0","0","0","97586","","null","","","null","32","","","","","","","","","","","","","","","",""
"","ISI","","html-keyboard-response","214","234896","0.0-1.0-291.0","0","0","97586","","null","","","null","32","NaN","","","","","","","","","","","","","","",""
"","S2","","html-keyboard-response","215","235167","0.0-1.0-292.0","0","0","97586","","null","","","null","32","","NaN","","","","","","","","","","","","","",""
"","response","","html-keyboard-response","216","235982","0.0-1.0-293.0-0.0","0","0","97586","","803","","","68","32","","","1","32","training","adjacent","FG","6","7","N.jpg","L.jpg","1","1","1","",""
"","feedback","","html-keyboard-response","217","237008","0.0-1.0-294.0-0.0","0","0","97586","","null","","","null","32","","","","","","","","","","","","","","","",""
"","ITI","","html-keyboard-response","218","238030","0.0-1.0-297.0","0","0","97586","","null","","","null","32","","","","","","","","","","","","","","","NaN",""
"","S1","","html-keyboard-response","219","238300","0.0-1.0-299.0","0","0","97586","","null","","","null","33","","","","","","","","","","","","","","","",""
"","ISI","","html-keyboard-response","220","239317","0.0-1.0-300.0","0","0","97586","","null","","","null","33","NaN","","","","","","","","","","","","","","",""
"","S2","","html-keyboard-response","221","239590","0.0-1.0-301.0","0","0","97586","","null","","","null","33","","NaN","","","","","","","","","","","","","",""
"","response","","html-keyboard-response","222","240568","0.0-1.0-302.0-0.0","0","0","97586","","965","","","68","33","","","1","33","training","adjacent","EF","5","6","M.jpg","N.jpg","1","1","1","",""
"","feedback","","html-keyboard-response","223","241589","0.0-1.0-303.0-0.0","0","0","97586","","null","","","null","33","","","","","","","","","","","","","","","",""
"","ITI","","html-keyboard-response","224","242621","0.0-1.0-306.0","0","0","97586","","null","","","null","33","","","","","","","","","","","","","","","NaN",""
"","S1","","html-keyboard-response","225","242894","0.0-1.0-308.0","0","0","97586","","null","","","null","34","","","","","","","","","","","","","","","",""
"","ISI","","html-keyboard-response","226","243910","0.0-1.0-309.0","0","0","97586","","null","","","null","34","NaN","","","","","","","","","","","","","","",""
"","S2","","html-keyboard-response","227","244181","0.0-1.0-310.0","0","0","97586","","null","","","null","34","","NaN","","","","","","","","","","","","","",""
"","response","","html-keyboard-response","228","244851","0.0-1.0-311.0-0.0","0","0","97586","","657","","","75","34","","","1","34","training","adjacent","ED","5","4","M.jpg","R.jpg","0","0","1","",""
"","feedback","","html-keyboard-response","229","245870","0.0-1.0-312.0-0.0","0","0","97586","","null","","","null","34","","","","","","","","","","","","","","","",""
"","ITI","","html-keyboard-response","230","246897","0.0-1.0-315.0","0","0","97586","","null","","","null","34","","","","","","","","","","","","","","","NaN",""
"","S1","","html-keyboard-response","231","247169","0.0-1.0-317.0","0","0","97586","","null","","","null","35","","","","","","","","","","","","","","","",""
"","ISI","","html-keyboard-response","232","248188","0.0-1.0-318.0","0","0","97586","","null","","","null","35","NaN","","","","","","","","","","","","","","",""
"","S2","","html-keyboard-response","233","248463","0.0-1.0-319.0","0","0","97586","","null","","","null","35","","NaN","","","","","","","","","","","","","",""
"","response","","html-keyboard-response","234","249889","0.0-1.0-320.0-0.0","0","0","97586","","1413","","","75","35","","","1","35","training","adjacent","DC","4","3","R.jpg","Q.jpg","0","0","1","",""
"","feedback","","html-keyboard-response","235","250911","0.0-1.0-321.0-0.0","0","0","97586","","null","","","null","35","","","","","","","","","","","","","","","",""
"","ITI","","html-keyboard-response","236","251933","0.0-1.0-324.0","0","0","97586","","null","","","null","35","","","","","","","","","","","","","","","NaN",""
"","S1","","html-keyboard-response","237","252205","0.0-1.0-326.0","0","0","97586","","null","","","null","36","","","","","","","","","","","","","","","",""
"","ISI","","html-keyboard-response","238","253220","0.0-1.0-327.0","0","0","97586","","null","","","null","36","NaN","","","","","","","","","","","","","","",""
"","S2","","html-keyboard-response","239","253494","0.0-1.0-328.0","0","0","97586","","null","","","null","36","","NaN","","","","","","","","","","","","","",""
"","response","","html-keyboard-response","240","254027","0.0-1.0-329.0-0.0","0","0","97586","","520","","","75","36","","","1","36","training","adjacent","DE","4","5","R.jpg","M.jpg","0","1","0","",""
"","feedback","","html-keyboard-response","241","255045","0.0-1.0-330.0-0.0","0","0","97586","","null","","","null","36","","","","","","","","","","","","","","","",""
"","time_out","","html-keyboard-response","242","257062","0.0-1.0-332.0-0.0","0","0","97586","","null","","","null","36","","","","","","","","","","","","","","","",""
"","ITI","","html-keyboard-response","243","258077","0.0-1.0-333.0","0","0","97586","","null","","","null","36","","","","","","","","","","","","","","","NaN",""
"","S1","","html-keyboard-response","244","258351","0.0-1.0-335.0","0","0","97586","","null","","","null","37","","","","","","","","","","","","","","","",""
"","ISI","","html-keyboard-response","245","259366","0.0-1.0-336.0","0","0","97586","","null","","","null","37","NaN","","","","","","","","","","","","","","",""
"","S2","","html-keyboard-response","246","259637","0.0-1.0-337.0","0","0","97586","","null","","","null","37","","NaN","","","","","","","","","","","","","",""
"","response","","html-keyboard-response","247","259895","0.0-1.0-338.0-0.0","0","0","97586","","244","","","68","37","","","1","37","training","adjacent","AB","1","2","O.jpg","P.jpg","1","1","1","",""
"","feedback","","html-keyboard-response","248","260918","0.0-1.0-339.0-0.0","0","0","97586","","null","","","null","37","","","","","","","","","","","","","","","",""
"","ITI","","html-keyboard-response","249","261943","0.0-1.0-342.0","0","0","97586","","null","","","null","37","","","","","","","","","","","","","","","NaN",""
"","S1","","html-keyboard-response","250","262212","0.0-1.0-344.0","0","0","97586","","null","","","null","38","","","","","","","","","","","","","","","",""
"","ISI","","html-keyboard-response","251","263229","0.0-1.0-345.0","0","0","97586","","null","","","null","38","NaN","","","","","","","","","","","","","","",""
"","S2","","html-keyboard-response","252","263502","0.0-1.0-346.0","0","0","97586","","null","","","null","38","","NaN","","","","","","","","","","","","","",""
"","response","","html-keyboard-response","253","264151","0.0-1.0-347.0-0.0","0","0","97586","","635","","","68","38","","","1","38","training","adjacent","EF","5","6","M.jpg","N.jpg","1","1","1","",""
"","feedback","","html-keyboard-response","254","265174","0.0-1.0-348.0-0.0","0","0","97586","","null","","","null","38","","","","","","","","","","","","","","","",""
"","ITI","","html-keyboard-response","255","266202","0.0-1.0-351.0","0","0","97586","","null","","","null","38","","","","","","","","","","","","","","","NaN",""
"","S1","","html-keyboard-response","256","266471","0.0-1.0-353.0","0","0","97586","","null","","","null","39","","","","","","","","","","","","","","","",""
"","ISI","","html-keyboard-response","257","267486","0.0-1.0-354.0","0","0","97586","","null","","","null","39","NaN","","","","","","","","","","","","","","",""
"","S2","","html-keyboard-response","258","267759","0.0-1.0-355.0","0","0","97586","","null","","","null","39","","NaN","","","","","","","","","","","","","",""
"","response","","html-keyboard-response","259","268395","0.0-1.0-356.0-0.0","0","0","97586","","622","","","68","39","","","1","39","training","adjacent","BC","2","3","P.jpg","Q.jpg","1","1","1","",""
"","feedback","","html-keyboard-response","260","269414","0.0-1.0-357.0-0.0","0","0","97586","","null","","","null","39","","","","","","","","","","","","","","","",""
"","ITI","","html-keyboard-response","261","270432","0.0-1.0-360.0","0","0","97586","","null","","","null","39","","","","","","","","","","","","","","","NaN",""
"","S1","","html-keyboard-response","262","270700","0.0-1.0-362.0","0","0","97586","","null","","","null","40","","","","","","","","","","","","","","","",""
"","ISI","","html-keyboard-response","263","271720","0.0-1.0-363.0","0","0","97586","","null","","","null","40","NaN","","","","","","","","","","","","","","",""
"","S2","","html-keyboard-response","264","271989","0.0-1.0-364.0","0","0","97586","","null","","","null","40","","NaN","","","","","","","","","","","","","",""
"","response","","html-keyboard-response","265","272306","0.0-1.0-365.0-0.0","0","0","97586","","305","","","68","40","","","1","40","training","adjacent","AB","1","2","O.jpg","P.jpg","1","1","1","",""
"","feedback","","html-keyboard-response","266","273326","0.0-1.0-366.0-0.0","0","0","97586","","null","","","null","40","","","","","","","","","","","","","","","",""
"","ITI","","html-keyboard-response","267","274350","0.0-1.0-369.0","0","0","97586","","null","","","null","40","","","","","","","","","","","","","","","NaN",""
"","S1","","html-keyboard-response","268","274625","0.0-1.0-371.0","0","0","97586","","null","","","null","41","","","","","","","","","","","","","","","",""
"","ISI","","html-keyboard-response","269","275646","0.0-1.0-372.0","0","0","97586","","null","","","null","41","NaN","","","","","","","","","","","","","","",""
"","S2","","html-keyboard-response","270","275918","0.0-1.0-373.0","0","0","97586","","null","","","null","41","","NaN","","","","","","","","","","","","","",""
"","response","","html-keyboard-response","271","276641","0.0-1.0-374.0-0.0","0","0","97586","","711","","","75","41","","","1","41","training","adjacent","EF","5","6","M.jpg","N.jpg","0","1","0","",""
"","feedback","","html-keyboard-response","272","277662","0.0-1.0-375.0-0.0","0","0","97586","","null","","","null","41","","","","","","","","","","","","","","","",""
"","time_out","","html-keyboard-response","273","279679","0.0-1.0-377.0-0.0","0","0","97586","","null","","","null","41","","","","","","","","","","","","","","","",""
"","ITI","","html-keyboard-response","274","280701","0.0-1.0-378.0","0","0","97586","","null","","","null","41","","","","","","","","","","","","","","","NaN",""
"","S1","","html-keyboard-response","275","280975","0.0-1.0-380.0","0","0","97586","","null","","","null","42","","","","","","","","","","","","","","","",""
"","ISI","","html-keyboard-response","276","281997","0.0-1.0-381.0","0","0","97586","","null","","","null","42","NaN","","","","","","","","","","","","","","",""
"","S2","","html-keyboard-response","277","282269","0.0-1.0-382.0","0","0","97586","","null","","","null","42","","NaN","","","","","","","","","","","","","",""
"","response","","html-keyboard-response","278","282944","0.0-1.0-383.0-0.0","0","0","97586","","663","","","75","42","","","1","42","training","adjacent","BA","2","1","P.jpg","O.jpg","0","0","1","",""
"","feedback","","html-keyboard-response","279","283965","0.0-1.0-384.0-0.0","0","0","97586","","null","","","null","42","","","","","","","","","","","","","","","",""
"","ITI","","html-keyboard-response","280","284990","0.0-1.0-387.0","0","0","97586","","null","","","null","42","","","","","","","","","","","","","","","NaN",""
"","S1","","html-keyboard-response","281","285260","0.0-1.0-389.0","0","0","97586","","null","","","null","43","","","","","","","","","","","","","","","",""
"","ISI","","html-keyboard-response","282","286277","0.0-1.0-390.0","0","0","97586","","null","","","null","43","NaN","","","","","","","","","","","","","","",""
"","S2","","html-keyboard-response","283","286413","0.0-1.0-391.0","0","0","97586","","126","","","75","43","","k","1","43","training","adjacent","GF","7","6","L.jpg","N.jpg","0","0","1","",""
"","feedback","","html-keyboard-response","284","287429","0.0-1.0-393.0-0.0","0","0","97586","","null","","","null","43","","","","","","","","","","","","","","","",""
"","ITI","","html-keyboard-response","285","288445","0.0-1.0-396.0","0","0","97586","","null","","","null","43","","","","","","","","","","","","","","","NaN",""
"","S1","","html-keyboard-response","286","288720","0.0-1.0-398.0","0","0","97586","","null","","","null","44","","","","","","","","","","","","","","","",""
"","ISI","","html-keyboard-response","287","289742","0.0-1.0-399.0","0","0","97586","","null","","","null","44","NaN","","","","","","","","","","","","","","",""
"","S2","","html-keyboard-response","288","290014","0.0-1.0-400.0","0","0","97586","","null","","","null","44","","NaN","","","","","","","","","","","","","",""
"","response","","html-keyboard-response","289","290571","0.0-1.0-401.0-0.0","0","0","97586","","545","","","75","44","","","1","44","training","adjacent","BA","2","1","P.jpg","O.jpg","0","0","1","",""
"","feedback","","html-keyboard-response","290","291588","0.0-1.0-402.0-0.0","0","0","97586","","null","","","null","44","","","","","","","","","","","","","","","",""
"","ITI","","html-keyboard-response","291","292607","0.0-1.0-405.0","0","0","97586","","null","","","null","44","","","","","","","","","","","","","","","NaN",""
"","S1","","html-keyboard-response","292","292880","0.0-1.0-407.0","0","0","97586","","null","","","null","45","","","","","","","","","","","","","","","",""
"","ISI","","html-keyboard-response","293","293902","0.0-1.0-408.0","0","0","97586","","null","","","null","45","NaN","","","","","","","","","","","","","","",""
"","S2","","html-keyboard-response","294","294174","0.0-1.0-409.0","0","0","97586","","null","","","null","45","","NaN","","","","","","","","","","","","","",""
"","response","","html-keyboard-response","295","294851","0.0-1.0-410.0-0.0","0","0","97586","","664","","","68","45","","","1","45","training","adjacent","GF","7","6","L.jpg","N.jpg","1","0","0","",""
"","feedback","","html-keyboard-response","296","295870","0.0-1.0-411.0-0.0","0","0","97586","","null","","","null","45","","","","","","","","","","","","","","","",""
"","time_out","","html-keyboard-response","297","297888","0.0-1.0-413.0-0.0","0","0","97586","","null","","","null","45","","","","","","","","","","","","","","","",""
"","ITI","","html-keyboard-response","298","298909","0.0-1.0-414.0","0","0","97586","","null","","","null","45","","","","","","","","","","","","","","","NaN",""
"","S1","","html-keyboard-response","299","299184","0.0-1.0-416.0","0","0","97586","","null","","","null","46","","","","","","","","","","","","","","","",""
"","ISI","","html-keyboard-response","300","300205","0.0-1.0-417.0","0","0","97586","","null","","","null","46","NaN","","","","","","","","","","","","","","",""
"","S2","","html-keyboard-response","301","300479","0.0-1.0-418.0","0","0","97586","","null","","","null","46","","NaN","","","","","","","","","","","","","",""
"","response","","html-keyboard-response","302","301245","0.0-1.0-419.0-0.0","0","0","97586","","749","","","68","46","","","1","46","training","adjacent","DC","4","3","R.jpg","Q.jpg","1","0","0","",""
"","feedback","","html-keyboard-response","303","302268","0.0-1.0-420.0-0.0","0","0","97586","","null","","","null","46","","","","","","","","","","","","","","","",""
"","time_out","","html-keyboard-response","304","304284","0.0-1.0-422.0-0.0","0","0","97586","","null","","","null","46","","","","","","","","","","","","","","","",""
"","ITI","","html-keyboard-response","305","305301","0.0-1.0-423.0","0","0","97586","","null","","","null","46","","","","","","","","","","","","","","","NaN",""
"","S1","","html-keyboard-response","306","305574","0.0-1.0-425.0","0","0","97586","","null","","","null","47","","","","","","","","","","","","","","","",""
"","ISI","","html-keyboard-response","307","306591","0.0-1.0-426.0","0","0","97586","","null","","","null","47","NaN","","","","","","","","","","","","","","",""
"","S2","","html-keyboard-response","308","306864","0.0-1.0-427.0","0","0","97586","","null","","","null","47","","NaN","","","","","","","","","","","","","",""
"","response","","html-keyboard-response","309","307426","0.0-1.0-428.0-0.0","0","0","97586","","548","","","75","47","","","1","47","training","adjacent","ED","5","4","M.jpg","R.jpg","0","0","1","",""
"","feedback","","html-keyboard-response","310","308446","0.0-1.0-429.0-0.0","0","0","97586","","null","","","null","47","","","","","","","","","","","","","","","",""
"","ITI","","html-keyboard-response","311","309469","0.0-1.0-432.0","0","0","97586","","null","","","null","47","","","","","","","","","","","","","","","NaN",""
"","block_over","","html-keyboard-response","312","403099","0.0-1.0-433.0-0.0","0","0","97586","","93611","","","32","47","","","","","","","","","","","","","","","",""
"","S1","","html-keyboard-response","313","403367","0.0-1.0-434.0","0","0","97586","","null","","","null","48","","","","","","","","","","","","","","","",""
"","ISI","","html-keyboard-response","314","404388","0.0-1.0-435.0","0","0","97586","","null","","","null","48","NaN","","","","","","","","","","","","","","",""
"","S2","","html-keyboard-response","315","404659","0.0-1.0-436.0","0","0","97586","","null","","","null","48","","NaN","","","","","","","","","","","","","",""
"","response","","html-keyboard-response","316","405407","0.0-1.0-437.0-0.0","0","0","97586","","732","","","68","48","","","2","48","training","adjacent","BC","2","3","P.jpg","Q.jpg","1","1","1","",""
"","feedback","","html-keyboard-response","317","406432","0.0-1.0-438.0-0.0","0","0","97586","","null","","","null","48","","","","","","","","","","","","","","","",""
"","ITI","","html-keyboard-response","318","407452","0.0-1.0-441.0","0","0","97586","","null","","","null","48","","","","","","","","","","","","","","","NaN",""
"","S1","","html-keyboard-response","319","407726","0.0-1.0-443.0","0","0","97586","","null","","","null","49","","","","","","","","","","","","","","","",""
"","ISI","","html-keyboard-response","320","408742","0.0-1.0-444.0","0","0","97586","","null","","","null","49","NaN","","","","","","","","","","","","","","",""
"","S2","","html-keyboard-response","321","409014","0.0-1.0-445.0","0","0","97586","","null","","","null","49","","NaN","","","","","","","","","","","","","",""
"","response","","html-keyboard-response","322","409511","0.0-1.0-446.0-0.0","0","0","97586","","484","","","68","49","","","2","49","training","adjacent","FE","6","5","N.jpg","M.jpg","1","0","0","",""
"","feedback","","html-keyboard-response","323","410533","0.0-1.0-447.0-0.0","0","0","97586","","null","","","null","49","","","","","","","","","","","","","","","",""
"","time_out","","html-keyboard-response","324","412551","0.0-1.0-449.0-0.0","0","0","97586","","null","","","null","49","","","","","","","","","","","","","","","",""
"","ITI","","html-keyboard-response","325","413564","0.0-1.0-450.0","0","0","97586","","null","","","null","49","","","","","","","","","","","","","","","NaN",""
"","S1","","html-keyboard-response","326","413838","0.0-1.0-452.0","0","0","97586","","null","","","null","50","","","","","","","","","","","","","","","",""
"","ISI","","html-keyboard-response","327","414855","0.0-1.0-453.0","0","0","97586","","null","","","null","50","NaN","","","","","","","","","","","","","","",""
"","S2","","html-keyboard-response","328","415126","0.0-1.0-454.0","0","0","97586","","null","","","null","50","","NaN","","","","","","","","","","","","","",""
"","response","","html-keyboard-response","329","415670","0.0-1.0-455.0-0.0","0","0","97586","","532","","","68","50","","","2","50","training","adjacent","DC","4","3","R.jpg","Q.jpg","1","0","0","",""
"","feedback","","html-keyboard-response","330","416694","0.0-1.0-456.0-0.0","0","0","97586","","null","","","null","50","","","","","","","","","","","","","","","",""
"","time_out","","html-keyboard-response","331","418710","0.0-1.0-458.0-0.0","0","0","97586","","null","","","null","50","","","","","","","","","","","","","","","",""
"","ITI","","html-keyboard-response","332","419727","0.0-1.0-459.0","0","0","97586","","null","","","null","50","","","","","","","","","","","","","","","NaN",""
"","S1","","html-keyboard-response","333","419998","0.0-1.0-461.0","0","0","97586","","null","","","null","51","","","","","","","","","","","","","","","",""
"","ISI","","html-keyboard-response","334","421014","0.0-1.0-462.0","0","0","97586","","null","","","null","51","NaN","","","","","","","","","","","","","","",""
"","S2","","html-keyboard-response","335","421287","0.0-1.0-463.0","0","0","97586","","null","","","null","51","","NaN","","","","","","","","","","","","","",""
"","response","","html-keyboard-response","336","422288","0.0-1.0-464.0-0.0","0","0","97586","","988","","","68","51","","","2","51","training","adjacent","EF","5","6","M.jpg","N.jpg","1","1","1","",""
"","feedback","","html-keyboard-response","337","423310","0.0-1.0-465.0-0.0","0","0","97586","","null","","","null","51","","","","","","","","","","","","","","","",""
"","ITI","","html-keyboard-response","338","424336","0.0-1.0-468.0","0","0","97586","","null","","","null","51","","","","","","","","","","","","","","","NaN",""
"","S1","","html-keyboard-response","339","424607","0.0-1.0-470.0","0","0","97586","","null","","","null","52","","","","","","","","","","","","","","","",""
"","ISI","","html-keyboard-response","340","425630","0.0-1.0-471.0","0","0","97586","","null","","","null","52","NaN","","","","","","","","","","","","","","",""
"","S2","","html-keyboard-response","341","425902","0.0-1.0-472.0","0","0","97586","","null","","","null","52","","NaN","","","","","","","","","","","","","",""
"","response","","html-keyboard-response","342","426679","0.0-1.0-473.0-0.0","0","0","97586","","765","","","75","52","","","2","52","training","adjacent","DE","4","5","R.jpg","M.jpg","0","1","0","",""
"","feedback","","html-keyboard-response","343","427702","0.0-1.0-474.0-0.0","0","0","97586","","null","","","null","52","","","","","","","","","","","","","","","",""
"","time_out","","html-keyboard-response","344","429728","0.0-1.0-476.0-0.0","0","0","97586","","null","","","null","52","","","","","","","","","","","","","","","",""
"","ITI","","html-keyboard-response","345","430750","0.0-1.0-477.0","0","0","97586","","null","","","null","52","","","","","","","","","","","","","","","NaN",""
"","S1","","html-keyboard-response","346","431015","0.0-1.0-479.0","0","0","97586","","null","","","null","53","","","","","","","","","","","","","","","",""
"","ISI","","html-keyboard-response","347","432030","0.0-1.0-480.0","0","0","97586","","null","","","null","53","NaN","","","","","","","","","","","","","","",""
"","S2","","html-keyboard-response","348","432295","0.0-1.0-481.0","0","0","97586","","null","","","null","53","","NaN","","","","","","","","","","","","","",""
"","response","","html-keyboard-response","349","434063","0.0-1.0-482.0-0.0","0","0","97586","","null","","","null","53","","","2","53","training","adjacent","CD","3","4","Q.jpg","R.jpg","NaN","1","0","",""
"","too_slow_prompt","","html-keyboard-response","350","435081","0.0-1.0-484.0-0.0","1","0","97586","","null","","","null","","","","","","","","","","","","","","","","",""
"","time_out","","html-keyboard-response","351","437103","0.0-1.0-485.0-0.0","0","0","97586","","null","","","null","53","","","","","","","","","","","","","","","",""
"","ITI","","html-keyboard-response","352","438125","0.0-1.0-486.0","0","0","97586","","null","","","null","53","","","","","","","","","","","","","","","NaN",""
"","S1","","html-keyboard-response","353","438404","0.0-1.0-488.0","0","0","97586","","null","","","null","54","","","","","","","","","","","","","","","",""
"","ISI","","html-keyboard-response","354","439422","0.0-1.0-489.0","0","0","97586","","null","","","null","54","NaN","","","","","","","","","","","","","","",""
"","S2","","html-keyboard-response","355","439688","0.0-1.0-490.0","0","0","97586","","null","","","null","54","","NaN","","","","","","","","","","","","","",""
"","response","","html-keyboard-response","356","440436","0.0-1.0-491.0-0.0","0","0","97586","","736","","","75","54","","","2","54","training","adjacent","GF","7","6","L.jpg","N.jpg","0","0","1","",""
"","feedback","","html-keyboard-response","357","441463","0.0-1.0-492.0-0.0","0","0","97586","","null","","","null","54","","","","","","","","","","","","","","","",""
"","ITI","","html-keyboard-response","358","442486","0.0-1.0-495.0","0","0","97586","","null","","","null","54","","","","","","","","","","","","","","","NaN",""
"","S1","","html-keyboard-response","359","442753","0.0-1.0-497.0","0","0","97586","","null","","","null","55","","","","","","","","","","","","","","","",""
"","ISI","","html-keyboard-response","360","443774","0.0-1.0-498.0","0","0","97586","","null","","","null","55","NaN","","","","","","","","","","","","","","",""
"","S2","","html-keyboard-response","361","444040","0.0-1.0-499.0","0","0","97586","","null","","","null","55","","NaN","","","","","","","","","","","","","",""
"","response","","html-keyboard-response","362","445493","0.0-1.0-500.0-0.0","0","0","97586","","1443","","","75","55","","","2","55","training","adjacent","CB","3","2","Q.jpg","P.jpg","0","0","1","",""
"","feedback","","html-keyboard-response","363","446514","0.0-1.0-501.0-0.0","0","0","97586","","null","","","null","55","","","","","","","","","","","","","","","",""
"","ITI","","html-keyboard-response","364","447535","0.0-1.0-504.0","0","0","97586","","null","","","null","55","","","","","","","","","","","","","","","NaN",""
"","S1","","html-keyboard-response","365","447804","0.0-1.0-506.0","0","0","97586","","null","","","null","56","","","","","","","","","","","","","","","",""
"","ISI","","html-keyboard-response","366","448821","0.0-1.0-507.0","0","0","97586","","null","","","null","56","NaN","","","","","","","","","","","","","","",""
"","S2","","html-keyboard-response","367","449095","0.0-1.0-508.0","0","0","97586","","null","","","null","56","","NaN","","","","","","","","","","","","","",""
"","response","","html-keyboard-response","368","449841","0.0-1.0-509.0-0.0","0","0","97586","","734","","","68","56","","","2","56","training","adjacent","FE","6","5","N.jpg","M.jpg","1","0","0","",""
"","feedback","","html-keyboard-response","369","450861","0.0-1.0-510.0-0.0","0","0","97586","","null","","","null","56","","","","","","","","","","","","","","","",""
"","time_out","","html-keyboard-response","370","452884","0.0-1.0-512.0-0.0","0","0","97586","","null","","","null","56","","","","","","","","","","","","","","","",""
"","ITI","","html-keyboard-response","371","453901","0.0-1.0-513.0","0","0","97586","","null","","","null","56","","","","","","","","","","","","","","","NaN",""
"","S1","","html-keyboard-response","372","454175","0.0-1.0-515.0","0","0","97586","","null","","","null","57","","","","","","","","","","","","","","","",""
"","ISI","","html-keyboard-response","373","455189","0.0-1.0-516.0","0","0","97586","","null","","","null","57","NaN","","","","","","","","","","","","","","",""
"","S2","","html-keyboard-response","374","455462","0.0-1.0-517.0","0","0","97586","","null","","","null","57","","NaN","","","","","","","","","","","","","",""
"","response","","html-keyboard-response","375","456075","0.0-1.0-518.0-0.0","0","0","97586","","599","","","75","57","","","2","57","training","adjacent","CD","3","4","Q.jpg","R.jpg","0","1","0","",""
"","feedback","","html-keyboard-response","376","457092","0.0-1.0-519.0-0.0","0","0","97586","","null","","","null","57","","","","","","","","","","","","","","","",""
"","time_out","","html-keyboard-response","377","459111","0.0-1.0-521.0-0.0","0","0","97586","","null","","","null","57","","","","","","","","","","","","","","","",""
"","ITI","","html-keyboard-response","378","460125","0.0-1.0-522.0","0","0","97586","","null","","","null","57","","","","","","","","","","","","","","","NaN",""
"","S1","","html-keyboard-response","379","460397","0.0-1.0-524.0","0","0","97586","","null","","","null","58","","","","","","","","","","","","","","","",""
"","ISI","","html-keyboard-response","380","461413","0.0-1.0-525.0","0","0","97586","","null","","","null","58","NaN","","","","","","","","","","","","","","",""
"","S2","","html-keyboard-response","381","461686","0.0-1.0-526.0","0","0","97586","","null","","","null","58","","NaN","","","","","","","","","","","","","",""
"","response","","html-keyboard-response","382","462461","0.0-1.0-527.0-0.0","0","0","97586","","762","","","75","58","","","2","58","training","adjacent","FG","6","7","N.jpg","L.jpg","0","1","0","",""
"","feedback","","html-keyboard-response","383","463478","0.0-1.0-528.0-0.0","0","0","97586","","null","","","null","58","","","","","","","","","","","","","","","",""
"","time_out","","html-keyboard-response","384","465502","0.0-1.0-530.0-0.0","0","0","97586","","null","","","null","58","","","","","","","","","","","","","","","",""
"","ITI","","html-keyboard-response","385","466516","0.0-1.0-531.0","0","0","97586","","null","","","null","58","","","","","","","","","","","","","","","NaN",""
"","S1","","html-keyboard-response","386","466790","0.0-1.0-533.0","0","0","97586","","null","","","null","59","","","","","","","","","","","","","","","",""
"","ISI","","html-keyboard-response","387","467807","0.0-1.0-534.0","0","0","97586","","null","","","null","59","NaN","","","","","","","","","","","","","","",""
"","S2","","html-keyboard-response","388","468078","0.0-1.0-535.0","0","0","97586","","null","","","null","59","","NaN","","","","","","","","","","","","","",""
"","response","","html-keyboard-response","389","468773","0.0-1.0-536.0-0.0","0","0","97586","","686","","","75","59","","","2","59","training","adjacent","CD","3","4","Q.jpg","R.jpg","0","1","0","",""
"","feedback","","html-keyboard-response","390","469790","0.0-1.0-537.0-0.0","0","0","97586","","null","","","null","59","","","","","","","","","","","","","","","",""
"","time_out","","html-keyboard-response","391","471815","0.0-1.0-539.0-0.0","0","0","97586","","null","","","null","59","","","","","","","","","","","","","","","",""
"","ITI","","html-keyboard-response","392","472838","0.0-1.0-540.0","0","0","97586","","null","","","null","59","","","","","","","","","","","","","","","NaN",""
"","S1","","html-keyboard-response","393","473109","0.0-1.0-542.0","0","0","97586","","null","","","null","60","","","","","","","","","","","","","","","",""
"","ISI","","html-keyboard-response","394","474126","0.0-1.0-543.0","0","0","97586","","null","","","null","60","NaN","","","","","","","","","","","","","","",""
"","S2","","html-keyboard-response","395","474399","0.0-1.0-544.0","0","0","97586","","null","","","null","60","","NaN","","","","","","","","","","","","","",""
"","response","","html-keyboard-response","396","475026","0.0-1.0-545.0-0.0","0","0","97586","","613","","","68","60","","","2","60","training","adjacent","BC","2","3","P.jpg","Q.jpg","1","1","1","",""
"","feedback","","html-keyboard-response","397","476046","0.0-1.0-546.0-0.0","0","0","97586","","null","","","null","60","","","","","","","","","","","","","","","",""
"","ITI","","html-keyboard-response","398","477071","0.0-1.0-549.0","0","0","97586","","null","","","null","60","","","","","","","","","","","","","","","NaN",""
"","S1","","html-keyboard-response","399","477342","0.0-1.0-551.0","0","0","97586","","null","","","null","61","","","","","","","","","","","","","","","",""
"","ISI","","html-keyboard-response","400","478357","0.0-1.0-552.0","0","0","97586","","null","","","null","61","NaN","","","","","","","","","","","","","","",""
"","S2","","html-keyboard-response","401","478630","0.0-1.0-553.0","0","0","97586","","null","","","null","61","","NaN","","","","","","","","","","","","","",""
"","response","","html-keyboard-response","402","479473","0.0-1.0-554.0-0.0","0","0","97586","","831","","","75","61","","","2","61","training","adjacent","GF","7","6","L.jpg","N.jpg","0","0","1","",""
"","feedback","","html-keyboard-response","403","480494","0.0-1.0-555.0-0.0","0","0","97586","","null","","","null","61","","","","","","","","","","","","","","","",""
"","ITI","","html-keyboard-response","404","481523","0.0-1.0-558.0","0","0","97586","","null","","","null","61","","","","","","","","","","","","","","","NaN",""
"","S1","","html-keyboard-response","405","481791","0.0-1.0-560.0","0","0","97586","","null","","","null","62","","","","","","","","","","","","","","","",""
"","ISI","","html-keyboard-response","406","482812","0.0-1.0-561.0","0","0","97586","","null","","","null","62","NaN","","","","","","","","","","","","","","",""
"","S2","","html-keyboard-response","407","483086","0.0-1.0-562.0","0","0","97586","","null","","","null","62","","NaN","","","","","","","","","","","","","",""
"","response","","html-keyboard-response","408","483901","0.0-1.0-563.0-0.0","0","0","97586","","801","","","75","62","","","2","62","training","adjacent","ED","5","4","M.jpg","R.jpg","0","0","1","",""
"","feedback","","html-keyboard-response","409","484921","0.0-1.0-564.0-0.0","0","0","97586","","null","","","null","62","","","","","","","","","","","","","","","",""
"","ITI","","html-keyboard-response","410","485941","0.0-1.0-567.0","0","0","97586","","null","","","null","62","","","","","","","","","","","","","","","NaN",""
"","S1","","html-keyboard-response","411","486213","0.0-1.0-569.0","0","0","97586","","null","","","null","63","","","","","","","","","","","","","","","",""
"","ISI","","html-keyboard-response","412","487234","0.0-1.0-570.0","0","0","97586","","null","","","null","63","NaN","","","","","","","","","","","","","","",""
"","S2","","html-keyboard-response","413","487510","0.0-1.0-571.0","0","0","97586","","null","","","null","63","","NaN","","","","","","","","","","","","","",""
"","response","","html-keyboard-response","414","488318","0.0-1.0-572.0-0.0","0","0","97586","","797","","","75","63","","","2","63","training","adjacent","CB","3","2","Q.jpg","P.jpg","0","0","1","",""
"","feedback","","html-keyboard-response","415","489343","0.0-1.0-573.0-0.0","0","0","97586","","null","","","null","63","","","","","","","","","","","","","","","",""
"","ITI","","html-keyboard-response","416","490367","0.0-1.0-576.0","0","0","97586","","null","","","null","63","","","","","","","","","","","","","","","NaN",""
"","S1","","html-keyboard-response","417","490638","0.0-1.0-578.0","0","0","97586","","null","","","null","64","","","","","","","","","","","","","","","",""
"","ISI","","html-keyboard-response","418","491654","0.0-1.0-579.0","0","0","97586","","null","","","null","64","NaN","","","","","","","","","","","","","","",""
"","S2","","html-keyboard-response","419","491926","0.0-1.0-580.0","0","0","97586","","null","","","null","64","","NaN","","","","","","","","","","","","","",""
"","response","","html-keyboard-response","420","492446","0.0-1.0-581.0-0.0","0","0","97586","","507","","","75","64","","","2","64","training","adjacent","GF","7","6","L.jpg","N.jpg","0","0","1","",""
"","feedback","","html-keyboard-response","421","493471","0.0-1.0-582.0-0.0","0","0","97586","","null","","","null","64","","","","","","","","","","","","","","","",""
"","ITI","","html-keyboard-response","422","494487","0.0-1.0-585.0","0","0","97586","","null","","","null","64","","","","","","","","","","","","","","","NaN",""
"","S1","","html-keyboard-response","423","494755","0.0-1.0-587.0","0","0","97586","","null","","","null","65","","","","","","","","","","","","","","","",""
"","ISI","","html-keyboard-response","424","495768","0.0-1.0-588.0","0","0","97586","","null","","","null","65","NaN","","","","","","","","","","","","","","",""
"","S2","","html-keyboard-response","425","496033","0.0-1.0-589.0","0","0","97586","","null","","","null","65","","NaN","","","","","","","","","","","","","",""
"","response","","html-keyboard-response","426","496735","0.0-1.0-590.0-0.0","0","0","97586","","691","","","68","65","","","2","65","training","adjacent","DC","4","3","R.jpg","Q.jpg","1","0","0","",""
"","feedback","","html-keyboard-response","427","497758","0.0-1.0-591.0-0.0","0","0","97586","","null","","","null","65","","","","","","","","","","","","","","","",""
"","time_out","","html-keyboard-response","428","499777","0.0-1.0-593.0-0.0","0","0","97586","","null","","","null","65","","","","","","","","","","","","","","","",""
"","ITI","","html-keyboard-response","429","500795","0.0-1.0-594.0","0","0","97586","","null","","","null","65","","","","","","","","","","","","","","","NaN",""
"","S1","","html-keyboard-response","430","501063","0.0-1.0-596.0","0","0","97586","","null","","","null","66","","","","","","","","","","","","","","","",""
"","ISI","","html-keyboard-response","431","502078","0.0-1.0-597.0","0","0","97586","","null","","","null","66","NaN","","","","","","","","","","","","","","",""
"","S2","","html-keyboard-response","432","502350","0.0-1.0-598.0","0","0","97586","","null","","","null","66","","NaN","","","","","","","","","","","","","",""
"","response","","html-keyboard-response","433","502821","0.0-1.0-599.0-0.0","0","0","97586","","458","","","75","66","","","2","66","training","adjacent","FG","6","7","N.jpg","L.jpg","0","1","0","",""
"","feedback","","html-keyboard-response","434","503845","0.0-1.0-600.0-0.0","0","0","97586","","null","","","null","66","","","","","","","","","","","","","","","",""
"","time_out","","html-keyboard-response","435","505863","0.0-1.0-602.0-0.0","0","0","97586","","null","","","null","66","","","","","","","","","","","","","","","",""
"","ITI","","html-keyboard-response","436","506886","0.0-1.0-603.0","0","0","97586","","null","","","null","66","","","","","","","","","","","","","","","NaN",""
"","S1","","html-keyboard-response","437","507157","0.0-1.0-605.0","0","0","97586","","null","","","null","67","","","","","","","","","","","","","","","",""
"","ISI","","html-keyboard-response","438","508175","0.0-1.0-606.0","0","0","97586","","null","","","null","67","NaN","","","","","","","","","","","","","","",""
"","S2","","html-keyboard-response","439","508446","0.0-1.0-607.0","0","0","97586","","null","","","null","67","","NaN","","","","","","","","","","","","","",""
"","response","","html-keyboard-response","440","508890","0.0-1.0-608.0-0.0","0","0","97586","","429","","","68","67","","","2","67","training","adjacent","FE","6","5","N.jpg","M.jpg","1","0","0","",""
"","feedback","","html-keyboard-response","441","509909","0.0-1.0-609.0-0.0","0","0","97586","","null","","","null","67","","","","","","","","","","","","","","","",""
"","time_out","","html-keyboard-response","442","511925","0.0-1.0-611.0-0.0","0","0","97586","","null","","","null","67","","","","","","","","","","","","","","","",""
"","ITI","","html-keyboard-response","443","512940","0.0-1.0-612.0","0","0","97586","","null","","","null","67","","","","","","","","","","","","","","","NaN",""
"","S1","","html-keyboard-response","444","513213","0.0-1.0-614.0","0","0","97586","","null","","","null","68","","","","","","","","","","","","","","","",""
"","ISI","","html-keyboard-response","445","514230","0.0-1.0-615.0","0","0","97586","","null","","","null","68","NaN","","","","","","","","","","","","","","",""
"","S2","","html-keyboard-response","446","514496","0.0-1.0-616.0","0","0","97586","","null","","","null","68","","NaN","","","","","","","","","","","","","",""
"","response","","html-keyboard-response","447","515217","0.0-1.0-617.0-0.0","0","0","97586","","711","","","75","68","","","2","68","training","adjacent","BA","2","1","P.jpg","O.jpg","0","0","1","",""
"","feedback","","html-keyboard-response","448","516238","0.0-1.0-618.0-0.0","0","0","97586","","null","","","null","68","","","","","","","","","","","","","","","",""
"","ITI","","html-keyboard-response","449","517263","0.0-1.0-621.0","0","0","97586","","null","","","null","68","","","","","","","","","","","","","","","NaN",""
"","S1","","html-keyboard-response","450","517534","0.0-1.0-623.0","0","0","97586","","null","","","null","69","","","","","","","","","","","","","","","",""
"","ISI","","html-keyboard-response","451","518552","0.0-1.0-624.0","0","0","97586","","null","","","null","69","NaN","","","","","","","","","","","","","","",""
"","S2","","html-keyboard-response","452","518817","0.0-1.0-625.0","0","0","97586","","null","","","null","69","","NaN","","","","","","","","","","","","","",""
"","response","","html-keyboard-response","453","519022","0.0-1.0-626.0-0.0","0","0","97586","","195","","","68","69","","","2","69","training","adjacent","AB","1","2","O.jpg","P.jpg","1","1","1","",""
"","feedback","","html-keyboard-response","454","520046","0.0-1.0-627.0-0.0","0","0","97586","","null","","","null","69","","","","","","","","","","","","","","","",""
"","ITI","","html-keyboard-response","455","521070","0.0-1.0-630.0","0","0","97586","","null","","","null","69","","","","","","","","","","","","","","","NaN",""
"","S1","","html-keyboard-response","456","521341","0.0-1.0-632.0","0","0","97586","","null","","","null","70","","","","","","","","","","","","","","","",""
"","ISI","","html-keyboard-response","457","522358","0.0-1.0-633.0","0","0","97586","","null","","","null","70","NaN","","","","","","","","","","","","","","",""
"","S2","","html-keyboard-response","458","522630","0.0-1.0-634.0","0","0","97586","","null","","","null","70","","NaN","","","","","","","","","","","","","",""
"","response","","html-keyboard-response","459","523184","0.0-1.0-635.0-0.0","0","0","97586","","541","","","68","70","","","2","70","training","adjacent","DC","4","3","R.jpg","Q.jpg","1","0","0","",""
"","feedback","","html-keyboard-response","460","524206","0.0-1.0-636.0-0.0","0","0","97586","","null","","","null","70","","","","","","","","","","","","","","","",""
"","time_out","","html-keyboard-response","461","526231","0.0-1.0-638.0-0.0","0","0","97586","","null","","","null","70","","","","","","","","","","","","","","","",""
"","ITI","","html-keyboard-response","462","527255","0.0-1.0-639.0","0","0","97586","","null","","","null","70","","","","","","","","","","","","","","","NaN",""
"","S1","","html-keyboard-response","463","527526","0.0-1.0-641.0","0","0","97586","","null","","","null","71","","","","","","","","","","","","","","","",""
"","ISI","","html-keyboard-response","464","528542","0.0-1.0-642.0","0","0","97586","","null","","","null","71","NaN","","","","","","","","","","","","","","",""
"","S2","","html-keyboard-response","465","528810","0.0-1.0-643.0","0","0","97586","","null","","","null","71","","NaN","","","","","","","","","","","","","",""
"","response","","html-keyboard-response","466","529080","0.0-1.0-644.0-0.0","0","0","97586","","258","","","68","71","","","2","71","training","adjacent","FG","6","7","N.jpg","L.jpg","1","1","1","",""
"","feedback","","html-keyboard-response","467","530102","0.0-1.0-645.0-0.0","0","0","97586","","null","","","null","71","","","","","","","","","","","","","","","",""
"","ITI","","html-keyboard-response","468","531126","0.0-1.0-648.0","0","0","97586","","null","","","null","71","","","","","","","","","","","","","","","NaN",""
"","S1","","html-keyboard-response","469","531400","0.0-1.0-650.0","0","0","97586","","null","","","null","72","","","","","","","","","","","","","","","",""
"","ISI","","html-keyboard-response","470","532421","0.0-1.0-651.0","0","0","97586","","null","","","null","72","NaN","","","","","","","","","","","","","","",""
"","S2","","html-keyboard-response","471","532690","0.0-1.0-652.0","0","0","97586","","null","","","null","72","","NaN","","","","","","","","","","","","","",""
"","response","","html-keyboard-response","472","533315","0.0-1.0-653.0-0.0","0","0","97586","","612","","","68","72","","","2","72","training","adjacent","BC","2","3","P.jpg","Q.jpg","1","1","1","",""
"","feedback","","html-keyboard-response","473","534334","0.0-1.0-654.0-0.0","0","0","97586","","null","","","null","72","","","","","","","","","","","","","","","",""
"","ITI","","html-keyboard-response","474","535357","0.0-1.0-657.0","0","0","97586","","null","","","null","72","","","","","","","","","","","","","","","NaN",""
"","S1","","html-keyboard-response","475","535630","0.0-1.0-659.0","0","0","97586","","null","","","null","73","","","","","","","","","","","","","","","",""
"","ISI","","html-keyboard-response","476","536646","0.0-1.0-660.0","0","0","97586","","null","","","null","73","NaN","","","","","","","","","","","","","","",""
"","S2","","html-keyboard-response","477","536919","0.0-1.0-661.0","0","0","97586","","null","","","null","73","","NaN","","","","","","","","","","","","","",""
"","response","","html-keyboard-response","478","537447","0.0-1.0-662.0-0.0","0","0","97586","","513","","","68","73","","","2","73","training","adjacent","AB","1","2","O.jpg","P.jpg","1","1","1","",""
"","feedback","","html-keyboard-response","479","538469","0.0-1.0-663.0-0.0","0","0","97586","","null","","","null","73","","","","","","","","","","","","","","","",""
"","ITI","","html-keyboard-response","480","539495","0.0-1.0-666.0","0","0","97586","","null","","","null","73","","","","","","","","","","","","","","","NaN",""
"","S1","","html-keyboard-response","481","539765","0.0-1.0-668.0","0","0","97586","","null","","","null","74","","","","","","","","","","","","","","","",""
"","ISI","","html-keyboard-response","482","540783","0.0-1.0-669.0","0","0","97586","","null","","","null","74","NaN","","","","","","","","","","","","","","",""
"","S2","","html-keyboard-response","483","541053","0.0-1.0-670.0","0","0","97586","","null","","","null","74","","NaN","","","","","","","","","","","","","",""
"","response","","html-keyboard-response","484","541664","0.0-1.0-671.0-0.0","0","0","97586","","597","","","68","74","","","2","74","training","adjacent","DE","4","5","R.jpg","M.jpg","1","1","1","",""
"","feedback","","html-keyboard-response","485","542684","0.0-1.0-672.0-0.0","0","0","97586","","null","","","null","74","","","","","","","","","","","","","","","",""
"","ITI","","html-keyboard-response","486","543701","0.0-1.0-675.0","0","0","97586","","null","","","null","74","","","","","","","","","","","","","","","NaN",""
"","S1","","html-keyboard-response","487","543973","0.0-1.0-677.0","0","0","97586","","null","","","null","75","","","","","","","","","","","","","","","",""
"","ISI","","html-keyboard-response","488","544990","0.0-1.0-678.0","0","0","97586","","null","","","null","75","NaN","","","","","","","","","","","","","","",""
"","S2","","html-keyboard-response","489","545262","0.0-1.0-679.0","0","0","97586","","null","","","null","75","","NaN","","","","","","","","","","","","","",""
"","response","","html-keyboard-response","490","545845","0.0-1.0-680.0-0.0","0","0","97586","","569","","","68","75","","","2","75","training","adjacent","DC","4","3","R.jpg","Q.jpg","1","0","0","",""
"","feedback","","html-keyboard-response","491","546869","0.0-1.0-681.0-0.0","0","0","97586","","null","","","null","75","","","","","","","","","","","","","","","",""
"","time_out","","html-keyboard-response","492","548887","0.0-1.0-683.0-0.0","0","0","97586","","null","","","null","75","","","","","","","","","","","","","","","",""
"","ITI","","html-keyboard-response","493","549902","0.0-1.0-684.0","0","0","97586","","null","","","null","75","","","","","","","","","","","","","","","NaN",""
"","S1","","html-keyboard-response","494","550175","0.0-1.0-686.0","0","0","97586","","null","","","null","76","","","","","","","","","","","","","","","",""
"","ISI","","html-keyboard-response","495","551191","0.0-1.0-687.0","0","0","97586","","null","","","null","76","NaN","","","","","","","","","","","","","","",""
"","S2","","html-keyboard-response","496","551460","0.0-1.0-688.0","0","0","97586","","null","","","null","76","","NaN","","","","","","","","","","","","","",""
"","response","","html-keyboard-response","497","551955","0.0-1.0-689.0-0.0","0","0","97586","","480","","","75","76","","","2","76","training","adjacent","BA","2","1","P.jpg","O.jpg","0","0","1","",""
"","feedback","","html-keyboard-response","498","552971","0.0-1.0-690.0-0.0","0","0","97586","","null","","","null","76","","","","","","","","","","","","","","","",""
"","ITI","","html-keyboard-response","499","554004","0.0-1.0-693.0","0","0","97586","","null","","","null","76","","","","","","","","","","","","","","","NaN",""
"","S1","","html-keyboard-response","500","554276","0.0-1.0-695.0","0","0","97586","","null","","","null","77","","","","","","","","","","","","","","","",""
"","ISI","","html-keyboard-response","501","555295","0.0-1.0-696.0","0","0","97586","","null","","","null","77","NaN","","","","","","","","","","","","","","",""
"","S2","","html-keyboard-response","502","555567","0.0-1.0-697.0","0","0","97586","","null","","","null","77","","NaN","","","","","","","","","","","","","",""
"","response","","html-keyboard-response","503","555761","0.0-1.0-698.0-0.0","0","0","97586","","181","","","75","77","","","2","77","training","adjacent","BA","2","1","P.jpg","O.jpg","0","0","1","",""
"","feedback","","html-keyboard-response","504","556783","0.0-1.0-699.0-0.0","0","0","97586","","null","","","null","77","","","","","","","","","","","","","","","",""
"","ITI","","html-keyboard-response","505","557807","0.0-1.0-702.0","0","0","97586","","null","","","null","77","","","","","","","","","","","","","","","NaN",""
"","S1","","html-keyboard-response","506","558079","0.0-1.0-704.0","0","0","97586","","null","","","null","78","","","","","","","","","","","","","","","",""
"","ISI","","html-keyboard-response","507","559095","0.0-1.0-705.0","0","0","97586","","null","","","null","78","NaN","","","","","","","","","","","","","","",""
"","S2","","html-keyboard-response","508","559368","0.0-1.0-706.0","0","0","97586","","null","","","null","78","","NaN","","","","","","","","","","","","","",""
"","response","","html-keyboard-response","509","560491","0.0-1.0-707.0-0.0","0","0","97586","","1109","","","68","78","","","2","78","training","adjacent","GF","7","6","L.jpg","N.jpg","1","0","0","",""
"","feedback","","html-keyboard-response","510","561516","0.0-1.0-708.0-0.0","0","0","97586","","null","","","null","78","","","","","","","","","","","","","","","",""
"","time_out","","html-keyboard-response","511","563533","0.0-1.0-710.0-0.0","0","0","97586","","null","","","null","78","","","","","","","","","","","","","","","",""
"","ITI","","html-keyboard-response","512","564550","0.0-1.0-711.0","0","0","97586","","null","","","null","78","","","","","","","","","","","","","","","NaN",""
"","S1","","html-keyboard-response","513","564821","0.0-1.0-713.0","0","0","97586","","null","","","null","79","","","","","","","","","","","","","","","",""
"","ISI","","html-keyboard-response","514","565837","0.0-1.0-714.0","0","0","97586","","null","","","null","79","NaN","","","","","","","","","","","","","","",""
"","S2","","html-keyboard-response","515","566110","0.0-1.0-715.0","0","0","97586","","null","","","null","79","","NaN","","","","","","","","","","","","","",""
"","response","","html-keyboard-response","516","566987","0.0-1.0-716.0-0.0","0","0","97586","","865","","","75","79","","","2","79","training","adjacent","ED","5","4","M.jpg","R.jpg","0","0","1","",""
"","feedback","","html-keyboard-response","517","568008","0.0-1.0-717.0-0.0","0","0","97586","","null","","","null","79","","","","","","","","","","","","","","","",""
"","ITI","","html-keyboard-response","518","569031","0.0-1.0-720.0","0","0","97586","","null","","","null","79","","","","","","","","","","","","","","","NaN",""
"","S1","","html-keyboard-response","519","569303","0.0-1.0-722.0","0","0","97586","","null","","","null","80","","","","","","","","","","","","","","","",""
"","ISI","","html-keyboard-response","520","570324","0.0-1.0-723.0","0","0","97586","","null","","","null","80","NaN","","","","","","","","","","","","","","",""
"","S2","","html-keyboard-response","521","570599","0.0-1.0-724.0","0","0","97586","","null","","","null","80","","NaN","","","","","","","","","","","","","",""
"","response","","html-keyboard-response","522","571223","0.0-1.0-725.0-0.0","0","0","97586","","611","","","68","80","","","2","80","training","adjacent","BC","2","3","P.jpg","Q.jpg","1","1","1","",""
"","feedback","","html-keyboard-response","523","572245","0.0-1.0-726.0-0.0","0","0","97586","","null","","","null","80","","","","","","","","","","","","","","","",""
"","ITI","","html-keyboard-response","524","573269","0.0-1.0-729.0","0","0","97586","","null","","","null","80","","","","","","","","","","","","","","","NaN",""
"","S1","","html-keyboard-response","525","573542","0.0-1.0-731.0","0","0","97586","","null","","","null","81","","","","","","","","","","","","","","","",""
"","ISI","","html-keyboard-response","526","574557","0.0-1.0-732.0","0","0","97586","","null","","","null","81","NaN","","","","","","","","","","","","","","",""
"","S2","","html-keyboard-response","527","574828","0.0-1.0-733.0","0","0","97586","","null","","","null","81","","NaN","","","","","","","","","","","","","",""
"","response","","html-keyboard-response","528","575799","0.0-1.0-734.0-0.0","0","0","97586","","958","","","75","81","","","2","81","training","adjacent","EF","5","6","M.jpg","N.jpg","0","1","0","",""
"","feedback","","html-keyboard-response","529","576822","0.0-1.0-735.0-0.0","0","0","97586","","null","","","null","81","","","","","","","","","","","","","","","",""
"","time_out","","html-keyboard-response","530","578846","0.0-1.0-737.0-0.0","0","0","97586","","null","","","null","81","","","","","","","","","","","","","","","",""
"","ITI","","html-keyboard-response","531","579863","0.0-1.0-738.0","0","0","97586","","null","","","null","81","","","","","","","","","","","","","","","NaN",""
"","S1","","html-keyboard-response","532","580134","0.0-1.0-740.0","0","0","97586","","null","","","null","82","","","","","","","","","","","","","","","",""
"","ISI","","html-keyboard-response","533","581150","0.0-1.0-741.0","0","0","97586","","null","","","null","82","NaN","","","","","","","","","","","","","","",""
"","S2","","html-keyboard-response","534","581423","0.0-1.0-742.0","0","0","97586","","null","","","null","82","","NaN","","","","","","","","","","","","","",""
"","response","","html-keyboard-response","535","581974","0.0-1.0-743.0-0.0","0","0","97586","","536","","","68","82","","","2","82","training","adjacent","DE","4","5","R.jpg","M.jpg","1","1","1","",""
"","feedback","","html-keyboard-response","536","582998","0.0-1.0-744.0-0.0","0","0","97586","","null","","","null","82","","","","","","","","","","","","","","","",""
"","ITI","","html-keyboard-response","537","584021","0.0-1.0-747.0","0","0","97586","","null","","","null","82","","","","","","","","","","","","","","","NaN",""
"","S1","","html-keyboard-response","538","584294","0.0-1.0-749.0","0","0","97586","","null","","","null","83","","","","","","","","","","","","","","","",""
"","ISI","","html-keyboard-response","539","585311","0.0-1.0-750.0","0","0","97586","","null","","","null","83","NaN","","","","","","","","","","","","","","",""
"","S2","","html-keyboard-response","540","585580","0.0-1.0-751.0","0","0","97586","","null","","","null","83","","NaN","","","","","","","","","","","","","",""
"","response","","html-keyboard-response","541","586341","0.0-1.0-752.0-0.0","0","0","97586","","747","","","75","83","","","2","83","training","adjacent","CB","3","2","Q.jpg","P.jpg","0","0","1","",""
"","feedback","","html-keyboard-response","542","587366","0.0-1.0-753.0-0.0","0","0","97586","","null","","","null","83","","","","","","","","","","","","","","","",""
"","ITI","","html-keyboard-response","543","588389","0.0-1.0-756.0","0","0","97586","","null","","","null","83","","","","","","","","","","","","","","","NaN",""
"","S1","","html-keyboard-response","544","588661","0.0-1.0-758.0","0","0","97586","","null","","","null","84","","","","","","","","","","","","","","","",""
"","ISI","","html-keyboard-response","545","589686","0.0-1.0-759.0","0","0","97586","","null","","","null","84","NaN","","","","","","","","","","","","","","",""
"","S2","","html-keyboard-response","546","589958","0.0-1.0-760.0","0","0","97586","","null","","","null","84","","NaN","","","","","","","","","","","","","",""
"","response","","html-keyboard-response","547","590417","0.0-1.0-761.0-0.0","0","0","97586","","446","","","75","84","","","2","84","training","adjacent","CD","3","4","Q.jpg","R.jpg","0","1","0","",""
"","feedback","","html-keyboard-response","548","591442","0.0-1.0-762.0-0.0","0","0","97586","","null","","","null","84","","","","","","","","","","","","","","","",""
"","time_out","","html-keyboard-response","549","593463","0.0-1.0-764.0-0.0","0","0","97586","","null","","","null","84","","","","","","","","","","","","","","","",""
"","ITI","","html-keyboard-response","550","594477","0.0-1.0-765.0","0","0","97586","","null","","","null","84","","","","","","","","","","","","","","","NaN",""
"","S1","","html-keyboard-response","551","594749","0.0-1.0-767.0","0","0","97586","","null","","","null","85","","","","","","","","","","","","","","","",""
"","ISI","","html-keyboard-response","552","595769","0.0-1.0-768.0","0","0","97586","","null","","","null","85","NaN","","","","","","","","","","","","","","",""
"","S2","","html-keyboard-response","553","596039","0.0-1.0-769.0","0","0","97586","","null","","","null","85","","NaN","","","","","","","","","","","","","",""
"","response","","html-keyboard-response","554","596507","0.0-1.0-770.0-0.0","0","0","97586","","455","","","68","85","","","2","85","training","adjacent","FG","6","7","N.jpg","L.jpg","1","1","1","",""
"","feedback","","html-keyboard-response","555","597528","0.0-1.0-771.0-0.0","0","0","97586","","null","","","null","85","","","","","","","","","","","","","","","",""
"","ITI","","html-keyboard-response","556","598550","0.0-1.0-774.0","0","0","97586","","null","","","null","85","","","","","","","","","","","","","","","NaN",""
"","S1","","html-keyboard-response","557","598821","0.0-1.0-776.0","0","0","97586","","null","","","null","86","","","","","","","","","","","","","","","",""
"","ISI","","html-keyboard-response","558","599839","0.0-1.0-777.0","0","0","97586","","null","","","null","86","NaN","","","","","","","","","","","","","","",""
"","S2","","html-keyboard-response","559","600110","0.0-1.0-778.0","0","0","97586","","null","","","null","86","","NaN","","","","","","","","","","","","","",""
"","response","","html-keyboard-response","560","601073","0.0-1.0-779.0-0.0","0","0","97586","","950","","","68","86","","","2","86","training","adjacent","DE","4","5","R.jpg","M.jpg","1","1","1","",""
"","feedback","","html-keyboard-response","561","602095","0.0-1.0-780.0-0.0","0","0","97586","","null","","","null","86","","","","","","","","","","","","","","","",""
"","ITI","","html-keyboard-response","562","603121","0.0-1.0-783.0","0","0","97586","","null","","","null","86","","","","","","","","","","","","","","","NaN",""
"","S1","","html-keyboard-response","563","603389","0.0-1.0-785.0","0","0","97586","","null","","","null","87","","","","","","","","","","","","","","","",""
"","ISI","","html-keyboard-response","564","604405","0.0-1.0-786.0","0","0","97586","","null","","","null","87","NaN","","","","","","","","","","","","","","",""
"","S2","","html-keyboard-response","565","604679","0.0-1.0-787.0","0","0","97586","","null","","","null","87","","NaN","","","","","","","","","","","","","",""
"","response","","html-keyboard-response","566","605146","0.0-1.0-788.0-0.0","0","0","97586","","453","","","75","87","","","2","87","training","adjacent","ED","5","4","M.jpg","R.jpg","0","0","1","",""
"","feedback","","html-keyboard-response","567","606164","0.0-1.0-789.0-0.0","0","0","97586","","null","","","null","87","","","","","","","","","","","","","","","",""
"","ITI","","html-keyboard-response","568","607190","0.0-1.0-792.0","0","0","97586","","null","","","null","87","","","","","","","","","","","","","","","NaN",""
"","S1","","html-keyboard-response","569","607465","0.0-1.0-794.0","0","0","97586","","null","","","null","88","","","","","","","","","","","","","","","",""
"","ISI","","html-keyboard-response","570","608485","0.0-1.0-795.0","0","0","97586","","null","","","null","88","NaN","","","","","","","","","","","","","","",""
"","S2","","html-keyboard-response","571","608757","0.0-1.0-796.0","0","0","97586","","null","","","null","88","","NaN","","","","","","","","","","","","","",""
"","response","","html-keyboard-response","572","608915","0.0-1.0-797.0-0.0","0","0","97586","","146","","","68","88","","","2","88","training","adjacent","AB","1","2","O.jpg","P.jpg","1","1","1","",""
"","feedback","","html-keyboard-response","573","609934","0.0-1.0-798.0-0.0","0","0","97586","","null","","","null","88","","","","","","","","","","","","","","","",""
"","ITI","","html-keyboard-response","574","610957","0.0-1.0-801.0","0","0","97586","","null","","","null","88","","","","","","","","","","","","","","","NaN",""
"","S1","","html-keyboard-response","575","611231","0.0-1.0-803.0","0","0","97586","","null","","","null","89","","","","","","","","","","","","","","","",""
"","ISI","","html-keyboard-response","576","612255","0.0-1.0-804.0","0","0","97586","","null","","","null","89","NaN","","","","","","","","","","","","","","",""
"","S2","","html-keyboard-response","577","612525","0.0-1.0-805.0","0","0","97586","","null","","","null","89","","NaN","","","","","","","","","","","","","",""
"","response","","html-keyboard-response","578","613184","0.0-1.0-806.0-0.0","0","0","97586","","644","","","75","89","","","2","89","training","adjacent","ED","5","4","M.jpg","R.jpg","0","0","1","",""
"","feedback","","html-keyboard-response","579","614207","0.0-1.0-807.0-0.0","0","0","97586","","null","","","null","89","","","","","","","","","","","","","","","",""
"","ITI","","html-keyboard-response","580","615228","0.0-1.0-810.0","0","0","97586","","null","","","null","89","","","","","","","","","","","","","","","NaN",""
"","S1","","html-keyboard-response","581","615496","0.0-1.0-812.0","0","0","97586","","null","","","null","90","","","","","","","","","","","","","","","",""
"","ISI","","html-keyboard-response","582","616506","0.0-1.0-813.0","0","0","97586","","null","","","null","90","NaN","","","","","","","","","","","","","","",""
