"success","ttype","start_time","trial_type","trial_index","time_elapsed","internal_node_id","warning","missed_checkup","PID","view_history","rt","responses","repeat_instructions","key_press","index","keypress_isi","keypress_S2","block","trial_num","phase","group_type","pair_type","S1_stim","S2_stim","S1_img","S2_img","S1_chosen","S1_higher","accuracy","keypress_iti","total_bonus_tally"
"true","full_screen","d04142023hr1240","fullscreen","0","6074","0.0-0.0","0","0","81244","","","","","","","","","","","","","","","","","","","","","",""
"","instructions","","instructions","1","42075","0.0-1.0-0.0-0.0","0","0","81244","[{""page_index"":0,""viewing_time"":2290},{""page_index"":1,""viewing_time"":20993},{""page_index"":2,""viewing_time"":7985},{""page_index"":3,""viewing_time"":4732}]","36001","","","","","","","","","","","","","","","","","","","",""
"","comprehension_check","","survey-multi-choice","2","55515","0.0-1.0-0.0-1.0","0","0","81244","","13435","{""Q0"":""True"",""Q1"":""D"",""Q2"":""Once the second image appears and while the screen 'MAKE A CHOICE' is shown"",""Q3"":""Green mark"",""Q4"":""either D or K""}","0","","","","","","","","","","","","","","","","","",""
"","start_exp","","html-keyboard-response","3","109919","0.0-1.0-1.0","0","0","81244","","54401","","","32","","","","","","","","","","","","","","","","",""
"","S1","","html-keyboard-response","4","110171","0.0-1.0-2.0","0","0","81244","","null","","","null","0","","","","","","","","","","","","","","","",""
"","ISI","","html-keyboard-response","5","111174","0.0-1.0-3.0","0","0","81244","","null","","","null","0","NaN","","","","","","","","","","","","","","",""
"","S2","","html-keyboard-response","6","111428","0.0-1.0-4.0","0","0","81244","","null","","","null","0","","NaN","","","","","","","","","","","","","",""
"","response","","html-keyboard-response","7","111686","0.0-1.0-5.0-0.0","0","0","81244","","256","","","75","0","","","1","0","training","adjacent","GF","7","6","M.jpg","O.jpg","0","0","1","",""
"","feedback","","html-keyboard-response","8","112692","0.0-1.0-6.0-0.0","0","0","81244","","null","","","null","0","","","","","","","","","","","","","","","",""
"","ITI","","html-keyboard-response","9","113695","0.0-1.0-9.0","0","0","81244","","null","","","null","0","","","","","","","","","","","","","","","NaN",""
"","S1","","html-keyboard-response","10","113949","0.0-1.0-11.0","0","0","81244","","null","","","null","1","","","","","","","","","","","","","","","",""
"","ISI","","html-keyboard-response","11","114952","0.0-1.0-12.0","0","0","81244","","null","","","null","1","NaN","","","","","","","","","","","","","","",""
"","S2","","html-keyboard-response","12","115205","0.0-1.0-13.0","0","0","81244","","null","","","null","1","","NaN","","","","","","","","","","","","","",""
"","response","","html-keyboard-response","13","116265","0.0-1.0-14.0-0.0","0","0","81244","","1057","","","68","1","","","1","1","training","adjacent","AB","1","2","N.jpg","R.jpg","1","1","1","",""
"","feedback","","html-keyboard-response","14","117268","0.0-1.0-15.0-0.0","0","0","81244","","null","","","null","1","","","","","","","","","","","","","","","",""
"","ITI","","html-keyboard-response","15","118270","0.0-1.0-18.0","0","0","81244","","null","","","null","1","","","","","","","","","","","","","","","NaN",""
"","S1","","html-keyboard-response","16","118525","0.0-1.0-20.0","0","0","81244","","null","","","null","2","","","","","","","","","","","","","","","",""
"","ISI","","html-keyboard-response","17","119529","0.0-1.0-21.0","0","0","81244","","null","","","null","2","NaN","","","","","","","","","","","","","","",""
"","S2","","html-keyboard-response","18","119784","0.0-1.0-22.0","0","0","81244","","null","","","null","2","","NaN","","","","","","","","","","","","","",""
"","response","","html-keyboard-response","19","121054","0.0-1.0-23.0-0.0","0","0","81244","","1265","","","75","2","","","1","2","training","adjacent","DC","4","3","Q.jpg","L.jpg","0","0","1","",""
"","feedback","","html-keyboard-response","20","122058","0.0-1.0-24.0-0.0","0","0","81244","","null","","","null","2","","","","","","","","","","","","","","","",""
"","ITI","","html-keyboard-response","21","123060","0.0-1.0-27.0","0","0","81244","","null","","","null","2","","","","","","","","","","","","","","","NaN",""
"","S1","","html-keyboard-response","22","123313","0.0-1.0-29.0","0","0","81244","","null","","","null","3","","","","","","","","","","","","","","","",""
"","ISI","","html-keyboard-response","23","124316","0.0-1.0-30.0","0","0","81244","","null","","","null","3","NaN","","","","","","","","","","","","","","",""
"","S2","","html-keyboard-response","24","124570","0.0-1.0-31.0","0","0","81244","","null","","","null","3","","NaN","","","","","","","","","","","","","",""
"","response","","html-keyboard-response","25","124604","0.0-1.0-32.0-0.0","0","0","81244","","33","","","75","3","","","1","3","training","adjacent","BC","2","3","R.jpg","L.jpg","0","1","0","",""
"","feedback","","html-keyboard-response","26","125607","0.0-1.0-33.0-0.0","0","0","81244","","null","","","null","3","","","","","","","","","","","","","","","",""
"","time_out","","html-keyboard-response","27","127612","0.0-1.0-35.0-0.0","0","0","81244","","null","","","null","3","","","","","","","","","","","","","","","",""
"","ITI","","html-keyboard-response","28","128614","0.0-1.0-36.0","0","0","81244","","null","","","null","3","","","","","","","","","","","","","","","NaN",""
"","S1","","html-keyboard-response","29","128880","0.0-1.0-38.0","0","0","81244","","null","","","null","4","","","","","","","","","","","","","","","",""
"","ISI","","html-keyboard-response","30","129890","0.0-1.0-39.0","0","0","81244","","null","","","null","4","NaN","","","","","","","","","","","","","","",""
"","S2","","html-keyboard-response","31","130144","0.0-1.0-40.0","0","0","81244","","null","","","null","4","","NaN","","","","","","","","","","","","","",""
"","response","","html-keyboard-response","32","131172","0.0-1.0-41.0-0.0","0","0","81244","","1025","","","75","4","","","1","4","training","adjacent","BA","2","1","R.jpg","N.jpg","0","0","1","",""
"","feedback","","html-keyboard-response","33","132176","0.0-1.0-42.0-0.0","0","0","81244","","null","","","null","4","","","","","","","","","","","","","","","",""
"","ITI","","html-keyboard-response","34","133180","0.0-1.0-45.0","0","0","81244","","null","","","null","4","","","","","","","","","","","","","","","NaN",""
"","S1","","html-keyboard-response","35","133433","0.0-1.0-47.0","0","0","81244","","null","","","null","5","","","","","","","","","","","","","","","",""
"","ISI","","html-keyboard-response","36","134436","0.0-1.0-48.0","0","0","81244","","null","","","null","5","NaN","","","","","","","","","","","","","","",""
"","S2","","html-keyboard-response","37","134688","0.0-1.0-49.0","0","0","81244","","null","","","null","5","","NaN","","","","","","","","","","","","","",""
"","response","","html-keyboard-response","38","135326","0.0-1.0-50.0-0.0","0","0","81244","","635","","","68","5","","","1","5","training","adjacent","ED","5","4","P.jpg","Q.jpg","1","0","0","",""
"","feedback","","html-keyboard-response","39","136331","0.0-1.0-51.0-0.0","0","0","81244","","null","","","null","5","","","","","","","","","","","","","","","",""
"","time_out","","html-keyboard-response","40","138336","0.0-1.0-53.0-0.0","0","0","81244","","null","","","null","5","","","","","","","","","","","","","","","",""
"","ITI","","html-keyboard-response","41","139339","0.0-1.0-54.0","0","0","81244","","null","","","null","5","","","","","","","","","","","","","","","NaN",""
"","S1","","html-keyboard-response","42","139591","0.0-1.0-56.0","0","0","81244","","null","","","null","6","","","","","","","","","","","","","","","",""
"","ISI","","html-keyboard-response","43","140594","0.0-1.0-57.0","0","0","81244","","null","","","null","6","NaN","","","","","","","","","","","","","","",""
"","S2","","html-keyboard-response","44","140848","0.0-1.0-58.0","0","0","81244","","null","","","null","6","","NaN","","","","","","","","","","","","","",""
"","response","","html-keyboard-response","45","141489","0.0-1.0-59.0-0.0","0","0","81244","","639","","","68","6","","","1","6","training","adjacent","BC","2","3","R.jpg","L.jpg","1","1","1","",""
"","feedback","","html-keyboard-response","46","142493","0.0-1.0-60.0-0.0","0","0","81244","","null","","","null","6","","","","","","","","","","","","","","","",""
"","ITI","","html-keyboard-response","47","143496","0.0-1.0-63.0","0","0","81244","","null","","","null","6","","","","","","","","","","","","","","","NaN",""
"","S1","","html-keyboard-response","48","143749","0.0-1.0-65.0","0","0","81244","","null","","","null","7","","","","","","","","","","","","","","","",""
"","ISI","","html-keyboard-response","49","144752","0.0-1.0-66.0","0","0","81244","","null","","","null","7","NaN","","","","","","","","","","","","","","",""
"","S2","","html-keyboard-response","50","145006","0.0-1.0-67.0","0","0","81244","","null","","","null","7","","NaN","","","","","","","","","","","","","",""
"","response","","html-keyboard-response","51","146257","0.0-1.0-68.0-0.0","0","0","81244","","1248","","","68","7","","","1","7","training","adjacent","AB","1","2","N.jpg","R.jpg","1","1","1","",""
"","feedback","","html-keyboard-response","52","147260","0.0-1.0-69.0-0.0","0","0","81244","","null","","","null","7","","","","","","","","","","","","","","","",""
"","ITI","","html-keyboard-response","53","148263","0.0-1.0-72.0","0","0","81244","","null","","","null","7","","","","","","","","","","","","","","","NaN",""
"","S1","","html-keyboard-response","54","148539","0.0-1.0-74.0","0","0","81244","","null","","","null","8","","","","","","","","","","","","","","","",""
"","ISI","","html-keyboard-response","55","149542","0.0-1.0-75.0","0","0","81244","","null","","","null","8","NaN","","","","","","","","","","","","","","",""
"","S2","","html-keyboard-response","56","149795","0.0-1.0-76.0","0","0","81244","","null","","","null","8","","NaN","","","","","","","","","","","","","",""
"","response","","html-keyboard-response","57","150726","0.0-1.0-77.0-0.0","0","0","81244","","928","","","75","8","","","1","8","training","adjacent","CD","3","4","L.jpg","Q.jpg","0","1","0","",""
"","feedback","","html-keyboard-response","58","151729","0.0-1.0-78.0-0.0","0","0","81244","","null","","","null","8","","","","","","","","","","","","","","","",""
"","time_out","","html-keyboard-response","59","153732","0.0-1.0-80.0-0.0","0","0","81244","","null","","","null","8","","","","","","","","","","","","","","","",""
"","ITI","","html-keyboard-response","60","154735","0.0-1.0-81.0","0","0","81244","","null","","","null","8","","","","","","","","","","","","","","","NaN",""
"","S1","","html-keyboard-response","61","154988","0.0-1.0-83.0","0","0","81244","","null","","","null","9","","","","","","","","","","","","","","","",""
"","ISI","","html-keyboard-response","62","155991","0.0-1.0-84.0","0","0","81244","","null","","","null","9","NaN","","","","","","","","","","","","","","",""
"","S2","","html-keyboard-response","63","156244","0.0-1.0-85.0","0","0","81244","","null","","","null","9","","NaN","","","","","","","","","","","","","",""
"","response","","html-keyboard-response","64","157401","0.0-1.0-86.0-0.0","0","0","81244","","1154","","","68","9","","","1","9","training","adjacent","DC","4","3","Q.jpg","L.jpg","1","0","0","",""
"","feedback","","html-keyboard-response","65","158405","0.0-1.0-87.0-0.0","0","0","81244","","null","","","null","9","","","","","","","","","","","","","","","",""
"","time_out","","html-keyboard-response","66","160407","0.0-1.0-89.0-0.0","0","0","81244","","null","","","null","9","","","","","","","","","","","","","","","",""
"","ITI","","html-keyboard-response","67","161410","0.0-1.0-90.0","0","0","81244","","null","","","null","9","","","","","","","","","","","","","","","NaN",""
"","S1","","html-keyboard-response","68","161663","0.0-1.0-92.0","0","0","81244","","null","","","null","10","","","","","","","","","","","","","","","",""
"","ISI","","html-keyboard-response","69","162665","0.0-1.0-93.0","0","0","81244","","null","","","null","10","NaN","","","","","","","","","","","","","","",""
"","S2","","html-keyboard-response","70","162919","0.0-1.0-94.0","0","0","81244","","null","","","null","10","","NaN","","","","","","","","","","","","","",""
"","response","","html-keyboard-response","71","163653","0.0-1.0-95.0-0.0","0","0","81244","","731","","","75","10","","","1","10","training","adjacent","EF","5","6","P.jpg","O.jpg","0","1","0","",""
"","feedback","","html-keyboard-response","72","164656","0.0-1.0-96.0-0.0","0","0","81244","","null","","","null","10","","","","","","","","","","","","","","","",""
"","time_out","","html-keyboard-response","73","166660","0.0-1.0-98.0-0.0","0","0","81244","","null","","","null","10","","","","","","","","","","","","","","","",""
"","ITI","","html-keyboard-response","74","167662","0.0-1.0-99.0","0","0","81244","","null","","","null","10","","","","","","","","","","","","","","","NaN",""
"","S1","","html-keyboard-response","75","167915","0.0-1.0-101.0","0","0","81244","","null","","","null","11","","","","","","","","","","","","","","","",""
"","ISI","","html-keyboard-response","76","168919","0.0-1.0-102.0","0","0","81244","","null","","","null","11","NaN","","","","","","","","","","","","","","",""
"","S2","","html-keyboard-response","77","169171","0.0-1.0-103.0","0","0","81244","","null","","","null","11","","NaN","","","","","","","","","","","","","",""
"","response","","html-keyboard-response","78","169787","0.0-1.0-104.0-0.0","0","0","81244","","613","","","75","11","","","1","11","training","adjacent","FE","6","5","O.jpg","P.jpg","0","0","1","",""
"","feedback","","html-keyboard-response","79","170796","0.0-1.0-105.0-0.0","0","0","81244","","null","","","null","11","","","","","","","","","","","","","","","",""
"","ITI","","html-keyboard-response","80","171799","0.0-1.0-108.0","0","0","81244","","null","","","null","11","","","","","","","","","","","","","","","NaN",""
"","S1","","html-keyboard-response","81","172052","0.0-1.0-110.0","0","0","81244","","null","","","null","12","","","","","","","","","","","","","","","",""
"","ISI","","html-keyboard-response","82","173055","0.0-1.0-111.0","0","0","81244","","null","","","null","12","NaN","","","","","","","","","","","","","","",""
"","S2","","html-keyboard-response","83","173308","0.0-1.0-112.0","0","0","81244","","null","","","null","12","","NaN","","","","","","","","","","","","","",""
"","response","","html-keyboard-response","84","173939","0.0-1.0-113.0-0.0","0","0","81244","","628","","","75","12","","","1","12","training","adjacent","FE","6","5","O.jpg","P.jpg","0","0","1","",""
"","feedback","","html-keyboard-response","85","174942","0.0-1.0-114.0-0.0","0","0","81244","","null","","","null","12","","","","","","","","","","","","","","","",""
"","ITI","","html-keyboard-response","86","175946","0.0-1.0-117.0","0","0","81244","","null","","","null","12","","","","","","","","","","","","","","","NaN",""
"","S1","","html-keyboard-response","87","176200","0.0-1.0-119.0","0","0","81244","","null","","","null","13","","","","","","","","","","","","","","","",""
"","ISI","","html-keyboard-response","88","177201","0.0-1.0-120.0","0","0","81244","","null","","","null","13","NaN","","","","","","","","","","","","","","",""
"","S2","","html-keyboard-response","89","177454","0.0-1.0-121.0","0","0","81244","","null","","","null","13","","NaN","","","","","","","","","","","","","",""
"","response","","html-keyboard-response","90","178546","0.0-1.0-122.0-0.0","0","0","81244","","1089","","","68","13","","","1","13","training","adjacent","FG","6","7","O.jpg","M.jpg","1","1","1","",""
"","feedback","","html-keyboard-response","91","179550","0.0-1.0-123.0-0.0","0","0","81244","","null","","","null","13","","","","","","","","","","","","","","","",""
"","ITI","","html-keyboard-response","92","180553","0.0-1.0-126.0","0","0","81244","","null","","","null","13","","","","","","","","","","","","","","","NaN",""
"","S1","","html-keyboard-response","93","180808","0.0-1.0-128.0","0","0","81244","","null","","","null","14","","","","","","","","","","","","","","","",""
"","ISI","","html-keyboard-response","94","181811","0.0-1.0-129.0","0","0","81244","","null","","","null","14","NaN","","","","","","","","","","","","","","",""
"","S2","","html-keyboard-response","95","182065","0.0-1.0-130.0","0","0","81244","","null","","","null","14","","NaN","","","","","","","","","","","","","",""
"","response","","html-keyboard-response","96","182432","0.0-1.0-131.0-0.0","0","0","81244","","364","","","68","14","","","1","14","training","adjacent","DC","4","3","Q.jpg","L.jpg","1","0","0","",""
"","feedback","","html-keyboard-response","97","183437","0.0-1.0-132.0-0.0","0","0","81244","","null","","","null","14","","","","","","","","","","","","","","","",""
"","time_out","","html-keyboard-response","98","185441","0.0-1.0-134.0-0.0","0","0","81244","","null","","","null","14","","","","","","","","","","","","","","","",""
"","ITI","","html-keyboard-response","99","186444","0.0-1.0-135.0","0","0","81244","","null","","","null","14","","","","","","","","","","","","","","","NaN",""
"","S1","","html-keyboard-response","100","186697","0.0-1.0-137.0","0","0","81244","","null","","","null","15","","","","","","","","","","","","","","","",""
"","ISI","","html-keyboard-response","101","187699","0.0-1.0-138.0","0","0","81244","","null","","","null","15","NaN","","","","","","","","","","","","","","",""
"","S2","","html-keyboard-response","102","187951","0.0-1.0-139.0","0","0","81244","","null","","","null","15","","NaN","","","","","","","","","","","","","",""
"","response","","html-keyboard-response","103","188925","0.0-1.0-140.0-0.0","0","0","81244","","973","","","68","15","","","1","15","training","adjacent","AB","1","2","N.jpg","R.jpg","1","1","1","",""
"","feedback","","html-keyboard-response","104","189928","0.0-1.0-141.0-0.0","0","0","81244","","null","","","null","15","","","","","","","","","","","","","","","",""
"","ITI","","html-keyboard-response","105","190931","0.0-1.0-144.0","0","0","81244","","null","","","null","15","","","","","","","","","","","","","","","NaN",""
"","S1","","html-keyboard-response","106","191184","0.0-1.0-146.0","0","0","81244","","null","","","null","16","","","","","","","","","","","","","","","",""
"","ISI","","html-keyboard-response","107","192187","0.0-1.0-147.0","0","0","81244","","null","","","null","16","NaN","","","","","","","","","","","","","","",""
"","S2","","html-keyboard-response","108","192441","0.0-1.0-148.0","0","0","81244","","null","","","null","16","","NaN","","","","","","","","","","","","","",""
"","response","","html-keyboard-response","109","193098","0.0-1.0-149.0-0.0","0","0","81244","","654","","","68","16","","","1","16","training","adjacent","CD","3","4","L.jpg","Q.jpg","1","1","1","",""
"","feedback","","html-keyboard-response","110","194101","0.0-1.0-150.0-0.0","0","0","81244","","null","","","null","16","","","","","","","","","","","","","","","",""
"","ITI","","html-keyboard-response","111","195104","0.0-1.0-153.0","0","0","81244","","null","","","null","16","","","","","","","","","","","","","","","NaN",""
"","S1","","html-keyboard-response","112","195358","0.0-1.0-155.0","0","0","81244","","null","","","null","17","","","","","","","","","","","","","","","",""
"","ISI","","html-keyboard-response","113","196362","0.0-1.0-156.0","0","0","81244","","null","","","null","17","NaN","","","","","","","","","","","","","","",""
"","S2","","html-keyboard-response","114","196616","0.0-1.0-157.0","0","0","81244","","null","","","null","17","","NaN","","","","","","","","","","","","","",""
"","response","","html-keyboard-response","115","197151","0.0-1.0-158.0-0.0","0","0","81244","","532","","","68","17","","","1","17","training","adjacent","FG","6","7","O.jpg","M.jpg","1","1","1","",""
"","feedback","","html-keyboard-response","116","198155","0.0-1.0-159.0-0.0","0","0","81244","","null","","","null","17","","","","","","","","","","","","","","","",""
"","ITI","","html-keyboard-response","117","199158","0.0-1.0-162.0","0","0","81244","","null","","","null","17","","","","","","","","","","","","","","","NaN",""
"","S1","","html-keyboard-response","118","199411","0.0-1.0-164.0","0","0","81244","","null","","","null","18","","","","","","","","","","","","","","","",""
"","ISI","","html-keyboard-response","119","200414","0.0-1.0-165.0","0","0","81244","","null","","","null","18","NaN","","","","","","","","","","","","","","",""
"","S2","","html-keyboard-response","120","200668","0.0-1.0-166.0","0","0","81244","","null","","","null","18","","NaN","","","","","","","","","","","","","",""
"","response","","html-keyboard-response","121","201363","0.0-1.0-167.0-0.0","0","0","81244","","693","","","68","18","","","1","18","training","adjacent","FG","6","7","O.jpg","M.jpg","1","1","1","",""
"","feedback","","html-keyboard-response","122","202366","0.0-1.0-168.0-0.0","0","0","81244","","null","","","null","18","","","","","","","","","","","","","","","",""
"","ITI","","html-keyboard-response","123","203370","0.0-1.0-171.0","0","0","81244","","null","","","null","18","","","","","","","","","","","","","","","NaN",""
"","S1","","html-keyboard-response","124","203634","0.0-1.0-173.0","0","0","81244","","null","","","null","19","","","","","","","","","","","","","","","",""
"","ISI","","html-keyboard-response","125","204636","0.0-1.0-174.0","0","0","81244","","null","","","null","19","NaN","","","","","","","","","","","","","","",""
"","S2","","html-keyboard-response","126","204892","0.0-1.0-175.0","0","0","81244","","null","","","null","19","","NaN","","","","","","","","","","","","","",""
"","response","","html-keyboard-response","127","205602","0.0-1.0-176.0-0.0","0","0","81244","","708","","","68","19","","","1","19","training","adjacent","AB","1","2","N.jpg","R.jpg","1","1","1","",""
"","feedback","","html-keyboard-response","128","206605","0.0-1.0-177.0-0.0","0","0","81244","","null","","","null","19","","","","","","","","","","","","","","","",""
"","ITI","","html-keyboard-response","129","207609","0.0-1.0-180.0","0","0","81244","","null","","","null","19","","","","","","","","","","","","","","","NaN",""
"","S1","","html-keyboard-response","130","207863","0.0-1.0-182.0","0","0","81244","","null","","","null","20","","","","","","","","","","","","","","","",""
"","ISI","","html-keyboard-response","131","208865","0.0-1.0-183.0","0","0","81244","","null","","","null","20","NaN","","","","","","","","","","","","","","",""
"","S2","","html-keyboard-response","132","209117","0.0-1.0-184.0","0","0","81244","","null","","","null","20","","NaN","","","","","","","","","","","","","",""
"","response","","html-keyboard-response","133","209527","0.0-1.0-185.0-0.0","0","0","81244","","407","","","75","20","","","1","20","training","adjacent","GF","7","6","M.jpg","O.jpg","0","0","1","",""
"","feedback","","html-keyboard-response","134","210531","0.0-1.0-186.0-0.0","0","0","81244","","null","","","null","20","","","","","","","","","","","","","","","",""
"","ITI","","html-keyboard-response","135","211535","0.0-1.0-189.0","0","0","81244","","null","","","null","20","","","","","","","","","","","","","","","NaN",""
"","S1","","html-keyboard-response","136","211800","0.0-1.0-191.0","0","0","81244","","null","","","null","21","","","","","","","","","","","","","","","",""
"","ISI","","html-keyboard-response","137","212812","0.0-1.0-192.0","0","0","81244","","null","","","null","21","NaN","","","","","","","","","","","","","","",""
"","S2","","html-keyboard-response","138","213063","0.0-1.0-193.0","0","0","81244","","null","","","null","21","","NaN","","","","","","","","","","","","","",""
"","response","","html-keyboard-response","139","213999","0.0-1.0-194.0-0.0","0","0","81244","","934","","","75","21","","","1","21","training","adjacent","BC","2","3","R.jpg","L.jpg","0","1","0","",""
"","feedback","","html-keyboard-response","140","215003","0.0-1.0-195.0-0.0","0","0","81244","","null","","","null","21","","","","","","","","","","","","","","","",""
"","time_out","","html-keyboard-response","141","217006","0.0-1.0-197.0-0.0","0","0","81244","","null","","","null","21","","","","","","","","","","","","","","","",""
"","ITI","","html-keyboard-response","142","218010","0.0-1.0-198.0","0","0","81244","","null","","","null","21","","","","","","","","","","","","","","","NaN",""
"","S1","","html-keyboard-response","143","218264","0.0-1.0-200.0","0","0","81244","","null","","","null","22","","","","","","","","","","","","","","","",""
"","ISI","","html-keyboard-response","144","219268","0.0-1.0-201.0","0","0","81244","","null","","","null","22","NaN","","","","","","","","","","","","","","",""
"","S2","","html-keyboard-response","145","219521","0.0-1.0-202.0","0","0","81244","","null","","","null","22","","NaN","","","","","","","","","","","","","",""
"","response","","html-keyboard-response","146","220082","0.0-1.0-203.0-0.0","0","0","81244","","559","","","68","22","","","1","22","training","adjacent","FG","6","7","O.jpg","M.jpg","1","1","1","",""
"","feedback","","html-keyboard-response","147","221085","0.0-1.0-204.0-0.0","0","0","81244","","null","","","null","22","","","","","","","","","","","","","","","",""
"","ITI","","html-keyboard-response","148","222087","0.0-1.0-207.0","0","0","81244","","null","","","null","22","","","","","","","","","","","","","","","NaN",""
"","S1","","html-keyboard-response","149","222341","0.0-1.0-209.0","0","0","81244","","null","","","null","23","","","","","","","","","","","","","","","",""
"","ISI","","html-keyboard-response","150","223344","0.0-1.0-210.0","0","0","81244","","null","","","null","23","NaN","","","","","","","","","","","","","","",""
"","S2","","html-keyboard-response","151","223596","0.0-1.0-211.0","0","0","81244","","null","","","null","23","","NaN","","","","","","","","","","","","","",""
"","response","","html-keyboard-response","152","224727","0.0-1.0-212.0-0.0","0","0","81244","","1128","","","75","23","","","1","23","training","adjacent","FE","6","5","O.jpg","P.jpg","0","0","1","",""
"","feedback","","html-keyboard-response","153","225731","0.0-1.0-213.0-0.0","0","0","81244","","null","","","null","23","","","","","","","","","","","","","","","",""
"","ITI","","html-keyboard-response","154","226735","0.0-1.0-216.0","0","0","81244","","null","","","null","23","","","","","","","","","","","","","","","NaN",""
"","S1","","html-keyboard-response","155","226988","0.0-1.0-218.0","0","0","81244","","null","","","null","24","","","","","","","","","","","","","","","",""
"","ISI","","html-keyboard-response","156","228000","0.0-1.0-219.0","0","0","81244","","null","","","null","24","NaN","","","","","","","","","","","","","","",""
"","S2","","html-keyboard-response","157","228253","0.0-1.0-220.0","0","0","81244","","null","","","null","24","","NaN","","","","","","","","","","","","","",""
"","response","","html-keyboard-response","158","228963","0.0-1.0-221.0-0.0","0","0","81244","","706","","","68","24","","","1","24","training","adjacent","CB","3","2","L.jpg","R.jpg","1","0","0","",""
"","feedback","","html-keyboard-response","159","229966","0.0-1.0-222.0-0.0","0","0","81244","","null","","","null","24","","","","","","","","","","","","","","","",""
"","time_out","","html-keyboard-response","160","231969","0.0-1.0-224.0-0.0","0","0","81244","","null","","","null","24","","","","","","","","","","","","","","","",""
"","ITI","","html-keyboard-response","161","232972","0.0-1.0-225.0","0","0","81244","","null","","","null","24","","","","","","","","","","","","","","","NaN",""
"","S1","","html-keyboard-response","162","233225","0.0-1.0-227.0","0","0","81244","","null","","","null","25","","","","","","","","","","","","","","","",""
"","ISI","","html-keyboard-response","163","234228","0.0-1.0-228.0","0","0","81244","","null","","","null","25","NaN","","","","","","","","","","","","","","",""
"","S2","","html-keyboard-response","164","234481","0.0-1.0-229.0","0","0","81244","","null","","","null","25","","NaN","","","","","","","","","","","","","",""
"","response","","html-keyboard-response","165","234822","0.0-1.0-230.0-0.0","0","0","81244","","339","","","75","25","","","1","25","training","adjacent","DC","4","3","Q.jpg","L.jpg","0","0","1","",""
"","feedback","","html-keyboard-response","166","235824","0.0-1.0-231.0-0.0","0","0","81244","","null","","","null","25","","","","","","","","","","","","","","","",""
"","ITI","","html-keyboard-response","167","236832","0.0-1.0-234.0","0","0","81244","","null","","","null","25","","","","","","","","","","","","","","","NaN",""
"","S1","","html-keyboard-response","168","237090","0.0-1.0-236.0","0","0","81244","","null","","","null","26","","","","","","","","","","","","","","","",""
"","ISI","","html-keyboard-response","169","238093","0.0-1.0-237.0","0","0","81244","","null","","","null","26","NaN","","","","","","","","","","","","","","",""
"","S2","","html-keyboard-response","170","238346","0.0-1.0-238.0","0","0","81244","","null","","","null","26","","NaN","","","","","","","","","","","","","",""
"","response","","html-keyboard-response","171","240027","0.0-1.0-239.0-0.0","0","0","81244","","1677","","","68","26","","","1","26","training","adjacent","EF","5","6","P.jpg","O.jpg","1","1","1","",""
"","feedback","","html-keyboard-response","172","241030","0.0-1.0-240.0-0.0","0","0","81244","","null","","","null","26","","","","","","","","","","","","","","","",""
"","ITI","","html-keyboard-response","173","242033","0.0-1.0-243.0","0","0","81244","","null","","","null","26","","","","","","","","","","","","","","","NaN",""
"","S1","","html-keyboard-response","174","242286","0.0-1.0-245.0","0","0","81244","","null","","","null","27","","","","","","","","","","","","","","","",""
"","ISI","","html-keyboard-response","175","243288","0.0-1.0-246.0","0","0","81244","","null","","","null","27","NaN","","","","","","","","","","","","","","",""
"","S2","","html-keyboard-response","176","243541","0.0-1.0-247.0","0","0","81244","","null","","","null","27","","NaN","","","","","","","","","","","","","",""
"","response","","html-keyboard-response","177","244073","0.0-1.0-248.0-0.0","0","0","81244","","530","","","75","27","","","1","27","training","adjacent","BA","2","1","R.jpg","N.jpg","0","0","1","",""
"","feedback","","html-keyboard-response","178","245076","0.0-1.0-249.0-0.0","0","0","81244","","null","","","null","27","","","","","","","","","","","","","","","",""
"","ITI","","html-keyboard-response","179","246080","0.0-1.0-252.0","0","0","81244","","null","","","null","27","","","","","","","","","","","","","","","NaN",""
"","S1","","html-keyboard-response","180","246332","0.0-1.0-254.0","0","0","81244","","null","","","null","28","","","","","","","","","","","","","","","",""
"","ISI","","html-keyboard-response","181","247335","0.0-1.0-255.0","0","0","81244","","null","","","null","28","NaN","","","","","","","","","","","","","","",""
"","S2","","html-keyboard-response","182","247588","0.0-1.0-256.0","0","0","81244","","null","","","null","28","","NaN","","","","","","","","","","","","","",""
"","response","","html-keyboard-response","183","248791","0.0-1.0-257.0-0.0","0","0","81244","","1201","","","68","28","","","1","28","training","adjacent","DE","4","5","Q.jpg","P.jpg","1","1","1","",""
"","feedback","","html-keyboard-response","184","249794","0.0-1.0-258.0-0.0","0","0","81244","","null","","","null","28","","","","","","","","","","","","","","","",""
"","ITI","","html-keyboard-response","185","250797","0.0-1.0-261.0","0","0","81244","","null","","","null","28","","","","","","","","","","","","","","","NaN",""
"","S1","","html-keyboard-response","186","251052","0.0-1.0-263.0","0","0","81244","","null","","","null","29","","","","","","","","","","","","","","","",""
"","ISI","","html-keyboard-response","187","252054","0.0-1.0-264.0","0","0","81244","","null","","","null","29","NaN","","","","","","","","","","","","","","",""
"","S2","","html-keyboard-response","188","252308","0.0-1.0-265.0","0","0","81244","","null","","","null","29","","NaN","","","","","","","","","","","","","",""
"","response","","html-keyboard-response","189","253963","0.0-1.0-266.0-0.0","0","0","81244","","1653","","","68","29","","","1","29","training","adjacent","BA","2","1","R.jpg","N.jpg","1","0","0","",""
"","feedback","","html-keyboard-response","190","254966","0.0-1.0-267.0-0.0","0","0","81244","","null","","","null","29","","","","","","","","","","","","","","","",""
"","time_out","","html-keyboard-response","191","256970","0.0-1.0-269.0-0.0","0","0","81244","","null","","","null","29","","","","","","","","","","","","","","","",""
"","ITI","","html-keyboard-response","192","257974","0.0-1.0-270.0","0","0","81244","","null","","","null","29","","","","","","","","","","","","","","","NaN",""
"","S1","","html-keyboard-response","193","258227","0.0-1.0-272.0","0","0","81244","","null","","","null","30","","","","","","","","","","","","","","","",""
"","ISI","","html-keyboard-response","194","259241","0.0-1.0-273.0","0","0","81244","","null","","","null","30","NaN","","","","","","","","","","","","","","",""
"","S2","","html-keyboard-response","195","259495","0.0-1.0-274.0","0","0","81244","","null","","","null","30","","NaN","","","","","","","","","","","","","",""
"","response","","html-keyboard-response","196","259972","0.0-1.0-275.0-0.0","0","0","81244","","475","","","75","30","","","1","30","training","adjacent","BA","2","1","R.jpg","N.jpg","0","0","1","",""
"","feedback","","html-keyboard-response","197","260976","0.0-1.0-276.0-0.0","0","0","81244","","null","","","null","30","","","","","","","","","","","","","","","",""
"","ITI","","html-keyboard-response","198","261977","0.0-1.0-279.0","0","0","81244","","null","","","null","30","","","","","","","","","","","","","","","NaN",""
"","S1","","html-keyboard-response","199","262231","0.0-1.0-281.0","0","0","81244","","null","","","null","31","","","","","","","","","","","","","","","",""
"","ISI","","html-keyboard-response","200","263234","0.0-1.0-282.0","0","0","81244","","null","","","null","31","NaN","","","","","","","","","","","","","","",""
"","S2","","html-keyboard-response","201","263487","0.0-1.0-283.0","0","0","81244","","null","","","null","31","","NaN","","","","","","","","","","","","","",""
"","response","","html-keyboard-response","202","264714","0.0-1.0-284.0-0.0","0","0","81244","","1224","","","68","31","","","1","31","training","adjacent","ED","5","4","P.jpg","Q.jpg","1","0","0","",""
"","feedback","","html-keyboard-response","203","265716","0.0-1.0-285.0-0.0","0","0","81244","","null","","","null","31","","","","","","","","","","","","","","","",""
"","time_out","","html-keyboard-response","204","267718","0.0-1.0-287.0-0.0","0","0","81244","","null","","","null","31","","","","","","","","","","","","","","","",""
"","ITI","","html-keyboard-response","205","268720","0.0-1.0-288.0","0","0","81244","","null","","","null","31","","","","","","","","","","","","","","","NaN",""
"","S1","","html-keyboard-response","206","268973","0.0-1.0-290.0","0","0","81244","","null","","","null","32","","","","","","","","","","","","","","","",""
"","ISI","","html-keyboard-response","207","269976","0.0-1.0-291.0","0","0","81244","","null","","","null","32","NaN","","","","","","","","","","","","","","",""
"","S2","","html-keyboard-response","208","270229","0.0-1.0-292.0","0","0","81244","","null","","","null","32","","NaN","","","","","","","","","","","","","",""
"","response","","html-keyboard-response","209","271984","0.0-1.0-293.0-0.0","0","0","81244","","null","","","null","32","","","1","32","training","adjacent","ED","5","4","P.jpg","Q.jpg","NaN","0","0","",""
"","too_slow_prompt","","html-keyboard-response","210","272987","0.0-1.0-295.0-0.0","1","0","81244","","null","","","null","","","","","","","","","","","","","","","","",""
"","time_out","","html-keyboard-response","211","274991","0.0-1.0-296.0-0.0","0","0","81244","","null","","","null","32","","","","","","","","","","","","","","","",""
"","ITI","","html-keyboard-response","212","275993","0.0-1.0-297.0","0","0","81244","","null","","","null","32","","","","","","","","","","","","","","","NaN",""
"","S1","","html-keyboard-response","213","276246","0.0-1.0-299.0","0","0","81244","","null","","","null","33","","","","","","","","","","","","","","","",""
"","ISI","","html-keyboard-response","214","277249","0.0-1.0-300.0","0","0","81244","","null","","","null","33","NaN","","","","","","","","","","","","","","",""
"","S2","","html-keyboard-response","215","277501","0.0-1.0-301.0","0","0","81244","","null","","","null","33","","NaN","","","","","","","","","","","","","",""
"","response","","html-keyboard-response","216","277762","0.0-1.0-302.0-0.0","0","0","81244","","260","","","75","33","","","1","33","training","adjacent","GF","7","6","M.jpg","O.jpg","0","0","1","",""
"","feedback","","html-keyboard-response","217","278766","0.0-1.0-303.0-0.0","0","0","81244","","null","","","null","33","","","","","","","","","","","","","","","",""
"","ITI","","html-keyboard-response","218","279769","0.0-1.0-306.0","0","0","81244","","null","","","null","33","","","","","","","","","","","","","","","NaN",""
"","S1","","html-keyboard-response","219","280023","0.0-1.0-308.0","0","0","81244","","null","","","null","34","","","","","","","","","","","","","","","",""
"","ISI","","html-keyboard-response","220","281026","0.0-1.0-309.0","0","0","81244","","null","","","null","34","NaN","","","","","","","","","","","","","","",""
"","S2","","html-keyboard-response","221","281286","0.0-1.0-310.0","0","0","81244","","null","","","null","34","","NaN","","","","","","","","","","","","","",""
"","response","","html-keyboard-response","222","281859","0.0-1.0-311.0-0.0","0","0","81244","","569","","","68","34","","","1","34","training","adjacent","DE","4","5","Q.jpg","P.jpg","1","1","1","",""
"","feedback","","html-keyboard-response","223","282862","0.0-1.0-312.0-0.0","0","0","81244","","null","","","null","34","","","","","","","","","","","","","","","",""
"","ITI","","html-keyboard-response","224","283866","0.0-1.0-315.0","0","0","81244","","null","","","null","34","","","","","","","","","","","","","","","NaN",""
"","S1","","html-keyboard-response","225","284119","0.0-1.0-317.0","0","0","81244","","null","","","null","35","","","","","","","","","","","","","","","",""
"","ISI","","html-keyboard-response","226","285121","0.0-1.0-318.0","0","0","81244","","null","","","null","35","NaN","","","","","","","","","","","","","","",""
"","S2","","html-keyboard-response","227","285375","0.0-1.0-319.0","0","0","81244","","null","","","null","35","","NaN","","","","","","","","","","","","","",""
"","response","","html-keyboard-response","228","286017","0.0-1.0-320.0-0.0","0","0","81244","","639","","","75","35","","","1","35","training","adjacent","CB","3","2","L.jpg","R.jpg","0","0","1","",""
"","feedback","","html-keyboard-response","229","287021","0.0-1.0-321.0-0.0","0","0","81244","","null","","","null","35","","","","","","","","","","","","","","","",""
"","ITI","","html-keyboard-response","230","288024","0.0-1.0-324.0","0","0","81244","","null","","","null","35","","","","","","","","","","","","","","","NaN",""
"","S1","","html-keyboard-response","231","288277","0.0-1.0-326.0","0","0","81244","","null","","","null","36","","","","","","","","","","","","","","","",""
"","ISI","","html-keyboard-response","232","289278","0.0-1.0-327.0","0","0","81244","","null","","","null","36","NaN","","","","","","","","","","","","","","",""
"","S2","","html-keyboard-response","233","289531","0.0-1.0-328.0","0","0","81244","","null","","","null","36","","NaN","","","","","","","","","","","","","",""
"","response","","html-keyboard-response","234","290057","0.0-1.0-329.0-0.0","0","0","81244","","525","","","75","36","","","1","36","training","adjacent","FE","6","5","O.jpg","P.jpg","0","0","1","",""
"","feedback","","html-keyboard-response","235","291060","0.0-1.0-330.0-0.0","0","0","81244","","null","","","null","36","","","","","","","","","","","","","","","",""
"","ITI","","html-keyboard-response","236","292062","0.0-1.0-333.0","0","0","81244","","null","","","null","36","","","","","","","","","","","","","","","NaN",""
"","S1","","html-keyboard-response","237","292315","0.0-1.0-335.0","0","0","81244","","null","","","null","37","","","","","","","","","","","","","","","",""
"","ISI","","html-keyboard-response","238","293317","0.0-1.0-336.0","0","0","81244","","null","","","null","37","NaN","","","","","","","","","","","","","","",""
"","S2","","html-keyboard-response","239","293571","0.0-1.0-337.0","0","0","81244","","null","","","null","37","","NaN","","","","","","","","","","","","","",""
"","response","","html-keyboard-response","240","293842","0.0-1.0-338.0-0.0","0","0","81244","","269","","","75","37","","","1","37","training","adjacent","GF","7","6","M.jpg","O.jpg","0","0","1","",""
"","feedback","","html-keyboard-response","241","294846","0.0-1.0-339.0-0.0","0","0","81244","","null","","","null","37","","","","","","","","","","","","","","","",""
"","ITI","","html-keyboard-response","242","295854","0.0-1.0-342.0","0","0","81244","","null","","","null","37","","","","","","","","","","","","","","","NaN",""
"","S1","","html-keyboard-response","243","296107","0.0-1.0-344.0","0","0","81244","","null","","","null","38","","","","","","","","","","","","","","","",""
"","ISI","","html-keyboard-response","244","297110","0.0-1.0-345.0","0","0","81244","","null","","","null","38","NaN","","","","","","","","","","","","","","",""
"","S2","","html-keyboard-response","245","297362","0.0-1.0-346.0","0","0","81244","","null","","","null","38","","NaN","","","","","","","","","","","","","",""
"","response","","html-keyboard-response","246","297684","0.0-1.0-347.0-0.0","0","0","81244","","319","","","68","38","","","1","38","training","adjacent","DE","4","5","Q.jpg","P.jpg","1","1","1","",""
"","feedback","","html-keyboard-response","247","298688","0.0-1.0-348.0-0.0","0","0","81244","","null","","","null","38","","","","","","","","","","","","","","","",""
"","ITI","","html-keyboard-response","248","299693","0.0-1.0-351.0","0","0","81244","","null","","","null","38","","","","","","","","","","","","","","","NaN",""
"","S1","","html-keyboard-response","249","299946","0.0-1.0-353.0","0","0","81244","","null","","","null","39","","","","","","","","","","","","","","","",""
"","ISI","","html-keyboard-response","250","300949","0.0-1.0-354.0","0","0","81244","","null","","","null","39","NaN","","","","","","","","","","","","","","",""
"","S2","","html-keyboard-response","251","301203","0.0-1.0-355.0","0","0","81244","","null","","","null","39","","NaN","","","","","","","","","","","","","",""
"","response","","html-keyboard-response","252","301742","0.0-1.0-356.0-0.0","0","0","81244","","537","","","75","39","","","1","39","training","adjacent","CB","3","2","L.jpg","R.jpg","0","0","1","",""
"","feedback","","html-keyboard-response","253","302744","0.0-1.0-357.0-0.0","0","0","81244","","null","","","null","39","","","","","","","","","","","","","","","",""
"","ITI","","html-keyboard-response","254","303749","0.0-1.0-360.0","0","0","81244","","null","","","null","39","","","","","","","","","","","","","","","NaN",""
"","S1","","html-keyboard-response","255","304002","0.0-1.0-362.0","0","0","81244","","null","","","null","40","","","","","","","","","","","","","","","",""
"","ISI","","html-keyboard-response","256","305006","0.0-1.0-363.0","0","0","81244","","null","","","null","40","NaN","","","","","","","","","","","","","","",""
"","S2","","html-keyboard-response","257","305261","0.0-1.0-364.0","0","0","81244","","null","","","null","40","","NaN","","","","","","","","","","","","","",""
"","response","","html-keyboard-response","258","305802","0.0-1.0-365.0-0.0","0","0","81244","","538","","","68","40","","","1","40","training","adjacent","CD","3","4","L.jpg","Q.jpg","1","1","1","",""
"","feedback","","html-keyboard-response","259","306806","0.0-1.0-366.0-0.0","0","0","81244","","null","","","null","40","","","","","","","","","","","","","","","",""
"","ITI","","html-keyboard-response","260","307809","0.0-1.0-369.0","0","0","81244","","null","","","null","40","","","","","","","","","","","","","","","NaN",""
"","S1","","html-keyboard-response","261","308063","0.0-1.0-371.0","0","0","81244","","null","","","null","41","","","","","","","","","","","","","","","",""
"","ISI","","html-keyboard-response","262","309066","0.0-1.0-372.0","0","0","81244","","null","","","null","41","NaN","","","","","","","","","","","","","","",""
"","S2","","html-keyboard-response","263","309319","0.0-1.0-373.0","0","0","81244","","null","","","null","41","","NaN","","","","","","","","","","","","","",""
"","response","","html-keyboard-response","264","310273","0.0-1.0-374.0-0.0","0","0","81244","","952","","","75","41","","","1","41","training","adjacent","ED","5","4","P.jpg","Q.jpg","0","0","1","",""
"","feedback","","html-keyboard-response","265","311277","0.0-1.0-375.0-0.0","0","0","81244","","null","","","null","41","","","","","","","","","","","","","","","",""
"","ITI","","html-keyboard-response","266","312282","0.0-1.0-378.0","0","0","81244","","null","","","null","41","","","","","","","","","","","","","","","NaN",""
"","S1","","html-keyboard-response","267","312536","0.0-1.0-380.0","0","0","81244","","null","","","null","42","","","","","","","","","","","","","","","",""
"","ISI","","html-keyboard-response","268","313540","0.0-1.0-381.0","0","0","81244","","null","","","null","42","NaN","","","","","","","","","","","","","","",""
"","S2","","html-keyboard-response","269","313793","0.0-1.0-382.0","0","0","81244","","null","","","null","42","","NaN","","","","","","","","","","","","","",""
"","response","","html-keyboard-response","270","314890","0.0-1.0-383.0-0.0","0","0","81244","","1095","","","75","42","","","1","42","training","adjacent","EF","5","6","P.jpg","O.jpg","0","1","0","",""
"","feedback","","html-keyboard-response","271","315893","0.0-1.0-384.0-0.0","0","0","81244","","null","","","null","42","","","","","","","","","","","","","","","",""
"","time_out","","html-keyboard-response","272","317897","0.0-1.0-386.0-0.0","0","0","81244","","null","","","null","42","","","","","","","","","","","","","","","",""
"","ITI","","html-keyboard-response","273","318901","0.0-1.0-387.0","0","0","81244","","null","","","null","42","","","","","","","","","","","","","","","NaN",""
"","S1","","html-keyboard-response","274","319154","0.0-1.0-389.0","0","0","81244","","null","","","null","43","","","","","","","","","","","","","","","",""
"","ISI","","html-keyboard-response","275","320157","0.0-1.0-390.0","0","0","81244","","null","","","null","43","NaN","","","","","","","","","","","","","","",""
"","S2","","html-keyboard-response","276","320411","0.0-1.0-391.0","0","0","81244","","null","","","null","43","","NaN","","","","","","","","","","","","","",""
"","response","","html-keyboard-response","277","320957","0.0-1.0-392.0-0.0","0","0","81244","","544","","","68","43","","","1","43","training","adjacent","BC","2","3","R.jpg","L.jpg","1","1","1","",""
"","feedback","","html-keyboard-response","278","321961","0.0-1.0-393.0-0.0","0","0","81244","","null","","","null","43","","","","","","","","","","","","","","","",""
"","ITI","","html-keyboard-response","279","322967","0.0-1.0-396.0","0","0","81244","","null","","","null","43","","","","","","","","","","","","","","","NaN",""
"","S1","","html-keyboard-response","280","323220","0.0-1.0-398.0","0","0","81244","","null","","","null","44","","","","","","","","","","","","","","","",""
"","ISI","","html-keyboard-response","281","324223","0.0-1.0-399.0","0","0","81244","","null","","","null","44","NaN","","","","","","","","","","","","","","",""
"","S2","","html-keyboard-response","282","324477","0.0-1.0-400.0","0","0","81244","","null","","","null","44","","NaN","","","","","","","","","","","","","",""
"","response","","html-keyboard-response","283","325340","0.0-1.0-401.0-0.0","0","0","81244","","861","","","68","44","","","1","44","training","adjacent","CD","3","4","L.jpg","Q.jpg","1","1","1","",""
"","feedback","","html-keyboard-response","284","326344","0.0-1.0-402.0-0.0","0","0","81244","","null","","","null","44","","","","","","","","","","","","","","","",""
"","ITI","","html-keyboard-response","285","327347","0.0-1.0-405.0","0","0","81244","","null","","","null","44","","","","","","","","","","","","","","","NaN",""
"","S1","","html-keyboard-response","286","327600","0.0-1.0-407.0","0","0","81244","","null","","","null","45","","","","","","","","","","","","","","","",""
"","ISI","","html-keyboard-response","287","328604","0.0-1.0-408.0","0","0","81244","","null","","","null","45","NaN","","","","","","","","","","","","","","",""
"","S2","","html-keyboard-response","288","328856","0.0-1.0-409.0","0","0","81244","","null","","","null","45","","NaN","","","","","","","","","","","","","",""
"","response","","html-keyboard-response","289","329542","0.0-1.0-410.0-0.0","0","0","81244","","684","","","68","45","","","1","45","training","adjacent","DE","4","5","Q.jpg","P.jpg","1","1","1","",""
"","feedback","","html-keyboard-response","290","330546","0.0-1.0-411.0-0.0","0","0","81244","","null","","","null","45","","","","","","","","","","","","","","","",""
"","ITI","","html-keyboard-response","291","331551","0.0-1.0-414.0","0","0","81244","","null","","","null","45","","","","","","","","","","","","","","","NaN",""
"","S1","","html-keyboard-response","292","331805","0.0-1.0-416.0","0","0","81244","","null","","","null","46","","","","","","","","","","","","","","","",""
"","ISI","","html-keyboard-response","293","332808","0.0-1.0-417.0","0","0","81244","","null","","","null","46","NaN","","","","","","","","","","","","","","",""
"","S2","","html-keyboard-response","294","333062","0.0-1.0-418.0","0","0","81244","","null","","","null","46","","NaN","","","","","","","","","","","","","",""
"","response","","html-keyboard-response","295","333768","0.0-1.0-419.0-0.0","0","0","81244","","705","","","68","46","","","1","46","training","adjacent","EF","5","6","P.jpg","O.jpg","1","1","1","",""
"","feedback","","html-keyboard-response","296","334771","0.0-1.0-420.0-0.0","0","0","81244","","null","","","null","46","","","","","","","","","","","","","","","",""
"","ITI","","html-keyboard-response","297","335775","0.0-1.0-423.0","0","0","81244","","null","","","null","46","","","","","","","","","","","","","","","NaN",""
"","S1","","html-keyboard-response","298","336028","0.0-1.0-425.0","0","0","81244","","null","","","null","47","","","","","","","","","","","","","","","",""
"","ISI","","html-keyboard-response","299","337032","0.0-1.0-426.0","0","0","81244","","null","","","null","47","NaN","","","","","","","","","","","","","","",""
"","S2","","html-keyboard-response","300","337285","0.0-1.0-427.0","0","0","81244","","null","","","null","47","","NaN","","","","","","","","","","","","","",""
"","response","","html-keyboard-response","301","338034","0.0-1.0-428.0-0.0","0","0","81244","","746","","","75","47","","","1","47","training","adjacent","CB","3","2","L.jpg","R.jpg","0","0","1","",""
"","feedback","","html-keyboard-response","302","339037","0.0-1.0-429.0-0.0","0","0","81244","","null","","","null","47","","","","","","","","","","","","","","","",""
"","ITI","","html-keyboard-response","303","340041","0.0-1.0-432.0","0","0","81244","","null","","","null","47","","","","","","","","","","","","","","","NaN",""
"","block_over","","html-keyboard-response","304","342924","0.0-1.0-433.0-0.0","0","0","81244","","2881","","","32","47","","","","","","","","","","","","","","","",""
"","S1","","html-keyboard-response","305","343178","0.0-1.0-434.0","0","0","81244","","null","","","null","48","","","","","","","","","","","","","","","",""
"","ISI","","html-keyboard-response","306","344181","0.0-1.0-435.0","0","0","81244","","null","","","null","48","NaN","","","","","","","","","","","","","","",""
"","S2","","html-keyboard-response","307","344435","0.0-1.0-436.0","0","0","81244","","null","","","null","48","","NaN","","","","","","","","","","","","","",""
"","response","","html-keyboard-response","308","345259","0.0-1.0-437.0-0.0","0","0","81244","","821","","","68","48","","","2","48","training","adjacent","BC","2","3","R.jpg","L.jpg","1","1","1","",""
"","feedback","","html-keyboard-response","309","346263","0.0-1.0-438.0-0.0","0","0","81244","","null","","","null","48","","","","","","","","","","","","","","","",""
"","ITI","","html-keyboard-response","310","347265","0.0-1.0-441.0","0","0","81244","","null","","","null","48","","","","","","","","","","","","","","","NaN",""
"","S1","","html-keyboard-response","311","347518","0.0-1.0-443.0","0","0","81244","","null","","","null","49","","","","","","","","","","","","","","","",""
"","ISI","","html-keyboard-response","312","348521","0.0-1.0-444.0","0","0","81244","","null","","","null","49","NaN","","","","","","","","","","","","","","",""
"","S2","","html-keyboard-response","313","348775","0.0-1.0-445.0","0","0","81244","","null","","","null","49","","NaN","","","","","","","","","","","","","",""
"","response","","html-keyboard-response","314","350052","0.0-1.0-446.0-0.0","0","0","81244","","1275","","","75","49","","","2","49","training","adjacent","AB","1","2","N.jpg","R.jpg","0","1","0","",""
"","feedback","","html-keyboard-response","315","351056","0.0-1.0-447.0-0.0","0","0","81244","","null","","","null","49","","","","","","","","","","","","","","","",""
"","time_out","","html-keyboard-response","316","353059","0.0-1.0-449.0-0.0","0","0","81244","","null","","","null","49","","","","","","","","","","","","","","","",""
"","ITI","","html-keyboard-response","317","354061","0.0-1.0-450.0","0","0","81244","","null","","","null","49","","","","","","","","","","","","","","","NaN",""
"","S1","","html-keyboard-response","318","354313","0.0-1.0-452.0","0","0","81244","","null","","","null","50","","","","","","","","","","","","","","","",""
"","ISI","","html-keyboard-response","319","355316","0.0-1.0-453.0","0","0","81244","","null","","","null","50","NaN","","","","","","","","","","","","","","",""
"","S2","","html-keyboard-response","320","355571","0.0-1.0-454.0","0","0","81244","","null","","","null","50","","NaN","","","","","","","","","","","","","",""
"","response","","html-keyboard-response","321","356641","0.0-1.0-455.0-0.0","0","0","81244","","1067","","","68","50","","","2","50","training","adjacent","DE","4","5","Q.jpg","P.jpg","1","1","1","",""
"","feedback","","html-keyboard-response","322","357645","0.0-1.0-456.0-0.0","0","0","81244","","null","","","null","50","","","","","","","","","","","","","","","",""
"","ITI","","html-keyboard-response","323","358648","0.0-1.0-459.0","0","0","81244","","null","","","null","50","","","","","","","","","","","","","","","NaN",""
"","S1","","html-keyboard-response","324","358901","0.0-1.0-461.0","0","0","81244","","null","","","null","51","","","","","","","","","","","","","","","",""
"","ISI","","html-keyboard-response","325","359904","0.0-1.0-462.0","0","0","81244","","null","","","null","51","NaN","","","","","","","","","","","","","","",""
"","S2","","html-keyboard-response","326","360158","0.0-1.0-463.0","0","0","81244","","null","","","null","51","","NaN","","","","","","","","","","","","","",""
"","response","","html-keyboard-response","327","361430","0.0-1.0-464.0-0.0","0","0","81244","","1269","","","68","51","","","2","51","training","adjacent","CD","3","4","L.jpg","Q.jpg","1","1","1","",""
"","feedback","","html-keyboard-response","328","362434","0.0-1.0-465.0-0.0","0","0","81244","","null","","","null","51","","","","","","","","","","","","","","","",""
"","ITI","","html-keyboard-response","329","363438","0.0-1.0-468.0","0","0","81244","","null","","","null","51","","","","","","","","","","","","","","","NaN",""
"","S1","","html-keyboard-response","330","363692","0.0-1.0-470.0","0","0","81244","","null","","","null","52","","","","","","","","","","","","","","","",""
"","ISI","","html-keyboard-response","331","364694","0.0-1.0-471.0","0","0","81244","","null","","","null","52","NaN","","","","","","","","","","","","","","",""
"","S2","","html-keyboard-response","332","364947","0.0-1.0-472.0","0","0","81244","","null","","","null","52","","NaN","","","","","","","","","","","","","",""
"","response","","html-keyboard-response","333","366242","0.0-1.0-473.0-0.0","0","0","81244","","1293","","","68","52","","","2","52","training","adjacent","CB","3","2","L.jpg","R.jpg","1","0","0","",""
"","feedback","","html-keyboard-response","334","367246","0.0-1.0-474.0-0.0","0","0","81244","","null","","","null","52","","","","","","","","","","","","","","","",""
"","time_out","","html-keyboard-response","335","369251","0.0-1.0-476.0-0.0","0","0","81244","","null","","","null","52","","","","","","","","","","","","","","","",""
"","ITI","","html-keyboard-response","336","370254","0.0-1.0-477.0","0","0","81244","","null","","","null","52","","","","","","","","","","","","","","","NaN",""
"","S1","","html-keyboard-response","337","370507","0.0-1.0-479.0","0","0","81244","","null","","","null","53","","","","","","","","","","","","","","","",""
"","ISI","","html-keyboard-response","338","371511","0.0-1.0-480.0","0","0","81244","","null","","","null","53","NaN","","","","","","","","","","","","","","",""
"","S2","","html-keyboard-response","339","371764","0.0-1.0-481.0","0","0","81244","","null","","","null","53","","NaN","","","","","","","","","","","","","",""
"","response","","html-keyboard-response","340","372721","0.0-1.0-482.0-0.0","0","0","81244","","953","","","75","53","","","2","53","training","adjacent","DC","4","3","Q.jpg","L.jpg","0","0","1","",""
"","feedback","","html-keyboard-response","341","373724","0.0-1.0-483.0-0.0","0","0","81244","","null","","","null","53","","","","","","","","","","","","","","","",""
"","ITI","","html-keyboard-response","342","374727","0.0-1.0-486.0","0","0","81244","","null","","","null","53","","","","","","","","","","","","","","","NaN",""
"","S1","","html-keyboard-response","343","374981","0.0-1.0-488.0","0","0","81244","","null","","","null","54","","","","","","","","","","","","","","","",""
"","ISI","","html-keyboard-response","344","375984","0.0-1.0-489.0","0","0","81244","","null","","","null","54","NaN","","","","","","","","","","","","","","",""
"","S2","","html-keyboard-response","345","376236","0.0-1.0-490.0","0","0","81244","","null","","","null","54","","NaN","","","","","","","","","","","","","",""
"","response","","html-keyboard-response","346","376808","0.0-1.0-491.0-0.0","0","0","81244","","570","","","75","54","","","2","54","training","adjacent","CB","3","2","L.jpg","R.jpg","0","0","1","",""
"","feedback","","html-keyboard-response","347","377812","0.0-1.0-492.0-0.0","0","0","81244","","null","","","null","54","","","","","","","","","","","","","","","",""
"","ITI","","html-keyboard-response","348","378817","0.0-1.0-495.0","0","0","81244","","null","","","null","54","","","","","","","","","","","","","","","NaN",""
"","S1","","html-keyboard-response","349","379069","0.0-1.0-497.0","0","0","81244","","null","","","null","55","","","","","","","","","","","","","","","",""
"","ISI","","html-keyboard-response","350","380073","0.0-1.0-498.0","0","0","81244","","null","","","null","55","NaN","","","","","","","","","","","","","","",""
"","S2","","html-keyboard-response","351","380326","0.0-1.0-499.0","0","0","81244","","null","","","null","55","","NaN","","","","","","","","","","","","","",""
"","response","","html-keyboard-response","352","380778","0.0-1.0-500.0-0.0","0","0","81244","","449","","","68","55","","","2","55","training","adjacent","FG","6","7","O.jpg","M.jpg","1","1","1","",""
"","feedback","","html-keyboard-response","353","381782","0.0-1.0-501.0-0.0","0","0","81244","","null","","","null","55","","","","","","","","","","","","","","","",""
"","ITI","","html-keyboard-response","354","382786","0.0-1.0-504.0","0","0","81244","","null","","","null","55","","","","","","","","","","","","","","","NaN",""
"","S1","","html-keyboard-response","355","383040","0.0-1.0-506.0","0","0","81244","","null","","","null","56","","","","","","","","","","","","","","","",""
"","ISI","","html-keyboard-response","356","384043","0.0-1.0-507.0","0","0","81244","","null","","","null","56","NaN","","","","","","","","","","","","","","",""
"","S2","","html-keyboard-response","357","384296","0.0-1.0-508.0","0","0","81244","","null","","","null","56","","NaN","","","","","","","","","","","","","",""
"","response","","html-keyboard-response","358","384485","0.0-1.0-509.0-0.0","0","0","81244","","185","","","75","56","","","2","56","training","adjacent","FE","6","5","O.jpg","P.jpg","0","0","1","",""
"","feedback","","html-keyboard-response","359","385489","0.0-1.0-510.0-0.0","0","0","81244","","null","","","null","56","","","","","","","","","","","","","","","",""
"","ITI","","html-keyboard-response","360","386491","0.0-1.0-513.0","0","0","81244","","null","","","null","56","","","","","","","","","","","","","","","NaN",""
"","S1","","html-keyboard-response","361","386745","0.0-1.0-515.0","0","0","81244","","null","","","null","57","","","","","","","","","","","","","","","",""
"","ISI","","html-keyboard-response","362","387748","0.0-1.0-516.0","0","0","81244","","null","","","null","57","NaN","","","","","","","","","","","","","","",""
"","S2","","html-keyboard-response","363","388001","0.0-1.0-517.0","0","0","81244","","null","","","null","57","","NaN","","","","","","","","","","","","","",""
"","response","","html-keyboard-response","364","388665","0.0-1.0-518.0-0.0","0","0","81244","","661","","","68","57","","","2","57","training","adjacent","EF","5","6","P.jpg","O.jpg","1","1","1","",""
"","feedback","","html-keyboard-response","365","389669","0.0-1.0-519.0-0.0","0","0","81244","","null","","","null","57","","","","","","","","","","","","","","","",""
"","ITI","","html-keyboard-response","366","390672","0.0-1.0-522.0","0","0","81244","","null","","","null","57","","","","","","","","","","","","","","","NaN",""
"","S1","","html-keyboard-response","367","390925","0.0-1.0-524.0","0","0","81244","","null","","","null","58","","","","","","","","","","","","","","","",""
"","ISI","","html-keyboard-response","368","391928","0.0-1.0-525.0","0","0","81244","","null","","","null","58","NaN","","","","","","","","","","","","","","",""
"","S2","","html-keyboard-response","369","392182","0.0-1.0-526.0","0","0","81244","","null","","","null","58","","NaN","","","","","","","","","","","","","",""
"","response","","html-keyboard-response","370","392746","0.0-1.0-527.0-0.0","0","0","81244","","561","","","75","58","","","2","58","training","adjacent","GF","7","6","M.jpg","O.jpg","0","0","1","",""
"","feedback","","html-keyboard-response","371","393751","0.0-1.0-528.0-0.0","0","0","81244","","null","","","null","58","","","","","","","","","","","","","","","",""
"","ITI","","html-keyboard-response","372","394755","0.0-1.0-531.0","0","0","81244","","null","","","null","58","","","","","","","","","","","","","","","NaN",""
"","S1","","html-keyboard-response","373","395008","0.0-1.0-533.0","0","0","81244","","null","","","null","59","","","","","","","","","","","","","","","",""
"","ISI","","html-keyboard-response","374","396011","0.0-1.0-534.0","0","0","81244","","null","","","null","59","NaN","","","","","","","","","","","","","","",""
"","S2","","html-keyboard-response","375","396264","0.0-1.0-535.0","0","0","81244","","null","","","null","59","","NaN","","","","","","","","","","","","","",""
"","response","","html-keyboard-response","376","397290","0.0-1.0-536.0-0.0","0","0","81244","","1023","","","75","59","","","2","59","training","adjacent","ED","5","4","P.jpg","Q.jpg","0","0","1","",""
"","feedback","","html-keyboard-response","377","398293","0.0-1.0-537.0-0.0","0","0","81244","","null","","","null","59","","","","","","","","","","","","","","","",""
"","ITI","","html-keyboard-response","378","399297","0.0-1.0-540.0","0","0","81244","","null","","","null","59","","","","","","","","","","","","","","","NaN",""
"","S1","","html-keyboard-response","379","399552","0.0-1.0-542.0","0","0","81244","","null","","","null","60","","","","","","","","","","","","","","","",""
"","ISI","","html-keyboard-response","380","400556","0.0-1.0-543.0","0","0","81244","","null","","","null","60","NaN","","","","","","","","","","","","","","",""
"","S2","","html-keyboard-response","381","400810","0.0-1.0-544.0","0","0","81244","","null","","","null","60","","NaN","","","","","","","","","","","","","",""
"","response","","html-keyboard-response","382","402134","0.0-1.0-545.0-0.0","0","0","81244","","1322","","","75","60","","","2","60","training","adjacent","EF","5","6","P.jpg","O.jpg","0","1","0","",""
"","feedback","","html-keyboard-response","383","403137","0.0-1.0-546.0-0.0","0","0","81244","","null","","","null","60","","","","","","","","","","","","","","","",""
"","time_out","","html-keyboard-response","384","405140","0.0-1.0-548.0-0.0","0","0","81244","","null","","","null","60","","","","","","","","","","","","","","","",""
"","ITI","","html-keyboard-response","385","406143","0.0-1.0-549.0","0","0","81244","","null","","","null","60","","","","","","","","","","","","","","","NaN",""
"","S1","","html-keyboard-response","386","406396","0.0-1.0-551.0","0","0","81244","","null","","","null","61","","","","","","","","","","","","","","","",""
"","ISI","","html-keyboard-response","387","407400","0.0-1.0-552.0","0","0","81244","","null","","","null","61","NaN","","","","","","","","","","","","","","",""
"","S2","","html-keyboard-response","388","407654","0.0-1.0-553.0","0","0","81244","","null","","","null","61","","NaN","","","","","","","","","","","","","",""
"","response","","html-keyboard-response","389","408460","0.0-1.0-554.0-0.0","0","0","81244","","804","","","68","61","","","2","61","training","adjacent","BC","2","3","R.jpg","L.jpg","1","1","1","",""
"","feedback","","html-keyboard-response","390","409463","0.0-1.0-555.0-0.0","0","0","81244","","null","","","null","61","","","","","","","","","","","","","","","",""
"","ITI","","html-keyboard-response","391","410466","0.0-1.0-558.0","0","0","81244","","null","","","null","61","","","","","","","","","","","","","","","NaN",""
"","S1","","html-keyboard-response","392","410721","0.0-1.0-560.0","0","0","81244","","null","","","null","62","","","","","","","","","","","","","","","",""
"","ISI","","html-keyboard-response","393","411725","0.0-1.0-561.0","0","0","81244","","null","","","null","62","NaN","","","","","","","","","","","","","","",""
"","S2","","html-keyboard-response","394","411979","0.0-1.0-562.0","0","0","81244","","null","","","null","62","","NaN","","","","","","","","","","","","","",""
"","response","","html-keyboard-response","395","413195","0.0-1.0-563.0-0.0","0","0","81244","","1213","","","68","62","","","2","62","training","adjacent","AB","1","2","N.jpg","R.jpg","1","1","1","",""
"","feedback","","html-keyboard-response","396","414200","0.0-1.0-564.0-0.0","0","0","81244","","null","","","null","62","","","","","","","","","","","","","","","",""
"","ITI","","html-keyboard-response","397","415203","0.0-1.0-567.0","0","0","81244","","null","","","null","62","","","","","","","","","","","","","","","NaN",""
"","S1","","html-keyboard-response","398","415456","0.0-1.0-569.0","0","0","81244","","null","","","null","63","","","","","","","","","","","","","","","",""
"","ISI","","html-keyboard-response","399","416459","0.0-1.0-570.0","0","0","81244","","null","","","null","63","NaN","","","","","","","","","","","","","","",""
"","S2","","html-keyboard-response","400","416714","0.0-1.0-571.0","0","0","81244","","null","","","null","63","","NaN","","","","","","","","","","","","","",""
"","response","","html-keyboard-response","401","417173","0.0-1.0-572.0-0.0","0","0","81244","","456","","","68","63","","","2","63","training","adjacent","AB","1","2","N.jpg","R.jpg","1","1","1","",""
"","feedback","","html-keyboard-response","402","418178","0.0-1.0-573.0-0.0","0","0","81244","","null","","","null","63","","","","","","","","","","","","","","","",""
"","ITI","","html-keyboard-response","403","419182","0.0-1.0-576.0","0","0","81244","","null","","","null","63","","","","","","","","","","","","","","","NaN",""
"","S1","","html-keyboard-response","404","419436","0.0-1.0-578.0","0","0","81244","","null","","","null","64","","","","","","","","","","","","","","","",""
"","ISI","","html-keyboard-response","405","420439","0.0-1.0-579.0","0","0","81244","","null","","","null","64","NaN","","","","","","","","","","","","","","",""
"","S2","","html-keyboard-response","406","420692","0.0-1.0-580.0","0","0","81244","","null","","","null","64","","NaN","","","","","","","","","","","","","",""
"","response","","html-keyboard-response","407","421717","0.0-1.0-581.0-0.0","0","0","81244","","1021","","","75","64","","","2","64","training","adjacent","CD","3","4","L.jpg","Q.jpg","0","1","0","",""
"","feedback","","html-keyboard-response","408","422721","0.0-1.0-582.0-0.0","0","0","81244","","null","","","null","64","","","","","","","","","","","","","","","",""
"","time_out","","html-keyboard-response","409","424725","0.0-1.0-584.0-0.0","0","0","81244","","null","","","null","64","","","","","","","","","","","","","","","",""
"","ITI","","html-keyboard-response","410","425727","0.0-1.0-585.0","0","0","81244","","null","","","null","64","","","","","","","","","","","","","","","NaN",""
"","S1","","html-keyboard-response","411","425981","0.0-1.0-587.0","0","0","81244","","null","","","null","65","","","","","","","","","","","","","","","",""
"","ISI","","html-keyboard-response","412","426984","0.0-1.0-588.0","0","0","81244","","null","","","null","65","NaN","","","","","","","","","","","","","","",""
"","S2","","html-keyboard-response","413","427237","0.0-1.0-589.0","0","0","81244","","null","","","null","65","","NaN","","","","","","","","","","","","","",""
"","response","","html-keyboard-response","414","427832","0.0-1.0-590.0-0.0","0","0","81244","","594","","","75","65","","","2","65","training","adjacent","FE","6","5","O.jpg","P.jpg","0","0","1","",""
"","feedback","","html-keyboard-response","415","428836","0.0-1.0-591.0-0.0","0","0","81244","","null","","","null","65","","","","","","","","","","","","","","","",""
"","ITI","","html-keyboard-response","416","429840","0.0-1.0-594.0","0","0","81244","","null","","","null","65","","","","","","","","","","","","","","","NaN",""
"","S1","","html-keyboard-response","417","430093","0.0-1.0-596.0","0","0","81244","","null","","","null","66","","","","","","","","","","","","","","","",""
"","ISI","","html-keyboard-response","418","431097","0.0-1.0-597.0","0","0","81244","","null","","","null","66","NaN","","","","","","","","","","","","","","",""
"","S2","","html-keyboard-response","419","431349","0.0-1.0-598.0","0","0","81244","","null","","","null","66","","NaN","","","","","","","","","","","","","",""
"","response","","html-keyboard-response","420","431864","0.0-1.0-599.0-0.0","0","0","81244","","512","","","75","66","","","2","66","training","adjacent","FE","6","5","O.jpg","P.jpg","0","0","1","",""
"","feedback","","html-keyboard-response","421","432868","0.0-1.0-600.0-0.0","0","0","81244","","null","","","null","66","","","","","","","","","","","","","","","",""
"","ITI","","html-keyboard-response","422","433871","0.0-1.0-603.0","0","0","81244","","null","","","null","66","","","","","","","","","","","","","","","NaN",""
"","S1","","html-keyboard-response","423","434126","0.0-1.0-605.0","0","0","81244","","null","","","null","67","","","","","","","","","","","","","","","",""
"","ISI","","html-keyboard-response","424","435129","0.0-1.0-606.0","0","0","81244","","null","","","null","67","NaN","","","","","","","","","","","","","","",""
"","S2","","html-keyboard-response","425","435383","0.0-1.0-607.0","0","0","81244","","null","","","null","67","","NaN","","","","","","","","","","","","","",""
"","response","","html-keyboard-response","426","436348","0.0-1.0-608.0-0.0","0","0","81244","","963","","","68","67","","","2","67","training","adjacent","DE","4","5","Q.jpg","P.jpg","1","1","1","",""
"","feedback","","html-keyboard-response","427","437353","0.0-1.0-609.0-0.0","0","0","81244","","null","","","null","67","","","","","","","","","","","","","","","",""
"","ITI","","html-keyboard-response","428","438357","0.0-1.0-612.0","0","0","81244","","null","","","null","67","","","","","","","","","","","","","","","NaN",""
"","S1","","html-keyboard-response","429","438611","0.0-1.0-614.0","0","0","81244","","null","","","null","68","","","","","","","","","","","","","","","",""
"","ISI","","html-keyboard-response","430","439614","0.0-1.0-615.0","0","0","81244","","null","","","null","68","NaN","","","","","","","","","","","","","","",""
"","S2","","html-keyboard-response","431","439867","0.0-1.0-616.0","0","0","81244","","null","","","null","68","","NaN","","","","","","","","","","","","","",""
"","response","","html-keyboard-response","432","440850","0.0-1.0-617.0-0.0","0","0","81244","","981","","","68","68","","","2","68","training","adjacent","EF","5","6","P.jpg","O.jpg","1","1","1","",""
"","feedback","","html-keyboard-response","433","441853","0.0-1.0-618.0-0.0","0","0","81244","","null","","","null","68","","","","","","","","","","","","","","","",""
"","ITI","","html-keyboard-response","434","442856","0.0-1.0-621.0","0","0","81244","","null","","","null","68","","","","","","","","","","","","","","","NaN",""
"","S1","","html-keyboard-response","435","443110","0.0-1.0-623.0","0","0","81244","","null","","","null","69","","","","","","","","","","","","","","","",""
"","ISI","","html-keyboard-response","436","444113","0.0-1.0-624.0","0","0","81244","","null","","","null","69","NaN","","","","","","","","","","","","","","",""
"","S2","","html-keyboard-response","437","444367","0.0-1.0-625.0","0","0","81244","","null","","","null","69","","NaN","","","","","","","","","","","","","",""
"","response","","html-keyboard-response","438","444680","0.0-1.0-626.0-0.0","0","0","81244","","310","","","75","69","","","2","69","training","adjacent","FG","6","7","O.jpg","M.jpg","0","1","0","",""
"","feedback","","html-keyboard-response","439","445683","0.0-1.0-627.0-0.0","0","0","81244","","null","","","null","69","","","","","","","","","","","","","","","",""
"","time_out","","html-keyboard-response","440","447687","0.0-1.0-629.0-0.0","0","0","81244","","null","","","null","69","","","","","","","","","","","","","","","",""
"","ITI","","html-keyboard-response","441","448690","0.0-1.0-630.0","0","0","81244","","null","","","null","69","","","","","","","","","","","","","","","NaN",""
"","S1","","html-keyboard-response","442","448942","0.0-1.0-632.0","0","0","81244","","null","","","null","70","","","","","","","","","","","","","","","",""
"","ISI","","html-keyboard-response","443","449945","0.0-1.0-633.0","0","0","81244","","null","","","null","70","NaN","","","","","","","","","","","","","","",""
"","S2","","html-keyboard-response","444","450200","0.0-1.0-634.0","0","0","81244","","null","","","null","70","","NaN","","","","","","","","","","","","","",""
"","response","","html-keyboard-response","445","451452","0.0-1.0-635.0-0.0","0","0","81244","","1251","","","68","70","","","2","70","training","adjacent","CD","3","4","L.jpg","Q.jpg","1","1","1","",""
"","feedback","","html-keyboard-response","446","452456","0.0-1.0-636.0-0.0","0","0","81244","","null","","","null","70","","","","","","","","","","","","","","","",""
"","ITI","","html-keyboard-response","447","453459","0.0-1.0-639.0","0","0","81244","","null","","","null","70","","","","","","","","","","","","","","","NaN",""
"","S1","","html-keyboard-response","448","453711","0.0-1.0-641.0","0","0","81244","","null","","","null","71","","","","","","","","","","","","","","","",""
"","ISI","","html-keyboard-response","449","454715","0.0-1.0-642.0","0","0","81244","","null","","","null","71","NaN","","","","","","","","","","","","","","",""
"","S2","","html-keyboard-response","450","454968","0.0-1.0-643.0","0","0","81244","","null","","","null","71","","NaN","","","","","","","","","","","","","",""
"","response","","html-keyboard-response","451","455948","0.0-1.0-644.0-0.0","0","0","81244","","977","","","68","71","","","2","71","training","adjacent","BC","2","3","R.jpg","L.jpg","1","1","1","",""
"","feedback","","html-keyboard-response","452","456952","0.0-1.0-645.0-0.0","0","0","81244","","null","","","null","71","","","","","","","","","","","","","","","",""
"","ITI","","html-keyboard-response","453","457955","0.0-1.0-648.0","0","0","81244","","null","","","null","71","","","","","","","","","","","","","","","NaN",""
"","S1","","html-keyboard-response","454","458207","0.0-1.0-650.0","0","0","81244","","null","","","null","72","","","","","","","","","","","","","","","",""
"","ISI","","html-keyboard-response","455","459211","0.0-1.0-651.0","0","0","81244","","null","","","null","72","NaN","","","","","","","","","","","","","","",""
"","S2","","html-keyboard-response","456","459465","0.0-1.0-652.0","0","0","81244","","null","","","null","72","","NaN","","","","","","","","","","","","","",""
"","response","","html-keyboard-response","457","459938","0.0-1.0-653.0-0.0","0","0","81244","","469","","","75","72","","","2","72","training","adjacent","CB","3","2","L.jpg","R.jpg","0","0","1","",""
"","feedback","","html-keyboard-response","458","460941","0.0-1.0-654.0-0.0","0","0","81244","","null","","","null","72","","","","","","","","","","","","","","","",""
"","ITI","","html-keyboard-response","459","461945","0.0-1.0-657.0","0","0","81244","","null","","","null","72","","","","","","","","","","","","","","","NaN",""
"","S1","","html-keyboard-response","460","462200","0.0-1.0-659.0","0","0","81244","","null","","","null","73","","","","","","","","","","","","","","","",""
"","ISI","","html-keyboard-response","461","463203","0.0-1.0-660.0","0","0","81244","","null","","","null","73","NaN","","","","","","","","","","","","","","",""
"","S2","","html-keyboard-response","462","463456","0.0-1.0-661.0","0","0","81244","","null","","","null","73","","NaN","","","","","","","","","","","","","",""
"","response","","html-keyboard-response","463","463926","0.0-1.0-662.0-0.0","0","0","81244","","467","","","68","73","","","2","73","training","adjacent","FG","6","7","O.jpg","M.jpg","1","1","1","",""
"","feedback","","html-keyboard-response","464","464931","0.0-1.0-663.0-0.0","0","0","81244","","null","","","null","73","","","","","","","","","","","","","","","",""
"","ITI","","html-keyboard-response","465","465935","0.0-1.0-666.0","0","0","81244","","null","","","null","73","","","","","","","","","","","","","","","NaN",""
"","S1","","html-keyboard-response","466","466189","0.0-1.0-668.0","0","0","81244","","null","","","null","74","","","","","","","","","","","","","","","",""
"","ISI","","html-keyboard-response","467","467192","0.0-1.0-669.0","0","0","81244","","null","","","null","74","NaN","","","","","","","","","","","","","","",""
"","S2","","html-keyboard-response","468","467445","0.0-1.0-670.0","0","0","81244","","null","","","null","74","","NaN","","","","","","","","","","","","","",""
"","response","","html-keyboard-response","469","468896","0.0-1.0-671.0-0.0","0","0","81244","","1449","","","68","74","","","2","74","training","adjacent","DE","4","5","Q.jpg","P.jpg","1","1","1","",""
"","feedback","","html-keyboard-response","470","469901","0.0-1.0-672.0-0.0","0","0","81244","","null","","","null","74","","","","","","","","","","","","","","","",""
"","ITI","","html-keyboard-response","471","470905","0.0-1.0-675.0","0","0","81244","","null","","","null","74","","","","","","","","","","","","","","","NaN",""
"","S1","","html-keyboard-response","472","471159","0.0-1.0-677.0","0","0","81244","","null","","","null","75","","","","","","","","","","","","","","","",""
"","ISI","","html-keyboard-response","473","472174","0.0-1.0-678.0","0","0","81244","","null","","","null","75","NaN","","","","","","","","","","","","","","",""
"","S2","","html-keyboard-response","474","472437","0.0-1.0-679.0","0","0","81244","","null","","","null","75","","NaN","","","","","","","","","","","","","",""
"","response","","html-keyboard-response","475","473889","0.0-1.0-680.0-0.0","0","0","81244","","1449","","","75","75","","","2","75","training","adjacent","AB","1","2","N.jpg","R.jpg","0","1","0","",""
"","feedback","","html-keyboard-response","476","474892","0.0-1.0-681.0-0.0","0","0","81244","","null","","","null","75","","","","","","","","","","","","","","","",""
"","time_out","","html-keyboard-response","477","476895","0.0-1.0-683.0-0.0","0","0","81244","","null","","","null","75","","","","","","","","","","","","","","","",""
"","ITI","","html-keyboard-response","478","477898","0.0-1.0-684.0","0","0","81244","","null","","","null","75","","","","","","","","","","","","","","","NaN",""
"","S1","","html-keyboard-response","479","478152","0.0-1.0-686.0","0","0","81244","","null","","","null","76","","","","","","","","","","","","","","","",""
"","ISI","","html-keyboard-response","480","479156","0.0-1.0-687.0","0","0","81244","","null","","","null","76","NaN","","","","","","","","","","","","","","",""
"","S2","","html-keyboard-response","481","479411","0.0-1.0-688.0","0","0","81244","","null","","","null","76","","NaN","","","","","","","","","","","","","",""
"","response","","html-keyboard-response","482","480312","0.0-1.0-689.0-0.0","0","0","81244","","899","","","68","76","","","2","76","training","adjacent","EF","5","6","P.jpg","O.jpg","1","1","1","",""
"","feedback","","html-keyboard-response","483","481316","0.0-1.0-690.0-0.0","0","0","81244","","null","","","null","76","","","","","","","","","","","","","","","",""
"","ITI","","html-keyboard-response","484","482320","0.0-1.0-693.0","0","0","81244","","null","","","null","76","","","","","","","","","","","","","","","NaN",""
"","S1","","html-keyboard-response","485","482574","0.0-1.0-695.0","0","0","81244","","null","","","null","77","","","","","","","","","","","","","","","",""
"","ISI","","html-keyboard-response","486","483578","0.0-1.0-696.0","0","0","81244","","null","","","null","77","NaN","","","","","","","","","","","","","","",""
"","S2","","html-keyboard-response","487","483832","0.0-1.0-697.0","0","0","81244","","null","","","null","77","","NaN","","","","","","","","","","","","","",""
"","response","","html-keyboard-response","488","484784","0.0-1.0-698.0-0.0","0","0","81244","","951","","","75","77","","","2","77","training","adjacent","DC","4","3","Q.jpg","L.jpg","0","0","1","",""
"","feedback","","html-keyboard-response","489","485786","0.0-1.0-699.0-0.0","0","0","81244","","null","","","null","77","","","","","","","","","","","","","","","",""
"","ITI","","html-keyboard-response","490","486789","0.0-1.0-702.0","0","0","81244","","null","","","null","77","","","","","","","","","","","","","","","NaN",""
"","S1","","html-keyboard-response","491","487044","0.0-1.0-704.0","0","0","81244","","null","","","null","78","","","","","","","","","","","","","","","",""
"","ISI","","html-keyboard-response","492","488047","0.0-1.0-705.0","0","0","81244","","null","","","null","78","NaN","","","","","","","","","","","","","","",""
"","S2","","html-keyboard-response","493","488302","0.0-1.0-706.0","0","0","81244","","null","","","null","78","","NaN","","","","","","","","","","","","","",""
"","response","","html-keyboard-response","494","489132","0.0-1.0-707.0-0.0","0","0","81244","","828","","","68","78","","","2","78","training","adjacent","CB","3","2","L.jpg","R.jpg","1","0","0","",""
"","feedback","","html-keyboard-response","495","490135","0.0-1.0-708.0-0.0","0","0","81244","","null","","","null","78","","","","","","","","","","","","","","","",""
"","time_out","","html-keyboard-response","496","492140","0.0-1.0-710.0-0.0","0","0","81244","","null","","","null","78","","","","","","","","","","","","","","","",""
"","ITI","","html-keyboard-response","497","493144","0.0-1.0-711.0","0","0","81244","","null","","","null","78","","","","","","","","","","","","","","","NaN",""
"","S1","","html-keyboard-response","498","493397","0.0-1.0-713.0","0","0","81244","","null","","","null","79","","","","","","","","","","","","","","","",""
"","ISI","","html-keyboard-response","499","494401","0.0-1.0-714.0","0","0","81244","","null","","","null","79","NaN","","","","","","","","","","","","","","",""
"","S2","","html-keyboard-response","500","494655","0.0-1.0-715.0","0","0","81244","","null","","","null","79","","NaN","","","","","","","","","","","","","",""
"","response","","html-keyboard-response","501","495777","0.0-1.0-716.0-0.0","0","0","81244","","1119","","","75","79","","","2","79","training","adjacent","DC","4","3","Q.jpg","L.jpg","0","0","1","",""
"","feedback","","html-keyboard-response","502","496781","0.0-1.0-717.0-0.0","0","0","81244","","null","","","null","79","","","","","","","","","","","","","","","",""
"","ITI","","html-keyboard-response","503","497784","0.0-1.0-720.0","0","0","81244","","null","","","null","79","","","","","","","","","","","","","","","NaN",""
"","S1","","html-keyboard-response","504","498038","0.0-1.0-722.0","0","0","81244","","null","","","null","80","","","","","","","","","","","","","","","",""
"","ISI","","html-keyboard-response","505","499041","0.0-1.0-723.0","0","0","81244","","null","","","null","80","NaN","","","","","","","","","","","","","","",""
"","S2","","html-keyboard-response","506","499295","0.0-1.0-724.0","0","0","81244","","null","","","null","80","","NaN","","","","","","","","","","","","","",""
"","response","","html-keyboard-response","507","500161","0.0-1.0-725.0-0.0","0","0","81244","","864","","","75","80","","","2","80","training","adjacent","FE","6","5","O.jpg","P.jpg","0","0","1","",""
"","feedback","","html-keyboard-response","508","501165","0.0-1.0-726.0-0.0","0","0","81244","","null","","","null","80","","","","","","","","","","","","","","","",""
"","ITI","","html-keyboard-response","509","502168","0.0-1.0-729.0","0","0","81244","","null","","","null","80","","","","","","","","","","","","","","","NaN",""
"","S1","","html-keyboard-response","510","502422","0.0-1.0-731.0","0","0","81244","","null","","","null","81","","","","","","","","","","","","","","","",""
"","ISI","","html-keyboard-response","511","503425","0.0-1.0-732.0","0","0","81244","","null","","","null","81","NaN","","","","","","","","","","","","","","",""
"","S2","","html-keyboard-response","512","503678","0.0-1.0-733.0","0","0","81244","","null","","","null","81","","NaN","","","","","","","","","","","","","",""
"","response","","html-keyboard-response","513","503992","0.0-1.0-734.0-0.0","0","0","81244","","313","","","68","81","","","2","81","training","adjacent","BC","2","3","R.jpg","L.jpg","1","1","1","",""
"","feedback","","html-keyboard-response","514","504996","0.0-1.0-735.0-0.0","0","0","81244","","null","","","null","81","","","","","","","","","","","","","","","",""
"","ITI","","html-keyboard-response","515","505999","0.0-1.0-738.0","0","0","81244","","null","","","null","81","","","","","","","","","","","","","","","NaN",""
"","S1","","html-keyboard-response","516","506253","0.0-1.0-740.0","0","0","81244","","null","","","null","82","","","","","","","","","","","","","","","",""
"","ISI","","html-keyboard-response","517","507257","0.0-1.0-741.0","0","0","81244","","null","","","null","82","NaN","","","","","","","","","","","","","","",""
"","S2","","html-keyboard-response","518","507511","0.0-1.0-742.0","0","0","81244","","null","","","null","82","","NaN","","","","","","","","","","","","","",""
"","response","","html-keyboard-response","519","508111","0.0-1.0-743.0-0.0","0","0","81244","","597","","","75","82","","","2","82","training","adjacent","BA","2","1","R.jpg","N.jpg","0","0","1","",""
"","feedback","","html-keyboard-response","520","509114","0.0-1.0-744.0-0.0","0","0","81244","","null","","","null","82","","","","","","","","","","","","","","","",""
"","ITI","","html-keyboard-response","521","510116","0.0-1.0-747.0","0","0","81244","","null","","","null","82","","","","","","","","","","","","","","","NaN",""
"","S1","","html-keyboard-response","522","510370","0.0-1.0-749.0","0","0","81244","","null","","","null","83","","","","","","","","","","","","","","","",""
"","ISI","","html-keyboard-response","523","511373","0.0-1.0-750.0","0","0","81244","","null","","","null","83","NaN","","","","","","","","","","","","","","",""
"","S2","","html-keyboard-response","524","511628","0.0-1.0-751.0","0","0","81244","","null","","","null","83","","NaN","","","","","","","","","","","","","",""
"","response","","html-keyboard-response","525","512629","0.0-1.0-752.0-0.0","0","0","81244","","998","","","68","83","","","2","83","training","adjacent","CD","3","4","L.jpg","Q.jpg","1","1","1","",""
"","feedback","","html-keyboard-response","526","513633","0.0-1.0-753.0-0.0","0","0","81244","","null","","","null","83","","","","","","","","","","","","","","","",""
"","ITI","","html-keyboard-response","527","514657","0.0-1.0-756.0","0","0","81244","","null","","","null","83","","","","","","","","","","","","","","","NaN",""
"","S1","","html-keyboard-response","528","514910","0.0-1.0-758.0","0","0","81244","","null","","","null","84","","","","","","","","","","","","","","","",""
"","ISI","","html-keyboard-response","529","515912","0.0-1.0-759.0","0","0","81244","","null","","","null","84","NaN","","","","","","","","","","","","","","",""
"","S2","","html-keyboard-response","530","516166","0.0-1.0-760.0","0","0","81244","","null","","","null","84","","NaN","","","","","","","","","","","","","",""
"","response","","html-keyboard-response","531","516304","0.0-1.0-761.0-0.0","0","0","81244","","136","","","75","84","","","2","84","training","adjacent","GF","7","6","M.jpg","O.jpg","0","0","1","",""
"","feedback","","html-keyboard-response","532","517307","0.0-1.0-762.0-0.0","0","0","81244","","null","","","null","84","","","","","","","","","","","","","","","",""
"","ITI","","html-keyboard-response","533","518311","0.0-1.0-765.0","0","0","81244","","null","","","null","84","","","","","","","","","","","","","","","NaN",""
"","S1","","html-keyboard-response","534","518565","0.0-1.0-767.0","0","0","81244","","null","","","null","85","","","","","","","","","","","","","","","",""
"","ISI","","html-keyboard-response","535","519568","0.0-1.0-768.0","0","0","81244","","null","","","null","85","NaN","","","","","","","","","","","","","","",""
"","S2","","html-keyboard-response","536","519822","0.0-1.0-769.0","0","0","81244","","null","","","null","85","","NaN","","","","","","","","","","","","","",""
"","response","","html-keyboard-response","537","520714","0.0-1.0-770.0-0.0","0","0","81244","","889","","","75","85","","","2","85","training","adjacent","ED","5","4","P.jpg","Q.jpg","0","0","1","",""
"","feedback","","html-keyboard-response","538","521717","0.0-1.0-771.0-0.0","0","0","81244","","null","","","null","85","","","","","","","","","","","","","","","",""
"","ITI","","html-keyboard-response","539","522721","0.0-1.0-774.0","0","0","81244","","null","","","null","85","","","","","","","","","","","","","","","NaN",""
"","S1","","html-keyboard-response","540","522975","0.0-1.0-776.0","0","0","81244","","null","","","null","86","","","","","","","","","","","","","","","",""
"","ISI","","html-keyboard-response","541","523978","0.0-1.0-777.0","0","0","81244","","null","","","null","86","NaN","","","","","","","","","","","","","","",""
"","S2","","html-keyboard-response","542","524233","0.0-1.0-778.0","0","0","81244","","null","","","null","86","","NaN","","","","","","","","","","","","","",""
"","response","","html-keyboard-response","543","524741","0.0-1.0-779.0-0.0","0","0","81244","","505","","","68","86","","","2","86","training","adjacent","FG","6","7","O.jpg","M.jpg","1","1","1","",""
"","feedback","","html-keyboard-response","544","525747","0.0-1.0-780.0-0.0","0","0","81244","","null","","","null","86","","","","","","","","","","","","","","","",""
"","ITI","","html-keyboard-response","545","526751","0.0-1.0-783.0","0","0","81244","","null","","","null","86","","","","","","","","","","","","","","","NaN",""
"","S1","","html-keyboard-response","546","527004","0.0-1.0-785.0","0","0","81244","","null","","","null","87","","","","","","","","","","","","","","","",""
"","ISI","","html-keyboard-response","547","528008","0.0-1.0-786.0","0","0","81244","","null","","","null","87","NaN","","","","","","","","","","","","","","",""
"","S2","","html-keyboard-response","548","528262","0.0-1.0-787.0","0","0","81244","","null","","","null","87","","NaN","","","","","","","","","","","","","",""
"","response","","html-keyboard-response","549","529301","0.0-1.0-788.0-0.0","0","0","81244","","1036","","","68","87","","","2","87","training","adjacent","DC","4","3","Q.jpg","L.jpg","1","0","0","",""
"","feedback","","html-keyboard-response","550","530306","0.0-1.0-789.0-0.0","0","0","81244","","null","","","null","87","","","","","","","","","","","","","","","",""
"","time_out","","html-keyboard-response","551","532309","0.0-1.0-791.0-0.0","0","0","81244","","null","","","null","87","","","","","","","","","","","","","","","",""
"","ITI","","html-keyboard-response","552","533312","0.0-1.0-792.0","0","0","81244","","null","","","null","87","","","","","","","","","","","","","","","NaN",""
"","S1","","html-keyboard-response","553","533567","0.0-1.0-794.0","0","0","81244","","null","","","null","88","","","","","","","","","","","","","","","",""
"","ISI","","html-keyboard-response","554","534571","0.0-1.0-795.0","0","0","81244","","null","","","null","88","NaN","","","","","","","","","","","","","","",""
"","S2","","html-keyboard-response","555","534825","0.0-1.0-796.0","0","0","81244","","null","","","null","88","","NaN","","","","","","","","","","","","","",""
"","response","","html-keyboard-response","556","535344","0.0-1.0-797.0-0.0","0","0","81244","","516","","","75","88","","","2","88","training","adjacent","BA","2","1","R.jpg","N.jpg","0","0","1","",""
"","feedback","","html-keyboard-response","557","536349","0.0-1.0-798.0-0.0","0","0","81244","","null","","","null","88","","","","","","","","","","","","","","","",""
"","ITI","","html-keyboard-response","558","537353","0.0-1.0-801.0","0","0","81244","","null","","","null","88","","","","","","","","","","","","","","","NaN",""
"","S1","","html-keyboard-response","559","537607","0.0-1.0-803.0","0","0","81244","","null","","","null","89","","","","","","","","","","","","","","","",""
"","ISI","","html-keyboard-response","560","538611","0.0-1.0-804.0","0","0","81244","","null","","","null","89","NaN","","","","","","","","","","","","","","",""
"","S2","","html-keyboard-response","561","538864","0.0-1.0-805.0","0","0","81244","","null","","","null","89","","NaN","","","","","","","","","","","","","",""
"","response","","html-keyboard-response","562","539614","0.0-1.0-806.0-0.0","0","0","81244","","748","","","75","89","","","2","89","training","adjacent","ED","5","4","P.jpg","Q.jpg","0","0","1","",""
"","feedback","","html-keyboard-response","563","540618","0.0-1.0-807.0-0.0","0","0","81244","","null","","","null","89","","","","","","","","","","","","","","","",""
"","ITI","","html-keyboard-response","564","541622","0.0-1.0-810.0","0","0","81244","","null","","","null","89","","","","","","","","","","","","","","","NaN",""
"","S1","","html-keyboard-response","565","541876","0.0-1.0-812.0","0","0","81244","","null","","","null","90","","","","","","","","","","","","","","","",""
"","ISI","","html-keyboard-response","566","542879","0.0-1.0-813.0","0","0","81244","","null","","","null","90","NaN","","","","","","","","","","","","","","",""
"","S2","","html-keyboard-response","567","543132","0.0-1.0-814.0","0","0","81244","","null","","","null","90","","NaN","","","","","","","","","","","","","",""
"","response","","html-keyboard-response","568","543642","0.0-1.0-815.0-0.0","0","0","81244","","507","","","75","90","","","2","90","training","adjacent","BA","2","1","R.jpg","N.jpg","0","0","1","",""
"","feedback","","html-keyboard-response","569","544647","0.0-1.0-816.0-0.0","0","0","81244","","null","","","null","90","","","","","","","","","","","","","","","",""
"","ITI","","html-keyboard-response","570","545650","0.0-1.0-819.0","0","0","81244","","null","","","null","90","","","","","","","","","","","","","","","NaN",""
"","S1","","html-keyboard-response","571","545905","0.0-1.0-821.0","0","0","81244","","null","","","null","91","","","","","","","","","","","","","","","",""
"","ISI","","html-keyboard-response","572","546908","0.0-1.0-822.0","0","0","81244","","null","","","null","91","NaN","","","","","","","","","","","","","","",""
"","S2","","html-keyboard-response","573","547160","0.0-1.0-823.0","0","0","81244","","null","","","null","91","","NaN","","","","","","","","","","","","","",""
"","response","","html-keyboard-response","574","548242","0.0-1.0-824.0-0.0","0","0","81244","","1079","","","75","91","","","2","91","training","adjacent","GF","7","6","M.jpg","O.jpg","0","0","1","",""
"","feedback","","html-keyboard-response","575","549245","0.0-1.0-825.0-0.0","0","0","81244","","null","","","null","91","","","","","","","","","","","","","","","",""
"","ITI","","html-keyboard-response","576","550248","0.0-1.0-828.0","0","0","81244","","null","","","null","91","","","","","","","","","","","","","","","NaN",""
"","S1","","html-keyboard-response","577","550502","0.0-1.0-830.0","0","0","81244","","null","","","null","92","","","","","","","","","","","","","","","",""
"","ISI","","html-keyboard-response","578","551505","0.0-1.0-831.0","0","0","81244","","null","","","null","92","NaN","","","","","","","","","","","","","","",""
"","S2","","html-keyboard-response","579","551715","0.0-1.0-832.0","0","0","81244","","206","","","75","92","","k","2","92","training","adjacent","GF","7","6","M.jpg","O.jpg","0","0","1","",""
"","feedback","","html-keyboard-response","580","552720","0.0-1.0-834.0-0.0","0","0","81244","","null","","","null","92","","","","","","","","","","","","","","","",""
"","ITI","","html-keyboard-response","581","553724","0.0-1.0-837.0","0","0","81244","","null","","","null","92","","","","","","","","","","","","","","","NaN",""
"","S1","","html-keyboard-response","582","553977","0.0-1.0-839.0","0","0","81244","","null","","","null","93","","","","","","","","","","","","","","","",""
