"success","ttype","start_time","trial_type","trial_index","time_elapsed","internal_node_id","warning","missed_checkup","PID","view_history","rt","responses","repeat_instructions","key_press","index","keypress_isi","keypress_S2","block","trial_num","phase","group_type","pair_type","S1_stim","S2_stim","S1_img","S2_img","S1_chosen","S1_higher","accuracy","keypress_iti","total_bonus_tally"
"true","full_screen","d08052022hr1312","fullscreen","0","22019","0.0-0.0","0","0","34344","","","","","","","","","","","","","","","","","","","","","",""
"","instructions","","instructions","1","89825","0.0-1.0-0.0-0.0","0","0","34344","[{""page_index"":0,""viewing_time"":7757},{""page_index"":1,""viewing_time"":31173},{""page_index"":2,""viewing_time"":26202},{""page_index"":3,""viewing_time"":2671}]","67804","","","","","","","","","","","","","","","","","","","",""
"","comprehension_check","","survey-multi-choice","2","117327","0.0-1.0-0.0-1.0","0","0","34344","","27499","{""Q0"":""True"",""Q1"":""D"",""Q2"":""Once the second image appears and while the screen 'MAKE A CHOICE' is shown"",""Q3"":""Green mark"",""Q4"":""either D or K""}","0","","","","","","","","","","","","","","","","","",""
"","start_exp","","html-keyboard-response","3","120266","0.0-1.0-1.0","0","0","34344","","2936","","","32","","","","","","","","","","","","","","","","",""
"","S1","","html-keyboard-response","4","120520","0.0-1.0-2.0","0","0","34344","","null","","","null","0","","","","","","","","","","","","","","","",""
"","ISI","","html-keyboard-response","5","122523","0.0-1.0-3.0","0","0","34344","","600","","","75","0","k","","","","","","","","","","","","","","",""
"","S2","","html-keyboard-response","6","122776","0.0-1.0-4.0","0","0","34344","","null","","","null","0","","NaN","","","","","","","","","","","","","",""
"","response","","html-keyboard-response","7","123645","0.0-1.0-5.0-0.0","0","0","34344","","868","","","75","0","","","1","0","training","adjacent","AB","1","2","Q.jpg","N.jpg","0","1","0","",""
"","feedback","","html-keyboard-response","8","124648","0.0-1.0-6.0-0.0","0","0","34344","","null","","","null","0","","","","","","","","","","","","","","","",""
"","time_out","","html-keyboard-response","9","126650","0.0-1.0-8.0-0.0","0","0","34344","","null","","","null","0","","","","","","","","","","","","","","","",""
"","ITI","","html-keyboard-response","10","127653","0.0-1.0-9.0","0","0","34344","","null","","","null","0","","","","","","","","","","","","","","","NaN",""
"","S1","","html-keyboard-response","11","127906","0.0-1.0-11.0","0","0","34344","","null","","","null","1","","","","","","","","","","","","","","","",""
"","ISI","","html-keyboard-response","12","129908","0.0-1.0-12.0","0","0","34344","","null","","","null","1","NaN","","","","","","","","","","","","","","",""
"","S2","","html-keyboard-response","13","130161","0.0-1.0-13.0","0","0","34344","","null","","","null","1","","NaN","","","","","","","","","","","","","",""
"","response","","html-keyboard-response","14","131365","0.0-1.0-14.0-0.0","0","0","34344","","1202","","","68","1","","","1","1","training","adjacent","CB","3","2","L.jpg","N.jpg","1","0","0","",""
"","feedback","","html-keyboard-response","15","132367","0.0-1.0-15.0-0.0","0","0","34344","","null","","","null","1","","","","","","","","","","","","","","","",""
"","time_out","","html-keyboard-response","16","134369","0.0-1.0-17.0-0.0","0","0","34344","","null","","","null","1","","","","","","","","","","","","","","","",""
"","ITI","","html-keyboard-response","17","135372","0.0-1.0-18.0","0","0","34344","","null","","","null","1","","","","","","","","","","","","","","","NaN",""
"","S1","","html-keyboard-response","18","135624","0.0-1.0-20.0","0","0","34344","","null","","","null","2","","","","","","","","","","","","","","","",""
"","ISI","","html-keyboard-response","19","137627","0.0-1.0-21.0","0","0","34344","","null","","","null","2","NaN","","","","","","","","","","","","","","",""
"","S2","","html-keyboard-response","20","137879","0.0-1.0-22.0","0","0","34344","","null","","","null","2","","NaN","","","","","","","","","","","","","",""
"","response","","html-keyboard-response","21","138425","0.0-1.0-23.0-0.0","0","0","34344","","545","","","68","2","","","1","2","training","adjacent","AB","1","2","Q.jpg","N.jpg","1","1","1","",""
"","feedback","","html-keyboard-response","22","139427","0.0-1.0-24.0-0.0","0","0","34344","","null","","","null","2","","","","","","","","","","","","","","","",""
"","ITI","","html-keyboard-response","23","140429","0.0-1.0-27.0","0","0","34344","","null","","","null","2","","","","","","","","","","","","","","","NaN",""
"","S1","","html-keyboard-response","24","140682","0.0-1.0-29.0","0","0","34344","","null","","","null","3","","","","","","","","","","","","","","","",""
"","ISI","","html-keyboard-response","25","142685","0.0-1.0-30.0","0","0","34344","","null","","","null","3","NaN","","","","","","","","","","","","","","",""
"","S2","","html-keyboard-response","26","142938","0.0-1.0-31.0","0","0","34344","","null","","","null","3","","NaN","","","","","","","","","","","","","",""
"","response","","html-keyboard-response","27","143851","0.0-1.0-32.0-0.0","0","0","34344","","912","","","75","3","","","1","3","training","adjacent","BC","2","3","N.jpg","L.jpg","0","1","0","",""
"","feedback","","html-keyboard-response","28","144855","0.0-1.0-33.0-0.0","0","0","34344","","null","","","null","3","","","","","","","","","","","","","","","",""
"","time_out","","html-keyboard-response","29","146857","0.0-1.0-35.0-0.0","0","0","34344","","null","","","null","3","","","","","","","","","","","","","","","",""
"","ITI","","html-keyboard-response","30","147859","0.0-1.0-36.0","0","0","34344","","null","","","null","3","","","","","","","","","","","","","","","NaN",""
"","S1","","html-keyboard-response","31","148111","0.0-1.0-38.0","0","0","34344","","null","","","null","4","","","","","","","","","","","","","","","",""
"","ISI","","html-keyboard-response","32","150114","0.0-1.0-39.0","0","0","34344","","null","","","null","4","NaN","","","","","","","","","","","","","","",""
"","S2","","html-keyboard-response","33","150367","0.0-1.0-40.0","0","0","34344","","null","","","null","4","","NaN","","","","","","","","","","","","","",""
"","response","","html-keyboard-response","34","151054","0.0-1.0-41.0-0.0","0","0","34344","","685","","","75","4","","","1","4","training","adjacent","CD","3","4","L.jpg","O.jpg","0","1","0","",""
"","feedback","","html-keyboard-response","35","152057","0.0-1.0-42.0-0.0","0","0","34344","","null","","","null","4","","","","","","","","","","","","","","","",""
"","time_out","","html-keyboard-response","36","154060","0.0-1.0-44.0-0.0","0","0","34344","","null","","","null","4","","","","","","","","","","","","","","","",""
"","ITI","","html-keyboard-response","37","155063","0.0-1.0-45.0","0","0","34344","","null","","","null","4","","","","","","","","","","","","","","","NaN",""
"","S1","","html-keyboard-response","38","155315","0.0-1.0-47.0","0","0","34344","","null","","","null","5","","","","","","","","","","","","","","","",""
"","ISI","","html-keyboard-response","39","157317","0.0-1.0-48.0","0","0","34344","","null","","","null","5","NaN","","","","","","","","","","","","","","",""
"","S2","","html-keyboard-response","40","157570","0.0-1.0-49.0","0","0","34344","","null","","","null","5","","NaN","","","","","","","","","","","","","",""
"","response","","html-keyboard-response","41","158036","0.0-1.0-50.0-0.0","0","0","34344","","465","","","68","5","","","1","5","training","adjacent","CD","3","4","L.jpg","O.jpg","1","1","1","",""
"","feedback","","html-keyboard-response","42","159039","0.0-1.0-51.0-0.0","0","0","34344","","null","","","null","5","","","","","","","","","","","","","","","",""
"","ITI","","html-keyboard-response","43","160041","0.0-1.0-54.0","0","0","34344","","null","","","null","5","","","","","","","","","","","","","","","NaN",""
"","S1","","html-keyboard-response","44","160294","0.0-1.0-56.0","0","0","34344","","null","","","null","6","","","","","","","","","","","","","","","",""
"","ISI","","html-keyboard-response","45","162296","0.0-1.0-57.0","0","0","34344","","null","","","null","6","NaN","","","","","","","","","","","","","","",""
"","S2","","html-keyboard-response","46","162548","0.0-1.0-58.0","0","0","34344","","null","","","null","6","","NaN","","","","","","","","","","","","","",""
"","response","","html-keyboard-response","47","163536","0.0-1.0-59.0-0.0","0","0","34344","","987","","","68","6","","","1","6","training","adjacent","DC","4","3","O.jpg","L.jpg","1","0","0","",""
"","feedback","","html-keyboard-response","48","164539","0.0-1.0-60.0-0.0","0","0","34344","","null","","","null","6","","","","","","","","","","","","","","","",""
"","time_out","","html-keyboard-response","49","166542","0.0-1.0-62.0-0.0","0","0","34344","","null","","","null","6","","","","","","","","","","","","","","","",""
"","ITI","","html-keyboard-response","50","167545","0.0-1.0-63.0","0","0","34344","","null","","","null","6","","","","","","","","","","","","","","","NaN",""
"","S1","","html-keyboard-response","51","167797","0.0-1.0-65.0","0","0","34344","","null","","","null","7","","","","","","","","","","","","","","","",""
"","ISI","","html-keyboard-response","52","169800","0.0-1.0-66.0","0","0","34344","","null","","","null","7","NaN","","","","","","","","","","","","","","",""
"","S2","","html-keyboard-response","53","170052","0.0-1.0-67.0","0","0","34344","","null","","","null","7","","NaN","","","","","","","","","","","","","",""
"","response","","html-keyboard-response","54","170830","0.0-1.0-68.0-0.0","0","0","34344","","775","","","68","7","","","1","7","training","adjacent","FG","6","7","R.jpg","P.jpg","1","1","1","",""
"","feedback","","html-keyboard-response","55","171832","0.0-1.0-69.0-0.0","0","0","34344","","null","","","null","7","","","","","","","","","","","","","","","",""
"","ITI","","html-keyboard-response","56","172833","0.0-1.0-72.0","0","0","34344","","null","","","null","7","","","","","","","","","","","","","","","NaN",""
"","S1","","html-keyboard-response","57","173086","0.0-1.0-74.0","0","0","34344","","null","","","null","8","","","","","","","","","","","","","","","",""
"","ISI","","html-keyboard-response","58","175089","0.0-1.0-75.0","0","0","34344","","null","","","null","8","NaN","","","","","","","","","","","","","","",""
"","S2","","html-keyboard-response","59","175342","0.0-1.0-76.0","0","0","34344","","null","","","null","8","","NaN","","","","","","","","","","","","","",""
"","response","","html-keyboard-response","60","176561","0.0-1.0-77.0-0.0","0","0","34344","","1218","","","75","8","","","1","8","training","adjacent","BA","2","1","N.jpg","Q.jpg","0","0","1","",""
"","feedback","","html-keyboard-response","61","177563","0.0-1.0-78.0-0.0","0","0","34344","","null","","","null","8","","","","","","","","","","","","","","","",""
"","ITI","","html-keyboard-response","62","178566","0.0-1.0-81.0","0","0","34344","","null","","","null","8","","","","","","","","","","","","","","","NaN",""
"","S1","","html-keyboard-response","63","178819","0.0-1.0-83.0","0","0","34344","","null","","","null","9","","","","","","","","","","","","","","","",""
"","ISI","","html-keyboard-response","64","180821","0.0-1.0-84.0","0","0","34344","","null","","","null","9","NaN","","","","","","","","","","","","","","",""
"","S2","","html-keyboard-response","65","181073","0.0-1.0-85.0","0","0","34344","","null","","","null","9","","NaN","","","","","","","","","","","","","",""
"","response","","html-keyboard-response","66","181809","0.0-1.0-86.0-0.0","0","0","34344","","734","","","68","9","","","1","9","training","adjacent","ED","5","4","M.jpg","O.jpg","1","0","0","",""
"","feedback","","html-keyboard-response","67","182812","0.0-1.0-87.0-0.0","0","0","34344","","null","","","null","9","","","","","","","","","","","","","","","",""
"","time_out","","html-keyboard-response","68","184814","0.0-1.0-89.0-0.0","0","0","34344","","null","","","null","9","","","","","","","","","","","","","","","",""
"","ITI","","html-keyboard-response","69","185816","0.0-1.0-90.0","0","0","34344","","null","","","null","9","","","","","","","","","","","","","","","NaN",""
"","S1","","html-keyboard-response","70","186068","0.0-1.0-92.0","0","0","34344","","null","","","null","10","","","","","","","","","","","","","","","",""
"","ISI","","html-keyboard-response","71","188071","0.0-1.0-93.0","0","0","34344","","null","","","null","10","NaN","","","","","","","","","","","","","","",""
"","S2","","html-keyboard-response","72","188323","0.0-1.0-94.0","0","0","34344","","null","","","null","10","","NaN","","","","","","","","","","","","","",""
"","response","","html-keyboard-response","73","188879","0.0-1.0-95.0-0.0","0","0","34344","","554","","","75","10","","","1","10","training","adjacent","DE","4","5","O.jpg","M.jpg","0","1","0","",""
"","feedback","","html-keyboard-response","74","189882","0.0-1.0-96.0-0.0","0","0","34344","","null","","","null","10","","","","","","","","","","","","","","","",""
"","time_out","","html-keyboard-response","75","191884","0.0-1.0-98.0-0.0","0","0","34344","","null","","","null","10","","","","","","","","","","","","","","","",""
"","ITI","","html-keyboard-response","76","192887","0.0-1.0-99.0","0","0","34344","","null","","","null","10","","","","","","","","","","","","","","","NaN",""
"","S1","","html-keyboard-response","77","193140","0.0-1.0-101.0","0","0","34344","","null","","","null","11","","","","","","","","","","","","","","","",""
"","ISI","","html-keyboard-response","78","195142","0.0-1.0-102.0","0","0","34344","","null","","","null","11","NaN","","","","","","","","","","","","","","",""
"","S2","","html-keyboard-response","79","195394","0.0-1.0-103.0","0","0","34344","","null","","","null","11","","NaN","","","","","","","","","","","","","",""
"","response","","html-keyboard-response","80","196088","0.0-1.0-104.0-0.0","0","0","34344","","693","","","75","11","","","1","11","training","adjacent","FG","6","7","R.jpg","P.jpg","0","1","0","",""
"","feedback","","html-keyboard-response","81","197091","0.0-1.0-105.0-0.0","0","0","34344","","null","","","null","11","","","","","","","","","","","","","","","",""
"","time_out","","html-keyboard-response","82","199093","0.0-1.0-107.0-0.0","0","0","34344","","null","","","null","11","","","","","","","","","","","","","","","",""
"","ITI","","html-keyboard-response","83","200095","0.0-1.0-108.0","0","0","34344","","null","","","null","11","","","","","","","","","","","","","","","NaN",""
"","S1","","html-keyboard-response","84","200348","0.0-1.0-110.0","0","0","34344","","null","","","null","12","","","","","","","","","","","","","","","",""
"","ISI","","html-keyboard-response","85","202351","0.0-1.0-111.0","0","0","34344","","null","","","null","12","NaN","","","","","","","","","","","","","","",""
"","S2","","html-keyboard-response","86","202603","0.0-1.0-112.0","0","0","34344","","null","","","null","12","","NaN","","","","","","","","","","","","","",""
"","response","","html-keyboard-response","87","203447","0.0-1.0-113.0-0.0","0","0","34344","","841","","","75","12","","","1","12","training","adjacent","ED","5","4","M.jpg","O.jpg","0","0","1","",""
"","feedback","","html-keyboard-response","88","204450","0.0-1.0-114.0-0.0","0","0","34344","","null","","","null","12","","","","","","","","","","","","","","","",""
"","ITI","","html-keyboard-response","89","205452","0.0-1.0-117.0","0","0","34344","","null","","","null","12","","","","","","","","","","","","","","","NaN",""
"","S1","","html-keyboard-response","90","205704","0.0-1.0-119.0","0","0","34344","","null","","","null","13","","","","","","","","","","","","","","","",""
"","ISI","","html-keyboard-response","91","207707","0.0-1.0-120.0","0","0","34344","","null","","","null","13","NaN","","","","","","","","","","","","","","",""
"","S2","","html-keyboard-response","92","207960","0.0-1.0-121.0","0","0","34344","","null","","","null","13","","NaN","","","","","","","","","","","","","",""
"","response","","html-keyboard-response","93","208354","0.0-1.0-122.0-0.0","0","0","34344","","393","","","68","13","","","1","13","training","adjacent","DE","4","5","O.jpg","M.jpg","1","1","1","",""
"","feedback","","html-keyboard-response","94","209357","0.0-1.0-123.0-0.0","0","0","34344","","null","","","null","13","","","","","","","","","","","","","","","",""
"","ITI","","html-keyboard-response","95","210360","0.0-1.0-126.0","0","0","34344","","null","","","null","13","","","","","","","","","","","","","","","NaN",""
"","S1","","html-keyboard-response","96","210612","0.0-1.0-128.0","0","0","34344","","null","","","null","14","","","","","","","","","","","","","","","",""
"","ISI","","html-keyboard-response","97","212615","0.0-1.0-129.0","0","0","34344","","null","","","null","14","NaN","","","","","","","","","","","","","","",""
"","S2","","html-keyboard-response","98","212867","0.0-1.0-130.0","0","0","34344","","null","","","null","14","","NaN","","","","","","","","","","","","","",""
"","response","","html-keyboard-response","99","213612","0.0-1.0-131.0-0.0","0","0","34344","","742","","","75","14","","","1","14","training","adjacent","FG","6","7","R.jpg","P.jpg","0","1","0","",""
"","feedback","","html-keyboard-response","100","214615","0.0-1.0-132.0-0.0","0","0","34344","","null","","","null","14","","","","","","","","","","","","","","","",""
"","time_out","","html-keyboard-response","101","216617","0.0-1.0-134.0-0.0","0","0","34344","","null","","","null","14","","","","","","","","","","","","","","","",""
"","ITI","","html-keyboard-response","102","217619","0.0-1.0-135.0","0","0","34344","","null","","","null","14","","","","","","","","","","","","","","","NaN",""
"","S1","","html-keyboard-response","103","217872","0.0-1.0-137.0","0","0","34344","","null","","","null","15","","","","","","","","","","","","","","","",""
"","ISI","","html-keyboard-response","104","219874","0.0-1.0-138.0","0","0","34344","","null","","","null","15","NaN","","","","","","","","","","","","","","",""
"","S2","","html-keyboard-response","105","220127","0.0-1.0-139.0","0","0","34344","","null","","","null","15","","NaN","","","","","","","","","","","","","",""
"","response","","html-keyboard-response","106","220770","0.0-1.0-140.0-0.0","0","0","34344","","642","","","75","15","","","1","15","training","adjacent","FE","6","5","R.jpg","M.jpg","0","0","1","",""
"","feedback","","html-keyboard-response","107","221773","0.0-1.0-141.0-0.0","0","0","34344","","null","","","null","15","","","","","","","","","","","","","","","",""
"","ITI","","html-keyboard-response","108","222775","0.0-1.0-144.0","0","0","34344","","null","","","null","15","","","","","","","","","","","","","","","NaN",""
"","S1","","html-keyboard-response","109","223028","0.0-1.0-146.0","0","0","34344","","null","","","null","16","","","","","","","","","","","","","","","",""
"","ISI","","html-keyboard-response","110","225031","0.0-1.0-147.0","0","0","34344","","null","","","null","16","NaN","","","","","","","","","","","","","","",""
"","S2","","html-keyboard-response","111","225283","0.0-1.0-148.0","0","0","34344","","null","","","null","16","","NaN","","","","","","","","","","","","","",""
"","response","","html-keyboard-response","112","225960","0.0-1.0-149.0-0.0","0","0","34344","","676","","","75","16","","","1","16","training","adjacent","BC","2","3","N.jpg","L.jpg","0","1","0","",""
"","feedback","","html-keyboard-response","113","226963","0.0-1.0-150.0-0.0","0","0","34344","","null","","","null","16","","","","","","","","","","","","","","","",""
"","time_out","","html-keyboard-response","114","228965","0.0-1.0-152.0-0.0","0","0","34344","","null","","","null","16","","","","","","","","","","","","","","","",""
"","ITI","","html-keyboard-response","115","229968","0.0-1.0-153.0","0","0","34344","","null","","","null","16","","","","","","","","","","","","","","","NaN",""
"","S1","","html-keyboard-response","116","230220","0.0-1.0-155.0","0","0","34344","","null","","","null","17","","","","","","","","","","","","","","","",""
"","ISI","","html-keyboard-response","117","232222","0.0-1.0-156.0","0","0","34344","","null","","","null","17","NaN","","","","","","","","","","","","","","",""
"","S2","","html-keyboard-response","118","232474","0.0-1.0-157.0","0","0","34344","","null","","","null","17","","NaN","","","","","","","","","","","","","",""
"","response","","html-keyboard-response","119","232939","0.0-1.0-158.0-0.0","0","0","34344","","464","","","75","17","","","1","17","training","adjacent","BA","2","1","N.jpg","Q.jpg","0","0","1","",""
"","feedback","","html-keyboard-response","120","233942","0.0-1.0-159.0-0.0","0","0","34344","","null","","","null","17","","","","","","","","","","","","","","","",""
"","ITI","","html-keyboard-response","121","234944","0.0-1.0-162.0","0","0","34344","","null","","","null","17","","","","","","","","","","","","","","","NaN",""
"","S1","","html-keyboard-response","122","235197","0.0-1.0-164.0","0","0","34344","","null","","","null","18","","","","","","","","","","","","","","","",""
"","ISI","","html-keyboard-response","123","237200","0.0-1.0-165.0","0","0","34344","","null","","","null","18","NaN","","","","","","","","","","","","","","",""
"","S2","","html-keyboard-response","124","237452","0.0-1.0-166.0","0","0","34344","","null","","","null","18","","NaN","","","","","","","","","","","","","",""
"","response","","html-keyboard-response","125","237976","0.0-1.0-167.0-0.0","0","0","34344","","522","","","68","18","","","1","18","training","adjacent","CB","3","2","L.jpg","N.jpg","1","0","0","",""
"","feedback","","html-keyboard-response","126","238979","0.0-1.0-168.0-0.0","0","0","34344","","null","","","null","18","","","","","","","","","","","","","","","",""
"","time_out","","html-keyboard-response","127","240981","0.0-1.0-170.0-0.0","0","0","34344","","null","","","null","18","","","","","","","","","","","","","","","",""
"","ITI","","html-keyboard-response","128","241983","0.0-1.0-171.0","0","0","34344","","null","","","null","18","","","","","","","","","","","","","","","NaN",""
"","S1","","html-keyboard-response","129","242234","0.0-1.0-173.0","0","0","34344","","null","","","null","19","","","","","","","","","","","","","","","",""
"","ISI","","html-keyboard-response","130","244237","0.0-1.0-174.0","0","0","34344","","null","","","null","19","NaN","","","","","","","","","","","","","","",""
"","S2","","html-keyboard-response","131","244489","0.0-1.0-175.0","0","0","34344","","null","","","null","19","","NaN","","","","","","","","","","","","","",""
"","response","","html-keyboard-response","132","244829","0.0-1.0-176.0-0.0","0","0","34344","","339","","","75","19","","","1","19","training","adjacent","CB","3","2","L.jpg","N.jpg","0","0","1","",""
"","feedback","","html-keyboard-response","133","245831","0.0-1.0-177.0-0.0","0","0","34344","","null","","","null","19","","","","","","","","","","","","","","","",""
"","ITI","","html-keyboard-response","134","246834","0.0-1.0-180.0","0","0","34344","","null","","","null","19","","","","","","","","","","","","","","","NaN",""
"","S1","","html-keyboard-response","135","247086","0.0-1.0-182.0","0","0","34344","","null","","","null","20","","","","","","","","","","","","","","","",""
"","ISI","","html-keyboard-response","136","249089","0.0-1.0-183.0","0","0","34344","","null","","","null","20","NaN","","","","","","","","","","","","","","",""
"","S2","","html-keyboard-response","137","249342","0.0-1.0-184.0","0","0","34344","","null","","","null","20","","NaN","","","","","","","","","","","","","",""
"","response","","html-keyboard-response","138","249770","0.0-1.0-185.0-0.0","0","0","34344","","427","","","75","20","","","1","20","training","adjacent","CD","3","4","L.jpg","O.jpg","0","1","0","",""
"","feedback","","html-keyboard-response","139","250773","0.0-1.0-186.0-0.0","0","0","34344","","null","","","null","20","","","","","","","","","","","","","","","",""
"","time_out","","html-keyboard-response","140","252775","0.0-1.0-188.0-0.0","0","0","34344","","null","","","null","20","","","","","","","","","","","","","","","",""
"","ITI","","html-keyboard-response","141","253778","0.0-1.0-189.0","0","0","34344","","null","","","null","20","","","","","","","","","","","","","","","NaN",""
"","S1","","html-keyboard-response","142","254030","0.0-1.0-191.0","0","0","34344","","null","","","null","21","","","","","","","","","","","","","","","",""
"","ISI","","html-keyboard-response","143","256033","0.0-1.0-192.0","0","0","34344","","null","","","null","21","NaN","","","","","","","","","","","","","","",""
"","S2","","html-keyboard-response","144","256285","0.0-1.0-193.0","0","0","34344","","null","","","null","21","","NaN","","","","","","","","","","","","","",""
"","response","","html-keyboard-response","145","256985","0.0-1.0-194.0-0.0","0","0","34344","","698","","","75","21","","","1","21","training","adjacent","DC","4","3","O.jpg","L.jpg","0","0","1","",""
"","feedback","","html-keyboard-response","146","257988","0.0-1.0-195.0-0.0","0","0","34344","","null","","","null","21","","","","","","","","","","","","","","","",""
"","ITI","","html-keyboard-response","147","258990","0.0-1.0-198.0","0","0","34344","","null","","","null","21","","","","","","","","","","","","","","","NaN",""
"","S1","","html-keyboard-response","148","259243","0.0-1.0-200.0","0","0","34344","","null","","","null","22","","","","","","","","","","","","","","","",""
"","ISI","","html-keyboard-response","149","261245","0.0-1.0-201.0","0","0","34344","","null","","","null","22","NaN","","","","","","","","","","","","","","",""
"","S2","","html-keyboard-response","150","261498","0.0-1.0-202.0","0","0","34344","","null","","","null","22","","NaN","","","","","","","","","","","","","",""
"","response","","html-keyboard-response","151","262040","0.0-1.0-203.0-0.0","0","0","34344","","540","","","75","22","","","1","22","training","adjacent","BC","2","3","N.jpg","L.jpg","0","1","0","",""
"","feedback","","html-keyboard-response","152","263042","0.0-1.0-204.0-0.0","0","0","34344","","null","","","null","22","","","","","","","","","","","","","","","",""
"","time_out","","html-keyboard-response","153","265044","0.0-1.0-206.0-0.0","0","0","34344","","null","","","null","22","","","","","","","","","","","","","","","",""
"","ITI","","html-keyboard-response","154","266047","0.0-1.0-207.0","0","0","34344","","null","","","null","22","","","","","","","","","","","","","","","NaN",""
"","S1","","html-keyboard-response","155","266300","0.0-1.0-209.0","0","0","34344","","null","","","null","23","","","","","","","","","","","","","","","",""
"","ISI","","html-keyboard-response","156","268302","0.0-1.0-210.0","0","0","34344","","null","","","null","23","NaN","","","","","","","","","","","","","","",""
"","S2","","html-keyboard-response","157","268555","0.0-1.0-211.0","0","0","34344","","null","","","null","23","","NaN","","","","","","","","","","","","","",""
"","response","","html-keyboard-response","158","269090","0.0-1.0-212.0-0.0","0","0","34344","","533","","","68","23","","","1","23","training","adjacent","DE","4","5","O.jpg","M.jpg","1","1","1","",""
"","feedback","","html-keyboard-response","159","270092","0.0-1.0-213.0-0.0","0","0","34344","","null","","","null","23","","","","","","","","","","","","","","","",""
"","ITI","","html-keyboard-response","160","271094","0.0-1.0-216.0","0","0","34344","","null","","","null","23","","","","","","","","","","","","","","","NaN",""
"","S1","","html-keyboard-response","161","271347","0.0-1.0-218.0","0","0","34344","","null","","","null","24","","","","","","","","","","","","","","","",""
"","ISI","","html-keyboard-response","162","273349","0.0-1.0-219.0","0","0","34344","","null","","","null","24","NaN","","","","","","","","","","","","","","",""
"","S2","","html-keyboard-response","163","273603","0.0-1.0-220.0","0","0","34344","","null","","","null","24","","NaN","","","","","","","","","","","","","",""
"","response","","html-keyboard-response","164","274655","0.0-1.0-221.0-0.0","0","0","34344","","1051","","","75","24","","","1","24","training","adjacent","FG","6","7","R.jpg","P.jpg","0","1","0","",""
"","feedback","","html-keyboard-response","165","275657","0.0-1.0-222.0-0.0","0","0","34344","","null","","","null","24","","","","","","","","","","","","","","","",""
"","time_out","","html-keyboard-response","166","277660","0.0-1.0-224.0-0.0","0","0","34344","","null","","","null","24","","","","","","","","","","","","","","","",""
"","ITI","","html-keyboard-response","167","278663","0.0-1.0-225.0","0","0","34344","","null","","","null","24","","","","","","","","","","","","","","","NaN",""
"","S1","","html-keyboard-response","168","278915","0.0-1.0-227.0","0","0","34344","","null","","","null","25","","","","","","","","","","","","","","","",""
"","ISI","","html-keyboard-response","169","280917","0.0-1.0-228.0","0","0","34344","","null","","","null","25","NaN","","","","","","","","","","","","","","",""
"","S2","","html-keyboard-response","170","281170","0.0-1.0-229.0","0","0","34344","","null","","","null","25","","NaN","","","","","","","","","","","","","",""
"","response","","html-keyboard-response","171","281611","0.0-1.0-230.0-0.0","0","0","34344","","440","","","75","25","","","1","25","training","adjacent","BA","2","1","N.jpg","Q.jpg","0","0","1","",""
"","feedback","","html-keyboard-response","172","282614","0.0-1.0-231.0-0.0","0","0","34344","","null","","","null","25","","","","","","","","","","","","","","","",""
"","ITI","","html-keyboard-response","173","283616","0.0-1.0-234.0","0","0","34344","","null","","","null","25","","","","","","","","","","","","","","","NaN",""
"","S1","","html-keyboard-response","174","283869","0.0-1.0-236.0","0","0","34344","","null","","","null","26","","","","","","","","","","","","","","","",""
"","ISI","","html-keyboard-response","175","285871","0.0-1.0-237.0","0","0","34344","","null","","","null","26","NaN","","","","","","","","","","","","","","",""
"","S2","","html-keyboard-response","176","286124","0.0-1.0-238.0","0","0","34344","","null","","","null","26","","NaN","","","","","","","","","","","","","",""
"","response","","html-keyboard-response","177","286904","0.0-1.0-239.0-0.0","0","0","34344","","779","","","75","26","","","1","26","training","adjacent","FE","6","5","R.jpg","M.jpg","0","0","1","",""
"","feedback","","html-keyboard-response","178","287906","0.0-1.0-240.0-0.0","0","0","34344","","null","","","null","26","","","","","","","","","","","","","","","",""
"","ITI","","html-keyboard-response","179","288909","0.0-1.0-243.0","0","0","34344","","null","","","null","26","","","","","","","","","","","","","","","NaN",""
"","S1","","html-keyboard-response","180","289162","0.0-1.0-245.0","0","0","34344","","null","","","null","27","","","","","","","","","","","","","","","",""
"","ISI","","html-keyboard-response","181","291164","0.0-1.0-246.0","0","0","34344","","null","","","null","27","NaN","","","","","","","","","","","","","","",""
"","S2","","html-keyboard-response","182","291416","0.0-1.0-247.0","0","0","34344","","null","","","null","27","","NaN","","","","","","","","","","","","","",""
"","response","","html-keyboard-response","183","291876","0.0-1.0-248.0-0.0","0","0","34344","","459","","","75","27","","","1","27","training","adjacent","CB","3","2","L.jpg","N.jpg","0","0","1","",""
"","feedback","","html-keyboard-response","184","292879","0.0-1.0-249.0-0.0","0","0","34344","","null","","","null","27","","","","","","","","","","","","","","","",""
"","ITI","","html-keyboard-response","185","293881","0.0-1.0-252.0","0","0","34344","","null","","","null","27","","","","","","","","","","","","","","","NaN",""
"","S1","","html-keyboard-response","186","294133","0.0-1.0-254.0","0","0","34344","","null","","","null","28","","","","","","","","","","","","","","","",""
"","ISI","","html-keyboard-response","187","296136","0.0-1.0-255.0","0","0","34344","","null","","","null","28","NaN","","","","","","","","","","","","","","",""
"","S2","","html-keyboard-response","188","296388","0.0-1.0-256.0","0","0","34344","","null","","","null","28","","NaN","","","","","","","","","","","","","",""
"","response","","html-keyboard-response","189","296870","0.0-1.0-257.0-0.0","0","0","34344","","480","","","75","28","","","1","28","training","adjacent","BA","2","1","N.jpg","Q.jpg","0","0","1","",""
"","feedback","","html-keyboard-response","190","297872","0.0-1.0-258.0-0.0","0","0","34344","","null","","","null","28","","","","","","","","","","","","","","","",""
"","ITI","","html-keyboard-response","191","298875","0.0-1.0-261.0","0","0","34344","","null","","","null","28","","","","","","","","","","","","","","","NaN",""
"","S1","","html-keyboard-response","192","299127","0.0-1.0-263.0","0","0","34344","","null","","","null","29","","","","","","","","","","","","","","","",""
"","ISI","","html-keyboard-response","193","301130","0.0-1.0-264.0","0","0","34344","","null","","","null","29","NaN","","","","","","","","","","","","","","",""
"","S2","","html-keyboard-response","194","301384","0.0-1.0-265.0","0","0","34344","","null","","","null","29","","NaN","","","","","","","","","","","","","",""
"","response","","html-keyboard-response","195","302149","0.0-1.0-266.0-0.0","0","0","34344","","764","","","75","29","","","1","29","training","adjacent","EF","5","6","M.jpg","R.jpg","0","1","0","",""
"","feedback","","html-keyboard-response","196","303152","0.0-1.0-267.0-0.0","0","0","34344","","null","","","null","29","","","","","","","","","","","","","","","",""
"","time_out","","html-keyboard-response","197","305155","0.0-1.0-269.0-0.0","0","0","34344","","null","","","null","29","","","","","","","","","","","","","","","",""
"","ITI","","html-keyboard-response","198","306158","0.0-1.0-270.0","0","0","34344","","null","","","null","29","","","","","","","","","","","","","","","NaN",""
"","S1","","html-keyboard-response","199","306410","0.0-1.0-272.0","0","0","34344","","null","","","null","30","","","","","","","","","","","","","","","",""
"","ISI","","html-keyboard-response","200","308412","0.0-1.0-273.0","0","0","34344","","null","","","null","30","NaN","","","","","","","","","","","","","","",""
"","S2","","html-keyboard-response","201","308666","0.0-1.0-274.0","0","0","34344","","null","","","null","30","","NaN","","","","","","","","","","","","","",""
"","response","","html-keyboard-response","202","309434","0.0-1.0-275.0-0.0","0","0","34344","","767","","","75","30","","","1","30","training","adjacent","ED","5","4","M.jpg","O.jpg","0","0","1","",""
"","feedback","","html-keyboard-response","203","310438","0.0-1.0-276.0-0.0","0","0","34344","","null","","","null","30","","","","","","","","","","","","","","","",""
"","ITI","","html-keyboard-response","204","311440","0.0-1.0-279.0","0","0","34344","","null","","","null","30","","","","","","","","","","","","","","","NaN",""
"","S1","","html-keyboard-response","205","311693","0.0-1.0-281.0","0","0","34344","","null","","","null","31","","","","","","","","","","","","","","","",""
"","ISI","","html-keyboard-response","206","313695","0.0-1.0-282.0","0","0","34344","","null","","","null","31","NaN","","","","","","","","","","","","","","",""
"","S2","","html-keyboard-response","207","313947","0.0-1.0-283.0","0","0","34344","","null","","","null","31","","NaN","","","","","","","","","","","","","",""
"","response","","html-keyboard-response","208","315004","0.0-1.0-284.0-0.0","0","0","34344","","1055","","","75","31","","","1","31","training","adjacent","DE","4","5","O.jpg","M.jpg","0","1","0","",""
"","feedback","","html-keyboard-response","209","316007","0.0-1.0-285.0-0.0","0","0","34344","","null","","","null","31","","","","","","","","","","","","","","","",""
"","time_out","","html-keyboard-response","210","318008","0.0-1.0-287.0-0.0","0","0","34344","","null","","","null","31","","","","","","","","","","","","","","","",""
"","ITI","","html-keyboard-response","211","319011","0.0-1.0-288.0","0","0","34344","","null","","","null","31","","","","","","","","","","","","","","","NaN",""
"","S1","","html-keyboard-response","212","319263","0.0-1.0-290.0","0","0","34344","","null","","","null","32","","","","","","","","","","","","","","","",""
"","ISI","","html-keyboard-response","213","321266","0.0-1.0-291.0","0","0","34344","","null","","","null","32","NaN","","","","","","","","","","","","","","",""
"","S2","","html-keyboard-response","214","321517","0.0-1.0-292.0","0","0","34344","","null","","","null","32","","NaN","","","","","","","","","","","","","",""
"","response","","html-keyboard-response","215","322416","0.0-1.0-293.0-0.0","0","0","34344","","897","","","68","32","","","1","32","training","adjacent","BC","2","3","N.jpg","L.jpg","1","1","1","",""
"","feedback","","html-keyboard-response","216","323419","0.0-1.0-294.0-0.0","0","0","34344","","null","","","null","32","","","","","","","","","","","","","","","",""
"","ITI","","html-keyboard-response","217","324421","0.0-1.0-297.0","0","0","34344","","null","","","null","32","","","","","","","","","","","","","","","NaN",""
"","S1","","html-keyboard-response","218","324674","0.0-1.0-299.0","0","0","34344","","null","","","null","33","","","","","","","","","","","","","","","",""
"","ISI","","html-keyboard-response","219","326677","0.0-1.0-300.0","0","0","34344","","null","","","null","33","NaN","","","","","","","","","","","","","","",""
"","S2","","html-keyboard-response","220","326929","0.0-1.0-301.0","0","0","34344","","null","","","null","33","","NaN","","","","","","","","","","","","","",""
"","response","","html-keyboard-response","221","327336","0.0-1.0-302.0-0.0","0","0","34344","","405","","","75","33","","","1","33","training","adjacent","GF","7","6","P.jpg","R.jpg","0","0","1","",""
"","feedback","","html-keyboard-response","222","328338","0.0-1.0-303.0-0.0","0","0","34344","","null","","","null","33","","","","","","","","","","","","","","","",""
"","ITI","","html-keyboard-response","223","329341","0.0-1.0-306.0","0","0","34344","","null","","","null","33","","","","","","","","","","","","","","","NaN",""
"","S1","","html-keyboard-response","224","329594","0.0-1.0-308.0","0","0","34344","","null","","","null","34","","","","","","","","","","","","","","","",""
"","ISI","","html-keyboard-response","225","331596","0.0-1.0-309.0","0","0","34344","","null","","","null","34","NaN","","","","","","","","","","","","","","",""
"","S2","","html-keyboard-response","226","331849","0.0-1.0-310.0","0","0","34344","","null","","","null","34","","NaN","","","","","","","","","","","","","",""
"","response","","html-keyboard-response","227","332613","0.0-1.0-311.0-0.0","0","0","34344","","762","","","68","34","","","1","34","training","adjacent","FE","6","5","R.jpg","M.jpg","1","0","0","",""
"","feedback","","html-keyboard-response","228","333615","0.0-1.0-312.0-0.0","0","0","34344","","null","","","null","34","","","","","","","","","","","","","","","",""
"","time_out","","html-keyboard-response","229","335619","0.0-1.0-314.0-0.0","0","0","34344","","null","","","null","34","","","","","","","","","","","","","","","",""
"","ITI","","html-keyboard-response","230","336622","0.0-1.0-315.0","0","0","34344","","null","","","null","34","","","","","","","","","","","","","","","NaN",""
"","S1","","html-keyboard-response","231","336875","0.0-1.0-317.0","0","0","34344","","null","","","null","35","","","","","","","","","","","","","","","",""
"","ISI","","html-keyboard-response","232","338877","0.0-1.0-318.0","0","0","34344","","null","","","null","35","NaN","","","","","","","","","","","","","","",""
"","S2","","html-keyboard-response","233","339130","0.0-1.0-319.0","0","0","34344","","null","","","null","35","","NaN","","","","","","","","","","","","","",""
"","response","","html-keyboard-response","234","339524","0.0-1.0-320.0-0.0","0","0","34344","","393","","","75","35","","","1","35","training","adjacent","GF","7","6","P.jpg","R.jpg","0","0","1","",""
"","feedback","","html-keyboard-response","235","340526","0.0-1.0-321.0-0.0","0","0","34344","","null","","","null","35","","","","","","","","","","","","","","","",""
"","ITI","","html-keyboard-response","236","341529","0.0-1.0-324.0","0","0","34344","","null","","","null","35","","","","","","","","","","","","","","","NaN",""
"","S1","","html-keyboard-response","237","341781","0.0-1.0-326.0","0","0","34344","","null","","","null","36","","","","","","","","","","","","","","","",""
"","ISI","","html-keyboard-response","238","343783","0.0-1.0-327.0","0","0","34344","","null","","","null","36","NaN","","","","","","","","","","","","","","",""
"","S2","","html-keyboard-response","239","344036","0.0-1.0-328.0","0","0","34344","","null","","","null","36","","NaN","","","","","","","","","","","","","",""
"","response","","html-keyboard-response","240","344717","0.0-1.0-329.0-0.0","0","0","34344","","679","","","68","36","","","1","36","training","adjacent","DC","4","3","O.jpg","L.jpg","1","0","0","",""
"","feedback","","html-keyboard-response","241","345719","0.0-1.0-330.0-0.0","0","0","34344","","null","","","null","36","","","","","","","","","","","","","","","",""
"","time_out","","html-keyboard-response","242","347721","0.0-1.0-332.0-0.0","0","0","34344","","null","","","null","36","","","","","","","","","","","","","","","",""
"","ITI","","html-keyboard-response","243","348724","0.0-1.0-333.0","0","0","34344","","null","","","null","36","","","","","","","","","","","","","","","NaN",""
"","S1","","html-keyboard-response","244","348977","0.0-1.0-335.0","0","0","34344","","null","","","null","37","","","","","","","","","","","","","","","",""
"","ISI","","html-keyboard-response","245","350979","0.0-1.0-336.0","0","0","34344","","null","","","null","37","NaN","","","","","","","","","","","","","","",""
"","S2","","html-keyboard-response","246","351231","0.0-1.0-337.0","0","0","34344","","null","","","null","37","","NaN","","","","","","","","","","","","","",""
"","response","","html-keyboard-response","247","351772","0.0-1.0-338.0-0.0","0","0","34344","","540","","","75","37","","","1","37","training","adjacent","ED","5","4","M.jpg","O.jpg","0","0","1","",""
"","feedback","","html-keyboard-response","248","352774","0.0-1.0-339.0-0.0","0","0","34344","","null","","","null","37","","","","","","","","","","","","","","","",""
"","ITI","","html-keyboard-response","249","353777","0.0-1.0-342.0","0","0","34344","","null","","","null","37","","","","","","","","","","","","","","","NaN",""
"","S1","","html-keyboard-response","250","354030","0.0-1.0-344.0","0","0","34344","","null","","","null","38","","","","","","","","","","","","","","","",""
"","ISI","","html-keyboard-response","251","356032","0.0-1.0-345.0","0","0","34344","","null","","","null","38","NaN","","","","","","","","","","","","","","",""
"","S2","","html-keyboard-response","252","356285","0.0-1.0-346.0","0","0","34344","","null","","","null","38","","NaN","","","","","","","","","","","","","",""
"","response","","html-keyboard-response","253","356770","0.0-1.0-347.0-0.0","0","0","34344","","483","","","75","38","","","1","38","training","adjacent","GF","7","6","P.jpg","R.jpg","0","0","1","",""
"","feedback","","html-keyboard-response","254","357773","0.0-1.0-348.0-0.0","0","0","34344","","null","","","null","38","","","","","","","","","","","","","","","",""
"","ITI","","html-keyboard-response","255","358775","0.0-1.0-351.0","0","0","34344","","null","","","null","38","","","","","","","","","","","","","","","NaN",""
"","S1","","html-keyboard-response","256","359028","0.0-1.0-353.0","0","0","34344","","null","","","null","39","","","","","","","","","","","","","","","",""
"","ISI","","html-keyboard-response","257","361030","0.0-1.0-354.0","0","0","34344","","null","","","null","39","NaN","","","","","","","","","","","","","","",""
"","S2","","html-keyboard-response","258","361283","0.0-1.0-355.0","0","0","34344","","null","","","null","39","","NaN","","","","","","","","","","","","","",""
"","response","","html-keyboard-response","259","361866","0.0-1.0-356.0-0.0","0","0","34344","","582","","","75","39","","","1","39","training","adjacent","GF","7","6","P.jpg","R.jpg","0","0","1","",""
"","feedback","","html-keyboard-response","260","362869","0.0-1.0-357.0-0.0","0","0","34344","","null","","","null","39","","","","","","","","","","","","","","","",""
"","ITI","","html-keyboard-response","261","363871","0.0-1.0-360.0","0","0","34344","","null","","","null","39","","","","","","","","","","","","","","","NaN",""
"","S1","","html-keyboard-response","262","364124","0.0-1.0-362.0","0","0","34344","","null","","","null","40","","","","","","","","","","","","","","","",""
"","ISI","","html-keyboard-response","263","366126","0.0-1.0-363.0","0","0","34344","","null","","","null","40","NaN","","","","","","","","","","","","","","",""
"","S2","","html-keyboard-response","264","366379","0.0-1.0-364.0","0","0","34344","","null","","","null","40","","NaN","","","","","","","","","","","","","",""
"","response","","html-keyboard-response","265","367038","0.0-1.0-365.0-0.0","0","0","34344","","658","","","75","40","","","1","40","training","adjacent","EF","5","6","M.jpg","R.jpg","0","1","0","",""
"","feedback","","html-keyboard-response","266","368041","0.0-1.0-366.0-0.0","0","0","34344","","null","","","null","40","","","","","","","","","","","","","","","",""
"","time_out","","html-keyboard-response","267","370043","0.0-1.0-368.0-0.0","0","0","34344","","null","","","null","40","","","","","","","","","","","","","","","",""
"","ITI","","html-keyboard-response","268","371045","0.0-1.0-369.0","0","0","34344","","null","","","null","40","","","","","","","","","","","","","","","NaN",""
"","S1","","html-keyboard-response","269","371298","0.0-1.0-371.0","0","0","34344","","null","","","null","41","","","","","","","","","","","","","","","",""
"","ISI","","html-keyboard-response","270","373300","0.0-1.0-372.0","0","0","34344","","null","","","null","41","NaN","","","","","","","","","","","","","","",""
"","S2","","html-keyboard-response","271","373553","0.0-1.0-373.0","0","0","34344","","null","","","null","41","","NaN","","","","","","","","","","","","","",""
"","response","","html-keyboard-response","272","373967","0.0-1.0-374.0-0.0","0","0","34344","","413","","","75","41","","","1","41","training","adjacent","CD","3","4","L.jpg","O.jpg","0","1","0","",""
"","feedback","","html-keyboard-response","273","374969","0.0-1.0-375.0-0.0","0","0","34344","","null","","","null","41","","","","","","","","","","","","","","","",""
"","time_out","","html-keyboard-response","274","376972","0.0-1.0-377.0-0.0","0","0","34344","","null","","","null","41","","","","","","","","","","","","","","","",""
"","ITI","","html-keyboard-response","275","377974","0.0-1.0-378.0","0","0","34344","","null","","","null","41","","","","","","","","","","","","","","","NaN",""
"","S1","","html-keyboard-response","276","378228","0.0-1.0-380.0","0","0","34344","","null","","","null","42","","","","","","","","","","","","","","","",""
"","ISI","","html-keyboard-response","277","380230","0.0-1.0-381.0","0","0","34344","","null","","","null","42","NaN","","","","","","","","","","","","","","",""
"","S2","","html-keyboard-response","278","380483","0.0-1.0-382.0","0","0","34344","","null","","","null","42","","NaN","","","","","","","","","","","","","",""
"","response","","html-keyboard-response","279","380940","0.0-1.0-383.0-0.0","0","0","34344","","456","","","75","42","","","1","42","training","adjacent","FE","6","5","R.jpg","M.jpg","0","0","1","",""
"","feedback","","html-keyboard-response","280","381943","0.0-1.0-384.0-0.0","0","0","34344","","null","","","null","42","","","","","","","","","","","","","","","",""
"","ITI","","html-keyboard-response","281","382945","0.0-1.0-387.0","0","0","34344","","null","","","null","42","","","","","","","","","","","","","","","NaN",""
"","S1","","html-keyboard-response","282","383198","0.0-1.0-389.0","0","0","34344","","null","","","null","43","","","","","","","","","","","","","","","",""
"","ISI","","html-keyboard-response","283","385201","0.0-1.0-390.0","0","0","34344","","null","","","null","43","NaN","","","","","","","","","","","","","","",""
"","S2","","html-keyboard-response","284","385454","0.0-1.0-391.0","0","0","34344","","null","","","null","43","","NaN","","","","","","","","","","","","","",""
"","response","","html-keyboard-response","285","385950","0.0-1.0-392.0-0.0","0","0","34344","","495","","","68","43","","","1","43","training","adjacent","DC","4","3","O.jpg","L.jpg","1","0","0","",""
"","feedback","","html-keyboard-response","286","386952","0.0-1.0-393.0-0.0","0","0","34344","","null","","","null","43","","","","","","","","","","","","","","","",""
"","time_out","","html-keyboard-response","287","388955","0.0-1.0-395.0-0.0","0","0","34344","","null","","","null","43","","","","","","","","","","","","","","","",""
"","ITI","","html-keyboard-response","288","389957","0.0-1.0-396.0","0","0","34344","","null","","","null","43","","","","","","","","","","","","","","","NaN",""
"","S1","","html-keyboard-response","289","390210","0.0-1.0-398.0","0","0","34344","","null","","","null","44","","","","","","","","","","","","","","","",""
"","ISI","","html-keyboard-response","290","392212","0.0-1.0-399.0","0","0","34344","","null","","","null","44","NaN","","","","","","","","","","","","","","",""
"","S2","","html-keyboard-response","291","392465","0.0-1.0-400.0","0","0","34344","","null","","","null","44","","NaN","","","","","","","","","","","","","",""
"","response","","html-keyboard-response","292","393126","0.0-1.0-401.0-0.0","0","0","34344","","660","","","68","44","","","1","44","training","adjacent","EF","5","6","M.jpg","R.jpg","1","1","1","",""
"","feedback","","html-keyboard-response","293","394128","0.0-1.0-402.0-0.0","0","0","34344","","null","","","null","44","","","","","","","","","","","","","","","",""
"","ITI","","html-keyboard-response","294","395130","0.0-1.0-405.0","0","0","34344","","null","","","null","44","","","","","","","","","","","","","","","NaN",""
"","S1","","html-keyboard-response","295","395382","0.0-1.0-407.0","0","0","34344","","null","","","null","45","","","","","","","","","","","","","","","",""
"","ISI","","html-keyboard-response","296","397384","0.0-1.0-408.0","0","0","34344","","null","","","null","45","NaN","","","","","","","","","","","","","","",""
"","S2","","html-keyboard-response","297","397636","0.0-1.0-409.0","0","0","34344","","null","","","null","45","","NaN","","","","","","","","","","","","","",""
"","response","","html-keyboard-response","298","398063","0.0-1.0-410.0-0.0","0","0","34344","","425","","","68","45","","","1","45","training","adjacent","AB","1","2","Q.jpg","N.jpg","1","1","1","",""
"","feedback","","html-keyboard-response","299","399066","0.0-1.0-411.0-0.0","0","0","34344","","null","","","null","45","","","","","","","","","","","","","","","",""
"","ITI","","html-keyboard-response","300","400067","0.0-1.0-414.0","0","0","34344","","null","","","null","45","","","","","","","","","","","","","","","NaN",""
"","S1","","html-keyboard-response","301","400320","0.0-1.0-416.0","0","0","34344","","null","","","null","46","","","","","","","","","","","","","","","",""
"","ISI","","html-keyboard-response","302","402321","0.0-1.0-417.0","0","0","34344","","null","","","null","46","NaN","","","","","","","","","","","","","","",""
"","S2","","html-keyboard-response","303","402574","0.0-1.0-418.0","0","0","34344","","null","","","null","46","","NaN","","","","","","","","","","","","","",""
"","response","","html-keyboard-response","304","403178","0.0-1.0-419.0-0.0","0","0","34344","","602","","","68","46","","","1","46","training","adjacent","EF","5","6","M.jpg","R.jpg","1","1","1","",""
"","feedback","","html-keyboard-response","305","404180","0.0-1.0-420.0-0.0","0","0","34344","","null","","","null","46","","","","","","","","","","","","","","","",""
"","ITI","","html-keyboard-response","306","405183","0.0-1.0-423.0","0","0","34344","","null","","","null","46","","","","","","","","","","","","","","","NaN",""
"","S1","","html-keyboard-response","307","405435","0.0-1.0-425.0","0","0","34344","","null","","","null","47","","","","","","","","","","","","","","","",""
"","ISI","","html-keyboard-response","308","407437","0.0-1.0-426.0","0","0","34344","","null","","","null","47","NaN","","","","","","","","","","","","","","",""
"","S2","","html-keyboard-response","309","407689","0.0-1.0-427.0","0","0","34344","","null","","","null","47","","NaN","","","","","","","","","","","","","",""
"","response","","html-keyboard-response","310","408548","0.0-1.0-428.0-0.0","0","0","34344","","857","","","68","47","","","1","47","training","adjacent","AB","1","2","Q.jpg","N.jpg","1","1","1","",""
"","feedback","","html-keyboard-response","311","409551","0.0-1.0-429.0-0.0","0","0","34344","","null","","","null","47","","","","","","","","","","","","","","","",""
"","ITI","","html-keyboard-response","312","410553","0.0-1.0-432.0","0","0","34344","","null","","","null","47","","","","","","","","","","","","","","","NaN",""
"","block_over","","html-keyboard-response","313","416428","0.0-1.0-433.0-0.0","0","0","34344","","5873","","","32","47","","","","","","","","","","","","","","","",""
"","S1","","html-keyboard-response","314","416681","0.0-1.0-434.0","0","0","34344","","null","","","null","48","","","","","","","","","","","","","","","",""
"","ISI","","html-keyboard-response","315","418683","0.0-1.0-435.0","0","0","34344","","null","","","null","48","NaN","","","","","","","","","","","","","","",""
"","S2","","html-keyboard-response","316","418936","0.0-1.0-436.0","0","0","34344","","null","","","null","48","","NaN","","","","","","","","","","","","","",""
"","response","","html-keyboard-response","317","419624","0.0-1.0-437.0-0.0","0","0","34344","","686","","","68","48","","","2","48","training","adjacent","FG","6","7","R.jpg","P.jpg","1","1","1","",""
"","feedback","","html-keyboard-response","318","420626","0.0-1.0-438.0-0.0","0","0","34344","","null","","","null","48","","","","","","","","","","","","","","","",""
"","ITI","","html-keyboard-response","319","421628","0.0-1.0-441.0","0","0","34344","","null","","","null","48","","","","","","","","","","","","","","","NaN",""
"","S1","","html-keyboard-response","320","421881","0.0-1.0-443.0","0","0","34344","","null","","","null","49","","","","","","","","","","","","","","","",""
"","ISI","","html-keyboard-response","321","423883","0.0-1.0-444.0","0","0","34344","","null","","","null","49","NaN","","","","","","","","","","","","","","",""
"","S2","","html-keyboard-response","322","424136","0.0-1.0-445.0","0","0","34344","","null","","","null","49","","NaN","","","","","","","","","","","","","",""
"","response","","html-keyboard-response","323","424942","0.0-1.0-446.0-0.0","0","0","34344","","805","","","68","49","","","2","49","training","adjacent","CB","3","2","L.jpg","N.jpg","1","0","0","",""
"","feedback","","html-keyboard-response","324","425944","0.0-1.0-447.0-0.0","0","0","34344","","null","","","null","49","","","","","","","","","","","","","","","",""
"","time_out","","html-keyboard-response","325","427947","0.0-1.0-449.0-0.0","0","0","34344","","null","","","null","49","","","","","","","","","","","","","","","",""
"","ITI","","html-keyboard-response","326","428949","0.0-1.0-450.0","0","0","34344","","null","","","null","49","","","","","","","","","","","","","","","NaN",""
"","S1","","html-keyboard-response","327","429202","0.0-1.0-452.0","0","0","34344","","null","","","null","50","","","","","","","","","","","","","","","",""
"","ISI","","html-keyboard-response","328","431204","0.0-1.0-453.0","0","0","34344","","null","","","null","50","NaN","","","","","","","","","","","","","","",""
"","S2","","html-keyboard-response","329","431457","0.0-1.0-454.0","0","0","34344","","null","","","null","50","","NaN","","","","","","","","","","","","","",""
"","response","","html-keyboard-response","330","432570","0.0-1.0-455.0-0.0","0","0","34344","","1111","","","75","50","","","2","50","training","adjacent","FE","6","5","R.jpg","M.jpg","0","0","1","",""
"","feedback","","html-keyboard-response","331","433573","0.0-1.0-456.0-0.0","0","0","34344","","null","","","null","50","","","","","","","","","","","","","","","",""
"","ITI","","html-keyboard-response","332","434575","0.0-1.0-459.0","0","0","34344","","null","","","null","50","","","","","","","","","","","","","","","NaN",""
"","S1","","html-keyboard-response","333","434828","0.0-1.0-461.0","0","0","34344","","null","","","null","51","","","","","","","","","","","","","","","",""
"","ISI","","html-keyboard-response","334","436831","0.0-1.0-462.0","0","0","34344","","null","","","null","51","NaN","","","","","","","","","","","","","","",""
"","S2","","html-keyboard-response","335","437083","0.0-1.0-463.0","0","0","34344","","null","","","null","51","","NaN","","","","","","","","","","","","","",""
"","response","","html-keyboard-response","336","437679","0.0-1.0-464.0-0.0","0","0","34344","","595","","","68","51","","","2","51","training","adjacent","BC","2","3","N.jpg","L.jpg","1","1","1","",""
"","feedback","","html-keyboard-response","337","438683","0.0-1.0-465.0-0.0","0","0","34344","","null","","","null","51","","","","","","","","","","","","","","","",""
"","ITI","","html-keyboard-response","338","439685","0.0-1.0-468.0","0","0","34344","","null","","","null","51","","","","","","","","","","","","","","","NaN",""
"","S1","","html-keyboard-response","339","439938","0.0-1.0-470.0","0","0","34344","","null","","","null","52","","","","","","","","","","","","","","","",""
"","ISI","","html-keyboard-response","340","441939","0.0-1.0-471.0","0","0","34344","","null","","","null","52","NaN","","","","","","","","","","","","","","",""
"","S2","","html-keyboard-response","341","442193","0.0-1.0-472.0","0","0","34344","","null","","","null","52","","NaN","","","","","","","","","","","","","",""
"","response","","html-keyboard-response","342","442487","0.0-1.0-473.0-0.0","0","0","34344","","293","","","75","52","","","2","52","training","adjacent","GF","7","6","P.jpg","R.jpg","0","0","1","",""
"","feedback","","html-keyboard-response","343","443490","0.0-1.0-474.0-0.0","0","0","34344","","null","","","null","52","","","","","","","","","","","","","","","",""
"","ITI","","html-keyboard-response","344","444492","0.0-1.0-477.0","0","0","34344","","null","","","null","52","","","","","","","","","","","","","","","NaN",""
"","S1","","html-keyboard-response","345","444744","0.0-1.0-479.0","0","0","34344","","null","","","null","53","","","","","","","","","","","","","","","",""
"","ISI","","html-keyboard-response","346","446747","0.0-1.0-480.0","0","0","34344","","null","","","null","53","NaN","","","","","","","","","","","","","","",""
"","S2","","html-keyboard-response","347","447000","0.0-1.0-481.0","0","0","34344","","null","","","null","53","","NaN","","","","","","","","","","","","","",""
"","response","","html-keyboard-response","348","447590","0.0-1.0-482.0-0.0","0","0","34344","","589","","","75","53","","","2","53","training","adjacent","BA","2","1","N.jpg","Q.jpg","0","0","1","",""
"","feedback","","html-keyboard-response","349","448592","0.0-1.0-483.0-0.0","0","0","34344","","null","","","null","53","","","","","","","","","","","","","","","",""
"","ITI","","html-keyboard-response","350","449595","0.0-1.0-486.0","0","0","34344","","null","","","null","53","","","","","","","","","","","","","","","NaN",""
"","S1","","html-keyboard-response","351","449848","0.0-1.0-488.0","0","0","34344","","null","","","null","54","","","","","","","","","","","","","","","",""
"","ISI","","html-keyboard-response","352","451850","0.0-1.0-489.0","0","0","34344","","null","","","null","54","NaN","","","","","","","","","","","","","","",""
"","S2","","html-keyboard-response","353","452102","0.0-1.0-490.0","0","0","34344","","null","","","null","54","","NaN","","","","","","","","","","","","","",""
"","response","","html-keyboard-response","354","453058","0.0-1.0-491.0-0.0","0","0","34344","","954","","","75","54","","","2","54","training","adjacent","DC","4","3","O.jpg","L.jpg","0","0","1","",""
"","feedback","","html-keyboard-response","355","454061","0.0-1.0-492.0-0.0","0","0","34344","","null","","","null","54","","","","","","","","","","","","","","","",""
"","ITI","","html-keyboard-response","356","455064","0.0-1.0-495.0","0","0","34344","","null","","","null","54","","","","","","","","","","","","","","","NaN",""
"","S1","","html-keyboard-response","357","455316","0.0-1.0-497.0","0","0","34344","","null","","","null","55","","","","","","","","","","","","","","","",""
"","ISI","","html-keyboard-response","358","457319","0.0-1.0-498.0","0","0","34344","","null","","","null","55","NaN","","","","","","","","","","","","","","",""
"","S2","","html-keyboard-response","359","457572","0.0-1.0-499.0","0","0","34344","","null","","","null","55","","NaN","","","","","","","","","","","","","",""
"","response","","html-keyboard-response","360","458475","0.0-1.0-500.0-0.0","0","0","34344","","901","","","68","55","","","2","55","training","adjacent","CD","3","4","L.jpg","O.jpg","1","1","1","",""
"","feedback","","html-keyboard-response","361","459477","0.0-1.0-501.0-0.0","0","0","34344","","null","","","null","55","","","","","","","","","","","","","","","",""
"","ITI","","html-keyboard-response","362","460481","0.0-1.0-504.0","0","0","34344","","null","","","null","55","","","","","","","","","","","","","","","NaN",""
"","S1","","html-keyboard-response","363","460734","0.0-1.0-506.0","0","0","34344","","null","","","null","56","","","","","","","","","","","","","","","",""
"","ISI","","html-keyboard-response","364","462736","0.0-1.0-507.0","0","0","34344","","null","","","null","56","NaN","","","","","","","","","","","","","","",""
"","S2","","html-keyboard-response","365","462989","0.0-1.0-508.0","0","0","34344","","null","","","null","56","","NaN","","","","","","","","","","","","","",""
"","response","","html-keyboard-response","366","463627","0.0-1.0-509.0-0.0","0","0","34344","","636","","","75","56","","","2","56","training","adjacent","BA","2","1","N.jpg","Q.jpg","0","0","1","",""
"","feedback","","html-keyboard-response","367","464630","0.0-1.0-510.0-0.0","0","0","34344","","null","","","null","56","","","","","","","","","","","","","","","",""
"","ITI","","html-keyboard-response","368","465633","0.0-1.0-513.0","0","0","34344","","null","","","null","56","","","","","","","","","","","","","","","NaN",""
"","S1","","html-keyboard-response","369","465885","0.0-1.0-515.0","0","0","34344","","null","","","null","57","","","","","","","","","","","","","","","",""
"","ISI","","html-keyboard-response","370","467887","0.0-1.0-516.0","0","0","34344","","null","","","null","57","NaN","","","","","","","","","","","","","","",""
"","S2","","html-keyboard-response","371","468140","0.0-1.0-517.0","0","0","34344","","null","","","null","57","","NaN","","","","","","","","","","","","","",""
"","response","","html-keyboard-response","372","468914","0.0-1.0-518.0-0.0","0","0","34344","","773","","","68","57","","","2","57","training","adjacent","ED","5","4","M.jpg","O.jpg","1","0","0","",""
"","feedback","","html-keyboard-response","373","469917","0.0-1.0-519.0-0.0","0","0","34344","","null","","","null","57","","","","","","","","","","","","","","","",""
"","time_out","","html-keyboard-response","374","471920","0.0-1.0-521.0-0.0","0","0","34344","","null","","","null","57","","","","","","","","","","","","","","","",""
"","ITI","","html-keyboard-response","375","472922","0.0-1.0-522.0","0","0","34344","","null","","","null","57","","","","","","","","","","","","","","","NaN",""
"","S1","","html-keyboard-response","376","473175","0.0-1.0-524.0","0","0","34344","","null","","","null","58","","","","","","","","","","","","","","","",""
"","ISI","","html-keyboard-response","377","475178","0.0-1.0-525.0","0","0","34344","","null","","","null","58","NaN","","","","","","","","","","","","","","",""
"","S2","","html-keyboard-response","378","475430","0.0-1.0-526.0","0","0","34344","","null","","","null","58","","NaN","","","","","","","","","","","","","",""
"","response","","html-keyboard-response","379","475805","0.0-1.0-527.0-0.0","0","0","34344","","373","","","75","58","","","2","58","training","adjacent","ED","5","4","M.jpg","O.jpg","0","0","1","",""
"","feedback","","html-keyboard-response","380","476807","0.0-1.0-528.0-0.0","0","0","34344","","null","","","null","58","","","","","","","","","","","","","","","",""
"","ITI","","html-keyboard-response","381","477810","0.0-1.0-531.0","0","0","34344","","null","","","null","58","","","","","","","","","","","","","","","NaN",""
"","S1","","html-keyboard-response","382","478062","0.0-1.0-533.0","0","0","34344","","null","","","null","59","","","","","","","","","","","","","","","",""
"","ISI","","html-keyboard-response","383","480065","0.0-1.0-534.0","0","0","34344","","null","","","null","59","NaN","","","","","","","","","","","","","","",""
"","S2","","html-keyboard-response","384","480318","0.0-1.0-535.0","0","0","34344","","null","","","null","59","","NaN","","","","","","","","","","","","","",""
"","response","","html-keyboard-response","385","481425","0.0-1.0-536.0-0.0","0","0","34344","","1105","","","68","59","","","2","59","training","adjacent","CD","3","4","L.jpg","O.jpg","1","1","1","",""
"","feedback","","html-keyboard-response","386","482427","0.0-1.0-537.0-0.0","0","0","34344","","null","","","null","59","","","","","","","","","","","","","","","",""
"","ITI","","html-keyboard-response","387","483430","0.0-1.0-540.0","0","0","34344","","null","","","null","59","","","","","","","","","","","","","","","NaN",""
"","S1","","html-keyboard-response","388","483682","0.0-1.0-542.0","0","0","34344","","null","","","null","60","","","","","","","","","","","","","","","",""
"","ISI","","html-keyboard-response","389","485684","0.0-1.0-543.0","0","0","34344","","null","","","null","60","NaN","","","","","","","","","","","","","","",""
"","S2","","html-keyboard-response","390","485937","0.0-1.0-544.0","0","0","34344","","null","","","null","60","","NaN","","","","","","","","","","","","","",""
"","response","","html-keyboard-response","391","486211","0.0-1.0-545.0-0.0","0","0","34344","","273","","","68","60","","","2","60","training","adjacent","AB","1","2","Q.jpg","N.jpg","1","1","1","",""
"","feedback","","html-keyboard-response","392","487215","0.0-1.0-546.0-0.0","0","0","34344","","null","","","null","60","","","","","","","","","","","","","","","",""
"","ITI","","html-keyboard-response","393","488218","0.0-1.0-549.0","0","0","34344","","null","","","null","60","","","","","","","","","","","","","","","NaN",""
"","S1","","html-keyboard-response","394","488470","0.0-1.0-551.0","0","0","34344","","null","","","null","61","","","","","","","","","","","","","","","",""
"","ISI","","html-keyboard-response","395","490473","0.0-1.0-552.0","0","0","34344","","null","","","null","61","NaN","","","","","","","","","","","","","","",""
"","S2","","html-keyboard-response","396","490725","0.0-1.0-553.0","0","0","34344","","null","","","null","61","","NaN","","","","","","","","","","","","","",""
"","response","","html-keyboard-response","397","491031","0.0-1.0-554.0-0.0","0","0","34344","","305","","","75","61","","","2","61","training","adjacent","GF","7","6","P.jpg","R.jpg","0","0","1","",""
"","feedback","","html-keyboard-response","398","492034","0.0-1.0-555.0-0.0","0","0","34344","","null","","","null","61","","","","","","","","","","","","","","","",""
"","ITI","","html-keyboard-response","399","493037","0.0-1.0-558.0","0","0","34344","","null","","","null","61","","","","","","","","","","","","","","","NaN",""
"","S1","","html-keyboard-response","400","493289","0.0-1.0-560.0","0","0","34344","","null","","","null","62","","","","","","","","","","","","","","","",""
"","ISI","","html-keyboard-response","401","495291","0.0-1.0-561.0","0","0","34344","","null","","","null","62","NaN","","","","","","","","","","","","","","",""
"","S2","","html-keyboard-response","402","495544","0.0-1.0-562.0","0","0","34344","","null","","","null","62","","NaN","","","","","","","","","","","","","",""
"","response","","html-keyboard-response","403","496170","0.0-1.0-563.0-0.0","0","0","34344","","625","","","75","62","","","2","62","training","adjacent","CD","3","4","L.jpg","O.jpg","0","1","0","",""
"","feedback","","html-keyboard-response","404","497173","0.0-1.0-564.0-0.0","0","0","34344","","null","","","null","62","","","","","","","","","","","","","","","",""
"","time_out","","html-keyboard-response","405","499176","0.0-1.0-566.0-0.0","0","0","34344","","null","","","null","62","","","","","","","","","","","","","","","",""
"","ITI","","html-keyboard-response","406","500178","0.0-1.0-567.0","0","0","34344","","null","","","null","62","","","","","","","","","","","","","","","NaN",""
"","S1","","html-keyboard-response","407","500431","0.0-1.0-569.0","0","0","34344","","null","","","null","63","","","","","","","","","","","","","","","",""
"","ISI","","html-keyboard-response","408","502432","0.0-1.0-570.0","0","0","34344","","null","","","null","63","NaN","","","","","","","","","","","","","","",""
"","S2","","html-keyboard-response","409","502685","0.0-1.0-571.0","0","0","34344","","null","","","null","63","","NaN","","","","","","","","","","","","","",""
"","response","","html-keyboard-response","410","503278","0.0-1.0-572.0-0.0","0","0","34344","","591","","","68","63","","","2","63","training","adjacent","CD","3","4","L.jpg","O.jpg","1","1","1","",""
"","feedback","","html-keyboard-response","411","504281","0.0-1.0-573.0-0.0","0","0","34344","","null","","","null","63","","","","","","","","","","","","","","","",""
"","ITI","","html-keyboard-response","412","505284","0.0-1.0-576.0","0","0","34344","","null","","","null","63","","","","","","","","","","","","","","","NaN",""
"","S1","","html-keyboard-response","413","505538","0.0-1.0-578.0","0","0","34344","","null","","","null","64","","","","","","","","","","","","","","","",""
"","ISI","","html-keyboard-response","414","507541","0.0-1.0-579.0","0","0","34344","","null","","","null","64","NaN","","","","","","","","","","","","","","",""
"","S2","","html-keyboard-response","415","507794","0.0-1.0-580.0","0","0","34344","","null","","","null","64","","NaN","","","","","","","","","","","","","",""
"","response","","html-keyboard-response","416","508749","0.0-1.0-581.0-0.0","0","0","34344","","954","","","68","64","","","2","64","training","adjacent","DE","4","5","O.jpg","M.jpg","1","1","1","",""
"","feedback","","html-keyboard-response","417","509751","0.0-1.0-582.0-0.0","0","0","34344","","null","","","null","64","","","","","","","","","","","","","","","",""
"","ITI","","html-keyboard-response","418","510754","0.0-1.0-585.0","0","0","34344","","null","","","null","64","","","","","","","","","","","","","","","NaN",""
"","S1","","html-keyboard-response","419","511007","0.0-1.0-587.0","0","0","34344","","null","","","null","65","","","","","","","","","","","","","","","",""
"","ISI","","html-keyboard-response","420","513009","0.0-1.0-588.0","0","0","34344","","null","","","null","65","NaN","","","","","","","","","","","","","","",""
"","S2","","html-keyboard-response","421","513262","0.0-1.0-589.0","0","0","34344","","null","","","null","65","","NaN","","","","","","","","","","","","","",""
"","response","","html-keyboard-response","422","513544","0.0-1.0-590.0-0.0","0","0","34344","","281","","","68","65","","","2","65","training","adjacent","AB","1","2","Q.jpg","N.jpg","1","1","1","",""
"","feedback","","html-keyboard-response","423","514548","0.0-1.0-591.0-0.0","0","0","34344","","null","","","null","65","","","","","","","","","","","","","","","",""
"","ITI","","html-keyboard-response","424","515550","0.0-1.0-594.0","0","0","34344","","null","","","null","65","","","","","","","","","","","","","","","NaN",""
"","S1","","html-keyboard-response","425","515802","0.0-1.0-596.0","0","0","34344","","null","","","null","66","","","","","","","","","","","","","","","",""
"","ISI","","html-keyboard-response","426","517805","0.0-1.0-597.0","0","0","34344","","null","","","null","66","NaN","","","","","","","","","","","","","","",""
"","S2","","html-keyboard-response","427","518057","0.0-1.0-598.0","0","0","34344","","null","","","null","66","","NaN","","","","","","","","","","","","","",""
"","response","","html-keyboard-response","428","519045","0.0-1.0-599.0-0.0","0","0","34344","","986","","","75","66","","","2","66","training","adjacent","FE","6","5","R.jpg","M.jpg","0","0","1","",""
"","feedback","","html-keyboard-response","429","520047","0.0-1.0-600.0-0.0","0","0","34344","","null","","","null","66","","","","","","","","","","","","","","","",""
"","ITI","","html-keyboard-response","430","521049","0.0-1.0-603.0","0","0","34344","","null","","","null","66","","","","","","","","","","","","","","","NaN",""
"","S1","","html-keyboard-response","431","521302","0.0-1.0-605.0","0","0","34344","","null","","","null","67","","","","","","","","","","","","","","","",""
"","ISI","","html-keyboard-response","432","523304","0.0-1.0-606.0","0","0","34344","","null","","","null","67","NaN","","","","","","","","","","","","","","",""
"","S2","","html-keyboard-response","433","523556","0.0-1.0-607.0","0","0","34344","","null","","","null","67","","NaN","","","","","","","","","","","","","",""
"","response","","html-keyboard-response","434","524108","0.0-1.0-608.0-0.0","0","0","34344","","550","","","68","67","","","2","67","training","adjacent","FG","6","7","R.jpg","P.jpg","1","1","1","",""
"","feedback","","html-keyboard-response","435","525111","0.0-1.0-609.0-0.0","0","0","34344","","null","","","null","67","","","","","","","","","","","","","","","",""
"","ITI","","html-keyboard-response","436","526114","0.0-1.0-612.0","0","0","34344","","null","","","null","67","","","","","","","","","","","","","","","NaN",""
"","S1","","html-keyboard-response","437","526366","0.0-1.0-614.0","0","0","34344","","null","","","null","68","","","","","","","","","","","","","","","",""
"","ISI","","html-keyboard-response","438","528368","0.0-1.0-615.0","0","0","34344","","null","","","null","68","NaN","","","","","","","","","","","","","","",""
"","S2","","html-keyboard-response","439","528620","0.0-1.0-616.0","0","0","34344","","null","","","null","68","","NaN","","","","","","","","","","","","","",""
"","response","","html-keyboard-response","440","529337","0.0-1.0-617.0-0.0","0","0","34344","","715","","","75","68","","","2","68","training","adjacent","DC","4","3","O.jpg","L.jpg","0","0","1","",""
"","feedback","","html-keyboard-response","441","530340","0.0-1.0-618.0-0.0","0","0","34344","","null","","","null","68","","","","","","","","","","","","","","","",""
"","ITI","","html-keyboard-response","442","531343","0.0-1.0-621.0","0","0","34344","","null","","","null","68","","","","","","","","","","","","","","","NaN",""
"","S1","","html-keyboard-response","443","531595","0.0-1.0-623.0","0","0","34344","","null","","","null","69","","","","","","","","","","","","","","","",""
"","ISI","","html-keyboard-response","444","533598","0.0-1.0-624.0","0","0","34344","","null","","","null","69","NaN","","","","","","","","","","","","","","",""
"","S2","","html-keyboard-response","445","533850","0.0-1.0-625.0","0","0","34344","","null","","","null","69","","NaN","","","","","","","","","","","","","",""
"","response","","html-keyboard-response","446","534559","0.0-1.0-626.0-0.0","0","0","34344","","707","","","68","69","","","2","69","training","adjacent","DC","4","3","O.jpg","L.jpg","1","0","0","",""
"","feedback","","html-keyboard-response","447","535561","0.0-1.0-627.0-0.0","0","0","34344","","null","","","null","69","","","","","","","","","","","","","","","",""
"","time_out","","html-keyboard-response","448","537564","0.0-1.0-629.0-0.0","0","0","34344","","null","","","null","69","","","","","","","","","","","","","","","",""
"","ITI","","html-keyboard-response","449","538566","0.0-1.0-630.0","0","0","34344","","null","","","null","69","","","","","","","","","","","","","","","NaN",""
"","S1","","html-keyboard-response","450","538819","0.0-1.0-632.0","0","0","34344","","null","","","null","70","","","","","","","","","","","","","","","",""
"","ISI","","html-keyboard-response","451","540822","0.0-1.0-633.0","0","0","34344","","null","","","null","70","NaN","","","","","","","","","","","","","","",""
"","S2","","html-keyboard-response","452","541075","0.0-1.0-634.0","0","0","34344","","null","","","null","70","","NaN","","","","","","","","","","","","","",""
"","response","","html-keyboard-response","453","542220","0.0-1.0-635.0-0.0","0","0","34344","","1143","","","68","70","","","2","70","training","adjacent","BC","2","3","N.jpg","L.jpg","1","1","1","",""
"","feedback","","html-keyboard-response","454","543223","0.0-1.0-636.0-0.0","0","0","34344","","null","","","null","70","","","","","","","","","","","","","","","",""
"","ITI","","html-keyboard-response","455","544225","0.0-1.0-639.0","0","0","34344","","null","","","null","70","","","","","","","","","","","","","","","NaN",""
"","S1","","html-keyboard-response","456","544478","0.0-1.0-641.0","0","0","34344","","null","","","null","71","","","","","","","","","","","","","","","",""
"","ISI","","html-keyboard-response","457","546480","0.0-1.0-642.0","0","0","34344","","null","","","null","71","NaN","","","","","","","","","","","","","","",""
"","S2","","html-keyboard-response","458","546732","0.0-1.0-643.0","0","0","34344","","null","","","null","71","","NaN","","","","","","","","","","","","","",""
"","response","","html-keyboard-response","459","547406","0.0-1.0-644.0-0.0","0","0","34344","","673","","","68","71","","","2","71","training","adjacent","EF","5","6","M.jpg","R.jpg","1","1","1","",""
"","feedback","","html-keyboard-response","460","548409","0.0-1.0-645.0-0.0","0","0","34344","","null","","","null","71","","","","","","","","","","","","","","","",""
"","ITI","","html-keyboard-response","461","549411","0.0-1.0-648.0","0","0","34344","","null","","","null","71","","","","","","","","","","","","","","","NaN",""
"","S1","","html-keyboard-response","462","549664","0.0-1.0-650.0","0","0","34344","","null","","","null","72","","","","","","","","","","","","","","","",""
"","ISI","","html-keyboard-response","463","551666","0.0-1.0-651.0","0","0","34344","","null","","","null","72","NaN","","","","","","","","","","","","","","",""
"","S2","","html-keyboard-response","464","551919","0.0-1.0-652.0","0","0","34344","","null","","","null","72","","NaN","","","","","","","","","","","","","",""
"","response","","html-keyboard-response","465","553032","0.0-1.0-653.0-0.0","0","0","34344","","1111","","","68","72","","","2","72","training","adjacent","CB","3","2","L.jpg","N.jpg","1","0","0","",""
"","feedback","","html-keyboard-response","466","554035","0.0-1.0-654.0-0.0","0","0","34344","","null","","","null","72","","","","","","","","","","","","","","","",""
"","time_out","","html-keyboard-response","467","556038","0.0-1.0-656.0-0.0","0","0","34344","","null","","","null","72","","","","","","","","","","","","","","","",""
"","ITI","","html-keyboard-response","468","557041","0.0-1.0-657.0","0","0","34344","","null","","","null","72","","","","","","","","","","","","","","","NaN",""
"","S1","","html-keyboard-response","469","557293","0.0-1.0-659.0","0","0","34344","","null","","","null","73","","","","","","","","","","","","","","","",""
"","ISI","","html-keyboard-response","470","559296","0.0-1.0-660.0","0","0","34344","","null","","","null","73","NaN","","","","","","","","","","","","","","",""
"","S2","","html-keyboard-response","471","559548","0.0-1.0-661.0","0","0","34344","","null","","","null","73","","NaN","","","","","","","","","","","","","",""
"","response","","html-keyboard-response","472","559915","0.0-1.0-662.0-0.0","0","0","34344","","365","","","68","73","","","2","73","training","adjacent","AB","1","2","Q.jpg","N.jpg","1","1","1","",""
"","feedback","","html-keyboard-response","473","560918","0.0-1.0-663.0-0.0","0","0","34344","","null","","","null","73","","","","","","","","","","","","","","","",""
"","ITI","","html-keyboard-response","474","561921","0.0-1.0-666.0","0","0","34344","","null","","","null","73","","","","","","","","","","","","","","","NaN",""
"","S1","","html-keyboard-response","475","562174","0.0-1.0-668.0","0","0","34344","","null","","","null","74","","","","","","","","","","","","","","","",""
"","ISI","","html-keyboard-response","476","564177","0.0-1.0-669.0","0","0","34344","","null","","","null","74","NaN","","","","","","","","","","","","","","",""
"","S2","","html-keyboard-response","477","564430","0.0-1.0-670.0","0","0","34344","","null","","","null","74","","NaN","","","","","","","","","","","","","",""
"","response","","html-keyboard-response","478","565768","0.0-1.0-671.0-0.0","0","0","34344","","1337","","","75","74","","","2","74","training","adjacent","CB","3","2","L.jpg","N.jpg","0","0","1","",""
"","feedback","","html-keyboard-response","479","566771","0.0-1.0-672.0-0.0","0","0","34344","","null","","","null","74","","","","","","","","","","","","","","","",""
"","ITI","","html-keyboard-response","480","567774","0.0-1.0-675.0","0","0","34344","","null","","","null","74","","","","","","","","","","","","","","","NaN",""
"","S1","","html-keyboard-response","481","568027","0.0-1.0-677.0","0","0","34344","","null","","","null","75","","","","","","","","","","","","","","","",""
"","ISI","","html-keyboard-response","482","570029","0.0-1.0-678.0","0","0","34344","","null","","","null","75","NaN","","","","","","","","","","","","","","",""
"","S2","","html-keyboard-response","483","570282","0.0-1.0-679.0","0","0","34344","","null","","","null","75","","NaN","","","","","","","","","","","","","",""
"","response","","html-keyboard-response","484","571088","0.0-1.0-680.0-0.0","0","0","34344","","805","","","75","75","","","2","75","training","adjacent","DC","4","3","O.jpg","L.jpg","0","0","1","",""
"","feedback","","html-keyboard-response","485","572090","0.0-1.0-681.0-0.0","0","0","34344","","null","","","null","75","","","","","","","","","","","","","","","",""
"","ITI","","html-keyboard-response","486","573092","0.0-1.0-684.0","0","0","34344","","null","","","null","75","","","","","","","","","","","","","","","NaN",""
"","S1","","html-keyboard-response","487","573344","0.0-1.0-686.0","0","0","34344","","null","","","null","76","","","","","","","","","","","","","","","",""
"","ISI","","html-keyboard-response","488","575347","0.0-1.0-687.0","0","0","34344","","null","","","null","76","NaN","","","","","","","","","","","","","","",""
"","S2","","html-keyboard-response","489","575599","0.0-1.0-688.0","0","0","34344","","null","","","null","76","","NaN","","","","","","","","","","","","","",""
"","response","","html-keyboard-response","490","576160","0.0-1.0-689.0-0.0","0","0","34344","","559","","","75","76","","","2","76","training","adjacent","BA","2","1","N.jpg","Q.jpg","0","0","1","",""
"","feedback","","html-keyboard-response","491","577163","0.0-1.0-690.0-0.0","0","0","34344","","null","","","null","76","","","","","","","","","","","","","","","",""
"","ITI","","html-keyboard-response","492","578166","0.0-1.0-693.0","0","0","34344","","null","","","null","76","","","","","","","","","","","","","","","NaN",""
"","S1","","html-keyboard-response","493","578418","0.0-1.0-695.0","0","0","34344","","null","","","null","77","","","","","","","","","","","","","","","",""
"","ISI","","html-keyboard-response","494","580420","0.0-1.0-696.0","0","0","34344","","null","","","null","77","NaN","","","","","","","","","","","","","","",""
"","S2","","html-keyboard-response","495","580673","0.0-1.0-697.0","0","0","34344","","null","","","null","77","","NaN","","","","","","","","","","","","","",""
"","response","","html-keyboard-response","496","580965","0.0-1.0-698.0-0.0","0","0","34344","","291","","","68","77","","","2","77","training","adjacent","AB","1","2","Q.jpg","N.jpg","1","1","1","",""
"","feedback","","html-keyboard-response","497","581968","0.0-1.0-699.0-0.0","0","0","34344","","null","","","null","77","","","","","","","","","","","","","","","",""
"","ITI","","html-keyboard-response","498","582971","0.0-1.0-702.0","0","0","34344","","null","","","null","77","","","","","","","","","","","","","","","NaN",""
"","S1","","html-keyboard-response","499","583223","0.0-1.0-704.0","0","0","34344","","null","","","null","78","","","","","","","","","","","","","","","",""
"","ISI","","html-keyboard-response","500","585227","0.0-1.0-705.0","0","0","34344","","null","","","null","78","NaN","","","","","","","","","","","","","","",""
"","S2","","html-keyboard-response","501","585479","0.0-1.0-706.0","0","0","34344","","null","","","null","78","","NaN","","","","","","","","","","","","","",""
"","response","","html-keyboard-response","502","586892","0.0-1.0-707.0-0.0","0","0","34344","","1411","","","75","78","","","2","78","training","adjacent","DE","4","5","O.jpg","M.jpg","0","1","0","",""
"","feedback","","html-keyboard-response","503","587895","0.0-1.0-708.0-0.0","0","0","34344","","null","","","null","78","","","","","","","","","","","","","","","",""
"","time_out","","html-keyboard-response","504","589897","0.0-1.0-710.0-0.0","0","0","34344","","null","","","null","78","","","","","","","","","","","","","","","",""
"","ITI","","html-keyboard-response","505","590899","0.0-1.0-711.0","0","0","34344","","null","","","null","78","","","","","","","","","","","","","","","NaN",""
"","S1","","html-keyboard-response","506","591151","0.0-1.0-713.0","0","0","34344","","null","","","null","79","","","","","","","","","","","","","","","",""
"","ISI","","html-keyboard-response","507","593154","0.0-1.0-714.0","0","0","34344","","null","","","null","79","NaN","","","","","","","","","","","","","","",""
"","S2","","html-keyboard-response","508","593406","0.0-1.0-715.0","0","0","34344","","null","","","null","79","","NaN","","","","","","","","","","","","","",""
"","response","","html-keyboard-response","509","593894","0.0-1.0-716.0-0.0","0","0","34344","","487","","","68","79","","","2","79","training","adjacent","ED","5","4","M.jpg","O.jpg","1","0","0","",""
"","feedback","","html-keyboard-response","510","594897","0.0-1.0-717.0-0.0","0","0","34344","","null","","","null","79","","","","","","","","","","","","","","","",""
"","time_out","","html-keyboard-response","511","596899","0.0-1.0-719.0-0.0","0","0","34344","","null","","","null","79","","","","","","","","","","","","","","","",""
"","ITI","","html-keyboard-response","512","597902","0.0-1.0-720.0","0","0","34344","","null","","","null","79","","","","","","","","","","","","","","","NaN",""
"","S1","","html-keyboard-response","513","598154","0.0-1.0-722.0","0","0","34344","","null","","","null","80","","","","","","","","","","","","","","","",""
"","ISI","","html-keyboard-response","514","600157","0.0-1.0-723.0","0","0","34344","","null","","","null","80","NaN","","","","","","","","","","","","","","",""
"","S2","","html-keyboard-response","515","600410","0.0-1.0-724.0","0","0","34344","","null","","","null","80","","NaN","","","","","","","","","","","","","",""
"","response","","html-keyboard-response","516","601763","0.0-1.0-725.0-0.0","0","0","34344","","1352","","","68","80","","","2","80","training","adjacent","DE","4","5","O.jpg","M.jpg","1","1","1","",""
"","feedback","","html-keyboard-response","517","602766","0.0-1.0-726.0-0.0","0","0","34344","","null","","","null","80","","","","","","","","","","","","","","","",""
"","ITI","","html-keyboard-response","518","603769","0.0-1.0-729.0","0","0","34344","","null","","","null","80","","","","","","","","","","","","","","","NaN",""
"","S1","","html-keyboard-response","519","604021","0.0-1.0-731.0","0","0","34344","","null","","","null","81","","","","","","","","","","","","","","","",""
"","ISI","","html-keyboard-response","520","606023","0.0-1.0-732.0","0","0","34344","","null","","","null","81","NaN","","","","","","","","","","","","","","",""
"","S2","","html-keyboard-response","521","606276","0.0-1.0-733.0","0","0","34344","","null","","","null","81","","NaN","","","","","","","","","","","","","",""
"","response","","html-keyboard-response","522","607295","0.0-1.0-734.0-0.0","0","0","34344","","1017","","","68","81","","","2","81","training","adjacent","FG","6","7","R.jpg","P.jpg","1","1","1","",""
"","feedback","","html-keyboard-response","523","608298","0.0-1.0-735.0-0.0","0","0","34344","","null","","","null","81","","","","","","","","","","","","","","","",""
"","ITI","","html-keyboard-response","524","609300","0.0-1.0-738.0","0","0","34344","","null","","","null","81","","","","","","","","","","","","","","","NaN",""
"","S1","","html-keyboard-response","525","609553","0.0-1.0-740.0","0","0","34344","","null","","","null","82","","","","","","","","","","","","","","","",""
"","ISI","","html-keyboard-response","526","611555","0.0-1.0-741.0","0","0","34344","","null","","","null","82","NaN","","","","","","","","","","","","","","",""
"","S2","","html-keyboard-response","527","611808","0.0-1.0-742.0","0","0","34344","","null","","","null","82","","NaN","","","","","","","","","","","","","",""
"","response","","html-keyboard-response","528","612849","0.0-1.0-743.0-0.0","0","0","34344","","1040","","","68","82","","","2","82","training","adjacent","EF","5","6","M.jpg","R.jpg","1","1","1","",""
"","feedback","","html-keyboard-response","529","613851","0.0-1.0-744.0-0.0","0","0","34344","","null","","","null","82","","","","","","","","","","","","","","","",""
"","ITI","","html-keyboard-response","530","614853","0.0-1.0-747.0","0","0","34344","","null","","","null","82","","","","","","","","","","","","","","","NaN",""
"","S1","","html-keyboard-response","531","615106","0.0-1.0-749.0","0","0","34344","","null","","","null","83","","","","","","","","","","","","","","","",""
"","ISI","","html-keyboard-response","532","617108","0.0-1.0-750.0","0","0","34344","","null","","","null","83","NaN","","","","","","","","","","","","","","",""
"","S2","","html-keyboard-response","533","617361","0.0-1.0-751.0","0","0","34344","","null","","","null","83","","NaN","","","","","","","","","","","","","",""
"","response","","html-keyboard-response","534","618314","0.0-1.0-752.0-0.0","0","0","34344","","952","","","75","83","","","2","83","training","adjacent","BC","2","3","N.jpg","L.jpg","0","1","0","",""
"","feedback","","html-keyboard-response","535","619317","0.0-1.0-753.0-0.0","0","0","34344","","null","","","null","83","","","","","","","","","","","","","","","",""
"","time_out","","html-keyboard-response","536","621319","0.0-1.0-755.0-0.0","0","0","34344","","null","","","null","83","","","","","","","","","","","","","","","",""
"","ITI","","html-keyboard-response","537","622322","0.0-1.0-756.0","0","0","34344","","null","","","null","83","","","","","","","","","","","","","","","NaN",""
"","S1","","html-keyboard-response","538","622574","0.0-1.0-758.0","0","0","34344","","null","","","null","84","","","","","","","","","","","","","","","",""
"","ISI","","html-keyboard-response","539","624576","0.0-1.0-759.0","0","0","34344","","null","","","null","84","NaN","","","","","","","","","","","","","","",""
"","S2","","html-keyboard-response","540","624828","0.0-1.0-760.0","0","0","34344","","null","","","null","84","","NaN","","","","","","","","","","","","","",""
"","response","","html-keyboard-response","541","625518","0.0-1.0-761.0-0.0","0","0","34344","","688","","","68","84","","","2","84","training","adjacent","BC","2","3","N.jpg","L.jpg","1","1","1","",""
"","feedback","","html-keyboard-response","542","626521","0.0-1.0-762.0-0.0","0","0","34344","","null","","","null","84","","","","","","","","","","","","","","","",""
"","ITI","","html-keyboard-response","543","627523","0.0-1.0-765.0","0","0","34344","","null","","","null","84","","","","","","","","","","","","","","","NaN",""
"","S1","","html-keyboard-response","544","627776","0.0-1.0-767.0","0","0","34344","","null","","","null","85","","","","","","","","","","","","","","","",""
"","ISI","","html-keyboard-response","545","629778","0.0-1.0-768.0","0","0","34344","","null","","","null","85","NaN","","","","","","","","","","","","","","",""
"","S2","","html-keyboard-response","546","630031","0.0-1.0-769.0","0","0","34344","","null","","","null","85","","NaN","","","","","","","","","","","","","",""
"","response","","html-keyboard-response","547","631590","0.0-1.0-770.0-0.0","0","0","34344","","1558","","","68","85","","","2","85","training","adjacent","EF","5","6","M.jpg","R.jpg","1","1","1","",""
"","feedback","","html-keyboard-response","548","632593","0.0-1.0-771.0-0.0","0","0","34344","","null","","","null","85","","","","","","","","","","","","","","","",""
"","ITI","","html-keyboard-response","549","633595","0.0-1.0-774.0","0","0","34344","","null","","","null","85","","","","","","","","","","","","","","","NaN",""
"","S1","","html-keyboard-response","550","633848","0.0-1.0-776.0","0","0","34344","","null","","","null","86","","","","","","","","","","","","","","","",""
"","ISI","","html-keyboard-response","551","635851","0.0-1.0-777.0","0","0","34344","","null","","","null","86","NaN","","","","","","","","","","","","","","",""
"","S2","","html-keyboard-response","552","636103","0.0-1.0-778.0","0","0","34344","","null","","","null","86","","NaN","","","","","","","","","","","","","",""
"","response","","html-keyboard-response","553","637487","0.0-1.0-779.0-0.0","0","0","34344","","1382","","","68","86","","","2","86","training","adjacent","CB","3","2","L.jpg","N.jpg","1","0","0","",""
"","feedback","","html-keyboard-response","554","638490","0.0-1.0-780.0-0.0","0","0","34344","","null","","","null","86","","","","","","","","","","","","","","","",""
"","time_out","","html-keyboard-response","555","640493","0.0-1.0-782.0-0.0","0","0","34344","","null","","","null","86","","","","","","","","","","","","","","","",""
"","ITI","","html-keyboard-response","556","641496","0.0-1.0-783.0","0","0","34344","","null","","","null","86","","","","","","","","","","","","","","","NaN",""
"","S1","","html-keyboard-response","557","641748","0.0-1.0-785.0","0","0","34344","","null","","","null","87","","","","","","","","","","","","","","","",""
"","ISI","","html-keyboard-response","558","643750","0.0-1.0-786.0","0","0","34344","","null","","","null","87","NaN","","","","","","","","","","","","","","",""
"","S2","","html-keyboard-response","559","644003","0.0-1.0-787.0","0","0","34344","","null","","","null","87","","NaN","","","","","","","","","","","","","",""
"","response","","html-keyboard-response","560","645219","0.0-1.0-788.0-0.0","0","0","34344","","1215","","","68","87","","","2","87","training","adjacent","EF","5","6","M.jpg","R.jpg","1","1","1","",""
"","feedback","","html-keyboard-response","561","646221","0.0-1.0-789.0-0.0","0","0","34344","","null","","","null","87","","","","","","","","","","","","","","","",""
"","ITI","","html-keyboard-response","562","647223","0.0-1.0-792.0","0","0","34344","","null","","","null","87","","","","","","","","","","","","","","","NaN",""
"","S1","","html-keyboard-response","563","647476","0.0-1.0-794.0","0","0","34344","","null","","","null","88","","","","","","","","","","","","","","","",""
"","ISI","","html-keyboard-response","564","649479","0.0-1.0-795.0","0","0","34344","","null","","","null","88","NaN","","","","","","","","","","","","","","",""
"","S2","","html-keyboard-response","565","649732","0.0-1.0-796.0","0","0","34344","","null","","","null","88","","NaN","","","","","","","","","","","","","",""
"","response","","html-keyboard-response","566","651269","0.0-1.0-797.0-0.0","0","0","34344","","1536","","","75","88","","","2","88","training","adjacent","ED","5","4","M.jpg","O.jpg","0","0","1","",""
"","feedback","","html-keyboard-response","567","652271","0.0-1.0-798.0-0.0","0","0","34344","","null","","","null","88","","","","","","","","","","","","","","","",""
"","ITI","","html-keyboard-response","568","653274","0.0-1.0-801.0","0","0","34344","","null","","","null","88","","","","","","","","","","","","","","","NaN",""
"","S1","","html-keyboard-response","569","653527","0.0-1.0-803.0","0","0","34344","","null","","","null","89","","","","","","","","","","","","","","","",""
"","ISI","","html-keyboard-response","570","655529","0.0-1.0-804.0","0","0","34344","","null","","","null","89","NaN","","","","","","","","","","","","","","",""
"","S2","","html-keyboard-response","571","655782","0.0-1.0-805.0","0","0","34344","","null","","","null","89","","NaN","","","","","","","","","","","","","",""
"","response","","html-keyboard-response","572","655951","0.0-1.0-806.0-0.0","0","0","34344","","168","","","75","89","","","2","89","training","adjacent","GF","7","6","P.jpg","R.jpg","0","0","1","",""
"","feedback","","html-keyboard-response","573","656955","0.0-1.0-807.0-0.0","0","0","34344","","null","","","null","89","","","","","","","","","","","","","","","",""
"","ITI","","html-keyboard-response","574","657958","0.0-1.0-810.0","0","0","34344","","null","","","null","89","","","","","","","","","","","","","","","NaN",""
"","S1","","html-keyboard-response","575","658211","0.0-1.0-812.0","0","0","34344","","null","","","null","90","","","","","","","","","","","","","","","",""
"","ISI","","html-keyboard-response","576","660213","0.0-1.0-813.0","0","0","34344","","null","","","null","90","NaN","","","","","","","","","","","","","","",""
"","S2","","html-keyboard-response","577","660465","0.0-1.0-814.0","0","0","34344","","null","","","null","90","","NaN","","","","","","","","","","","","","",""
"","response","","html-keyboard-response","578","660638","0.0-1.0-815.0-0.0","0","0","34344","","171","","","75","90","","","2","90","training","adjacent","GF","7","6","P.jpg","R.jpg","0","0","1","",""
"","feedback","","html-keyboard-response","579","661641","0.0-1.0-816.0-0.0","0","0","34344","","null","","","null","90","","","","","","","","","","","","","","","",""
"","ITI","","html-keyboard-response","580","662644","0.0-1.0-819.0","0","0","34344","","null","","","null","90","","","","","","","","","","","","","","","NaN",""
"","S1","","html-keyboard-response","581","662896","0.0-1.0-821.0","0","0","34344","","null","","","null","91","","","","","","","","","","","","","","","",""
"","ISI","","html-keyboard-response","582","664898","0.0-1.0-822.0","0","0","34344","","null","","","null","91","NaN","","","","","","","","","","","","","","",""
