"success","ttype","start_time","trial_type","trial_index","time_elapsed","internal_node_id","warning","missed_checkup","PID","view_history","rt","responses","repeat_instructions","key_press","index","keypress_isi","keypress_S2","block","trial_num","phase","group_type","pair_type","S1_stim","S2_stim","S1_img","S2_img","S1_chosen","S1_higher","accuracy","keypress_iti","total_bonus_tally"
"true","full_screen","d04062023hr2104","fullscreen","0","8326","0.0-0.0","0","0","70907","","","","","","","","","","","","","","","","","","","","","",""
"","instructions","","instructions","1","34319","0.0-1.0-0.0-0.0","0","0","70907","[{""page_index"":0,""viewing_time"":4156},{""page_index"":1,""viewing_time"":13191},{""page_index"":2,""viewing_time"":7136},{""page_index"":3,""viewing_time"":1506}]","25989","","","","","","","","","","","","","","","","","","","",""
"","comprehension_check","","survey-multi-choice","2","49574","0.0-1.0-0.0-1.0","0","0","70907","","15247","{""Q0"":""True"",""Q1"":""K"",""Q2"":""Once the second image appears and while the screen 'MAKE A CHOICE' is shown"",""Q3"":""Green mark"",""Q4"":""either D or K""}","0","","","","","","","","","","","","","","","","","",""
"","start_exp","","html-keyboard-response","3","51195","0.0-1.0-1.0","0","0","70907","","1617","","","32","","","","","","","","","","","","","","","","",""
"","S1","","html-keyboard-response","4","51364","0.0-1.0-2.0","0","0","70907","","null","","","null","0","","","","","","","","","","","","","","","",""
"","ISI","","html-keyboard-response","5","53370","0.0-1.0-3.0","0","0","70907","","null","","","null","0","NaN","","","","","","","","","","","","","","",""
"","S2","","html-keyboard-response","6","53531","0.0-1.0-4.0","0","0","70907","","null","","","null","0","","NaN","","","","","","","","","","","","","",""
"","response","","html-keyboard-response","7","54141","0.0-1.0-5.0-0.0","0","0","70907","","607","","","75","0","","","1","0","training","adjacent","GF","7","6","R.jpg","N.jpg","1","0","0","",""
"","feedback","","html-keyboard-response","8","55159","0.0-1.0-6.0-0.0","0","0","70907","","null","","","null","0","","","","","","","","","","","","","","","",""
"","time_out","","html-keyboard-response","9","57165","0.0-1.0-8.0-0.0","0","0","70907","","null","","","null","0","","","","","","","","","","","","","","","",""
"","ITI","","html-keyboard-response","10","58168","0.0-1.0-9.0","0","0","70907","","null","","","null","0","","","","","","","","","","","","","","","NaN",""
"","S1","","html-keyboard-response","11","58331","0.0-1.0-11.0","0","0","70907","","null","","","null","1","","","","","","","","","","","","","","","",""
"","ISI","","html-keyboard-response","12","60337","0.0-1.0-12.0","0","0","70907","","null","","","null","1","NaN","","","","","","","","","","","","","","",""
"","S2","","html-keyboard-response","13","60491","0.0-1.0-13.0","0","0","70907","","null","","","null","1","","NaN","","","","","","","","","","","","","",""
"","response","","html-keyboard-response","14","61343","0.0-1.0-14.0-0.0","0","0","70907","","849","","","68","1","","","1","1","training","adjacent","FE","6","5","N.jpg","P.jpg","0","0","1","",""
"","feedback","","html-keyboard-response","15","62359","0.0-1.0-15.0-0.0","0","0","70907","","null","","","null","1","","","","","","","","","","","","","","","",""
"","ITI","","html-keyboard-response","16","63383","0.0-1.0-18.0","0","0","70907","","null","","","null","1","","","","","","","","","","","","","","","NaN",""
"","S1","","html-keyboard-response","17","63548","0.0-1.0-20.0","0","0","70907","","null","","","null","2","","","","","","","","","","","","","","","",""
"","ISI","","html-keyboard-response","18","65552","0.0-1.0-21.0","0","0","70907","","null","","","null","2","NaN","","","","","","","","","","","","","","",""
"","S2","","html-keyboard-response","19","65706","0.0-1.0-22.0","0","0","70907","","null","","","null","2","","NaN","","","","","","","","","","","","","",""
"","response","","html-keyboard-response","20","66905","0.0-1.0-23.0-0.0","0","0","70907","","1197","","","68","2","","","1","2","training","adjacent","AB","1","2","Q.jpg","L.jpg","0","1","0","",""
"","feedback","","html-keyboard-response","21","67912","0.0-1.0-24.0-0.0","0","0","70907","","null","","","null","2","","","","","","","","","","","","","","","",""
"","time_out","","html-keyboard-response","22","69918","0.0-1.0-26.0-0.0","0","0","70907","","null","","","null","2","","","","","","","","","","","","","","","",""
"","ITI","","html-keyboard-response","23","70920","0.0-1.0-27.0","0","0","70907","","null","","","null","2","","","","","","","","","","","","","","","NaN",""
"","S1","","html-keyboard-response","24","71086","0.0-1.0-29.0","0","0","70907","","null","","","null","3","","","","","","","","","","","","","","","",""
"","ISI","","html-keyboard-response","25","73088","0.0-1.0-30.0","0","0","70907","","null","","","null","3","NaN","","","","","","","","","","","","","","",""
"","S2","","html-keyboard-response","26","73243","0.0-1.0-31.0","0","0","70907","","null","","","null","3","","NaN","","","","","","","","","","","","","",""
"","response","","html-keyboard-response","27","74232","0.0-1.0-32.0-0.0","0","0","70907","","988","","","68","3","","","1","3","training","adjacent","DE","4","5","O.jpg","P.jpg","0","1","0","",""
"","feedback","","html-keyboard-response","28","75249","0.0-1.0-33.0-0.0","0","0","70907","","null","","","null","3","","","","","","","","","","","","","","","",""
"","time_out","","html-keyboard-response","29","77255","0.0-1.0-35.0-0.0","0","0","70907","","null","","","null","3","","","","","","","","","","","","","","","",""
"","ITI","","html-keyboard-response","30","78273","0.0-1.0-36.0","0","0","70907","","null","","","null","3","","","","","","","","","","","","","","","NaN",""
"","S1","","html-keyboard-response","31","78427","0.0-1.0-38.0","0","0","70907","","null","","","null","4","","","","","","","","","","","","","","","",""
"","ISI","","html-keyboard-response","32","80433","0.0-1.0-39.0","0","0","70907","","null","","","null","4","NaN","","","","","","","","","","","","","","",""
"","S2","","html-keyboard-response","33","80596","0.0-1.0-40.0","0","0","70907","","null","","","null","4","","NaN","","","","","","","","","","","","","",""
"","response","","html-keyboard-response","34","80955","0.0-1.0-41.0-0.0","0","0","70907","","355","","","68","4","","","1","4","training","adjacent","ED","5","4","P.jpg","O.jpg","0","0","1","",""
"","feedback","","html-keyboard-response","35","81969","0.0-1.0-42.0-0.0","0","0","70907","","null","","","null","4","","","","","","","","","","","","","","","",""
"","ITI","","html-keyboard-response","36","82972","0.0-1.0-45.0","0","0","70907","","null","","","null","4","","","","","","","","","","","","","","","NaN",""
"","S1","","html-keyboard-response","37","83140","0.0-1.0-47.0","0","0","70907","","null","","","null","5","","","","","","","","","","","","","","","",""
"","ISI","","html-keyboard-response","38","85147","0.0-1.0-48.0","0","0","70907","","null","","","null","5","NaN","","","","","","","","","","","","","","",""
"","S2","","html-keyboard-response","39","85308","0.0-1.0-49.0","0","0","70907","","null","","","null","5","","NaN","","","","","","","","","","","","","",""
"","response","","html-keyboard-response","40","85455","0.0-1.0-50.0-0.0","0","0","70907","","143","","","68","5","","","1","5","training","adjacent","EF","5","6","P.jpg","N.jpg","0","1","0","",""
"","feedback","","html-keyboard-response","41","86466","0.0-1.0-51.0-0.0","0","0","70907","","null","","","null","5","","","","","","","","","","","","","","","",""
"","time_out","","html-keyboard-response","42","88473","0.0-1.0-53.0-0.0","0","0","70907","","null","","","null","5","","","","","","","","","","","","","","","",""
"","ITI","","html-keyboard-response","43","89492","0.0-1.0-54.0","0","0","70907","","null","","","null","5","","","","","","","","","","","","","","","NaN",""
"","S1","","html-keyboard-response","44","89659","0.0-1.0-56.0","0","0","70907","","null","","","null","6","","","","","","","","","","","","","","","",""
"","ISI","","html-keyboard-response","45","91666","0.0-1.0-57.0","0","0","70907","","null","","","null","6","NaN","","","","","","","","","","","","","","",""
"","S2","","html-keyboard-response","46","91828","0.0-1.0-58.0","0","0","70907","","null","","","null","6","","NaN","","","","","","","","","","","","","",""
"","response","","html-keyboard-response","47","92707","0.0-1.0-59.0-0.0","0","0","70907","","877","","","75","6","","","1","6","training","adjacent","AB","1","2","Q.jpg","L.jpg","1","1","1","",""
"","feedback","","html-keyboard-response","48","93718","0.0-1.0-60.0-0.0","0","0","70907","","null","","","null","6","","","","","","","","","","","","","","","",""
"","ITI","","html-keyboard-response","49","94721","0.0-1.0-63.0","0","0","70907","","null","","","null","6","","","","","","","","","","","","","","","NaN",""
"","S1","","html-keyboard-response","50","94876","0.0-1.0-65.0","0","0","70907","","null","","","null","7","","","","","","","","","","","","","","","",""
"","ISI","","html-keyboard-response","51","96880","0.0-1.0-66.0","0","0","70907","","null","","","null","7","NaN","","","","","","","","","","","","","","",""
"","S2","","html-keyboard-response","52","97043","0.0-1.0-67.0","0","0","70907","","null","","","null","7","","NaN","","","","","","","","","","","","","",""
"","response","","html-keyboard-response","53","97332","0.0-1.0-68.0-0.0","0","0","70907","","287","","","75","7","","","1","7","training","adjacent","BA","2","1","L.jpg","Q.jpg","1","0","0","",""
"","feedback","","html-keyboard-response","54","98345","0.0-1.0-69.0-0.0","0","0","70907","","null","","","null","7","","","","","","","","","","","","","","","",""
"","time_out","","html-keyboard-response","55","100351","0.0-1.0-71.0-0.0","0","0","70907","","null","","","null","7","","","","","","","","","","","","","","","",""
"","ITI","","html-keyboard-response","56","101370","0.0-1.0-72.0","0","0","70907","","null","","","null","7","","","","","","","","","","","","","","","NaN",""
"","S1","","html-keyboard-response","57","101522","0.0-1.0-74.0","0","0","70907","","null","","","null","8","","","","","","","","","","","","","","","",""
"","ISI","","html-keyboard-response","58","103529","0.0-1.0-75.0","0","0","70907","","null","","","null","8","NaN","","","","","","","","","","","","","","",""
"","S2","","html-keyboard-response","59","103697","0.0-1.0-76.0","0","0","70907","","null","","","null","8","","NaN","","","","","","","","","","","","","",""
"","response","","html-keyboard-response","60","104136","0.0-1.0-77.0-0.0","0","0","70907","","436","","","68","8","","","1","8","training","adjacent","BA","2","1","L.jpg","Q.jpg","0","0","1","",""
"","feedback","","html-keyboard-response","61","105149","0.0-1.0-78.0-0.0","0","0","70907","","null","","","null","8","","","","","","","","","","","","","","","",""
"","ITI","","html-keyboard-response","62","106166","0.0-1.0-81.0","0","0","70907","","null","","","null","8","","","","","","","","","","","","","","","NaN",""
"","S1","","html-keyboard-response","63","106320","0.0-1.0-83.0","0","0","70907","","null","","","null","9","","","","","","","","","","","","","","","",""
"","ISI","","html-keyboard-response","64","108326","0.0-1.0-84.0","0","0","70907","","null","","","null","9","NaN","","","","","","","","","","","","","","",""
"","S2","","html-keyboard-response","65","108488","0.0-1.0-85.0","0","0","70907","","null","","","null","9","","NaN","","","","","","","","","","","","","",""
"","response","","html-keyboard-response","66","108731","0.0-1.0-86.0-0.0","0","0","70907","","240","","","68","9","","","1","9","training","adjacent","ED","5","4","P.jpg","O.jpg","0","0","1","",""
"","feedback","","html-keyboard-response","67","109745","0.0-1.0-87.0-0.0","0","0","70907","","null","","","null","9","","","","","","","","","","","","","","","",""
"","ITI","","html-keyboard-response","68","110762","0.0-1.0-90.0","0","0","70907","","null","","","null","9","","","","","","","","","","","","","","","NaN",""
"","S1","","html-keyboard-response","69","110916","0.0-1.0-92.0","0","0","70907","","null","","","null","10","","","","","","","","","","","","","","","",""
"","ISI","","html-keyboard-response","70","112920","0.0-1.0-93.0","0","0","70907","","null","","","null","10","NaN","","","","","","","","","","","","","","",""
"","S2","","html-keyboard-response","71","113085","0.0-1.0-94.0","0","0","70907","","null","","","null","10","","NaN","","","","","","","","","","","","","",""
"","response","","html-keyboard-response","72","113334","0.0-1.0-95.0-0.0","0","0","70907","","245","","","68","10","","","1","10","training","adjacent","GF","7","6","R.jpg","N.jpg","0","0","1","",""
"","feedback","","html-keyboard-response","73","114339","0.0-1.0-96.0-0.0","0","0","70907","","null","","","null","10","","","","","","","","","","","","","","","",""
"","ITI","","html-keyboard-response","74","115356","0.0-1.0-99.0","0","0","70907","","null","","","null","10","","","","","","","","","","","","","","","NaN",""
"","S1","","html-keyboard-response","75","115509","0.0-1.0-101.0","0","0","70907","","null","","","null","11","","","","","","","","","","","","","","","",""
"","ISI","","html-keyboard-response","76","117531","0.0-1.0-102.0","0","0","70907","","null","","","null","11","NaN","","","","","","","","","","","","","","",""
"","S2","","html-keyboard-response","77","117694","0.0-1.0-103.0","0","0","70907","","null","","","null","11","","NaN","","","","","","","","","","","","","",""
"","response","","html-keyboard-response","78","118108","0.0-1.0-104.0-0.0","0","0","70907","","410","","","75","11","","","1","11","training","adjacent","CB","3","2","M.jpg","L.jpg","1","0","0","",""
"","feedback","","html-keyboard-response","79","119112","0.0-1.0-105.0-0.0","0","0","70907","","null","","","null","11","","","","","","","","","","","","","","","",""
"","time_out","","html-keyboard-response","80","121120","0.0-1.0-107.0-0.0","0","0","70907","","null","","","null","11","","","","","","","","","","","","","","","",""
"","ITI","","html-keyboard-response","81","122145","0.0-1.0-108.0","0","0","70907","","null","","","null","11","","","","","","","","","","","","","","","NaN",""
"","S1","","html-keyboard-response","82","122306","0.0-1.0-110.0","0","0","70907","","null","","","null","12","","","","","","","","","","","","","","","",""
"","ISI","","html-keyboard-response","83","124313","0.0-1.0-111.0","0","0","70907","","null","","","null","12","NaN","","","","","","","","","","","","","","",""
"","S2","","html-keyboard-response","84","124466","0.0-1.0-112.0","0","0","70907","","null","","","null","12","","NaN","","","","","","","","","","","","","",""
"","response","","html-keyboard-response","85","124776","0.0-1.0-113.0-0.0","0","0","70907","","308","","","75","12","","","1","12","training","adjacent","DE","4","5","O.jpg","P.jpg","1","1","1","",""
"","feedback","","html-keyboard-response","86","125787","0.0-1.0-114.0-0.0","0","0","70907","","null","","","null","12","","","","","","","","","","","","","","","",""
"","ITI","","html-keyboard-response","87","126805","0.0-1.0-117.0","0","0","70907","","null","","","null","12","","","","","","","","","","","","","","","NaN",""
"","S1","","html-keyboard-response","88","126973","0.0-1.0-119.0","0","0","70907","","null","","","null","13","","","","","","","","","","","","","","","",""
"","ISI","","html-keyboard-response","89","128979","0.0-1.0-120.0","0","0","70907","","null","","","null","13","NaN","","","","","","","","","","","","","","",""
"","S2","","html-keyboard-response","90","129141","0.0-1.0-121.0","0","0","70907","","null","","","null","13","","NaN","","","","","","","","","","","","","",""
"","response","","html-keyboard-response","91","129634","0.0-1.0-122.0-0.0","0","0","70907","","490","","","75","13","","","1","13","training","adjacent","CD","3","4","M.jpg","O.jpg","1","1","1","",""
"","feedback","","html-keyboard-response","92","130648","0.0-1.0-123.0-0.0","0","0","70907","","null","","","null","13","","","","","","","","","","","","","","","",""
"","ITI","","html-keyboard-response","93","131656","0.0-1.0-126.0","0","0","70907","","null","","","null","13","","","","","","","","","","","","","","","NaN",""
"","S1","","html-keyboard-response","94","131818","0.0-1.0-128.0","0","0","70907","","null","","","null","14","","","","","","","","","","","","","","","",""
"","ISI","","html-keyboard-response","95","133825","0.0-1.0-129.0","0","0","70907","","null","","","null","14","NaN","","","","","","","","","","","","","","",""
"","S2","","html-keyboard-response","96","133992","0.0-1.0-130.0","0","0","70907","","null","","","null","14","","NaN","","","","","","","","","","","","","",""
"","response","","html-keyboard-response","97","134400","0.0-1.0-131.0-0.0","0","0","70907","","405","","","68","14","","","1","14","training","adjacent","CD","3","4","M.jpg","O.jpg","0","1","0","",""
"","feedback","","html-keyboard-response","98","135413","0.0-1.0-132.0-0.0","0","0","70907","","null","","","null","14","","","","","","","","","","","","","","","",""
"","time_out","","html-keyboard-response","99","137420","0.0-1.0-134.0-0.0","0","0","70907","","null","","","null","14","","","","","","","","","","","","","","","",""
"","ITI","","html-keyboard-response","100","138438","0.0-1.0-135.0","0","0","70907","","null","","","null","14","","","","","","","","","","","","","","","NaN",""
"","S1","","html-keyboard-response","101","138593","0.0-1.0-137.0","0","0","70907","","null","","","null","15","","","","","","","","","","","","","","","",""
"","ISI","","html-keyboard-response","102","140596","0.0-1.0-138.0","0","0","70907","","null","","","null","15","NaN","","","","","","","","","","","","","","",""
"","S2","","html-keyboard-response","103","140761","0.0-1.0-139.0","0","0","70907","","null","","","null","15","","NaN","","","","","","","","","","","","","",""
"","response","","html-keyboard-response","104","141131","0.0-1.0-140.0-0.0","0","0","70907","","368","","","75","15","","","1","15","training","adjacent","AB","1","2","Q.jpg","L.jpg","1","1","1","",""
"","feedback","","html-keyboard-response","105","142147","0.0-1.0-141.0-0.0","0","0","70907","","null","","","null","15","","","","","","","","","","","","","","","",""
"","ITI","","html-keyboard-response","106","143152","0.0-1.0-144.0","0","0","70907","","null","","","null","15","","","","","","","","","","","","","","","NaN",""
"","S1","","html-keyboard-response","107","143305","0.0-1.0-146.0","0","0","70907","","null","","","null","16","","","","","","","","","","","","","","","",""
"","ISI","","html-keyboard-response","108","145313","0.0-1.0-147.0","0","0","70907","","null","","","null","16","NaN","","","","","","","","","","","","","","",""
"","S2","","html-keyboard-response","109","145474","0.0-1.0-148.0","0","0","70907","","null","","","null","16","","NaN","","","","","","","","","","","","","",""
"","response","","html-keyboard-response","110","145729","0.0-1.0-149.0-0.0","0","0","70907","","254","","","75","16","","","1","16","training","adjacent","DE","4","5","O.jpg","P.jpg","1","1","1","",""
"","feedback","","html-keyboard-response","111","146747","0.0-1.0-150.0-0.0","0","0","70907","","null","","","null","16","","","","","","","","","","","","","","","",""
"","ITI","","html-keyboard-response","112","147749","0.0-1.0-153.0","0","0","70907","","null","","","null","16","","","","","","","","","","","","","","","NaN",""
"","S1","","html-keyboard-response","113","147919","0.0-1.0-155.0","0","0","70907","","null","","","null","17","","","","","","","","","","","","","","","",""
"","ISI","","html-keyboard-response","114","149926","0.0-1.0-156.0","0","0","70907","","null","","","null","17","NaN","","","","","","","","","","","","","","",""
"","S2","","html-keyboard-response","115","150087","0.0-1.0-157.0","0","0","70907","","null","","","null","17","","NaN","","","","","","","","","","","","","",""
"","response","","html-keyboard-response","116","150474","0.0-1.0-158.0-0.0","0","0","70907","","385","","","75","17","","","1","17","training","adjacent","FG","6","7","N.jpg","R.jpg","1","1","1","",""
"","feedback","","html-keyboard-response","117","151491","0.0-1.0-159.0-0.0","0","0","70907","","null","","","null","17","","","","","","","","","","","","","","","",""
"","ITI","","html-keyboard-response","118","152509","0.0-1.0-162.0","0","0","70907","","null","","","null","17","","","","","","","","","","","","","","","NaN",""
"","S1","","html-keyboard-response","119","152664","0.0-1.0-164.0","0","0","70907","","null","","","null","18","","","","","","","","","","","","","","","",""
"","ISI","","html-keyboard-response","120","154667","0.0-1.0-165.0","0","0","70907","","null","","","null","18","NaN","","","","","","","","","","","","","","",""
"","S2","","html-keyboard-response","121","154821","0.0-1.0-166.0","0","0","70907","","null","","","null","18","","NaN","","","","","","","","","","","","","",""
"","response","","html-keyboard-response","122","155067","0.0-1.0-167.0-0.0","0","0","70907","","244","","","68","18","","","1","18","training","adjacent","GF","7","6","R.jpg","N.jpg","0","0","1","",""
"","feedback","","html-keyboard-response","123","156072","0.0-1.0-168.0-0.0","0","0","70907","","null","","","null","18","","","","","","","","","","","","","","","",""
"","ITI","","html-keyboard-response","124","157075","0.0-1.0-171.0","0","0","70907","","null","","","null","18","","","","","","","","","","","","","","","NaN",""
"","S1","","html-keyboard-response","125","157244","0.0-1.0-173.0","0","0","70907","","null","","","null","19","","","","","","","","","","","","","","","",""
"","ISI","","html-keyboard-response","126","159249","0.0-1.0-174.0","0","0","70907","","null","","","null","19","NaN","","","","","","","","","","","","","","",""
"","S2","","html-keyboard-response","127","159416","0.0-1.0-175.0","0","0","70907","","null","","","null","19","","NaN","","","","","","","","","","","","","",""
"","response","","html-keyboard-response","128","159768","0.0-1.0-176.0-0.0","0","0","70907","","349","","","68","19","","","1","19","training","adjacent","EF","5","6","P.jpg","N.jpg","0","1","0","",""
"","feedback","","html-keyboard-response","129","160784","0.0-1.0-177.0-0.0","0","0","70907","","null","","","null","19","","","","","","","","","","","","","","","",""
"","time_out","","html-keyboard-response","130","162787","0.0-1.0-179.0-0.0","0","0","70907","","null","","","null","19","","","","","","","","","","","","","","","",""
"","ITI","","html-keyboard-response","131","163791","0.0-1.0-180.0","0","0","70907","","null","","","null","19","","","","","","","","","","","","","","","NaN",""
"","S1","","html-keyboard-response","132","163960","0.0-1.0-182.0","0","0","70907","","null","","","null","20","","","","","","","","","","","","","","","",""
"","ISI","","html-keyboard-response","133","165966","0.0-1.0-183.0","0","0","70907","","null","","","null","20","NaN","","","","","","","","","","","","","","",""
"","S2","","html-keyboard-response","134","166133","0.0-1.0-184.0","0","0","70907","","null","","","null","20","","NaN","","","","","","","","","","","","","",""
"","response","","html-keyboard-response","135","166740","0.0-1.0-185.0-0.0","0","0","70907","","605","","","75","20","","","1","20","training","adjacent","BC","2","3","L.jpg","M.jpg","1","1","1","",""
"","feedback","","html-keyboard-response","136","167747","0.0-1.0-186.0-0.0","0","0","70907","","null","","","null","20","","","","","","","","","","","","","","","",""
"","ITI","","html-keyboard-response","137","168751","0.0-1.0-189.0","0","0","70907","","null","","","null","20","","","","","","","","","","","","","","","NaN",""
"","S1","","html-keyboard-response","138","168920","0.0-1.0-191.0","0","0","70907","","null","","","null","21","","","","","","","","","","","","","","","",""
"","ISI","","html-keyboard-response","139","170923","0.0-1.0-192.0","0","0","70907","","null","","","null","21","NaN","","","","","","","","","","","","","","",""
"","S2","","html-keyboard-response","140","171079","0.0-1.0-193.0","0","0","70907","","null","","","null","21","","NaN","","","","","","","","","","","","","",""
"","response","","html-keyboard-response","141","171437","0.0-1.0-194.0-0.0","0","0","70907","","356","","","68","21","","","1","21","training","adjacent","CD","3","4","M.jpg","O.jpg","0","1","0","",""
"","feedback","","html-keyboard-response","142","172455","0.0-1.0-195.0-0.0","0","0","70907","","null","","","null","21","","","","","","","","","","","","","","","",""
"","time_out","","html-keyboard-response","143","174464","0.0-1.0-197.0-0.0","0","0","70907","","null","","","null","21","","","","","","","","","","","","","","","",""
"","ITI","","html-keyboard-response","144","175470","0.0-1.0-198.0","0","0","70907","","null","","","null","21","","","","","","","","","","","","","","","NaN",""
"","S1","","html-keyboard-response","145","175635","0.0-1.0-200.0","0","0","70907","","null","","","null","22","","","","","","","","","","","","","","","",""
"","ISI","","html-keyboard-response","146","177640","0.0-1.0-201.0","0","0","70907","","null","","","null","22","NaN","","","","","","","","","","","","","","",""
"","S2","","html-keyboard-response","147","177793","0.0-1.0-202.0","0","0","70907","","null","","","null","22","","NaN","","","","","","","","","","","","","",""
"","response","","html-keyboard-response","148","178094","0.0-1.0-203.0-0.0","0","0","70907","","299","","","68","22","","","1","22","training","adjacent","FG","6","7","N.jpg","R.jpg","0","1","0","",""
"","feedback","","html-keyboard-response","149","179110","0.0-1.0-204.0-0.0","0","0","70907","","null","","","null","22","","","","","","","","","","","","","","","",""
"","time_out","","html-keyboard-response","150","181117","0.0-1.0-206.0-0.0","0","0","70907","","null","","","null","22","","","","","","","","","","","","","","","",""
"","ITI","","html-keyboard-response","151","182134","0.0-1.0-207.0","0","0","70907","","null","","","null","22","","","","","","","","","","","","","","","NaN",""
"","S1","","html-keyboard-response","152","182303","0.0-1.0-209.0","0","0","70907","","null","","","null","23","","","","","","","","","","","","","","","",""
"","ISI","","html-keyboard-response","153","184309","0.0-1.0-210.0","0","0","70907","","null","","","null","23","NaN","","","","","","","","","","","","","","",""
"","S2","","html-keyboard-response","154","184471","0.0-1.0-211.0","0","0","70907","","null","","","null","23","","NaN","","","","","","","","","","","","","",""
"","response","","html-keyboard-response","155","185000","0.0-1.0-212.0-0.0","0","0","70907","","528","","","68","23","","","1","23","training","adjacent","CD","3","4","M.jpg","O.jpg","0","1","0","",""
"","feedback","","html-keyboard-response","156","186012","0.0-1.0-213.0-0.0","0","0","70907","","null","","","null","23","","","","","","","","","","","","","","","",""
"","time_out","","html-keyboard-response","157","188020","0.0-1.0-215.0-0.0","0","0","70907","","null","","","null","23","","","","","","","","","","","","","","","",""
"","ITI","","html-keyboard-response","158","189036","0.0-1.0-216.0","0","0","70907","","null","","","null","23","","","","","","","","","","","","","","","NaN",""
"","S1","","html-keyboard-response","159","189198","0.0-1.0-218.0","0","0","70907","","null","","","null","24","","","","","","","","","","","","","","","",""
"","ISI","","html-keyboard-response","160","191204","0.0-1.0-219.0","0","0","70907","","null","","","null","24","NaN","","","","","","","","","","","","","","",""
"","S2","","html-keyboard-response","161","191357","0.0-1.0-220.0","0","0","70907","","null","","","null","24","","NaN","","","","","","","","","","","","","",""
"","response","","html-keyboard-response","162","191747","0.0-1.0-221.0-0.0","0","0","70907","","387","","","75","24","","","1","24","training","adjacent","DC","4","3","O.jpg","M.jpg","1","0","0","",""
"","feedback","","html-keyboard-response","163","192762","0.0-1.0-222.0-0.0","0","0","70907","","null","","","null","24","","","","","","","","","","","","","","","",""
"","time_out","","html-keyboard-response","164","194766","0.0-1.0-224.0-0.0","0","0","70907","","null","","","null","24","","","","","","","","","","","","","","","",""
"","ITI","","html-keyboard-response","165","195767","0.0-1.0-225.0","0","0","70907","","null","","","null","24","","","","","","","","","","","","","","","NaN",""
"","S1","","html-keyboard-response","166","195937","0.0-1.0-227.0","0","0","70907","","null","","","null","25","","","","","","","","","","","","","","","",""
"","ISI","","html-keyboard-response","167","197943","0.0-1.0-228.0","0","0","70907","","null","","","null","25","NaN","","","","","","","","","","","","","","",""
"","S2","","html-keyboard-response","168","198105","0.0-1.0-229.0","0","0","70907","","null","","","null","25","","NaN","","","","","","","","","","","","","",""
"","response","","html-keyboard-response","169","198774","0.0-1.0-230.0-0.0","0","0","70907","","665","","","68","25","","","1","25","training","adjacent","DC","4","3","O.jpg","M.jpg","0","0","1","",""
"","feedback","","html-keyboard-response","170","199780","0.0-1.0-231.0-0.0","0","0","70907","","null","","","null","25","","","","","","","","","","","","","","","",""
"","ITI","","html-keyboard-response","171","200796","0.0-1.0-234.0","0","0","70907","","null","","","null","25","","","","","","","","","","","","","","","NaN",""
"","S1","","html-keyboard-response","172","200950","0.0-1.0-236.0","0","0","70907","","null","","","null","26","","","","","","","","","","","","","","","",""
"","ISI","","html-keyboard-response","173","202954","0.0-1.0-237.0","0","0","70907","","null","","","null","26","NaN","","","","","","","","","","","","","","",""
"","S2","","html-keyboard-response","174","203119","0.0-1.0-238.0","0","0","70907","","null","","","null","26","","NaN","","","","","","","","","","","","","",""
"","response","","html-keyboard-response","175","203677","0.0-1.0-239.0-0.0","0","0","70907","","556","","","75","26","","","1","26","training","adjacent","FE","6","5","N.jpg","P.jpg","1","0","0","",""
"","feedback","","html-keyboard-response","176","204691","0.0-1.0-240.0-0.0","0","0","70907","","null","","","null","26","","","","","","","","","","","","","","","",""
"","time_out","","html-keyboard-response","177","206694","0.0-1.0-242.0-0.0","0","0","70907","","null","","","null","26","","","","","","","","","","","","","","","",""
"","ITI","","html-keyboard-response","178","207712","0.0-1.0-243.0","0","0","70907","","null","","","null","26","","","","","","","","","","","","","","","NaN",""
"","S1","","html-keyboard-response","179","207867","0.0-1.0-245.0","0","0","70907","","null","","","null","27","","","","","","","","","","","","","","","",""
"","ISI","","html-keyboard-response","180","209871","0.0-1.0-246.0","0","0","70907","","null","","","null","27","NaN","","","","","","","","","","","","","","",""
"","S2","","html-keyboard-response","181","210036","0.0-1.0-247.0","0","0","70907","","null","","","null","27","","NaN","","","","","","","","","","","","","",""
"","response","","html-keyboard-response","182","210605","0.0-1.0-248.0-0.0","0","0","70907","","568","","","75","27","","","1","27","training","adjacent","FG","6","7","N.jpg","R.jpg","1","1","1","",""
"","feedback","","html-keyboard-response","183","211618","0.0-1.0-249.0-0.0","0","0","70907","","null","","","null","27","","","","","","","","","","","","","","","",""
"","ITI","","html-keyboard-response","184","212626","0.0-1.0-252.0","0","0","70907","","null","","","null","27","","","","","","","","","","","","","","","NaN",""
"","S1","","html-keyboard-response","185","212795","0.0-1.0-254.0","0","0","70907","","null","","","null","28","","","","","","","","","","","","","","","",""
"","ISI","","html-keyboard-response","186","214799","0.0-1.0-255.0","0","0","70907","","null","","","null","28","NaN","","","","","","","","","","","","","","",""
"","S2","","html-keyboard-response","187","214961","0.0-1.0-256.0","0","0","70907","","null","","","null","28","","NaN","","","","","","","","","","","","","",""
"","response","","html-keyboard-response","188","215551","0.0-1.0-257.0-0.0","0","0","70907","","587","","","75","28","","","1","28","training","adjacent","EF","5","6","P.jpg","N.jpg","1","1","1","",""
"","feedback","","html-keyboard-response","189","216567","0.0-1.0-258.0-0.0","0","0","70907","","null","","","null","28","","","","","","","","","","","","","","","",""
"","ITI","","html-keyboard-response","190","217591","0.0-1.0-261.0","0","0","70907","","null","","","null","28","","","","","","","","","","","","","","","NaN",""
"","S1","","html-keyboard-response","191","217755","0.0-1.0-263.0","0","0","70907","","null","","","null","29","","","","","","","","","","","","","","","",""
"","ISI","","html-keyboard-response","192","219759","0.0-1.0-264.0","0","0","70907","","null","","","null","29","NaN","","","","","","","","","","","","","","",""
"","S2","","html-keyboard-response","193","219914","0.0-1.0-265.0","0","0","70907","","null","","","null","29","","NaN","","","","","","","","","","","","","",""
"","response","","html-keyboard-response","194","220912","0.0-1.0-266.0-0.0","0","0","70907","","996","","","75","29","","","1","29","training","adjacent","CB","3","2","M.jpg","L.jpg","1","0","0","",""
"","feedback","","html-keyboard-response","195","221920","0.0-1.0-267.0-0.0","0","0","70907","","null","","","null","29","","","","","","","","","","","","","","","",""
"","time_out","","html-keyboard-response","196","223925","0.0-1.0-269.0-0.0","0","0","70907","","null","","","null","29","","","","","","","","","","","","","","","",""
"","ITI","","html-keyboard-response","197","224928","0.0-1.0-270.0","0","0","70907","","null","","","null","29","","","","","","","","","","","","","","","NaN",""
"","S1","","html-keyboard-response","198","225093","0.0-1.0-272.0","0","0","70907","","null","","","null","30","","","","","","","","","","","","","","","",""
"","ISI","","html-keyboard-response","199","227096","0.0-1.0-273.0","0","0","70907","","null","","","null","30","NaN","","","","","","","","","","","","","","",""
"","S2","","html-keyboard-response","200","227251","0.0-1.0-274.0","0","0","70907","","null","","","null","30","","NaN","","","","","","","","","","","","","",""
"","response","","html-keyboard-response","201","227927","0.0-1.0-275.0-0.0","0","0","70907","","673","","","75","30","","","1","30","training","adjacent","BA","2","1","L.jpg","Q.jpg","1","0","0","",""
"","feedback","","html-keyboard-response","202","228940","0.0-1.0-276.0-0.0","0","0","70907","","null","","","null","30","","","","","","","","","","","","","","","",""
"","time_out","","html-keyboard-response","203","230946","0.0-1.0-278.0-0.0","0","0","70907","","null","","","null","30","","","","","","","","","","","","","","","",""
"","ITI","","html-keyboard-response","204","231948","0.0-1.0-279.0","0","0","70907","","null","","","null","30","","","","","","","","","","","","","","","NaN",""
"","S1","","html-keyboard-response","205","232112","0.0-1.0-281.0","0","0","70907","","null","","","null","31","","","","","","","","","","","","","","","",""
"","ISI","","html-keyboard-response","206","234118","0.0-1.0-282.0","0","0","70907","","null","","","null","31","NaN","","","","","","","","","","","","","","",""
"","S2","","html-keyboard-response","207","234271","0.0-1.0-283.0","0","0","70907","","null","","","null","31","","NaN","","","","","","","","","","","","","",""
"","response","","html-keyboard-response","208","234607","0.0-1.0-284.0-0.0","0","0","70907","","334","","","68","31","","","1","31","training","adjacent","BA","2","1","L.jpg","Q.jpg","0","0","1","",""
"","feedback","","html-keyboard-response","209","235622","0.0-1.0-285.0-0.0","0","0","70907","","null","","","null","31","","","","","","","","","","","","","","","",""
"","ITI","","html-keyboard-response","210","236648","0.0-1.0-288.0","0","0","70907","","null","","","null","31","","","","","","","","","","","","","","","NaN",""
"","S1","","html-keyboard-response","211","236810","0.0-1.0-290.0","0","0","70907","","null","","","null","32","","","","","","","","","","","","","","","",""
"","ISI","","html-keyboard-response","212","238816","0.0-1.0-291.0","0","0","70907","","null","","","null","32","NaN","","","","","","","","","","","","","","",""
"","S2","","html-keyboard-response","213","238969","0.0-1.0-292.0","0","0","70907","","null","","","null","32","","NaN","","","","","","","","","","","","","",""
"","response","","html-keyboard-response","214","239812","0.0-1.0-293.0-0.0","0","0","70907","","841","","","75","32","","","1","32","training","adjacent","GF","7","6","R.jpg","N.jpg","1","0","0","",""
"","feedback","","html-keyboard-response","215","240822","0.0-1.0-294.0-0.0","0","0","70907","","null","","","null","32","","","","","","","","","","","","","","","",""
"","time_out","","html-keyboard-response","216","242828","0.0-1.0-296.0-0.0","0","0","70907","","null","","","null","32","","","","","","","","","","","","","","","",""
"","ITI","","html-keyboard-response","217","243846","0.0-1.0-297.0","0","0","70907","","null","","","null","32","","","","","","","","","","","","","","","NaN",""
"","S1","","html-keyboard-response","218","244002","0.0-1.0-299.0","0","0","70907","","null","","","null","33","","","","","","","","","","","","","","","",""
"","ISI","","html-keyboard-response","219","246006","0.0-1.0-300.0","0","0","70907","","null","","","null","33","NaN","","","","","","","","","","","","","","",""
"","S2","","html-keyboard-response","220","246176","0.0-1.0-301.0","0","0","70907","","null","","","null","33","","NaN","","","","","","","","","","","","","",""
"","response","","html-keyboard-response","221","247225","0.0-1.0-302.0-0.0","0","0","70907","","1046","","","75","33","","","1","33","training","adjacent","CB","3","2","M.jpg","L.jpg","1","0","0","",""
"","feedback","","html-keyboard-response","222","248228","0.0-1.0-303.0-0.0","0","0","70907","","null","","","null","33","","","","","","","","","","","","","","","",""
"","time_out","","html-keyboard-response","223","250235","0.0-1.0-305.0-0.0","0","0","70907","","null","","","null","33","","","","","","","","","","","","","","","",""
"","ITI","","html-keyboard-response","224","251252","0.0-1.0-306.0","0","0","70907","","null","","","null","33","","","","","","","","","","","","","","","NaN",""
"","S1","","html-keyboard-response","225","251406","0.0-1.0-308.0","0","0","70907","","null","","","null","34","","","","","","","","","","","","","","","",""
"","ISI","","html-keyboard-response","226","253412","0.0-1.0-309.0","0","0","70907","","null","","","null","34","NaN","","","","","","","","","","","","","","",""
"","S2","","html-keyboard-response","227","253575","0.0-1.0-310.0","0","0","70907","","null","","","null","34","","NaN","","","","","","","","","","","","","",""
"","response","","html-keyboard-response","228","254536","0.0-1.0-311.0-0.0","0","0","70907","","957","","","68","34","","","1","34","training","adjacent","FE","6","5","N.jpg","P.jpg","0","0","1","",""
"","feedback","","html-keyboard-response","229","255550","0.0-1.0-312.0-0.0","0","0","70907","","null","","","null","34","","","","","","","","","","","","","","","",""
"","ITI","","html-keyboard-response","230","256568","0.0-1.0-315.0","0","0","70907","","null","","","null","34","","","","","","","","","","","","","","","NaN",""
"","S1","","html-keyboard-response","231","256722","0.0-1.0-317.0","0","0","70907","","null","","","null","35","","","","","","","","","","","","","","","",""
"","ISI","","html-keyboard-response","232","258726","0.0-1.0-318.0","0","0","70907","","null","","","null","35","NaN","","","","","","","","","","","","","","",""
"","S2","","html-keyboard-response","233","258890","0.0-1.0-319.0","0","0","70907","","null","","","null","35","","NaN","","","","","","","","","","","","","",""
"","response","","html-keyboard-response","234","259722","0.0-1.0-320.0-0.0","0","0","70907","","829","","","75","35","","","1","35","training","adjacent","BC","2","3","L.jpg","M.jpg","1","1","1","",""
"","feedback","","html-keyboard-response","235","260733","0.0-1.0-321.0-0.0","0","0","70907","","null","","","null","35","","","","","","","","","","","","","","","",""
"","ITI","","html-keyboard-response","236","261750","0.0-1.0-324.0","0","0","70907","","null","","","null","35","","","","","","","","","","","","","","","NaN",""
"","S1","","html-keyboard-response","237","261922","0.0-1.0-326.0","0","0","70907","","null","","","null","36","","","","","","","","","","","","","","","",""
"","ISI","","html-keyboard-response","238","263925","0.0-1.0-327.0","0","0","70907","","null","","","null","36","NaN","","","","","","","","","","","","","","",""
"","S2","","html-keyboard-response","239","264089","0.0-1.0-328.0","0","0","70907","","null","","","null","36","","NaN","","","","","","","","","","","","","",""
"","response","","html-keyboard-response","240","265136","0.0-1.0-329.0-0.0","0","0","70907","","1046","","","68","36","","","1","36","training","adjacent","CB","3","2","M.jpg","L.jpg","0","0","1","",""
"","feedback","","html-keyboard-response","241","266145","0.0-1.0-330.0-0.0","0","0","70907","","null","","","null","36","","","","","","","","","","","","","","","",""
"","ITI","","html-keyboard-response","242","267164","0.0-1.0-333.0","0","0","70907","","null","","","null","36","","","","","","","","","","","","","","","NaN",""
"","S1","","html-keyboard-response","243","267333","0.0-1.0-335.0","0","0","70907","","null","","","null","37","","","","","","","","","","","","","","","",""
"","ISI","","html-keyboard-response","244","269337","0.0-1.0-336.0","0","0","70907","","null","","","null","37","NaN","","","","","","","","","","","","","","",""
"","S2","","html-keyboard-response","245","269500","0.0-1.0-337.0","0","0","70907","","null","","","null","37","","NaN","","","","","","","","","","","","","",""
"","response","","html-keyboard-response","246","270265","0.0-1.0-338.0-0.0","0","0","70907","","763","","","68","37","","","1","37","training","adjacent","FE","6","5","N.jpg","P.jpg","0","0","1","",""
"","feedback","","html-keyboard-response","247","271274","0.0-1.0-339.0-0.0","0","0","70907","","null","","","null","37","","","","","","","","","","","","","","","",""
"","ITI","","html-keyboard-response","248","272289","0.0-1.0-342.0","0","0","70907","","null","","","null","37","","","","","","","","","","","","","","","NaN",""
"","S1","","html-keyboard-response","249","272445","0.0-1.0-344.0","0","0","70907","","null","","","null","38","","","","","","","","","","","","","","","",""
"","ISI","","html-keyboard-response","250","274450","0.0-1.0-345.0","0","0","70907","","null","","","null","38","NaN","","","","","","","","","","","","","","",""
"","S2","","html-keyboard-response","251","274612","0.0-1.0-346.0","0","0","70907","","null","","","null","38","","NaN","","","","","","","","","","","","","",""
"","response","","html-keyboard-response","252","275001","0.0-1.0-347.0-0.0","0","0","70907","","387","","","75","38","","","1","38","training","adjacent","DE","4","5","O.jpg","P.jpg","1","1","1","",""
"","feedback","","html-keyboard-response","253","276016","0.0-1.0-348.0-0.0","0","0","70907","","null","","","null","38","","","","","","","","","","","","","","","",""
"","ITI","","html-keyboard-response","254","277019","0.0-1.0-351.0","0","0","70907","","null","","","null","38","","","","","","","","","","","","","","","NaN",""
"","S1","","html-keyboard-response","255","277173","0.0-1.0-353.0","0","0","70907","","null","","","null","39","","","","","","","","","","","","","","","",""
"","ISI","","html-keyboard-response","256","279179","0.0-1.0-354.0","0","0","70907","","null","","","null","39","NaN","","","","","","","","","","","","","","",""
"","S2","","html-keyboard-response","257","279342","0.0-1.0-355.0","0","0","70907","","null","","","null","39","","NaN","","","","","","","","","","","","","",""
"","response","","html-keyboard-response","258","280638","0.0-1.0-356.0-0.0","0","0","70907","","1294","","","68","39","","","1","39","training","adjacent","FG","6","7","N.jpg","R.jpg","0","1","0","",""
"","feedback","","html-keyboard-response","259","281648","0.0-1.0-357.0-0.0","0","0","70907","","null","","","null","39","","","","","","","","","","","","","","","",""
"","time_out","","html-keyboard-response","260","283650","0.0-1.0-359.0-0.0","0","0","70907","","null","","","null","39","","","","","","","","","","","","","","","",""
"","ITI","","html-keyboard-response","261","284653","0.0-1.0-360.0","0","0","70907","","null","","","null","39","","","","","","","","","","","","","","","NaN",""
"","S1","","html-keyboard-response","262","284807","0.0-1.0-362.0","0","0","70907","","null","","","null","40","","","","","","","","","","","","","","","",""
"","ISI","","html-keyboard-response","263","286814","0.0-1.0-363.0","0","0","70907","","null","","","null","40","NaN","","","","","","","","","","","","","","",""
"","S2","","html-keyboard-response","264","286982","0.0-1.0-364.0","0","0","70907","","null","","","null","40","","NaN","","","","","","","","","","","","","",""
"","response","","html-keyboard-response","265","288161","0.0-1.0-365.0-0.0","0","0","70907","","1177","","","68","40","","","1","40","training","adjacent","ED","5","4","P.jpg","O.jpg","0","0","1","",""
"","feedback","","html-keyboard-response","266","289165","0.0-1.0-366.0-0.0","0","0","70907","","null","","","null","40","","","","","","","","","","","","","","","",""
"","ITI","","html-keyboard-response","267","290188","0.0-1.0-369.0","0","0","70907","","null","","","null","40","","","","","","","","","","","","","","","NaN",""
"","S1","","html-keyboard-response","268","290352","0.0-1.0-371.0","0","0","70907","","null","","","null","41","","","","","","","","","","","","","","","",""
"","ISI","","html-keyboard-response","269","292357","0.0-1.0-372.0","0","0","70907","","null","","","null","41","NaN","","","","","","","","","","","","","","",""
"","S2","","html-keyboard-response","270","292510","0.0-1.0-373.0","0","0","70907","","null","","","null","41","","NaN","","","","","","","","","","","","","",""
"","response","","html-keyboard-response","271","293303","0.0-1.0-374.0-0.0","0","0","70907","","790","","","68","41","","","1","41","training","adjacent","DC","4","3","O.jpg","M.jpg","0","0","1","",""
"","feedback","","html-keyboard-response","272","294314","0.0-1.0-375.0-0.0","0","0","70907","","null","","","null","41","","","","","","","","","","","","","","","",""
"","ITI","","html-keyboard-response","273","295331","0.0-1.0-378.0","0","0","70907","","null","","","null","41","","","","","","","","","","","","","","","NaN",""
"","S1","","html-keyboard-response","274","295502","0.0-1.0-380.0","0","0","70907","","null","","","null","42","","","","","","","","","","","","","","","",""
"","ISI","","html-keyboard-response","275","297504","0.0-1.0-381.0","0","0","70907","","null","","","null","42","NaN","","","","","","","","","","","","","","",""
"","S2","","html-keyboard-response","276","297668","0.0-1.0-382.0","0","0","70907","","null","","","null","42","","NaN","","","","","","","","","","","","","",""
"","response","","html-keyboard-response","277","298642","0.0-1.0-383.0-0.0","0","0","70907","","971","","","75","42","","","1","42","training","adjacent","BC","2","3","L.jpg","M.jpg","1","1","1","",""
"","feedback","","html-keyboard-response","278","299657","0.0-1.0-384.0-0.0","0","0","70907","","null","","","null","42","","","","","","","","","","","","","","","",""
"","ITI","","html-keyboard-response","279","300675","0.0-1.0-387.0","0","0","70907","","null","","","null","42","","","","","","","","","","","","","","","NaN",""
"","S1","","html-keyboard-response","280","300829","0.0-1.0-389.0","0","0","70907","","null","","","null","43","","","","","","","","","","","","","","","",""
"","ISI","","html-keyboard-response","281","302833","0.0-1.0-390.0","0","0","70907","","null","","","null","43","NaN","","","","","","","","","","","","","","",""
"","S2","","html-keyboard-response","282","302995","0.0-1.0-391.0","0","0","70907","","null","","","null","43","","NaN","","","","","","","","","","","","","",""
"","response","","html-keyboard-response","283","303776","0.0-1.0-392.0-0.0","0","0","70907","","779","","","68","43","","","1","43","training","adjacent","DC","4","3","O.jpg","M.jpg","0","0","1","",""
"","feedback","","html-keyboard-response","284","304785","0.0-1.0-393.0-0.0","0","0","70907","","null","","","null","43","","","","","","","","","","","","","","","",""
"","ITI","","html-keyboard-response","285","305805","0.0-1.0-396.0","0","0","70907","","null","","","null","43","","","","","","","","","","","","","","","NaN",""
"","S1","","html-keyboard-response","286","305973","0.0-1.0-398.0","0","0","70907","","null","","","null","44","","","","","","","","","","","","","","","",""
"","ISI","","html-keyboard-response","287","307977","0.0-1.0-399.0","0","0","70907","","null","","","null","44","NaN","","","","","","","","","","","","","","",""
"","S2","","html-keyboard-response","288","308132","0.0-1.0-400.0","0","0","70907","","null","","","null","44","","NaN","","","","","","","","","","","","","",""
"","response","","html-keyboard-response","289","309347","0.0-1.0-401.0-0.0","0","0","70907","","1212","","","75","44","","","1","44","training","adjacent","BC","2","3","L.jpg","M.jpg","1","1","1","",""
"","feedback","","html-keyboard-response","290","310353","0.0-1.0-402.0-0.0","0","0","70907","","null","","","null","44","","","","","","","","","","","","","","","",""
"","ITI","","html-keyboard-response","291","311372","0.0-1.0-405.0","0","0","70907","","null","","","null","44","","","","","","","","","","","","","","","NaN",""
"","S1","","html-keyboard-response","292","311541","0.0-1.0-407.0","0","0","70907","","null","","","null","45","","","","","","","","","","","","","","","",""
"","ISI","","html-keyboard-response","293","313546","0.0-1.0-408.0","0","0","70907","","null","","","null","45","NaN","","","","","","","","","","","","","","",""
"","S2","","html-keyboard-response","294","313709","0.0-1.0-409.0","0","0","70907","","null","","","null","45","","NaN","","","","","","","","","","","","","",""
"","response","","html-keyboard-response","295","314735","0.0-1.0-410.0-0.0","0","0","70907","","1024","","","68","45","","","1","45","training","adjacent","EF","5","6","P.jpg","N.jpg","0","1","0","",""
"","feedback","","html-keyboard-response","296","315751","0.0-1.0-411.0-0.0","0","0","70907","","null","","","null","45","","","","","","","","","","","","","","","",""
"","time_out","","html-keyboard-response","297","317757","0.0-1.0-413.0-0.0","0","0","70907","","null","","","null","45","","","","","","","","","","","","","","","",""
"","ITI","","html-keyboard-response","298","318776","0.0-1.0-414.0","0","0","70907","","null","","","null","45","","","","","","","","","","","","","","","NaN",""
"","S1","","html-keyboard-response","299","318938","0.0-1.0-416.0","0","0","70907","","null","","","null","46","","","","","","","","","","","","","","","",""
"","ISI","","html-keyboard-response","300","320943","0.0-1.0-417.0","0","0","70907","","null","","","null","46","NaN","","","","","","","","","","","","","","",""
"","S2","","html-keyboard-response","301","321111","0.0-1.0-418.0","0","0","70907","","null","","","null","46","","NaN","","","","","","","","","","","","","",""
"","response","","html-keyboard-response","302","321824","0.0-1.0-419.0-0.0","0","0","70907","","711","","","68","46","","","1","46","training","adjacent","ED","5","4","P.jpg","O.jpg","0","0","1","",""
"","feedback","","html-keyboard-response","303","322831","0.0-1.0-420.0-0.0","0","0","70907","","null","","","null","46","","","","","","","","","","","","","","","",""
"","ITI","","html-keyboard-response","304","323841","0.0-1.0-423.0","0","0","70907","","null","","","null","46","","","","","","","","","","","","","","","NaN",""
"","S1","","html-keyboard-response","305","324002","0.0-1.0-425.0","0","0","70907","","null","","","null","47","","","","","","","","","","","","","","","",""
"","ISI","","html-keyboard-response","306","326008","0.0-1.0-426.0","0","0","70907","","null","","","null","47","NaN","","","","","","","","","","","","","","",""
"","S2","","html-keyboard-response","307","326179","0.0-1.0-427.0","0","0","70907","","null","","","null","47","","NaN","","","","","","","","","","","","","",""
"","response","","html-keyboard-response","308","326747","0.0-1.0-428.0-0.0","0","0","70907","","566","","","75","47","","","1","47","training","adjacent","AB","1","2","Q.jpg","L.jpg","1","1","1","",""
"","feedback","","html-keyboard-response","309","327759","0.0-1.0-429.0-0.0","0","0","70907","","null","","","null","47","","","","","","","","","","","","","","","",""
"","ITI","","html-keyboard-response","310","328763","0.0-1.0-432.0","0","0","70907","","null","","","null","47","","","","","","","","","","","","","","","NaN",""
"","block_over","","html-keyboard-response","311","332833","0.0-1.0-433.0-0.0","0","0","70907","","4068","","","32","47","","","","","","","","","","","","","","","",""
"","S1","","html-keyboard-response","312","332995","0.0-1.0-434.0","0","0","70907","","null","","","null","48","","","","","","","","","","","","","","","",""
"","ISI","","html-keyboard-response","313","334999","0.0-1.0-435.0","0","0","70907","","null","","","null","48","NaN","","","","","","","","","","","","","","",""
"","S2","","html-keyboard-response","314","335162","0.0-1.0-436.0","0","0","70907","","null","","","null","48","","NaN","","","","","","","","","","","","","",""
"","response","","html-keyboard-response","315","336189","0.0-1.0-437.0-0.0","0","0","70907","","1024","","","68","48","","","2","48","training","adjacent","DC","4","3","O.jpg","M.jpg","0","0","1","",""
"","feedback","","html-keyboard-response","316","337204","0.0-1.0-438.0-0.0","0","0","70907","","null","","","null","48","","","","","","","","","","","","","","","",""
"","ITI","","html-keyboard-response","317","338208","0.0-1.0-441.0","0","0","70907","","null","","","null","48","","","","","","","","","","","","","","","NaN",""
"","S1","","html-keyboard-response","318","338370","0.0-1.0-443.0","0","0","70907","","null","","","null","49","","","","","","","","","","","","","","","",""
"","ISI","","html-keyboard-response","319","340376","0.0-1.0-444.0","0","0","70907","","null","","","null","49","NaN","","","","","","","","","","","","","","",""
"","S2","","html-keyboard-response","320","340529","0.0-1.0-445.0","0","0","70907","","null","","","null","49","","NaN","","","","","","","","","","","","","",""
"","response","","html-keyboard-response","321","341271","0.0-1.0-446.0-0.0","0","0","70907","","739","","","75","49","","","2","49","training","adjacent","CD","3","4","M.jpg","O.jpg","1","1","1","",""
"","feedback","","html-keyboard-response","322","342280","0.0-1.0-447.0-0.0","0","0","70907","","null","","","null","49","","","","","","","","","","","","","","","",""
"","ITI","","html-keyboard-response","323","343299","0.0-1.0-450.0","0","0","70907","","null","","","null","49","","","","","","","","","","","","","","","NaN",""
"","S1","","html-keyboard-response","324","343452","0.0-1.0-452.0","0","0","70907","","null","","","null","50","","","","","","","","","","","","","","","",""
"","ISI","","html-keyboard-response","325","345456","0.0-1.0-453.0","0","0","70907","","null","","","null","50","NaN","","","","","","","","","","","","","","",""
"","S2","","html-keyboard-response","326","345610","0.0-1.0-454.0","0","0","70907","","null","","","null","50","","NaN","","","","","","","","","","","","","",""
"","response","","html-keyboard-response","327","346037","0.0-1.0-455.0-0.0","0","0","70907","","424","","","75","50","","","2","50","training","adjacent","AB","1","2","Q.jpg","L.jpg","1","1","1","",""
"","feedback","","html-keyboard-response","328","347045","0.0-1.0-456.0-0.0","0","0","70907","","null","","","null","50","","","","","","","","","","","","","","","",""
"","ITI","","html-keyboard-response","329","348064","0.0-1.0-459.0","0","0","70907","","null","","","null","50","","","","","","","","","","","","","","","NaN",""
"","S1","","html-keyboard-response","330","348233","0.0-1.0-461.0","0","0","70907","","null","","","null","51","","","","","","","","","","","","","","","",""
"","ISI","","html-keyboard-response","331","350238","0.0-1.0-462.0","0","0","70907","","null","","","null","51","NaN","","","","","","","","","","","","","","",""
"","S2","","html-keyboard-response","332","350400","0.0-1.0-463.0","0","0","70907","","null","","","null","51","","NaN","","","","","","","","","","","","","",""
"","response","","html-keyboard-response","333","351087","0.0-1.0-464.0-0.0","0","0","70907","","683","","","68","51","","","2","51","training","adjacent","GF","7","6","R.jpg","N.jpg","0","0","1","",""
"","feedback","","html-keyboard-response","334","352105","0.0-1.0-465.0-0.0","0","0","70907","","null","","","null","51","","","","","","","","","","","","","","","",""
"","ITI","","html-keyboard-response","335","353120","0.0-1.0-468.0","0","0","70907","","null","","","null","51","","","","","","","","","","","","","","","NaN",""
"","S1","","html-keyboard-response","336","353275","0.0-1.0-470.0","0","0","70907","","null","","","null","52","","","","","","","","","","","","","","","",""
"","ISI","","html-keyboard-response","337","355280","0.0-1.0-471.0","0","0","70907","","null","","","null","52","NaN","","","","","","","","","","","","","","",""
"","S2","","html-keyboard-response","338","355449","0.0-1.0-472.0","0","0","70907","","null","","","null","52","","NaN","","","","","","","","","","","","","",""
"","response","","html-keyboard-response","339","356295","0.0-1.0-473.0-0.0","0","0","70907","","843","","","68","52","","","2","52","training","adjacent","FE","6","5","N.jpg","P.jpg","0","0","1","",""
"","feedback","","html-keyboard-response","340","357301","0.0-1.0-474.0-0.0","0","0","70907","","null","","","null","52","","","","","","","","","","","","","","","",""
"","ITI","","html-keyboard-response","341","358319","0.0-1.0-477.0","0","0","70907","","null","","","null","52","","","","","","","","","","","","","","","NaN",""
"","S1","","html-keyboard-response","342","358474","0.0-1.0-479.0","0","0","70907","","null","","","null","53","","","","","","","","","","","","","","","",""
"","ISI","","html-keyboard-response","343","360478","0.0-1.0-480.0","0","0","70907","","null","","","null","53","NaN","","","","","","","","","","","","","","",""
"","S2","","html-keyboard-response","344","360642","0.0-1.0-481.0","0","0","70907","","null","","","null","53","","NaN","","","","","","","","","","","","","",""
"","response","","html-keyboard-response","345","361939","0.0-1.0-482.0-0.0","0","0","70907","","1294","","","75","53","","","2","53","training","adjacent","CD","3","4","M.jpg","O.jpg","1","1","1","",""
"","feedback","","html-keyboard-response","346","362949","0.0-1.0-483.0-0.0","0","0","70907","","null","","","null","53","","","","","","","","","","","","","","","",""
"","ITI","","html-keyboard-response","347","363951","0.0-1.0-486.0","0","0","70907","","null","","","null","53","","","","","","","","","","","","","","","NaN",""
"","S1","","html-keyboard-response","348","364105","0.0-1.0-488.0","0","0","70907","","null","","","null","54","","","","","","","","","","","","","","","",""
"","ISI","","html-keyboard-response","349","366113","0.0-1.0-489.0","0","0","70907","","null","","","null","54","NaN","","","","","","","","","","","","","","",""
"","S2","","html-keyboard-response","350","366281","0.0-1.0-490.0","0","0","70907","","null","","","null","54","","NaN","","","","","","","","","","","","","",""
"","response","","html-keyboard-response","351","367273","0.0-1.0-491.0-0.0","0","0","70907","","990","","","75","54","","","2","54","training","adjacent","EF","5","6","P.jpg","N.jpg","1","1","1","",""
"","feedback","","html-keyboard-response","352","368287","0.0-1.0-492.0-0.0","0","0","70907","","null","","","null","54","","","","","","","","","","","","","","","",""
"","ITI","","html-keyboard-response","353","369305","0.0-1.0-495.0","0","0","70907","","null","","","null","54","","","","","","","","","","","","","","","NaN",""
"","S1","","html-keyboard-response","354","369467","0.0-1.0-497.0","0","0","70907","","null","","","null","55","","","","","","","","","","","","","","","",""
"","ISI","","html-keyboard-response","355","371474","0.0-1.0-498.0","0","0","70907","","null","","","null","55","NaN","","","","","","","","","","","","","","",""
"","S2","","html-keyboard-response","356","371629","0.0-1.0-499.0","0","0","70907","","null","","","null","55","","NaN","","","","","","","","","","","","","",""
"","response","","html-keyboard-response","357","372840","0.0-1.0-500.0-0.0","0","0","70907","","1210","","","68","55","","","2","55","training","adjacent","CB","3","2","M.jpg","L.jpg","0","0","1","",""
"","feedback","","html-keyboard-response","358","373849","0.0-1.0-501.0-0.0","0","0","70907","","null","","","null","55","","","","","","","","","","","","","","","",""
"","ITI","","html-keyboard-response","359","374867","0.0-1.0-504.0","0","0","70907","","null","","","null","55","","","","","","","","","","","","","","","NaN",""
"","S1","","html-keyboard-response","360","375021","0.0-1.0-506.0","0","0","70907","","null","","","null","56","","","","","","","","","","","","","","","",""
"","ISI","","html-keyboard-response","361","377025","0.0-1.0-507.0","0","0","70907","","null","","","null","56","NaN","","","","","","","","","","","","","","",""
"","S2","","html-keyboard-response","362","377188","0.0-1.0-508.0","0","0","70907","","null","","","null","56","","NaN","","","","","","","","","","","","","",""
"","response","","html-keyboard-response","363","378976","0.0-1.0-509.0-0.0","0","0","70907","","1785","","","68","56","","","2","56","training","adjacent","CB","3","2","M.jpg","L.jpg","0","0","1","",""
"","feedback","","html-keyboard-response","364","379979","0.0-1.0-510.0-0.0","0","0","70907","","null","","","null","56","","","","","","","","","","","","","","","",""
"","ITI","","html-keyboard-response","365","380986","0.0-1.0-513.0","0","0","70907","","null","","","null","56","","","","","","","","","","","","","","","NaN",""
"","S1","","html-keyboard-response","366","381152","0.0-1.0-515.0","0","0","70907","","null","","","null","57","","","","","","","","","","","","","","","",""
"","ISI","","html-keyboard-response","367","383158","0.0-1.0-516.0","0","0","70907","","null","","","null","57","NaN","","","","","","","","","","","","","","",""
"","S2","","html-keyboard-response","368","383326","0.0-1.0-517.0","0","0","70907","","null","","","null","57","","NaN","","","","","","","","","","","","","",""
"","response","","html-keyboard-response","369","384168","0.0-1.0-518.0-0.0","0","0","70907","","838","","","68","57","","","2","57","training","adjacent","GF","7","6","R.jpg","N.jpg","0","0","1","",""
"","feedback","","html-keyboard-response","370","385178","0.0-1.0-519.0-0.0","0","0","70907","","null","","","null","57","","","","","","","","","","","","","","","",""
"","ITI","","html-keyboard-response","371","386196","0.0-1.0-522.0","0","0","70907","","null","","","null","57","","","","","","","","","","","","","","","NaN",""
"","S1","","html-keyboard-response","372","386349","0.0-1.0-524.0","0","0","70907","","null","","","null","58","","","","","","","","","","","","","","","",""
"","ISI","","html-keyboard-response","373","388353","0.0-1.0-525.0","0","0","70907","","null","","","null","58","NaN","","","","","","","","","","","","","","",""
"","S2","","html-keyboard-response","374","388517","0.0-1.0-526.0","0","0","70907","","null","","","null","58","","NaN","","","","","","","","","","","","","",""
"","response","","html-keyboard-response","375","389250","0.0-1.0-527.0-0.0","0","0","70907","","732","","","68","58","","","2","58","training","adjacent","DC","4","3","O.jpg","M.jpg","0","0","1","",""
"","feedback","","html-keyboard-response","376","390258","0.0-1.0-528.0-0.0","0","0","70907","","null","","","null","58","","","","","","","","","","","","","","","",""
"","ITI","","html-keyboard-response","377","391263","0.0-1.0-531.0","0","0","70907","","null","","","null","58","","","","","","","","","","","","","","","NaN",""
"","S1","","html-keyboard-response","378","391422","0.0-1.0-533.0","0","0","70907","","null","","","null","59","","","","","","","","","","","","","","","",""
"","ISI","","html-keyboard-response","379","393427","0.0-1.0-534.0","0","0","70907","","null","","","null","59","NaN","","","","","","","","","","","","","","",""
"","S2","","html-keyboard-response","380","393582","0.0-1.0-535.0","0","0","70907","","null","","","null","59","","NaN","","","","","","","","","","","","","",""
"","response","","html-keyboard-response","381","394040","0.0-1.0-536.0-0.0","0","0","70907","","456","","","68","59","","","2","59","training","adjacent","ED","5","4","P.jpg","O.jpg","0","0","1","",""
"","feedback","","html-keyboard-response","382","395054","0.0-1.0-537.0-0.0","0","0","70907","","null","","","null","59","","","","","","","","","","","","","","","",""
"","ITI","","html-keyboard-response","383","396072","0.0-1.0-540.0","0","0","70907","","null","","","null","59","","","","","","","","","","","","","","","NaN",""
"","S1","","html-keyboard-response","384","396238","0.0-1.0-542.0","0","0","70907","","null","","","null","60","","","","","","","","","","","","","","","",""
"","ISI","","html-keyboard-response","385","398263","0.0-1.0-543.0","0","0","70907","","null","","","null","60","NaN","","","","","","","","","","","","","","",""
"","S2","","html-keyboard-response","386","398424","0.0-1.0-544.0","0","0","70907","","null","","","null","60","","NaN","","","","","","","","","","","","","",""
"","response","","html-keyboard-response","387","399193","0.0-1.0-545.0-0.0","0","0","70907","","766","","","68","60","","","2","60","training","adjacent","BA","2","1","L.jpg","Q.jpg","0","0","1","",""
"","feedback","","html-keyboard-response","388","400198","0.0-1.0-546.0-0.0","0","0","70907","","null","","","null","60","","","","","","","","","","","","","","","",""
"","ITI","","html-keyboard-response","389","401216","0.0-1.0-549.0","0","0","70907","","null","","","null","60","","","","","","","","","","","","","","","NaN",""
"","S1","","html-keyboard-response","390","401370","0.0-1.0-551.0","0","0","70907","","null","","","null","61","","","","","","","","","","","","","","","",""
"","ISI","","html-keyboard-response","391","403375","0.0-1.0-552.0","0","0","70907","","null","","","null","61","NaN","","","","","","","","","","","","","","",""
"","S2","","html-keyboard-response","392","403537","0.0-1.0-553.0","0","0","70907","","null","","","null","61","","NaN","","","","","","","","","","","","","",""
"","response","","html-keyboard-response","393","404522","0.0-1.0-554.0-0.0","0","0","70907","","983","","","68","61","","","2","61","training","adjacent","CB","3","2","M.jpg","L.jpg","0","0","1","",""
"","feedback","","html-keyboard-response","394","405527","0.0-1.0-555.0-0.0","0","0","70907","","null","","","null","61","","","","","","","","","","","","","","","",""
"","ITI","","html-keyboard-response","395","406530","0.0-1.0-558.0","0","0","70907","","null","","","null","61","","","","","","","","","","","","","","","NaN",""
"","S1","","html-keyboard-response","396","406683","0.0-1.0-560.0","0","0","70907","","null","","","null","62","","","","","","","","","","","","","","","",""
"","ISI","","html-keyboard-response","397","408689","0.0-1.0-561.0","0","0","70907","","null","","","null","62","NaN","","","","","","","","","","","","","","",""
"","S2","","html-keyboard-response","398","408852","0.0-1.0-562.0","0","0","70907","","null","","","null","62","","NaN","","","","","","","","","","","","","",""
"","response","","html-keyboard-response","399","409537","0.0-1.0-563.0-0.0","0","0","70907","","681","","","68","62","","","2","62","training","adjacent","DC","4","3","O.jpg","M.jpg","0","0","1","",""
"","feedback","","html-keyboard-response","400","410541","0.0-1.0-564.0-0.0","0","0","70907","","null","","","null","62","","","","","","","","","","","","","","","",""
"","ITI","","html-keyboard-response","401","411559","0.0-1.0-567.0","0","0","70907","","null","","","null","62","","","","","","","","","","","","","","","NaN",""
"","S1","","html-keyboard-response","402","411729","0.0-1.0-569.0","0","0","70907","","null","","","null","63","","","","","","","","","","","","","","","",""
"","ISI","","html-keyboard-response","403","413733","0.0-1.0-570.0","0","0","70907","","null","","","null","63","NaN","","","","","","","","","","","","","","",""
"","S2","","html-keyboard-response","404","413903","0.0-1.0-571.0","0","0","70907","","null","","","null","63","","NaN","","","","","","","","","","","","","",""
"","response","","html-keyboard-response","405","414967","0.0-1.0-572.0-0.0","0","0","70907","","1061","","","75","63","","","2","63","training","adjacent","FG","6","7","N.jpg","R.jpg","1","1","1","",""
"","feedback","","html-keyboard-response","406","415985","0.0-1.0-573.0-0.0","0","0","70907","","null","","","null","63","","","","","","","","","","","","","","","",""
"","ITI","","html-keyboard-response","407","416992","0.0-1.0-576.0","0","0","70907","","null","","","null","63","","","","","","","","","","","","","","","NaN",""
"","S1","","html-keyboard-response","408","417158","0.0-1.0-578.0","0","0","70907","","null","","","null","64","","","","","","","","","","","","","","","",""
"","ISI","","html-keyboard-response","409","419163","0.0-1.0-579.0","0","0","70907","","null","","","null","64","NaN","","","","","","","","","","","","","","",""
"","S2","","html-keyboard-response","410","419332","0.0-1.0-580.0","0","0","70907","","null","","","null","64","","NaN","","","","","","","","","","","","","",""
"","response","","html-keyboard-response","411","420055","0.0-1.0-581.0-0.0","0","0","70907","","720","","","75","64","","","2","64","training","adjacent","AB","1","2","Q.jpg","L.jpg","1","1","1","",""
"","feedback","","html-keyboard-response","412","421067","0.0-1.0-582.0-0.0","0","0","70907","","null","","","null","64","","","","","","","","","","","","","","","",""
"","ITI","","html-keyboard-response","413","422083","0.0-1.0-585.0","0","0","70907","","null","","","null","64","","","","","","","","","","","","","","","NaN",""
"","S1","","html-keyboard-response","414","422238","0.0-1.0-587.0","0","0","70907","","null","","","null","65","","","","","","","","","","","","","","","",""
"","ISI","","html-keyboard-response","415","424243","0.0-1.0-588.0","0","0","70907","","null","","","null","65","NaN","","","","","","","","","","","","","","",""
"","S2","","html-keyboard-response","416","424405","0.0-1.0-589.0","0","0","70907","","null","","","null","65","","NaN","","","","","","","","","","","","","",""
"","response","","html-keyboard-response","417","425159","0.0-1.0-590.0-0.0","0","0","70907","","751","","","75","65","","","2","65","training","adjacent","BC","2","3","L.jpg","M.jpg","1","1","1","",""
"","feedback","","html-keyboard-response","418","426163","0.0-1.0-591.0-0.0","0","0","70907","","null","","","null","65","","","","","","","","","","","","","","","",""
"","ITI","","html-keyboard-response","419","427182","0.0-1.0-594.0","0","0","70907","","null","","","null","65","","","","","","","","","","","","","","","NaN",""
"","S1","","html-keyboard-response","420","427352","0.0-1.0-596.0","0","0","70907","","null","","","null","66","","","","","","","","","","","","","","","",""
"","ISI","","html-keyboard-response","421","429356","0.0-1.0-597.0","0","0","70907","","null","","","null","66","NaN","","","","","","","","","","","","","","",""
"","S2","","html-keyboard-response","422","429519","0.0-1.0-598.0","0","0","70907","","null","","","null","66","","NaN","","","","","","","","","","","","","",""
"","response","","html-keyboard-response","423","430101","0.0-1.0-599.0-0.0","0","0","70907","","581","","","68","66","","","2","66","training","adjacent","BA","2","1","L.jpg","Q.jpg","0","0","1","",""
"","feedback","","html-keyboard-response","424","431108","0.0-1.0-600.0-0.0","0","0","70907","","null","","","null","66","","","","","","","","","","","","","","","",""
"","ITI","","html-keyboard-response","425","432127","0.0-1.0-603.0","0","0","70907","","null","","","null","66","","","","","","","","","","","","","","","NaN",""
"","S1","","html-keyboard-response","426","432281","0.0-1.0-605.0","0","0","70907","","null","","","null","67","","","","","","","","","","","","","","","",""
"","ISI","","html-keyboard-response","427","434288","0.0-1.0-606.0","0","0","70907","","null","","","null","67","NaN","","","","","","","","","","","","","","",""
"","S2","","html-keyboard-response","428","434455","0.0-1.0-607.0","0","0","70907","","null","","","null","67","","NaN","","","","","","","","","","","","","",""
"","response","","html-keyboard-response","429","435088","0.0-1.0-608.0-0.0","0","0","70907","","630","","","68","67","","","2","67","training","adjacent","ED","5","4","P.jpg","O.jpg","0","0","1","",""
"","feedback","","html-keyboard-response","430","436092","0.0-1.0-609.0-0.0","0","0","70907","","null","","","null","67","","","","","","","","","","","","","","","",""
"","ITI","","html-keyboard-response","431","437095","0.0-1.0-612.0","0","0","70907","","null","","","null","67","","","","","","","","","","","","","","","NaN",""
"","S1","","html-keyboard-response","432","437249","0.0-1.0-614.0","0","0","70907","","null","","","null","68","","","","","","","","","","","","","","","",""
"","ISI","","html-keyboard-response","433","439271","0.0-1.0-615.0","0","0","70907","","null","","","null","68","NaN","","","","","","","","","","","","","","",""
"","S2","","html-keyboard-response","434","439432","0.0-1.0-616.0","0","0","70907","","null","","","null","68","","NaN","","","","","","","","","","","","","",""
"","response","","html-keyboard-response","435","440062","0.0-1.0-617.0-0.0","0","0","70907","","627","","","68","68","","","2","68","training","adjacent","CD","3","4","M.jpg","O.jpg","0","1","0","",""
"","feedback","","html-keyboard-response","436","441074","0.0-1.0-618.0-0.0","0","0","70907","","null","","","null","68","","","","","","","","","","","","","","","",""
"","time_out","","html-keyboard-response","437","443078","0.0-1.0-620.0-0.0","0","0","70907","","null","","","null","68","","","","","","","","","","","","","","","",""
"","ITI","","html-keyboard-response","438","444081","0.0-1.0-621.0","0","0","70907","","null","","","null","68","","","","","","","","","","","","","","","NaN",""
"","S1","","html-keyboard-response","439","444243","0.0-1.0-623.0","0","0","70907","","null","","","null","69","","","","","","","","","","","","","","","",""
"","ISI","","html-keyboard-response","440","446248","0.0-1.0-624.0","0","0","70907","","null","","","null","69","NaN","","","","","","","","","","","","","","",""
"","S2","","html-keyboard-response","441","446402","0.0-1.0-625.0","0","0","70907","","null","","","null","69","","NaN","","","","","","","","","","","","","",""
"","response","","html-keyboard-response","442","447243","0.0-1.0-626.0-0.0","0","0","70907","","837","","","68","69","","","2","69","training","adjacent","BA","2","1","L.jpg","Q.jpg","0","0","1","",""
"","feedback","","html-keyboard-response","443","448254","0.0-1.0-627.0-0.0","0","0","70907","","null","","","null","69","","","","","","","","","","","","","","","",""
"","ITI","","html-keyboard-response","444","449272","0.0-1.0-630.0","0","0","70907","","null","","","null","69","","","","","","","","","","","","","","","NaN",""
"","S1","","html-keyboard-response","445","449427","0.0-1.0-632.0","0","0","70907","","null","","","null","70","","","","","","","","","","","","","","","",""
"","ISI","","html-keyboard-response","446","451432","0.0-1.0-633.0","0","0","70907","","null","","","null","70","NaN","","","","","","","","","","","","","","",""
"","S2","","html-keyboard-response","447","451601","0.0-1.0-634.0","0","0","70907","","null","","","null","70","","NaN","","","","","","","","","","","","","",""
"","response","","html-keyboard-response","448","452406","0.0-1.0-635.0-0.0","0","0","70907","","803","","","68","70","","","2","70","training","adjacent","CB","3","2","M.jpg","L.jpg","0","0","1","",""
"","feedback","","html-keyboard-response","449","453419","0.0-1.0-636.0-0.0","0","0","70907","","null","","","null","70","","","","","","","","","","","","","","","",""
"","ITI","","html-keyboard-response","450","454422","0.0-1.0-639.0","0","0","70907","","null","","","null","70","","","","","","","","","","","","","","","NaN",""
"","S1","","html-keyboard-response","451","454585","0.0-1.0-641.0","0","0","70907","","null","","","null","71","","","","","","","","","","","","","","","",""
"","ISI","","html-keyboard-response","452","456590","0.0-1.0-642.0","0","0","70907","","null","","","null","71","NaN","","","","","","","","","","","","","","",""
"","S2","","html-keyboard-response","453","456744","0.0-1.0-643.0","0","0","70907","","null","","","null","71","","NaN","","","","","","","","","","","","","",""
"","response","","html-keyboard-response","454","457749","0.0-1.0-644.0-0.0","0","0","70907","","1003","","","75","71","","","2","71","training","adjacent","BC","2","3","L.jpg","M.jpg","1","1","1","",""
"","feedback","","html-keyboard-response","455","458763","0.0-1.0-645.0-0.0","0","0","70907","","null","","","null","71","","","","","","","","","","","","","","","",""
"","ITI","","html-keyboard-response","456","459781","0.0-1.0-648.0","0","0","70907","","null","","","null","71","","","","","","","","","","","","","","","NaN",""
"","S1","","html-keyboard-response","457","459934","0.0-1.0-650.0","0","0","70907","","null","","","null","72","","","","","","","","","","","","","","","",""
"","ISI","","html-keyboard-response","458","461939","0.0-1.0-651.0","0","0","70907","","null","","","null","72","NaN","","","","","","","","","","","","","","",""
"","S2","","html-keyboard-response","459","462103","0.0-1.0-652.0","0","0","70907","","null","","","null","72","","NaN","","","","","","","","","","","","","",""
"","response","","html-keyboard-response","460","462878","0.0-1.0-653.0-0.0","0","0","70907","","771","","","75","72","","","2","72","training","adjacent","CD","3","4","M.jpg","O.jpg","1","1","1","",""
"","feedback","","html-keyboard-response","461","463891","0.0-1.0-654.0-0.0","0","0","70907","","null","","","null","72","","","","","","","","","","","","","","","",""
"","ITI","","html-keyboard-response","462","464910","0.0-1.0-657.0","0","0","70907","","null","","","null","72","","","","","","","","","","","","","","","NaN",""
"","S1","","html-keyboard-response","463","465064","0.0-1.0-659.0","0","0","70907","","null","","","null","73","","","","","","","","","","","","","","","",""
"","ISI","","html-keyboard-response","464","467067","0.0-1.0-660.0","0","0","70907","","null","","","null","73","NaN","","","","","","","","","","","","","","",""
"","S2","","html-keyboard-response","465","467238","0.0-1.0-661.0","0","0","70907","","null","","","null","73","","NaN","","","","","","","","","","","","","",""
"","response","","html-keyboard-response","466","467828","0.0-1.0-662.0-0.0","0","0","70907","","587","","","68","73","","","2","73","training","adjacent","ED","5","4","P.jpg","O.jpg","0","0","1","",""
"","feedback","","html-keyboard-response","467","468841","0.0-1.0-663.0-0.0","0","0","70907","","null","","","null","73","","","","","","","","","","","","","","","",""
"","ITI","","html-keyboard-response","468","469859","0.0-1.0-666.0","0","0","70907","","null","","","null","73","","","","","","","","","","","","","","","NaN",""
"","S1","","html-keyboard-response","469","470022","0.0-1.0-668.0","0","0","70907","","null","","","null","74","","","","","","","","","","","","","","","",""
"","ISI","","html-keyboard-response","470","472027","0.0-1.0-669.0","0","0","70907","","null","","","null","74","NaN","","","","","","","","","","","","","","",""
"","S2","","html-keyboard-response","471","472181","0.0-1.0-670.0","0","0","70907","","null","","","null","74","","NaN","","","","","","","","","","","","","",""
"","response","","html-keyboard-response","472","473300","0.0-1.0-671.0-0.0","0","0","70907","","1115","","","75","74","","","2","74","training","adjacent","AB","1","2","Q.jpg","L.jpg","1","1","1","",""
"","feedback","","html-keyboard-response","473","474318","0.0-1.0-672.0-0.0","0","0","70907","","null","","","null","74","","","","","","","","","","","","","","","",""
"","ITI","","html-keyboard-response","474","475335","0.0-1.0-675.0","0","0","70907","","null","","","null","74","","","","","","","","","","","","","","","NaN",""
"","S1","","html-keyboard-response","475","475503","0.0-1.0-677.0","0","0","70907","","null","","","null","75","","","","","","","","","","","","","","","",""
"","ISI","","html-keyboard-response","476","477510","0.0-1.0-678.0","0","0","70907","","null","","","null","75","NaN","","","","","","","","","","","","","","",""
"","S2","","html-keyboard-response","477","477664","0.0-1.0-679.0","0","0","70907","","null","","","null","75","","NaN","","","","","","","","","","","","","",""
"","response","","html-keyboard-response","478","479110","0.0-1.0-680.0-0.0","0","0","70907","","1444","","","68","75","","","2","75","training","adjacent","FE","6","5","N.jpg","P.jpg","0","0","1","",""
"","feedback","","html-keyboard-response","479","480116","0.0-1.0-681.0-0.0","0","0","70907","","null","","","null","75","","","","","","","","","","","","","","","",""
"","ITI","","html-keyboard-response","480","481134","0.0-1.0-684.0","0","0","70907","","null","","","null","75","","","","","","","","","","","","","","","NaN",""
"","S1","","html-keyboard-response","481","481288","0.0-1.0-686.0","0","0","70907","","null","","","null","76","","","","","","","","","","","","","","","",""
"","ISI","","html-keyboard-response","482","483292","0.0-1.0-687.0","0","0","70907","","null","","","null","76","NaN","","","","","","","","","","","","","","",""
"","S2","","html-keyboard-response","483","483459","0.0-1.0-688.0","0","0","70907","","null","","","null","76","","NaN","","","","","","","","","","","","","",""
"","response","","html-keyboard-response","484","484428","0.0-1.0-689.0-0.0","0","0","70907","","968","","","75","76","","","2","76","training","adjacent","FG","6","7","N.jpg","R.jpg","1","1","1","",""
"","feedback","","html-keyboard-response","485","485445","0.0-1.0-690.0-0.0","0","0","70907","","null","","","null","76","","","","","","","","","","","","","","","",""
"","ITI","","html-keyboard-response","486","486462","0.0-1.0-693.0","0","0","70907","","null","","","null","76","","","","","","","","","","","","","","","NaN",""
"","S1","","html-keyboard-response","487","486616","0.0-1.0-695.0","0","0","70907","","null","","","null","77","","","","","","","","","","","","","","","",""
"","ISI","","html-keyboard-response","488","488623","0.0-1.0-696.0","0","0","70907","","null","","","null","77","NaN","","","","","","","","","","","","","","",""
"","S2","","html-keyboard-response","489","488791","0.0-1.0-697.0","0","0","70907","","null","","","null","77","","NaN","","","","","","","","","","","","","",""
"","response","","html-keyboard-response","490","489525","0.0-1.0-698.0-0.0","0","0","70907","","731","","","75","77","","","2","77","training","adjacent","EF","5","6","P.jpg","N.jpg","1","1","1","",""
"","feedback","","html-keyboard-response","491","490543","0.0-1.0-699.0-0.0","0","0","70907","","null","","","null","77","","","","","","","","","","","","","","","",""
"","ITI","","html-keyboard-response","492","491546","0.0-1.0-702.0","0","0","70907","","null","","","null","77","","","","","","","","","","","","","","","NaN",""
"","S1","","html-keyboard-response","493","491701","0.0-1.0-704.0","0","0","70907","","null","","","null","78","","","","","","","","","","","","","","","",""
"","ISI","","html-keyboard-response","494","493706","0.0-1.0-705.0","0","0","70907","","null","","","null","78","NaN","","","","","","","","","","","","","","",""
"","S2","","html-keyboard-response","495","493869","0.0-1.0-706.0","0","0","70907","","null","","","null","78","","NaN","","","","","","","","","","","","","",""
"","response","","html-keyboard-response","496","494373","0.0-1.0-707.0-0.0","0","0","70907","","501","","","68","78","","","2","78","training","adjacent","BA","2","1","L.jpg","Q.jpg","0","0","1","",""
"","feedback","","html-keyboard-response","497","495388","0.0-1.0-708.0-0.0","0","0","70907","","null","","","null","78","","","","","","","","","","","","","","","",""
"","ITI","","html-keyboard-response","498","496393","0.0-1.0-711.0","0","0","70907","","null","","","null","78","","","","","","","","","","","","","","","NaN",""
"","S1","","html-keyboard-response","499","496545","0.0-1.0-713.0","0","0","70907","","null","","","null","79","","","","","","","","","","","","","","","",""
"","ISI","","html-keyboard-response","500","498550","0.0-1.0-714.0","0","0","70907","","null","","","null","79","NaN","","","","","","","","","","","","","","",""
"","S2","","html-keyboard-response","501","498719","0.0-1.0-715.0","0","0","70907","","null","","","null","79","","NaN","","","","","","","","","","","","","",""
"","response","","html-keyboard-response","502","500056","0.0-1.0-716.0-0.0","0","0","70907","","1336","","","68","79","","","2","79","training","adjacent","DE","4","5","O.jpg","P.jpg","0","1","0","",""
"","feedback","","html-keyboard-response","503","501072","0.0-1.0-717.0-0.0","0","0","70907","","null","","","null","79","","","","","","","","","","","","","","","",""
"","time_out","","html-keyboard-response","504","503079","0.0-1.0-719.0-0.0","0","0","70907","","null","","","null","79","","","","","","","","","","","","","","","",""
"","ITI","","html-keyboard-response","505","504096","0.0-1.0-720.0","0","0","70907","","null","","","null","79","","","","","","","","","","","","","","","NaN",""
"","S1","","html-keyboard-response","506","504250","0.0-1.0-722.0","0","0","70907","","null","","","null","80","","","","","","","","","","","","","","","",""
"","ISI","","html-keyboard-response","507","506256","0.0-1.0-723.0","0","0","70907","","null","","","null","80","NaN","","","","","","","","","","","","","","",""
"","S2","","html-keyboard-response","508","506418","0.0-1.0-724.0","0","0","70907","","null","","","null","80","","NaN","","","","","","","","","","","","","",""
"","response","","html-keyboard-response","509","506702","0.0-1.0-725.0-0.0","0","0","70907","","282","","","68","80","","","2","80","training","adjacent","GF","7","6","R.jpg","N.jpg","0","0","1","",""
"","feedback","","html-keyboard-response","510","507705","0.0-1.0-726.0-0.0","0","0","70907","","null","","","null","80","","","","","","","","","","","","","","","",""
"","ITI","","html-keyboard-response","511","508724","0.0-1.0-729.0","0","0","70907","","null","","","null","80","","","","","","","","","","","","","","","NaN",""
"","S1","","html-keyboard-response","512","508878","0.0-1.0-731.0","0","0","70907","","null","","","null","81","","","","","","","","","","","","","","","",""
"","ISI","","html-keyboard-response","513","510882","0.0-1.0-732.0","0","0","70907","","null","","","null","81","NaN","","","","","","","","","","","","","","",""
"","S2","","html-keyboard-response","514","511051","0.0-1.0-733.0","0","0","70907","","null","","","null","81","","NaN","","","","","","","","","","","","","",""
"","response","","html-keyboard-response","515","512315","0.0-1.0-734.0-0.0","0","0","70907","","1261","","","75","81","","","2","81","training","adjacent","BC","2","3","L.jpg","M.jpg","1","1","1","",""
"","feedback","","html-keyboard-response","516","513319","0.0-1.0-735.0-0.0","0","0","70907","","null","","","null","81","","","","","","","","","","","","","","","",""
"","ITI","","html-keyboard-response","517","514328","0.0-1.0-738.0","0","0","70907","","null","","","null","81","","","","","","","","","","","","","","","NaN",""
"","S1","","html-keyboard-response","518","514491","0.0-1.0-740.0","0","0","70907","","null","","","null","82","","","","","","","","","","","","","","","",""
"","ISI","","html-keyboard-response","519","516496","0.0-1.0-741.0","0","0","70907","","null","","","null","82","NaN","","","","","","","","","","","","","","",""
"","S2","","html-keyboard-response","520","516667","0.0-1.0-742.0","0","0","70907","","null","","","null","82","","NaN","","","","","","","","","","","","","",""
"","response","","html-keyboard-response","521","517321","0.0-1.0-743.0-0.0","0","0","70907","","651","","","68","82","","","2","82","training","adjacent","FG","6","7","N.jpg","R.jpg","0","1","0","",""
"","feedback","","html-keyboard-response","522","518333","0.0-1.0-744.0-0.0","0","0","70907","","null","","","null","82","","","","","","","","","","","","","","","",""
"","time_out","","html-keyboard-response","523","520338","0.0-1.0-746.0-0.0","0","0","70907","","null","","","null","82","","","","","","","","","","","","","","","",""
"","ITI","","html-keyboard-response","524","521341","0.0-1.0-747.0","0","0","70907","","null","","","null","82","","","","","","","","","","","","","","","NaN",""
"","S1","","html-keyboard-response","525","521496","0.0-1.0-749.0","0","0","70907","","null","","","null","83","","","","","","","","","","","","","","","",""
"","ISI","","html-keyboard-response","526","523503","0.0-1.0-750.0","0","0","70907","","null","","","null","83","NaN","","","","","","","","","","","","","","",""
"","S2","","html-keyboard-response","527","523664","0.0-1.0-751.0","0","0","70907","","null","","","null","83","","NaN","","","","","","","","","","","","","",""
"","response","","html-keyboard-response","528","523916","0.0-1.0-752.0-0.0","0","0","70907","","248","","","68","83","","","2","83","training","adjacent","GF","7","6","R.jpg","N.jpg","0","0","1","",""
"","feedback","","html-keyboard-response","529","524921","0.0-1.0-753.0-0.0","0","0","70907","","null","","","null","83","","","","","","","","","","","","","","","",""
"","ITI","","html-keyboard-response","530","525923","0.0-1.0-756.0","0","0","70907","","null","","","null","83","","","","","","","","","","","","","","","NaN",""
"","S1","","html-keyboard-response","531","526093","0.0-1.0-758.0","0","0","70907","","null","","","null","84","","","","","","","","","","","","","","","",""
"","ISI","","html-keyboard-response","532","528100","0.0-1.0-759.0","0","0","70907","","null","","","null","84","NaN","","","","","","","","","","","","","","",""
"","S2","","html-keyboard-response","533","528263","0.0-1.0-760.0","0","0","70907","","null","","","null","84","","NaN","","","","","","","","","","","","","",""
"","response","","html-keyboard-response","534","528862","0.0-1.0-761.0-0.0","0","0","70907","","597","","","68","84","","","2","84","training","adjacent","ED","5","4","P.jpg","O.jpg","0","0","1","",""
"","feedback","","html-keyboard-response","535","529867","0.0-1.0-762.0-0.0","0","0","70907","","null","","","null","84","","","","","","","","","","","","","","","",""
"","ITI","","html-keyboard-response","536","530871","0.0-1.0-765.0","0","0","70907","","null","","","null","84","","","","","","","","","","","","","","","NaN",""
"","S1","","html-keyboard-response","537","531040","0.0-1.0-767.0","0","0","70907","","null","","","null","85","","","","","","","","","","","","","","","",""
"","ISI","","html-keyboard-response","538","533045","0.0-1.0-768.0","0","0","70907","","null","","","null","85","NaN","","","","","","","","","","","","","","",""
"","S2","","html-keyboard-response","539","533214","0.0-1.0-769.0","0","0","70907","","null","","","null","85","","NaN","","","","","","","","","","","","","",""
"","response","","html-keyboard-response","540","534463","0.0-1.0-770.0-0.0","0","0","70907","","1246","","","68","85","","","2","85","training","adjacent","FE","6","5","N.jpg","P.jpg","0","0","1","",""
"","feedback","","html-keyboard-response","541","535468","0.0-1.0-771.0-0.0","0","0","70907","","null","","","null","85","","","","","","","","","","","","","","","",""
"","ITI","","html-keyboard-response","542","536485","0.0-1.0-774.0","0","0","70907","","null","","","null","85","","","","","","","","","","","","","","","NaN",""
"","S1","","html-keyboard-response","543","536640","0.0-1.0-776.0","0","0","70907","","null","","","null","86","","","","","","","","","","","","","","","",""
"","ISI","","html-keyboard-response","544","538644","0.0-1.0-777.0","0","0","70907","","null","","","null","86","NaN","","","","","","","","","","","","","","",""
"","S2","","html-keyboard-response","545","538809","0.0-1.0-778.0","0","0","70907","","null","","","null","86","","NaN","","","","","","","","","","","","","",""
"","response","","html-keyboard-response","546","539448","0.0-1.0-779.0-0.0","0","0","70907","","635","","","75","86","","","2","86","training","adjacent","BC","2","3","L.jpg","M.jpg","1","1","1","",""
"","feedback","","html-keyboard-response","547","540465","0.0-1.0-780.0-0.0","0","0","70907","","null","","","null","86","","","","","","","","","","","","","","","",""
"","ITI","","html-keyboard-response","548","541483","0.0-1.0-783.0","0","0","70907","","null","","","null","86","","","","","","","","","","","","","","","NaN",""
"","S1","","html-keyboard-response","549","541637","0.0-1.0-785.0","0","0","70907","","null","","","null","87","","","","","","","","","","","","","","","",""
"","ISI","","html-keyboard-response","550","543641","0.0-1.0-786.0","0","0","70907","","null","","","null","87","NaN","","","","","","","","","","","","","","",""
"","S2","","html-keyboard-response","551","543804","0.0-1.0-787.0","0","0","70907","","null","","","null","87","","NaN","","","","","","","","","","","","","",""
"","response","","html-keyboard-response","552","544468","0.0-1.0-788.0-0.0","0","0","70907","","662","","","75","87","","","2","87","training","adjacent","EF","5","6","P.jpg","N.jpg","1","1","1","",""
"","feedback","","html-keyboard-response","553","545478","0.0-1.0-789.0-0.0","0","0","70907","","null","","","null","87","","","","","","","","","","","","","","","",""
"","ITI","","html-keyboard-response","554","546496","0.0-1.0-792.0","0","0","70907","","null","","","null","87","","","","","","","","","","","","","","","NaN",""
"","S1","","html-keyboard-response","555","546664","0.0-1.0-794.0","0","0","70907","","null","","","null","88","","","","","","","","","","","","","","","",""
"","ISI","","html-keyboard-response","556","548669","0.0-1.0-795.0","0","0","70907","","null","","","null","88","NaN","","","","","","","","","","","","","","",""
"","S2","","html-keyboard-response","557","548834","0.0-1.0-796.0","0","0","70907","","null","","","null","88","","NaN","","","","","","","","","","","","","",""
"","response","","html-keyboard-response","558","549216","0.0-1.0-797.0-0.0","0","0","70907","","380","","","75","88","","","2","88","training","adjacent","AB","1","2","Q.jpg","L.jpg","1","1","1","",""
"","feedback","","html-keyboard-response","559","550220","0.0-1.0-798.0-0.0","0","0","70907","","null","","","null","88","","","","","","","","","","","","","","","",""
"","ITI","","html-keyboard-response","560","551238","0.0-1.0-801.0","0","0","70907","","null","","","null","88","","","","","","","","","","","","","","","NaN",""
"","S1","","html-keyboard-response","561","551391","0.0-1.0-803.0","0","0","70907","","null","","","null","89","","","","","","","","","","","","","","","",""
"","ISI","","html-keyboard-response","562","553399","0.0-1.0-804.0","0","0","70907","","null","","","null","89","NaN","","","","","","","","","","","","","","",""
"","S2","","html-keyboard-response","563","553566","0.0-1.0-805.0","0","0","70907","","null","","","null","89","","NaN","","","","","","","","","","","","","",""
"","response","","html-keyboard-response","564","554281","0.0-1.0-806.0-0.0","0","0","70907","","711","","","75","89","","","2","89","training","adjacent","DE","4","5","O.jpg","P.jpg","1","1","1","",""
"","feedback","","html-keyboard-response","565","555285","0.0-1.0-807.0-0.0","0","0","70907","","null","","","null","89","","","","","","","","","","","","","","","",""
"","ITI","","html-keyboard-response","566","556289","0.0-1.0-810.0","0","0","70907","","null","","","null","89","","","","","","","","","","","","","","","NaN",""
"","S1","","html-keyboard-response","567","556450","0.0-1.0-812.0","0","0","70907","","null","","","null","90","","","","","","","","","","","","","","","",""
"","ISI","","html-keyboard-response","568","558456","0.0-1.0-813.0","0","0","70907","","null","","","null","90","NaN","","","","","","","","","","","","","","",""
"","S2","","html-keyboard-response","569","558609","0.0-1.0-814.0","0","0","70907","","null","","","null","90","","NaN","","","","","","","","","","","","","",""
"","response","","html-keyboard-response","570","559018","0.0-1.0-815.0-0.0","0","0","70907","","405","","","75","90","","","2","90","training","adjacent","DE","4","5","O.jpg","P.jpg","1","1","1","",""
"","feedback","","html-keyboard-response","571","560027","0.0-1.0-816.0-0.0","0","0","70907","","null","","","null","90","","","","","","","","","","","","","","","",""
"","ITI","","html-keyboard-response","572","561045","0.0-1.0-819.0","0","0","70907","","null","","","null","90","","","","","","","","","","","","","","","NaN",""
"","S1","","html-keyboard-response","573","561199","0.0-1.0-821.0","0","0","70907","","null","","","null","91","","","","","","","","","","","","","","","",""
"","ISI","","html-keyboard-response","574","563204","0.0-1.0-822.0","0","0","70907","","null","","","null","91","NaN","","","","","","","","","","","","","","",""
"","S2","","html-keyboard-response","575","563369","0.0-1.0-823.0","0","0","70907","","null","","","null","91","","NaN","","","","","","","","","","","","","",""
"","response","","html-keyboard-response","576","563826","0.0-1.0-824.0-0.0","0","0","70907","","455","","","68","91","","","2","91","training","adjacent","DC","4","3","O.jpg","M.jpg","0","0","1","",""
"","feedback","","html-keyboard-response","577","564830","0.0-1.0-825.0-0.0","0","0","70907","","null","","","null","91","","","","","","","","","","","","","","","",""
"","ITI","","html-keyboard-response","578","565842","0.0-1.0-828.0","0","0","70907","","null","","","null","91","","","","","","","","","","","","","","","NaN",""
"","S1","","html-keyboard-response","579","565996","0.0-1.0-830.0","0","0","70907","","null","","","null","92","","","","","","","","","","","","","","","",""
"","ISI","","html-keyboard-response","580","568001","0.0-1.0-831.0","0","0","70907","","null","","","null","92","NaN","","","","","","","","","","","","","","",""
"","S2","","html-keyboard-response","581","568163","0.0-1.0-832.0","0","0","70907","","null","","","null","92","","NaN","","","","","","","","","","","","","",""
"","response","","html-keyboard-response","582","568473","0.0-1.0-833.0-0.0","0","0","70907","","309","","","75","92","","","2","92","training","adjacent","DE","4","5","O.jpg","P.jpg","1","1","1","",""
