"success","ttype","start_time","trial_type","trial_index","time_elapsed","internal_node_id","warning","missed_checkup","PID","view_history","rt","responses","repeat_instructions","key_press","index","keypress_isi","keypress_S2","block","trial_num","phase","group_type","pair_type","S1_stim","S2_stim","S1_img","S2_img","S1_chosen","S1_higher","accuracy","keypress_iti","total_bonus_tally"
"true","full_screen","d04132023hr1448","fullscreen","0","151741","0.0-0.0","0","0","85029","","","","","","","","","","","","","","","","","","","","","",""
"","instructions","","instructions","1","180474","0.0-1.0-0.0-0.0","0","0","85029","[{""page_index"":0,""viewing_time"":5116},{""page_index"":1,""viewing_time"":10308},{""page_index"":2,""viewing_time"":7024},{""page_index"":3,""viewing_time"":6282}]","28731","","","","","","","","","","","","","","","","","","","",""
"","comprehension_check","","survey-multi-choice","2","200582","0.0-1.0-0.0-1.0","0","0","85029","","20105","{""Q0"":""True"",""Q1"":""D"",""Q2"":""Only when the screen 'MAKE A CHOICE' is shown"",""Q3"":""Green mark"",""Q4"":""either D or K""}","1","","","","","","","","","","","","","","","","","",""
"","missed_instruction_checkup","","html-keyboard-response","3","203055","0.0-1.0-0.0-2.0-0.0","0","1","85029","","2472","","","32","","","","","","","","","","","","","","","","",""
"","instructions","","instructions","4","214549","0.0-1.0-0.1-0.1","0","0","85029","[{""page_index"":0,""viewing_time"":1704},{""page_index"":1,""viewing_time"":7859},{""page_index"":2,""viewing_time"":977},{""page_index"":3,""viewing_time"":952}]","11492","","","","","","","","","","","","","","","","","","","",""
"","comprehension_check","","survey-multi-choice","5","222189","0.0-1.0-0.1-1.1","0","0","85029","","7637","{""Q0"":""True"",""Q1"":""K"",""Q2"":""Only when the screen 'MAKE A CHOICE' is shown"",""Q3"":""Green mark"",""Q4"":""either D or K""}","1","","","","","","","","","","","","","","","","","",""
"","missed_instruction_checkup","","html-keyboard-response","6","223656","0.0-1.0-0.1-2.1-0.1","0","1","85029","","1465","","","32","","","","","","","","","","","","","","","","",""
"","instructions","","instructions","7","244845","0.0-1.0-0.2-0.2","0","0","85029","[{""page_index"":0,""viewing_time"":1680},{""page_index"":1,""viewing_time"":13946},{""page_index"":2,""viewing_time"":3962},{""page_index"":3,""viewing_time"":1600}]","21188","","","","","","","","","","","","","","","","","","","",""
"","comprehension_check","","survey-multi-choice","8","259204","0.0-1.0-0.2-1.2","0","0","85029","","14355","{""Q0"":""True"",""Q1"":""K"",""Q2"":""Once the second image appears and while the screen 'MAKE A CHOICE' is shown"",""Q3"":""Green mark"",""Q4"":""either D or K""}","0","","","","","","","","","","","","","","","","","",""
"","start_exp","","html-keyboard-response","9","261166","0.0-1.0-1.0","0","0","85029","","1961","","","32","","","","","","","","","","","","","","","","",""
"","S1","","html-keyboard-response","10","261419","0.0-1.0-2.0","0","0","85029","","null","","","null","0","","","","","","","","","","","","","","","",""
"","ISI","","html-keyboard-response","11","262422","0.0-1.0-3.0","0","0","85029","","null","","","null","0","NaN","","","","","","","","","","","","","","",""
"","S2","","html-keyboard-response","12","262674","0.0-1.0-4.0","0","0","85029","","null","","","null","0","","NaN","","","","","","","","","","","","","",""
"","response","","html-keyboard-response","13","263219","0.0-1.0-5.0-0.0","0","0","85029","","543","","","75","0","","","1","0","training","adjacent","EF","5","6","R.jpg","O.jpg","1","1","1","",""
"","feedback","","html-keyboard-response","14","264222","0.0-1.0-6.0-0.0","0","0","85029","","null","","","null","0","","","","","","","","","","","","","","","",""
"","ITI","","html-keyboard-response","15","265225","0.0-1.0-9.0","0","0","85029","","null","","","null","0","","","","","","","","","","","","","","","NaN",""
"","S1","","html-keyboard-response","16","265478","0.0-1.0-11.0","0","0","85029","","null","","","null","1","","","","","","","","","","","","","","","",""
"","ISI","","html-keyboard-response","17","266481","0.0-1.0-12.0","0","0","85029","","null","","","null","1","NaN","","","","","","","","","","","","","","",""
"","S2","","html-keyboard-response","18","266735","0.0-1.0-13.0","0","0","85029","","null","","","null","1","","NaN","","","","","","","","","","","","","",""
"","response","","html-keyboard-response","19","267283","0.0-1.0-14.0-0.0","0","0","85029","","546","","","75","1","","","1","1","training","adjacent","DC","4","3","Q.jpg","P.jpg","1","0","0","",""
"","feedback","","html-keyboard-response","20","268286","0.0-1.0-15.0-0.0","0","0","85029","","null","","","null","1","","","","","","","","","","","","","","","",""
"","time_out","","html-keyboard-response","21","270290","0.0-1.0-17.0-0.0","0","0","85029","","null","","","null","1","","","","","","","","","","","","","","","",""
"","ITI","","html-keyboard-response","22","271292","0.0-1.0-18.0","0","0","85029","","null","","","null","1","","","","","","","","","","","","","","","NaN",""
"","S1","","html-keyboard-response","23","271545","0.0-1.0-20.0","0","0","85029","","null","","","null","2","","","","","","","","","","","","","","","",""
"","ISI","","html-keyboard-response","24","272546","0.0-1.0-21.0","0","0","85029","","null","","","null","2","NaN","","","","","","","","","","","","","","",""
"","S2","","html-keyboard-response","25","272799","0.0-1.0-22.0","0","0","85029","","null","","","null","2","","NaN","","","","","","","","","","","","","",""
"","response","","html-keyboard-response","26","273224","0.0-1.0-23.0-0.0","0","0","85029","","424","","","68","2","","","1","2","training","adjacent","DE","4","5","Q.jpg","R.jpg","0","1","0","",""
"","feedback","","html-keyboard-response","27","274227","0.0-1.0-24.0-0.0","0","0","85029","","null","","","null","2","","","","","","","","","","","","","","","",""
"","time_out","","html-keyboard-response","28","276229","0.0-1.0-26.0-0.0","0","0","85029","","null","","","null","2","","","","","","","","","","","","","","","",""
"","ITI","","html-keyboard-response","29","277234","0.0-1.0-27.0","0","0","85029","","null","","","null","2","","","","","","","","","","","","","","","NaN",""
"","S1","","html-keyboard-response","30","277486","0.0-1.0-29.0","0","0","85029","","null","","","null","3","","","","","","","","","","","","","","","",""
"","ISI","","html-keyboard-response","31","278488","0.0-1.0-30.0","0","0","85029","","null","","","null","3","NaN","","","","","","","","","","","","","","",""
"","S2","","html-keyboard-response","32","278740","0.0-1.0-31.0","0","0","85029","","null","","","null","3","","NaN","","","","","","","","","","","","","",""
"","response","","html-keyboard-response","33","279049","0.0-1.0-32.0-0.0","0","0","85029","","307","","","75","3","","","1","3","training","adjacent","AB","1","2","L.jpg","M.jpg","1","1","1","",""
"","feedback","","html-keyboard-response","34","280053","0.0-1.0-33.0-0.0","0","0","85029","","null","","","null","3","","","","","","","","","","","","","","","",""
"","ITI","","html-keyboard-response","35","281056","0.0-1.0-36.0","0","0","85029","","null","","","null","3","","","","","","","","","","","","","","","NaN",""
"","S1","","html-keyboard-response","36","281309","0.0-1.0-38.0","0","0","85029","","null","","","null","4","","","","","","","","","","","","","","","",""
"","ISI","","html-keyboard-response","37","282311","0.0-1.0-39.0","0","0","85029","","null","","","null","4","NaN","","","","","","","","","","","","","","",""
"","S2","","html-keyboard-response","38","282563","0.0-1.0-40.0","0","0","85029","","null","","","null","4","","NaN","","","","","","","","","","","","","",""
"","response","","html-keyboard-response","39","282986","0.0-1.0-41.0-0.0","0","0","85029","","421","","","68","4","","","1","4","training","adjacent","CD","3","4","P.jpg","Q.jpg","0","1","0","",""
"","feedback","","html-keyboard-response","40","283988","0.0-1.0-42.0-0.0","0","0","85029","","null","","","null","4","","","","","","","","","","","","","","","",""
"","time_out","","html-keyboard-response","41","285989","0.0-1.0-44.0-0.0","0","0","85029","","null","","","null","4","","","","","","","","","","","","","","","",""
"","ITI","","html-keyboard-response","42","286991","0.0-1.0-45.0","0","0","85029","","null","","","null","4","","","","","","","","","","","","","","","NaN",""
"","S1","","html-keyboard-response","43","287243","0.0-1.0-47.0","0","0","85029","","null","","","null","5","","","","","","","","","","","","","","","",""
"","ISI","","html-keyboard-response","44","288245","0.0-1.0-48.0","0","0","85029","","null","","","null","5","NaN","","","","","","","","","","","","","","",""
"","S2","","html-keyboard-response","45","288497","0.0-1.0-49.0","0","0","85029","","null","","","null","5","","NaN","","","","","","","","","","","","","",""
"","response","","html-keyboard-response","46","288800","0.0-1.0-50.0-0.0","0","0","85029","","302","","","75","5","","","1","5","training","adjacent","BC","2","3","M.jpg","P.jpg","1","1","1","",""
"","feedback","","html-keyboard-response","47","289802","0.0-1.0-51.0-0.0","0","0","85029","","null","","","null","5","","","","","","","","","","","","","","","",""
"","ITI","","html-keyboard-response","48","290805","0.0-1.0-54.0","0","0","85029","","null","","","null","5","","","","","","","","","","","","","","","NaN",""
"","S1","","html-keyboard-response","49","291057","0.0-1.0-56.0","0","0","85029","","null","","","null","6","","","","","","","","","","","","","","","",""
"","ISI","","html-keyboard-response","50","292059","0.0-1.0-57.0","0","0","85029","","null","","","null","6","NaN","","","","","","","","","","","","","","",""
"","S2","","html-keyboard-response","51","292312","0.0-1.0-58.0","0","0","85029","","null","","","null","6","","NaN","","","","","","","","","","","","","",""
"","response","","html-keyboard-response","52","292577","0.0-1.0-59.0-0.0","0","0","85029","","264","","","75","6","","","1","6","training","adjacent","FE","6","5","O.jpg","R.jpg","1","0","0","",""
"","feedback","","html-keyboard-response","53","293579","0.0-1.0-60.0-0.0","0","0","85029","","null","","","null","6","","","","","","","","","","","","","","","",""
"","time_out","","html-keyboard-response","54","295582","0.0-1.0-62.0-0.0","0","0","85029","","null","","","null","6","","","","","","","","","","","","","","","",""
"","ITI","","html-keyboard-response","55","296585","0.0-1.0-63.0","0","0","85029","","null","","","null","6","","","","","","","","","","","","","","","NaN",""
"","S1","","html-keyboard-response","56","296837","0.0-1.0-65.0","0","0","85029","","null","","","null","7","","","","","","","","","","","","","","","",""
"","ISI","","html-keyboard-response","57","297839","0.0-1.0-66.0","0","0","85029","","null","","","null","7","NaN","","","","","","","","","","","","","","",""
"","S2","","html-keyboard-response","58","298093","0.0-1.0-67.0","0","0","85029","","null","","","null","7","","NaN","","","","","","","","","","","","","",""
"","response","","html-keyboard-response","59","298541","0.0-1.0-68.0-0.0","0","0","85029","","446","","","68","7","","","1","7","training","adjacent","GF","7","6","N.jpg","O.jpg","0","0","1","",""
"","feedback","","html-keyboard-response","60","299543","0.0-1.0-69.0-0.0","0","0","85029","","null","","","null","7","","","","","","","","","","","","","","","",""
"","ITI","","html-keyboard-response","61","300545","0.0-1.0-72.0","0","0","85029","","null","","","null","7","","","","","","","","","","","","","","","NaN",""
"","S1","","html-keyboard-response","62","300796","0.0-1.0-74.0","0","0","85029","","null","","","null","8","","","","","","","","","","","","","","","",""
"","ISI","","html-keyboard-response","63","301798","0.0-1.0-75.0","0","0","85029","","null","","","null","8","NaN","","","","","","","","","","","","","","",""
"","S2","","html-keyboard-response","64","302052","0.0-1.0-76.0","0","0","85029","","null","","","null","8","","NaN","","","","","","","","","","","","","",""
"","response","","html-keyboard-response","65","302157","0.0-1.0-77.0-0.0","0","0","85029","","103","","","68","8","","","1","8","training","adjacent","BA","2","1","M.jpg","L.jpg","0","0","1","",""
"","feedback","","html-keyboard-response","66","303158","0.0-1.0-78.0-0.0","0","0","85029","","null","","","null","8","","","","","","","","","","","","","","","",""
"","ITI","","html-keyboard-response","67","304162","0.0-1.0-81.0","0","0","85029","","null","","","null","8","","","","","","","","","","","","","","","NaN",""
"","S1","","html-keyboard-response","68","304414","0.0-1.0-83.0","0","0","85029","","null","","","null","9","","","","","","","","","","","","","","","",""
"","ISI","","html-keyboard-response","69","305416","0.0-1.0-84.0","0","0","85029","","null","","","null","9","NaN","","","","","","","","","","","","","","",""
"","S2","","html-keyboard-response","70","305669","0.0-1.0-85.0","0","0","85029","","null","","","null","9","","NaN","","","","","","","","","","","","","",""
"","response","","html-keyboard-response","71","306116","0.0-1.0-86.0-0.0","0","0","85029","","446","","","75","9","","","1","9","training","adjacent","CB","3","2","P.jpg","M.jpg","1","0","0","",""
"","feedback","","html-keyboard-response","72","307119","0.0-1.0-87.0-0.0","0","0","85029","","null","","","null","9","","","","","","","","","","","","","","","",""
"","time_out","","html-keyboard-response","73","309121","0.0-1.0-89.0-0.0","0","0","85029","","null","","","null","9","","","","","","","","","","","","","","","",""
"","ITI","","html-keyboard-response","74","310124","0.0-1.0-90.0","0","0","85029","","null","","","null","9","","","","","","","","","","","","","","","NaN",""
"","S1","","html-keyboard-response","75","310377","0.0-1.0-92.0","0","0","85029","","null","","","null","10","","","","","","","","","","","","","","","",""
"","ISI","","html-keyboard-response","76","311379","0.0-1.0-93.0","0","0","85029","","null","","","null","10","NaN","","","","","","","","","","","","","","",""
"","S2","","html-keyboard-response","77","311631","0.0-1.0-94.0","0","0","85029","","null","","","null","10","","NaN","","","","","","","","","","","","","",""
"","response","","html-keyboard-response","78","311653","0.0-1.0-95.0-0.0","0","0","85029","","21","","","68","10","","","1","10","training","adjacent","BA","2","1","M.jpg","L.jpg","0","0","1","",""
"","feedback","","html-keyboard-response","79","312656","0.0-1.0-96.0-0.0","0","0","85029","","null","","","null","10","","","","","","","","","","","","","","","",""
"","ITI","","html-keyboard-response","80","313658","0.0-1.0-99.0","0","0","85029","","null","","","null","10","","","","","","","","","","","","","","","NaN",""
"","S1","","html-keyboard-response","81","313911","0.0-1.0-101.0","0","0","85029","","null","","","null","11","","","","","","","","","","","","","","","",""
"","ISI","","html-keyboard-response","82","314913","0.0-1.0-102.0","0","0","85029","","null","","","null","11","NaN","","","","","","","","","","","","","","",""
"","S2","","html-keyboard-response","83","315165","0.0-1.0-103.0","0","0","85029","","null","","","null","11","","NaN","","","","","","","","","","","","","",""
"","response","","html-keyboard-response","84","315621","0.0-1.0-104.0-0.0","0","0","85029","","455","","","75","11","","","1","11","training","adjacent","GF","7","6","N.jpg","O.jpg","1","0","0","",""
"","feedback","","html-keyboard-response","85","316623","0.0-1.0-105.0-0.0","0","0","85029","","null","","","null","11","","","","","","","","","","","","","","","",""
"","time_out","","html-keyboard-response","86","318624","0.0-1.0-107.0-0.0","0","0","85029","","null","","","null","11","","","","","","","","","","","","","","","",""
"","ITI","","html-keyboard-response","87","319627","0.0-1.0-108.0","0","0","85029","","null","","","null","11","","","","","","","","","","","","","","","NaN",""
"","S1","","html-keyboard-response","88","319878","0.0-1.0-110.0","0","0","85029","","null","","","null","12","","","","","","","","","","","","","","","",""
"","ISI","","html-keyboard-response","89","320880","0.0-1.0-111.0","0","0","85029","","null","","","null","12","NaN","","","","","","","","","","","","","","",""
"","S2","","html-keyboard-response","90","321133","0.0-1.0-112.0","0","0","85029","","null","","","null","12","","NaN","","","","","","","","","","","","","",""
"","response","","html-keyboard-response","91","321206","0.0-1.0-113.0-0.0","0","0","85029","","72","","","68","12","","","1","12","training","adjacent","CD","3","4","P.jpg","Q.jpg","0","1","0","",""
"","feedback","","html-keyboard-response","92","322208","0.0-1.0-114.0-0.0","0","0","85029","","null","","","null","12","","","","","","","","","","","","","","","",""
"","time_out","","html-keyboard-response","93","324210","0.0-1.0-116.0-0.0","0","0","85029","","null","","","null","12","","","","","","","","","","","","","","","",""
"","ITI","","html-keyboard-response","94","325213","0.0-1.0-117.0","0","0","85029","","null","","","null","12","","","","","","","","","","","","","","","NaN",""
"","S1","","html-keyboard-response","95","325466","0.0-1.0-119.0","0","0","85029","","null","","","null","13","","","","","","","","","","","","","","","",""
"","ISI","","html-keyboard-response","96","326468","0.0-1.0-120.0","0","0","85029","","null","","","null","13","NaN","","","","","","","","","","","","","","",""
"","S2","","html-keyboard-response","97","326720","0.0-1.0-121.0","0","0","85029","","null","","","null","13","","NaN","","","","","","","","","","","","","",""
"","response","","html-keyboard-response","98","327096","0.0-1.0-122.0-0.0","0","0","85029","","375","","","68","13","","","1","13","training","adjacent","DE","4","5","Q.jpg","R.jpg","0","1","0","",""
"","feedback","","html-keyboard-response","99","328099","0.0-1.0-123.0-0.0","0","0","85029","","null","","","null","13","","","","","","","","","","","","","","","",""
"","time_out","","html-keyboard-response","100","330101","0.0-1.0-125.0-0.0","0","0","85029","","null","","","null","13","","","","","","","","","","","","","","","",""
"","ITI","","html-keyboard-response","101","331104","0.0-1.0-126.0","0","0","85029","","null","","","null","13","","","","","","","","","","","","","","","NaN",""
"","S1","","html-keyboard-response","102","331356","0.0-1.0-128.0","0","0","85029","","null","","","null","14","","","","","","","","","","","","","","","",""
"","ISI","","html-keyboard-response","103","332358","0.0-1.0-129.0","0","0","85029","","null","","","null","14","NaN","","","","","","","","","","","","","","",""
"","S2","","html-keyboard-response","104","332611","0.0-1.0-130.0","0","0","85029","","null","","","null","14","","NaN","","","","","","","","","","","","","",""
"","response","","html-keyboard-response","105","332969","0.0-1.0-131.0-0.0","0","0","85029","","357","","","75","14","","","1","14","training","adjacent","ED","5","4","R.jpg","Q.jpg","1","0","0","",""
"","feedback","","html-keyboard-response","106","333971","0.0-1.0-132.0-0.0","0","0","85029","","null","","","null","14","","","","","","","","","","","","","","","",""
"","time_out","","html-keyboard-response","107","335973","0.0-1.0-134.0-0.0","0","0","85029","","null","","","null","14","","","","","","","","","","","","","","","",""
"","ITI","","html-keyboard-response","108","336975","0.0-1.0-135.0","0","0","85029","","null","","","null","14","","","","","","","","","","","","","","","NaN",""
"","S1","","html-keyboard-response","109","337227","0.0-1.0-137.0","0","0","85029","","null","","","null","15","","","","","","","","","","","","","","","",""
"","ISI","","html-keyboard-response","110","338230","0.0-1.0-138.0","0","0","85029","","null","","","null","15","NaN","","","","","","","","","","","","","","",""
"","S2","","html-keyboard-response","111","338483","0.0-1.0-139.0","0","0","85029","","null","","","null","15","","NaN","","","","","","","","","","","","","",""
"","response","","html-keyboard-response","112","338697","0.0-1.0-140.0-0.0","0","0","85029","","213","","","68","15","","","1","15","training","adjacent","AB","1","2","L.jpg","M.jpg","0","1","0","",""
"","feedback","","html-keyboard-response","113","339698","0.0-1.0-141.0-0.0","0","0","85029","","null","","","null","15","","","","","","","","","","","","","","","",""
"","time_out","","html-keyboard-response","114","341700","0.0-1.0-143.0-0.0","0","0","85029","","null","","","null","15","","","","","","","","","","","","","","","",""
"","ITI","","html-keyboard-response","115","342703","0.0-1.0-144.0","0","0","85029","","null","","","null","15","","","","","","","","","","","","","","","NaN",""
"","S1","","html-keyboard-response","116","342955","0.0-1.0-146.0","0","0","85029","","null","","","null","16","","","","","","","","","","","","","","","",""
"","ISI","","html-keyboard-response","117","343957","0.0-1.0-147.0","0","0","85029","","null","","","null","16","NaN","","","","","","","","","","","","","","",""
"","S2","","html-keyboard-response","118","344209","0.0-1.0-148.0","0","0","85029","","null","","","null","16","","NaN","","","","","","","","","","","","","",""
"","response","","html-keyboard-response","119","344547","0.0-1.0-149.0-0.0","0","0","85029","","337","","","75","16","","","1","16","training","adjacent","AB","1","2","L.jpg","M.jpg","1","1","1","",""
"","feedback","","html-keyboard-response","120","345549","0.0-1.0-150.0-0.0","0","0","85029","","null","","","null","16","","","","","","","","","","","","","","","",""
"","ITI","","html-keyboard-response","121","346551","0.0-1.0-153.0","0","0","85029","","null","","","null","16","","","","","","","","","","","","","","","NaN",""
"","S1","","html-keyboard-response","122","346804","0.0-1.0-155.0","0","0","85029","","null","","","null","17","","","","","","","","","","","","","","","",""
"","ISI","","html-keyboard-response","123","347806","0.0-1.0-156.0","0","0","85029","","null","","","null","17","NaN","","","","","","","","","","","","","","",""
"","S2","","html-keyboard-response","124","348058","0.0-1.0-157.0","0","0","85029","","null","","","null","17","","NaN","","","","","","","","","","","","","",""
"","response","","html-keyboard-response","125","348210","0.0-1.0-158.0-0.0","0","0","85029","","149","","","68","17","","","1","17","training","adjacent","FG","6","7","O.jpg","N.jpg","0","1","0","",""
"","feedback","","html-keyboard-response","126","349213","0.0-1.0-159.0-0.0","0","0","85029","","null","","","null","17","","","","","","","","","","","","","","","",""
"","time_out","","html-keyboard-response","127","351215","0.0-1.0-161.0-0.0","0","0","85029","","null","","","null","17","","","","","","","","","","","","","","","",""
"","ITI","","html-keyboard-response","128","352217","0.0-1.0-162.0","0","0","85029","","null","","","null","17","","","","","","","","","","","","","","","NaN",""
"","S1","","html-keyboard-response","129","352469","0.0-1.0-164.0","0","0","85029","","null","","","null","18","","","","","","","","","","","","","","","",""
"","ISI","","html-keyboard-response","130","353471","0.0-1.0-165.0","0","0","85029","","null","","","null","18","NaN","","","","","","","","","","","","","","",""
"","S2","","html-keyboard-response","131","353724","0.0-1.0-166.0","0","0","85029","","null","","","null","18","","NaN","","","","","","","","","","","","","",""
"","response","","html-keyboard-response","132","353982","0.0-1.0-167.0-0.0","0","0","85029","","257","","","75","18","","","1","18","training","adjacent","DC","4","3","Q.jpg","P.jpg","1","0","0","",""
"","feedback","","html-keyboard-response","133","354984","0.0-1.0-168.0-0.0","0","0","85029","","null","","","null","18","","","","","","","","","","","","","","","",""
"","time_out","","html-keyboard-response","134","356987","0.0-1.0-170.0-0.0","0","0","85029","","null","","","null","18","","","","","","","","","","","","","","","",""
"","ITI","","html-keyboard-response","135","357990","0.0-1.0-171.0","0","0","85029","","null","","","null","18","","","","","","","","","","","","","","","NaN",""
"","S1","","html-keyboard-response","136","358241","0.0-1.0-173.0","0","0","85029","","null","","","null","19","","","","","","","","","","","","","","","",""
"","ISI","","html-keyboard-response","137","359243","0.0-1.0-174.0","0","0","85029","","null","","","null","19","NaN","","","","","","","","","","","","","","",""
"","S2","","html-keyboard-response","138","359495","0.0-1.0-175.0","0","0","85029","","null","","","null","19","","NaN","","","","","","","","","","","","","",""
"","response","","html-keyboard-response","139","359837","0.0-1.0-176.0-0.0","0","0","85029","","341","","","68","19","","","1","19","training","adjacent","AB","1","2","L.jpg","M.jpg","0","1","0","",""
"","feedback","","html-keyboard-response","140","360838","0.0-1.0-177.0-0.0","0","0","85029","","null","","","null","19","","","","","","","","","","","","","","","",""
"","time_out","","html-keyboard-response","141","362840","0.0-1.0-179.0-0.0","0","0","85029","","null","","","null","19","","","","","","","","","","","","","","","",""
"","ITI","","html-keyboard-response","142","363843","0.0-1.0-180.0","0","0","85029","","null","","","null","19","","","","","","","","","","","","","","","NaN",""
"","S1","","html-keyboard-response","143","364095","0.0-1.0-182.0","0","0","85029","","null","","","null","20","","","","","","","","","","","","","","","",""
"","ISI","","html-keyboard-response","144","365097","0.0-1.0-183.0","0","0","85029","","null","","","null","20","NaN","","","","","","","","","","","","","","",""
"","S2","","html-keyboard-response","145","365349","0.0-1.0-184.0","0","0","85029","","null","","","null","20","","NaN","","","","","","","","","","","","","",""
"","response","","html-keyboard-response","146","365373","0.0-1.0-185.0-0.0","0","0","85029","","23","","","75","20","","","1","20","training","adjacent","FG","6","7","O.jpg","N.jpg","1","1","1","",""
"","feedback","","html-keyboard-response","147","366375","0.0-1.0-186.0-0.0","0","0","85029","","null","","","null","20","","","","","","","","","","","","","","","",""
"","ITI","","html-keyboard-response","148","367377","0.0-1.0-189.0","0","0","85029","","null","","","null","20","","","","","","","","","","","","","","","NaN",""
"","S1","","html-keyboard-response","149","367629","0.0-1.0-191.0","0","0","85029","","null","","","null","21","","","","","","","","","","","","","","","",""
"","ISI","","html-keyboard-response","150","368632","0.0-1.0-192.0","0","0","85029","","null","","","null","21","NaN","","","","","","","","","","","","","","",""
"","S2","","html-keyboard-response","151","368883","0.0-1.0-193.0","0","0","85029","","null","","","null","21","","NaN","","","","","","","","","","","","","",""
"","response","","html-keyboard-response","152","369117","0.0-1.0-194.0-0.0","0","0","85029","","232","","","75","21","","","1","21","training","adjacent","EF","5","6","R.jpg","O.jpg","1","1","1","",""
"","feedback","","html-keyboard-response","153","370119","0.0-1.0-195.0-0.0","0","0","85029","","null","","","null","21","","","","","","","","","","","","","","","",""
"","ITI","","html-keyboard-response","154","371122","0.0-1.0-198.0","0","0","85029","","null","","","null","21","","","","","","","","","","","","","","","NaN",""
"","S1","","html-keyboard-response","155","371374","0.0-1.0-200.0","0","0","85029","","null","","","null","22","","","","","","","","","","","","","","","",""
"","ISI","","html-keyboard-response","156","372376","0.0-1.0-201.0","0","0","85029","","null","","","null","22","NaN","","","","","","","","","","","","","","",""
"","S2","","html-keyboard-response","157","372628","0.0-1.0-202.0","0","0","85029","","null","","","null","22","","NaN","","","","","","","","","","","","","",""
"","response","","html-keyboard-response","158","372829","0.0-1.0-203.0-0.0","0","0","85029","","200","","","75","22","","","1","22","training","adjacent","BA","2","1","M.jpg","L.jpg","1","0","0","",""
"","feedback","","html-keyboard-response","159","373832","0.0-1.0-204.0-0.0","0","0","85029","","null","","","null","22","","","","","","","","","","","","","","","",""
"","time_out","","html-keyboard-response","160","375834","0.0-1.0-206.0-0.0","0","0","85029","","null","","","null","22","","","","","","","","","","","","","","","",""
"","ITI","","html-keyboard-response","161","376836","0.0-1.0-207.0","0","0","85029","","null","","","null","22","","","","","","","","","","","","","","","NaN",""
"","S1","","html-keyboard-response","162","377088","0.0-1.0-209.0","0","0","85029","","null","","","null","23","","","","","","","","","","","","","","","",""
"","ISI","","html-keyboard-response","163","378089","0.0-1.0-210.0","0","0","85029","","null","","","null","23","NaN","","","","","","","","","","","","","","",""
"","S2","","html-keyboard-response","164","378341","0.0-1.0-211.0","0","0","85029","","null","","","null","23","","NaN","","","","","","","","","","","","","",""
"","response","","html-keyboard-response","165","378613","0.0-1.0-212.0-0.0","0","0","85029","","270","","","68","23","","","1","23","training","adjacent","CB","3","2","P.jpg","M.jpg","0","0","1","",""
"","feedback","","html-keyboard-response","166","379616","0.0-1.0-213.0-0.0","0","0","85029","","null","","","null","23","","","","","","","","","","","","","","","",""
"","ITI","","html-keyboard-response","167","380618","0.0-1.0-216.0","0","0","85029","","null","","","null","23","","","","","","","","","","","","","","","NaN",""
"","S1","","html-keyboard-response","168","380870","0.0-1.0-218.0","0","0","85029","","null","","","null","24","","","","","","","","","","","","","","","",""
"","ISI","","html-keyboard-response","169","381872","0.0-1.0-219.0","0","0","85029","","null","","","null","24","NaN","","","","","","","","","","","","","","",""
"","S2","","html-keyboard-response","170","382125","0.0-1.0-220.0","0","0","85029","","null","","","null","24","","NaN","","","","","","","","","","","","","",""
"","response","","html-keyboard-response","171","382486","0.0-1.0-221.0-0.0","0","0","85029","","360","","","68","24","","","1","24","training","adjacent","CB","3","2","P.jpg","M.jpg","0","0","1","",""
"","feedback","","html-keyboard-response","172","383488","0.0-1.0-222.0-0.0","0","0","85029","","null","","","null","24","","","","","","","","","","","","","","","",""
"","ITI","","html-keyboard-response","173","384490","0.0-1.0-225.0","0","0","85029","","null","","","null","24","","","","","","","","","","","","","","","NaN",""
"","S1","","html-keyboard-response","174","384742","0.0-1.0-227.0","0","0","85029","","null","","","null","25","","","","","","","","","","","","","","","",""
"","ISI","","html-keyboard-response","175","385745","0.0-1.0-228.0","0","0","85029","","null","","","null","25","NaN","","","","","","","","","","","","","","",""
"","S2","","html-keyboard-response","176","385997","0.0-1.0-229.0","0","0","85029","","null","","","null","25","","NaN","","","","","","","","","","","","","",""
"","response","","html-keyboard-response","177","386313","0.0-1.0-230.0-0.0","0","0","85029","","315","","","75","25","","","1","25","training","adjacent","ED","5","4","R.jpg","Q.jpg","1","0","0","",""
"","feedback","","html-keyboard-response","178","387316","0.0-1.0-231.0-0.0","0","0","85029","","null","","","null","25","","","","","","","","","","","","","","","",""
"","time_out","","html-keyboard-response","179","389318","0.0-1.0-233.0-0.0","0","0","85029","","null","","","null","25","","","","","","","","","","","","","","","",""
"","ITI","","html-keyboard-response","180","390319","0.0-1.0-234.0","0","0","85029","","null","","","null","25","","","","","","","","","","","","","","","NaN",""
"","S1","","html-keyboard-response","181","390572","0.0-1.0-236.0","0","0","85029","","null","","","null","26","","","","","","","","","","","","","","","",""
"","ISI","","html-keyboard-response","182","391574","0.0-1.0-237.0","0","0","85029","","null","","","null","26","NaN","","","","","","","","","","","","","","",""
"","S2","","html-keyboard-response","183","391826","0.0-1.0-238.0","0","0","85029","","null","","","null","26","","NaN","","","","","","","","","","","","","",""
"","response","","html-keyboard-response","184","392017","0.0-1.0-239.0-0.0","0","0","85029","","189","","","68","26","","","1","26","training","adjacent","ED","5","4","R.jpg","Q.jpg","0","0","1","",""
"","feedback","","html-keyboard-response","185","393020","0.0-1.0-240.0-0.0","0","0","85029","","null","","","null","26","","","","","","","","","","","","","","","",""
"","ITI","","html-keyboard-response","186","394022","0.0-1.0-243.0","0","0","85029","","null","","","null","26","","","","","","","","","","","","","","","NaN",""
"","S1","","html-keyboard-response","187","394274","0.0-1.0-245.0","0","0","85029","","null","","","null","27","","","","","","","","","","","","","","","",""
"","ISI","","html-keyboard-response","188","395276","0.0-1.0-246.0","0","0","85029","","null","","","null","27","NaN","","","","","","","","","","","","","","",""
"","S2","","html-keyboard-response","189","395529","0.0-1.0-247.0","0","0","85029","","null","","","null","27","","NaN","","","","","","","","","","","","","",""
"","response","","html-keyboard-response","190","395865","0.0-1.0-248.0-0.0","0","0","85029","","334","","","68","27","","","1","27","training","adjacent","CB","3","2","P.jpg","M.jpg","0","0","1","",""
"","feedback","","html-keyboard-response","191","396867","0.0-1.0-249.0-0.0","0","0","85029","","null","","","null","27","","","","","","","","","","","","","","","",""
"","ITI","","html-keyboard-response","192","397869","0.0-1.0-252.0","0","0","85029","","null","","","null","27","","","","","","","","","","","","","","","NaN",""
"","S1","","html-keyboard-response","193","398122","0.0-1.0-254.0","0","0","85029","","null","","","null","28","","","","","","","","","","","","","","","",""
"","ISI","","html-keyboard-response","194","399124","0.0-1.0-255.0","0","0","85029","","null","","","null","28","NaN","","","","","","","","","","","","","","",""
"","S2","","html-keyboard-response","195","399376","0.0-1.0-256.0","0","0","85029","","null","","","null","28","","NaN","","","","","","","","","","","","","",""
"","response","","html-keyboard-response","196","399506","0.0-1.0-257.0-0.0","0","0","85029","","128","","","68","28","","","1","28","training","adjacent","CD","3","4","P.jpg","Q.jpg","0","1","0","",""
"","feedback","","html-keyboard-response","197","400508","0.0-1.0-258.0-0.0","0","0","85029","","null","","","null","28","","","","","","","","","","","","","","","",""
"","time_out","","html-keyboard-response","198","402510","0.0-1.0-260.0-0.0","0","0","85029","","null","","","null","28","","","","","","","","","","","","","","","",""
"","ITI","","html-keyboard-response","199","403512","0.0-1.0-261.0","0","0","85029","","null","","","null","28","","","","","","","","","","","","","","","NaN",""
"","S1","","html-keyboard-response","200","403764","0.0-1.0-263.0","0","0","85029","","null","","","null","29","","","","","","","","","","","","","","","",""
"","ISI","","html-keyboard-response","201","404765","0.0-1.0-264.0","0","0","85029","","null","","","null","29","NaN","","","","","","","","","","","","","","",""
"","S2","","html-keyboard-response","202","405017","0.0-1.0-265.0","0","0","85029","","null","","","null","29","","NaN","","","","","","","","","","","","","",""
"","response","","html-keyboard-response","203","405069","0.0-1.0-266.0-0.0","0","0","85029","","51","","","75","29","","","1","29","training","adjacent","EF","5","6","R.jpg","O.jpg","1","1","1","",""
"","feedback","","html-keyboard-response","204","406072","0.0-1.0-267.0-0.0","0","0","85029","","null","","","null","29","","","","","","","","","","","","","","","",""
"","ITI","","html-keyboard-response","205","407074","0.0-1.0-270.0","0","0","85029","","null","","","null","29","","","","","","","","","","","","","","","NaN",""
"","S1","","html-keyboard-response","206","407326","0.0-1.0-272.0","0","0","85029","","null","","","null","30","","","","","","","","","","","","","","","",""
"","ISI","","html-keyboard-response","207","408329","0.0-1.0-273.0","0","0","85029","","null","","","null","30","NaN","","","","","","","","","","","","","","",""
"","S2","","html-keyboard-response","208","408581","0.0-1.0-274.0","0","0","85029","","null","","","null","30","","NaN","","","","","","","","","","","","","",""
"","response","","html-keyboard-response","209","408881","0.0-1.0-275.0-0.0","0","0","85029","","299","","","68","30","","","1","30","training","adjacent","FG","6","7","O.jpg","N.jpg","0","1","0","",""
"","feedback","","html-keyboard-response","210","409883","0.0-1.0-276.0-0.0","0","0","85029","","null","","","null","30","","","","","","","","","","","","","","","",""
"","time_out","","html-keyboard-response","211","411886","0.0-1.0-278.0-0.0","0","0","85029","","null","","","null","30","","","","","","","","","","","","","","","",""
"","ITI","","html-keyboard-response","212","412888","0.0-1.0-279.0","0","0","85029","","null","","","null","30","","","","","","","","","","","","","","","NaN",""
"","S1","","html-keyboard-response","213","413141","0.0-1.0-281.0","0","0","85029","","null","","","null","31","","","","","","","","","","","","","","","",""
"","ISI","","html-keyboard-response","214","414144","0.0-1.0-282.0","0","0","85029","","null","","","null","31","NaN","","","","","","","","","","","","","","",""
"","S2","","html-keyboard-response","215","414396","0.0-1.0-283.0","0","0","85029","","null","","","null","31","","NaN","","","","","","","","","","","","","",""
"","response","","html-keyboard-response","216","414822","0.0-1.0-284.0-0.0","0","0","85029","","425","","","75","31","","","1","31","training","adjacent","DC","4","3","Q.jpg","P.jpg","1","0","0","",""
"","feedback","","html-keyboard-response","217","415826","0.0-1.0-285.0-0.0","0","0","85029","","null","","","null","31","","","","","","","","","","","","","","","",""
"","time_out","","html-keyboard-response","218","417828","0.0-1.0-287.0-0.0","0","0","85029","","null","","","null","31","","","","","","","","","","","","","","","",""
"","ITI","","html-keyboard-response","219","418831","0.0-1.0-288.0","0","0","85029","","null","","","null","31","","","","","","","","","","","","","","","NaN",""
"","S1","","html-keyboard-response","220","419084","0.0-1.0-290.0","0","0","85029","","null","","","null","32","","","","","","","","","","","","","","","",""
"","ISI","","html-keyboard-response","221","420085","0.0-1.0-291.0","0","0","85029","","null","","","null","32","NaN","","","","","","","","","","","","","","",""
"","S2","","html-keyboard-response","222","420337","0.0-1.0-292.0","0","0","85029","","null","","","null","32","","NaN","","","","","","","","","","","","","",""
"","response","","html-keyboard-response","223","420600","0.0-1.0-293.0-0.0","0","0","85029","","261","","","68","32","","","1","32","training","adjacent","GF","7","6","N.jpg","O.jpg","0","0","1","",""
"","feedback","","html-keyboard-response","224","421603","0.0-1.0-294.0-0.0","0","0","85029","","null","","","null","32","","","","","","","","","","","","","","","",""
"","ITI","","html-keyboard-response","225","422606","0.0-1.0-297.0","0","0","85029","","null","","","null","32","","","","","","","","","","","","","","","NaN",""
"","S1","","html-keyboard-response","226","422859","0.0-1.0-299.0","0","0","85029","","null","","","null","33","","","","","","","","","","","","","","","",""
"","ISI","","html-keyboard-response","227","423860","0.0-1.0-300.0","0","0","85029","","null","","","null","33","NaN","","","","","","","","","","","","","","",""
"","S2","","html-keyboard-response","228","424112","0.0-1.0-301.0","0","0","85029","","null","","","null","33","","NaN","","","","","","","","","","","","","",""
"","response","","html-keyboard-response","229","424293","0.0-1.0-302.0-0.0","0","0","85029","","179","","","68","33","","","1","33","training","adjacent","BC","2","3","M.jpg","P.jpg","0","1","0","",""
"","feedback","","html-keyboard-response","230","425296","0.0-1.0-303.0-0.0","0","0","85029","","null","","","null","33","","","","","","","","","","","","","","","",""
"","time_out","","html-keyboard-response","231","427299","0.0-1.0-305.0-0.0","0","0","85029","","null","","","null","33","","","","","","","","","","","","","","","",""
"","ITI","","html-keyboard-response","232","428301","0.0-1.0-306.0","0","0","85029","","null","","","null","33","","","","","","","","","","","","","","","NaN",""
"","S1","","html-keyboard-response","233","428554","0.0-1.0-308.0","0","0","85029","","null","","","null","34","","","","","","","","","","","","","","","",""
"","ISI","","html-keyboard-response","234","429556","0.0-1.0-309.0","0","0","85029","","null","","","null","34","NaN","","","","","","","","","","","","","","",""
"","S2","","html-keyboard-response","235","429808","0.0-1.0-310.0","0","0","85029","","null","","","null","34","","NaN","","","","","","","","","","","","","",""
"","response","","html-keyboard-response","236","430046","0.0-1.0-311.0-0.0","0","0","85029","","237","","","68","34","","","1","34","training","adjacent","DE","4","5","Q.jpg","R.jpg","0","1","0","",""
"","feedback","","html-keyboard-response","237","431047","0.0-1.0-312.0-0.0","0","0","85029","","null","","","null","34","","","","","","","","","","","","","","","",""
"","time_out","","html-keyboard-response","238","433049","0.0-1.0-314.0-0.0","0","0","85029","","null","","","null","34","","","","","","","","","","","","","","","",""
"","ITI","","html-keyboard-response","239","434051","0.0-1.0-315.0","0","0","85029","","null","","","null","34","","","","","","","","","","","","","","","NaN",""
"","S1","","html-keyboard-response","240","434303","0.0-1.0-317.0","0","0","85029","","null","","","null","35","","","","","","","","","","","","","","","",""
"","ISI","","html-keyboard-response","241","435306","0.0-1.0-318.0","0","0","85029","","null","","","null","35","NaN","","","","","","","","","","","","","","",""
"","S2","","html-keyboard-response","242","435559","0.0-1.0-319.0","0","0","85029","","null","","","null","35","","NaN","","","","","","","","","","","","","",""
"","response","","html-keyboard-response","243","435726","0.0-1.0-320.0-0.0","0","0","85029","","166","","","75","35","","","1","35","training","adjacent","BC","2","3","M.jpg","P.jpg","1","1","1","",""
"","feedback","","html-keyboard-response","244","436728","0.0-1.0-321.0-0.0","0","0","85029","","null","","","null","35","","","","","","","","","","","","","","","",""
"","ITI","","html-keyboard-response","245","437730","0.0-1.0-324.0","0","0","85029","","null","","","null","35","","","","","","","","","","","","","","","NaN",""
"","S1","","html-keyboard-response","246","437982","0.0-1.0-326.0","0","0","85029","","null","","","null","36","","","","","","","","","","","","","","","",""
"","ISI","","html-keyboard-response","247","438985","0.0-1.0-327.0","0","0","85029","","null","","","null","36","NaN","","","","","","","","","","","","","","",""
"","S2","","html-keyboard-response","248","439236","0.0-1.0-328.0","0","0","85029","","null","","","null","36","","NaN","","","","","","","","","","","","","",""
"","response","","html-keyboard-response","249","439625","0.0-1.0-329.0-0.0","0","0","85029","","387","","","68","36","","","1","36","training","adjacent","ED","5","4","R.jpg","Q.jpg","0","0","1","",""
"","feedback","","html-keyboard-response","250","440627","0.0-1.0-330.0-0.0","0","0","85029","","null","","","null","36","","","","","","","","","","","","","","","",""
"","ITI","","html-keyboard-response","251","441630","0.0-1.0-333.0","0","0","85029","","null","","","null","36","","","","","","","","","","","","","","","NaN",""
"","S1","","html-keyboard-response","252","441883","0.0-1.0-335.0","0","0","85029","","null","","","null","37","","","","","","","","","","","","","","","",""
"","ISI","","html-keyboard-response","253","442885","0.0-1.0-336.0","0","0","85029","","null","","","null","37","NaN","","","","","","","","","","","","","","",""
"","S2","","html-keyboard-response","254","443137","0.0-1.0-337.0","0","0","85029","","null","","","null","37","","NaN","","","","","","","","","","","","","",""
"","response","","html-keyboard-response","255","443228","0.0-1.0-338.0-0.0","0","0","85029","","90","","","68","37","","","1","37","training","adjacent","BA","2","1","M.jpg","L.jpg","0","0","1","",""
"","feedback","","html-keyboard-response","256","444231","0.0-1.0-339.0-0.0","0","0","85029","","null","","","null","37","","","","","","","","","","","","","","","",""
"","ITI","","html-keyboard-response","257","445232","0.0-1.0-342.0","0","0","85029","","null","","","null","37","","","","","","","","","","","","","","","NaN",""
"","S1","","html-keyboard-response","258","445484","0.0-1.0-344.0","0","0","85029","","null","","","null","38","","","","","","","","","","","","","","","",""
"","ISI","","html-keyboard-response","259","446487","0.0-1.0-345.0","0","0","85029","","null","","","null","38","NaN","","","","","","","","","","","","","","",""
"","S2","","html-keyboard-response","260","446739","0.0-1.0-346.0","0","0","85029","","null","","","null","38","","NaN","","","","","","","","","","","","","",""
"","response","","html-keyboard-response","261","447049","0.0-1.0-347.0-0.0","0","0","85029","","309","","","75","38","","","1","38","training","adjacent","FG","6","7","O.jpg","N.jpg","1","1","1","",""
"","feedback","","html-keyboard-response","262","448051","0.0-1.0-348.0-0.0","0","0","85029","","null","","","null","38","","","","","","","","","","","","","","","",""
"","ITI","","html-keyboard-response","263","449053","0.0-1.0-351.0","0","0","85029","","null","","","null","38","","","","","","","","","","","","","","","NaN",""
"","S1","","html-keyboard-response","264","449306","0.0-1.0-353.0","0","0","85029","","null","","","null","39","","","","","","","","","","","","","","","",""
"","ISI","","html-keyboard-response","265","450308","0.0-1.0-354.0","0","0","85029","","null","","","null","39","NaN","","","","","","","","","","","","","","",""
"","S2","","html-keyboard-response","266","450560","0.0-1.0-355.0","0","0","85029","","null","","","null","39","","NaN","","","","","","","","","","","","","",""
"","response","","html-keyboard-response","267","450795","0.0-1.0-356.0-0.0","0","0","85029","","234","","","75","39","","","1","39","training","adjacent","FE","6","5","O.jpg","R.jpg","1","0","0","",""
"","feedback","","html-keyboard-response","268","451796","0.0-1.0-357.0-0.0","0","0","85029","","null","","","null","39","","","","","","","","","","","","","","","",""
"","time_out","","html-keyboard-response","269","453799","0.0-1.0-359.0-0.0","0","0","85029","","null","","","null","39","","","","","","","","","","","","","","","",""
"","ITI","","html-keyboard-response","270","454801","0.0-1.0-360.0","0","0","85029","","null","","","null","39","","","","","","","","","","","","","","","NaN",""
"","S1","","html-keyboard-response","271","455053","0.0-1.0-362.0","0","0","85029","","null","","","null","40","","","","","","","","","","","","","","","",""
"","ISI","","html-keyboard-response","272","456057","0.0-1.0-363.0","0","0","85029","","null","","","null","40","NaN","","","","","","","","","","","","","","",""
"","S2","","html-keyboard-response","273","456312","0.0-1.0-364.0","0","0","85029","","null","","","null","40","","NaN","","","","","","","","","","","","","",""
"","response","","html-keyboard-response","274","456448","0.0-1.0-365.0-0.0","0","0","85029","","134","","","75","40","","","1","40","training","adjacent","EF","5","6","R.jpg","O.jpg","1","1","1","",""
"","feedback","","html-keyboard-response","275","457451","0.0-1.0-366.0-0.0","0","0","85029","","null","","","null","40","","","","","","","","","","","","","","","",""
"","ITI","","html-keyboard-response","276","458453","0.0-1.0-369.0","0","0","85029","","null","","","null","40","","","","","","","","","","","","","","","NaN",""
"","S1","","html-keyboard-response","277","458705","0.0-1.0-371.0","0","0","85029","","null","","","null","41","","","","","","","","","","","","","","","",""
"","ISI","","html-keyboard-response","278","459707","0.0-1.0-372.0","0","0","85029","","null","","","null","41","NaN","","","","","","","","","","","","","","",""
"","S2","","html-keyboard-response","279","459959","0.0-1.0-373.0","0","0","85029","","null","","","null","41","","NaN","","","","","","","","","","","","","",""
"","response","","html-keyboard-response","280","460315","0.0-1.0-374.0-0.0","0","0","85029","","354","","","75","41","","","1","41","training","adjacent","FE","6","5","O.jpg","R.jpg","1","0","0","",""
"","feedback","","html-keyboard-response","281","461318","0.0-1.0-375.0-0.0","0","0","85029","","null","","","null","41","","","","","","","","","","","","","","","",""
"","time_out","","html-keyboard-response","282","463322","0.0-1.0-377.0-0.0","0","0","85029","","null","","","null","41","","","","","","","","","","","","","","","",""
"","ITI","","html-keyboard-response","283","464324","0.0-1.0-378.0","0","0","85029","","null","","","null","41","","","","","","","","","","","","","","","NaN",""
"","S1","","html-keyboard-response","284","464576","0.0-1.0-380.0","0","0","85029","","null","","","null","42","","","","","","","","","","","","","","","",""
"","ISI","","html-keyboard-response","285","465578","0.0-1.0-381.0","0","0","85029","","null","","","null","42","NaN","","","","","","","","","","","","","","",""
"","S2","","html-keyboard-response","286","465830","0.0-1.0-382.0","0","0","85029","","null","","","null","42","","NaN","","","","","","","","","","","","","",""
"","response","","html-keyboard-response","287","466512","0.0-1.0-383.0-0.0","0","0","85029","","681","","","75","42","","","1","42","training","adjacent","BC","2","3","M.jpg","P.jpg","1","1","1","",""
"","feedback","","html-keyboard-response","288","467515","0.0-1.0-384.0-0.0","0","0","85029","","null","","","null","42","","","","","","","","","","","","","","","",""
"","ITI","","html-keyboard-response","289","468520","0.0-1.0-387.0","0","0","85029","","null","","","null","42","","","","","","","","","","","","","","","NaN",""
"","S1","","html-keyboard-response","290","468773","0.0-1.0-389.0","0","0","85029","","null","","","null","43","","","","","","","","","","","","","","","",""
"","ISI","","html-keyboard-response","291","469776","0.0-1.0-390.0","0","0","85029","","null","","","null","43","NaN","","","","","","","","","","","","","","",""
"","S2","","html-keyboard-response","292","470029","0.0-1.0-391.0","0","0","85029","","null","","","null","43","","NaN","","","","","","","","","","","","","",""
"","response","","html-keyboard-response","293","470533","0.0-1.0-392.0-0.0","0","0","85029","","502","","","68","43","","","1","43","training","adjacent","DC","4","3","Q.jpg","P.jpg","0","0","1","",""
"","feedback","","html-keyboard-response","294","471536","0.0-1.0-393.0-0.0","0","0","85029","","null","","","null","43","","","","","","","","","","","","","","","",""
"","ITI","","html-keyboard-response","295","472537","0.0-1.0-396.0","0","0","85029","","null","","","null","43","","","","","","","","","","","","","","","NaN",""
"","S1","","html-keyboard-response","296","472790","0.0-1.0-398.0","0","0","85029","","null","","","null","44","","","","","","","","","","","","","","","",""
"","ISI","","html-keyboard-response","297","473792","0.0-1.0-399.0","0","0","85029","","null","","","null","44","NaN","","","","","","","","","","","","","","",""
"","S2","","html-keyboard-response","298","474045","0.0-1.0-400.0","0","0","85029","","null","","","null","44","","NaN","","","","","","","","","","","","","",""
"","response","","html-keyboard-response","299","474359","0.0-1.0-401.0-0.0","0","0","85029","","311","","","75","44","","","1","44","training","adjacent","DE","4","5","Q.jpg","R.jpg","1","1","1","",""
"","feedback","","html-keyboard-response","300","475362","0.0-1.0-402.0-0.0","0","0","85029","","null","","","null","44","","","","","","","","","","","","","","","",""
"","ITI","","html-keyboard-response","301","476365","0.0-1.0-405.0","0","0","85029","","null","","","null","44","","","","","","","","","","","","","","","NaN",""
"","S1","","html-keyboard-response","302","476617","0.0-1.0-407.0","0","0","85029","","null","","","null","45","","","","","","","","","","","","","","","",""
"","ISI","","html-keyboard-response","303","477620","0.0-1.0-408.0","0","0","85029","","null","","","null","45","NaN","","","","","","","","","","","","","","",""
"","S2","","html-keyboard-response","304","477872","0.0-1.0-409.0","0","0","85029","","null","","","null","45","","NaN","","","","","","","","","","","","","",""
"","response","","html-keyboard-response","305","478044","0.0-1.0-410.0-0.0","0","0","85029","","171","","","68","45","","","1","45","training","adjacent","GF","7","6","N.jpg","O.jpg","0","0","1","",""
"","feedback","","html-keyboard-response","306","479047","0.0-1.0-411.0-0.0","0","0","85029","","null","","","null","45","","","","","","","","","","","","","","","",""
"","ITI","","html-keyboard-response","307","480049","0.0-1.0-414.0","0","0","85029","","null","","","null","45","","","","","","","","","","","","","","","NaN",""
"","S1","","html-keyboard-response","308","480300","0.0-1.0-416.0","0","0","85029","","null","","","null","46","","","","","","","","","","","","","","","",""
"","ISI","","html-keyboard-response","309","481302","0.0-1.0-417.0","0","0","85029","","null","","","null","46","NaN","","","","","","","","","","","","","","",""
"","S2","","html-keyboard-response","310","481556","0.0-1.0-418.0","0","0","85029","","null","","","null","46","","NaN","","","","","","","","","","","","","",""
"","response","","html-keyboard-response","311","481725","0.0-1.0-419.0-0.0","0","0","85029","","167","","","68","46","","","1","46","training","adjacent","CD","3","4","P.jpg","Q.jpg","0","1","0","",""
"","feedback","","html-keyboard-response","312","482728","0.0-1.0-420.0-0.0","0","0","85029","","null","","","null","46","","","","","","","","","","","","","","","",""
"","time_out","","html-keyboard-response","313","484729","0.0-1.0-422.0-0.0","0","0","85029","","null","","","null","46","","","","","","","","","","","","","","","",""
"","ITI","","html-keyboard-response","314","485731","0.0-1.0-423.0","0","0","85029","","null","","","null","46","","","","","","","","","","","","","","","NaN",""
"","S1","","html-keyboard-response","315","485983","0.0-1.0-425.0","0","0","85029","","null","","","null","47","","","","","","","","","","","","","","","",""
"","ISI","","html-keyboard-response","316","486985","0.0-1.0-426.0","0","0","85029","","null","","","null","47","NaN","","","","","","","","","","","","","","",""
"","S2","","html-keyboard-response","317","487237","0.0-1.0-427.0","0","0","85029","","null","","","null","47","","NaN","","","","","","","","","","","","","",""
"","response","","html-keyboard-response","318","487285","0.0-1.0-428.0-0.0","0","0","85029","","47","","","68","47","","","1","47","training","adjacent","FE","6","5","O.jpg","R.jpg","0","0","1","",""
"","feedback","","html-keyboard-response","319","488288","0.0-1.0-429.0-0.0","0","0","85029","","null","","","null","47","","","","","","","","","","","","","","","",""
"","ITI","","html-keyboard-response","320","489290","0.0-1.0-432.0","0","0","85029","","null","","","null","47","","","","","","","","","","","","","","","NaN",""
"","block_over","","html-keyboard-response","321","492685","0.0-1.0-433.0-0.0","0","0","85029","","3393","","","32","47","","","","","","","","","","","","","","","",""
"","S1","","html-keyboard-response","322","492937","0.0-1.0-434.0","0","0","85029","","null","","","null","48","","","","","","","","","","","","","","","",""
"","ISI","","html-keyboard-response","323","493940","0.0-1.0-435.0","0","0","85029","","null","","","null","48","NaN","","","","","","","","","","","","","","",""
"","S2","","html-keyboard-response","324","494192","0.0-1.0-436.0","0","0","85029","","null","","","null","48","","NaN","","","","","","","","","","","","","",""
"","response","","html-keyboard-response","325","494276","0.0-1.0-437.0-0.0","0","0","85029","","83","","","75","48","","","2","48","training","adjacent","FE","6","5","O.jpg","R.jpg","1","0","0","",""
"","feedback","","html-keyboard-response","326","495280","0.0-1.0-438.0-0.0","0","0","85029","","null","","","null","48","","","","","","","","","","","","","","","",""
"","time_out","","html-keyboard-response","327","497283","0.0-1.0-440.0-0.0","0","0","85029","","null","","","null","48","","","","","","","","","","","","","","","",""
"","ITI","","html-keyboard-response","328","498285","0.0-1.0-441.0","0","0","85029","","null","","","null","48","","","","","","","","","","","","","","","NaN",""
"","S1","","html-keyboard-response","329","498538","0.0-1.0-443.0","0","0","85029","","null","","","null","49","","","","","","","","","","","","","","","",""
"","ISI","","html-keyboard-response","330","499541","0.0-1.0-444.0","0","0","85029","","null","","","null","49","NaN","","","","","","","","","","","","","","",""
"","S2","","html-keyboard-response","331","499793","0.0-1.0-445.0","0","0","85029","","null","","","null","49","","NaN","","","","","","","","","","","","","",""
"","response","","html-keyboard-response","332","499960","0.0-1.0-446.0-0.0","0","0","85029","","166","","","75","49","","","2","49","training","adjacent","DC","4","3","Q.jpg","P.jpg","1","0","0","",""
"","feedback","","html-keyboard-response","333","500962","0.0-1.0-447.0-0.0","0","0","85029","","null","","","null","49","","","","","","","","","","","","","","","",""
"","time_out","","html-keyboard-response","334","502964","0.0-1.0-449.0-0.0","0","0","85029","","null","","","null","49","","","","","","","","","","","","","","","",""
"","ITI","","html-keyboard-response","335","503966","0.0-1.0-450.0","0","0","85029","","null","","","null","49","","","","","","","","","","","","","","","NaN",""
"","S1","","html-keyboard-response","336","504218","0.0-1.0-452.0","0","0","85029","","null","","","null","50","","","","","","","","","","","","","","","",""
"","ISI","","html-keyboard-response","337","505220","0.0-1.0-453.0","0","0","85029","","null","","","null","50","NaN","","","","","","","","","","","","","","",""
"","S2","","html-keyboard-response","338","505473","0.0-1.0-454.0","0","0","85029","","null","","","null","50","","NaN","","","","","","","","","","","","","",""
"","response","","html-keyboard-response","339","505792","0.0-1.0-455.0-0.0","0","0","85029","","318","","","68","50","","","2","50","training","adjacent","CD","3","4","P.jpg","Q.jpg","0","1","0","",""
"","feedback","","html-keyboard-response","340","506794","0.0-1.0-456.0-0.0","0","0","85029","","null","","","null","50","","","","","","","","","","","","","","","",""
"","time_out","","html-keyboard-response","341","508796","0.0-1.0-458.0-0.0","0","0","85029","","null","","","null","50","","","","","","","","","","","","","","","",""
"","ITI","","html-keyboard-response","342","509799","0.0-1.0-459.0","0","0","85029","","null","","","null","50","","","","","","","","","","","","","","","NaN",""
"","S1","","html-keyboard-response","343","510051","0.0-1.0-461.0","0","0","85029","","null","","","null","51","","","","","","","","","","","","","","","",""
"","ISI","","html-keyboard-response","344","511053","0.0-1.0-462.0","0","0","85029","","null","","","null","51","NaN","","","","","","","","","","","","","","",""
"","S2","","html-keyboard-response","345","511305","0.0-1.0-463.0","0","0","85029","","null","","","null","51","","NaN","","","","","","","","","","","","","",""
"","response","","html-keyboard-response","346","511400","0.0-1.0-464.0-0.0","0","0","85029","","94","","","75","51","","","2","51","training","adjacent","EF","5","6","R.jpg","O.jpg","1","1","1","",""
"","feedback","","html-keyboard-response","347","512402","0.0-1.0-465.0-0.0","0","0","85029","","null","","","null","51","","","","","","","","","","","","","","","",""
"","ITI","","html-keyboard-response","348","513404","0.0-1.0-468.0","0","0","85029","","null","","","null","51","","","","","","","","","","","","","","","NaN",""
"","S1","","html-keyboard-response","349","513656","0.0-1.0-470.0","0","0","85029","","null","","","null","52","","","","","","","","","","","","","","","",""
"","ISI","","html-keyboard-response","350","514659","0.0-1.0-471.0","0","0","85029","","null","","","null","52","NaN","","","","","","","","","","","","","","",""
"","S2","","html-keyboard-response","351","514913","0.0-1.0-472.0","0","0","85029","","null","","","null","52","","NaN","","","","","","","","","","","","","",""
"","response","","html-keyboard-response","352","514968","0.0-1.0-473.0-0.0","0","0","85029","","54","","","68","52","","","2","52","training","adjacent","GF","7","6","N.jpg","O.jpg","0","0","1","",""
"","feedback","","html-keyboard-response","353","515971","0.0-1.0-474.0-0.0","0","0","85029","","null","","","null","52","","","","","","","","","","","","","","","",""
"","ITI","","html-keyboard-response","354","516973","0.0-1.0-477.0","0","0","85029","","null","","","null","52","","","","","","","","","","","","","","","NaN",""
"","S1","","html-keyboard-response","355","517225","0.0-1.0-479.0","0","0","85029","","null","","","null","53","","","","","","","","","","","","","","","",""
"","ISI","","html-keyboard-response","356","518227","0.0-1.0-480.0","0","0","85029","","null","","","null","53","NaN","","","","","","","","","","","","","","",""
"","S2","","html-keyboard-response","357","518481","0.0-1.0-481.0","0","0","85029","","null","","","null","53","","NaN","","","","","","","","","","","","","",""
"","response","","html-keyboard-response","358","518536","0.0-1.0-482.0-0.0","0","0","85029","","53","","","75","53","","","2","53","training","adjacent","FG","6","7","O.jpg","N.jpg","1","1","1","",""
"","feedback","","html-keyboard-response","359","519539","0.0-1.0-483.0-0.0","0","0","85029","","null","","","null","53","","","","","","","","","","","","","","","",""
"","ITI","","html-keyboard-response","360","520542","0.0-1.0-486.0","0","0","85029","","null","","","null","53","","","","","","","","","","","","","","","NaN",""
"","S1","","html-keyboard-response","361","520794","0.0-1.0-488.0","0","0","85029","","null","","","null","54","","","","","","","","","","","","","","","",""
"","ISI","","html-keyboard-response","362","521796","0.0-1.0-489.0","0","0","85029","","null","","","null","54","NaN","","","","","","","","","","","","","","",""
"","S2","","html-keyboard-response","363","522049","0.0-1.0-490.0","0","0","85029","","null","","","null","54","","NaN","","","","","","","","","","","","","",""
"","response","","html-keyboard-response","364","522304","0.0-1.0-491.0-0.0","0","0","85029","","254","","","68","54","","","2","54","training","adjacent","BA","2","1","M.jpg","L.jpg","0","0","1","",""
"","feedback","","html-keyboard-response","365","523308","0.0-1.0-492.0-0.0","0","0","85029","","null","","","null","54","","","","","","","","","","","","","","","",""
"","ITI","","html-keyboard-response","366","524310","0.0-1.0-495.0","0","0","85029","","null","","","null","54","","","","","","","","","","","","","","","NaN",""
"","S1","","html-keyboard-response","367","524562","0.0-1.0-497.0","0","0","85029","","null","","","null","55","","","","","","","","","","","","","","","",""
"","ISI","","html-keyboard-response","368","525564","0.0-1.0-498.0","0","0","85029","","null","","","null","55","NaN","","","","","","","","","","","","","","",""
"","S2","","html-keyboard-response","369","525816","0.0-1.0-499.0","0","0","85029","","null","","","null","55","","NaN","","","","","","","","","","","","","",""
"","response","","html-keyboard-response","370","525933","0.0-1.0-500.0-0.0","0","0","85029","","116","","","75","55","","","2","55","training","adjacent","GF","7","6","N.jpg","O.jpg","1","0","0","",""
"","feedback","","html-keyboard-response","371","526935","0.0-1.0-501.0-0.0","0","0","85029","","null","","","null","55","","","","","","","","","","","","","","","",""
"","time_out","","html-keyboard-response","372","528937","0.0-1.0-503.0-0.0","0","0","85029","","null","","","null","55","","","","","","","","","","","","","","","",""
"","ITI","","html-keyboard-response","373","529940","0.0-1.0-504.0","0","0","85029","","null","","","null","55","","","","","","","","","","","","","","","NaN",""
"","S1","","html-keyboard-response","374","530192","0.0-1.0-506.0","0","0","85029","","null","","","null","56","","","","","","","","","","","","","","","",""
"","ISI","","html-keyboard-response","375","531194","0.0-1.0-507.0","0","0","85029","","null","","","null","56","NaN","","","","","","","","","","","","","","",""
"","S2","","html-keyboard-response","376","531446","0.0-1.0-508.0","0","0","85029","","null","","","null","56","","NaN","","","","","","","","","","","","","",""
"","response","","html-keyboard-response","377","531540","0.0-1.0-509.0-0.0","0","0","85029","","93","","","75","56","","","2","56","training","adjacent","AB","1","2","L.jpg","M.jpg","1","1","1","",""
"","feedback","","html-keyboard-response","378","532542","0.0-1.0-510.0-0.0","0","0","85029","","null","","","null","56","","","","","","","","","","","","","","","",""
"","ITI","","html-keyboard-response","379","533545","0.0-1.0-513.0","0","0","85029","","null","","","null","56","","","","","","","","","","","","","","","NaN",""
"","S1","","html-keyboard-response","380","533797","0.0-1.0-515.0","0","0","85029","","null","","","null","57","","","","","","","","","","","","","","","",""
"","ISI","","html-keyboard-response","381","534799","0.0-1.0-516.0","0","0","85029","","null","","","null","57","NaN","","","","","","","","","","","","","","",""
"","S2","","html-keyboard-response","382","535051","0.0-1.0-517.0","0","0","85029","","null","","","null","57","","NaN","","","","","","","","","","","","","",""
"","response","","html-keyboard-response","383","535252","0.0-1.0-518.0-0.0","0","0","85029","","200","","","68","57","","","2","57","training","adjacent","EF","5","6","R.jpg","O.jpg","0","1","0","",""
"","feedback","","html-keyboard-response","384","536255","0.0-1.0-519.0-0.0","0","0","85029","","null","","","null","57","","","","","","","","","","","","","","","",""
"","time_out","","html-keyboard-response","385","538258","0.0-1.0-521.0-0.0","0","0","85029","","null","","","null","57","","","","","","","","","","","","","","","",""
"","ITI","","html-keyboard-response","386","539261","0.0-1.0-522.0","0","0","85029","","null","","","null","57","","","","","","","","","","","","","","","NaN",""
"","S1","","html-keyboard-response","387","539513","0.0-1.0-524.0","0","0","85029","","null","","","null","58","","","","","","","","","","","","","","","",""
"","ISI","","html-keyboard-response","388","540515","0.0-1.0-525.0","0","0","85029","","null","","","null","58","NaN","","","","","","","","","","","","","","",""
"","S2","","html-keyboard-response","389","540767","0.0-1.0-526.0","0","0","85029","","null","","","null","58","","NaN","","","","","","","","","","","","","",""
"","response","","html-keyboard-response","390","540853","0.0-1.0-527.0-0.0","0","0","85029","","85","","","75","58","","","2","58","training","adjacent","CB","3","2","P.jpg","M.jpg","1","0","0","",""
"","feedback","","html-keyboard-response","391","541855","0.0-1.0-528.0-0.0","0","0","85029","","null","","","null","58","","","","","","","","","","","","","","","",""
"","time_out","","html-keyboard-response","392","543857","0.0-1.0-530.0-0.0","0","0","85029","","null","","","null","58","","","","","","","","","","","","","","","",""
"","ITI","","html-keyboard-response","393","544861","0.0-1.0-531.0","0","0","85029","","null","","","null","58","","","","","","","","","","","","","","","NaN",""
"","S1","","html-keyboard-response","394","545113","0.0-1.0-533.0","0","0","85029","","null","","","null","59","","","","","","","","","","","","","","","",""
"","ISI","","html-keyboard-response","395","546115","0.0-1.0-534.0","0","0","85029","","null","","","null","59","NaN","","","","","","","","","","","","","","",""
"","S2","","html-keyboard-response","396","546368","0.0-1.0-535.0","0","0","85029","","null","","","null","59","","NaN","","","","","","","","","","","","","",""
"","response","","html-keyboard-response","397","546677","0.0-1.0-536.0-0.0","0","0","85029","","308","","","68","59","","","2","59","training","adjacent","FE","6","5","O.jpg","R.jpg","0","0","1","",""
"","feedback","","html-keyboard-response","398","547679","0.0-1.0-537.0-0.0","0","0","85029","","null","","","null","59","","","","","","","","","","","","","","","",""
"","ITI","","html-keyboard-response","399","548681","0.0-1.0-540.0","0","0","85029","","null","","","null","59","","","","","","","","","","","","","","","NaN",""
"","S1","","html-keyboard-response","400","548934","0.0-1.0-542.0","0","0","85029","","null","","","null","60","","","","","","","","","","","","","","","",""
"","ISI","","html-keyboard-response","401","549936","0.0-1.0-543.0","0","0","85029","","null","","","null","60","NaN","","","","","","","","","","","","","","",""
"","S2","","html-keyboard-response","402","550188","0.0-1.0-544.0","0","0","85029","","null","","","null","60","","NaN","","","","","","","","","","","","","",""
"","response","","html-keyboard-response","403","550918","0.0-1.0-545.0-0.0","0","0","85029","","727","","","68","60","","","2","60","training","adjacent","GF","7","6","N.jpg","O.jpg","0","0","1","",""
"","feedback","","html-keyboard-response","404","551921","0.0-1.0-546.0-0.0","0","0","85029","","null","","","null","60","","","","","","","","","","","","","","","",""
"","ITI","","html-keyboard-response","405","552924","0.0-1.0-549.0","0","0","85029","","null","","","null","60","","","","","","","","","","","","","","","NaN",""
"","S1","","html-keyboard-response","406","553176","0.0-1.0-551.0","0","0","85029","","null","","","null","61","","","","","","","","","","","","","","","",""
"","ISI","","html-keyboard-response","407","554178","0.0-1.0-552.0","0","0","85029","","null","","","null","61","NaN","","","","","","","","","","","","","","",""
"","S2","","html-keyboard-response","408","554430","0.0-1.0-553.0","0","0","85029","","null","","","null","61","","NaN","","","","","","","","","","","","","",""
"","response","","html-keyboard-response","409","555017","0.0-1.0-554.0-0.0","0","0","85029","","586","","","68","61","","","2","61","training","adjacent","AB","1","2","L.jpg","M.jpg","0","1","0","",""
"","feedback","","html-keyboard-response","410","556019","0.0-1.0-555.0-0.0","0","0","85029","","null","","","null","61","","","","","","","","","","","","","","","",""
"","time_out","","html-keyboard-response","411","558022","0.0-1.0-557.0-0.0","0","0","85029","","null","","","null","61","","","","","","","","","","","","","","","",""
"","ITI","","html-keyboard-response","412","559025","0.0-1.0-558.0","0","0","85029","","null","","","null","61","","","","","","","","","","","","","","","NaN",""
"","S1","","html-keyboard-response","413","559278","0.0-1.0-560.0","0","0","85029","","null","","","null","62","","","","","","","","","","","","","","","",""
"","ISI","","html-keyboard-response","414","560280","0.0-1.0-561.0","0","0","85029","","null","","","null","62","NaN","","","","","","","","","","","","","","",""
"","S2","","html-keyboard-response","415","560532","0.0-1.0-562.0","0","0","85029","","null","","","null","62","","NaN","","","","","","","","","","","","","",""
"","response","","html-keyboard-response","416","561520","0.0-1.0-563.0-0.0","0","0","85029","","987","","","68","62","","","2","62","training","adjacent","FG","6","7","O.jpg","N.jpg","0","1","0","",""
"","feedback","","html-keyboard-response","417","562523","0.0-1.0-564.0-0.0","0","0","85029","","null","","","null","62","","","","","","","","","","","","","","","",""
"","time_out","","html-keyboard-response","418","564526","0.0-1.0-566.0-0.0","0","0","85029","","null","","","null","62","","","","","","","","","","","","","","","",""
"","ITI","","html-keyboard-response","419","565528","0.0-1.0-567.0","0","0","85029","","null","","","null","62","","","","","","","","","","","","","","","NaN",""
"","S1","","html-keyboard-response","420","565781","0.0-1.0-569.0","0","0","85029","","null","","","null","63","","","","","","","","","","","","","","","",""
"","ISI","","html-keyboard-response","421","566784","0.0-1.0-570.0","0","0","85029","","null","","","null","63","NaN","","","","","","","","","","","","","","",""
"","S2","","html-keyboard-response","422","567037","0.0-1.0-571.0","0","0","85029","","null","","","null","63","","NaN","","","","","","","","","","","","","",""
"","response","","html-keyboard-response","423","567241","0.0-1.0-572.0-0.0","0","0","85029","","203","","","75","63","","","2","63","training","adjacent","DC","4","3","Q.jpg","P.jpg","1","0","0","",""
"","feedback","","html-keyboard-response","424","568243","0.0-1.0-573.0-0.0","0","0","85029","","null","","","null","63","","","","","","","","","","","","","","","",""
"","time_out","","html-keyboard-response","425","570245","0.0-1.0-575.0-0.0","0","0","85029","","null","","","null","63","","","","","","","","","","","","","","","",""
"","ITI","","html-keyboard-response","426","571247","0.0-1.0-576.0","0","0","85029","","null","","","null","63","","","","","","","","","","","","","","","NaN",""
"","S1","","html-keyboard-response","427","571499","0.0-1.0-578.0","0","0","85029","","null","","","null","64","","","","","","","","","","","","","","","",""
"","ISI","","html-keyboard-response","428","572502","0.0-1.0-579.0","0","0","85029","","null","","","null","64","NaN","","","","","","","","","","","","","","",""
"","S2","","html-keyboard-response","429","572754","0.0-1.0-580.0","0","0","85029","","null","","","null","64","","NaN","","","","","","","","","","","","","",""
"","response","","html-keyboard-response","430","572937","0.0-1.0-581.0-0.0","0","0","85029","","182","","","75","64","","","2","64","training","adjacent","EF","5","6","R.jpg","O.jpg","1","1","1","",""
"","feedback","","html-keyboard-response","431","573940","0.0-1.0-582.0-0.0","0","0","85029","","null","","","null","64","","","","","","","","","","","","","","","",""
"","ITI","","html-keyboard-response","432","574941","0.0-1.0-585.0","0","0","85029","","null","","","null","64","","","","","","","","","","","","","","","NaN",""
"","S1","","html-keyboard-response","433","575193","0.0-1.0-587.0","0","0","85029","","null","","","null","65","","","","","","","","","","","","","","","",""
"","ISI","","html-keyboard-response","434","576195","0.0-1.0-588.0","0","0","85029","","null","","","null","65","NaN","","","","","","","","","","","","","","",""
"","S2","","html-keyboard-response","435","576448","0.0-1.0-589.0","0","0","85029","","null","","","null","65","","NaN","","","","","","","","","","","","","",""
"","response","","html-keyboard-response","436","576649","0.0-1.0-590.0-0.0","0","0","85029","","199","","","68","65","","","2","65","training","adjacent","BA","2","1","M.jpg","L.jpg","0","0","1","",""
"","feedback","","html-keyboard-response","437","577652","0.0-1.0-591.0-0.0","0","0","85029","","null","","","null","65","","","","","","","","","","","","","","","",""
"","ITI","","html-keyboard-response","438","578653","0.0-1.0-594.0","0","0","85029","","null","","","null","65","","","","","","","","","","","","","","","NaN",""
"","S1","","html-keyboard-response","439","578906","0.0-1.0-596.0","0","0","85029","","null","","","null","66","","","","","","","","","","","","","","","",""
"","ISI","","html-keyboard-response","440","579909","0.0-1.0-597.0","0","0","85029","","null","","","null","66","NaN","","","","","","","","","","","","","","",""
"","S2","","html-keyboard-response","441","580161","0.0-1.0-598.0","0","0","85029","","null","","","null","66","","NaN","","","","","","","","","","","","","",""
"","response","","html-keyboard-response","442","580219","0.0-1.0-599.0-0.0","0","0","85029","","56","","","68","66","","","2","66","training","adjacent","CB","3","2","P.jpg","M.jpg","0","0","1","",""
"","feedback","","html-keyboard-response","443","581222","0.0-1.0-600.0-0.0","0","0","85029","","null","","","null","66","","","","","","","","","","","","","","","",""
"","ITI","","html-keyboard-response","444","582224","0.0-1.0-603.0","0","0","85029","","null","","","null","66","","","","","","","","","","","","","","","NaN",""
"","S1","","html-keyboard-response","445","582476","0.0-1.0-605.0","0","0","85029","","null","","","null","67","","","","","","","","","","","","","","","",""
"","ISI","","html-keyboard-response","446","583478","0.0-1.0-606.0","0","0","85029","","null","","","null","67","NaN","","","","","","","","","","","","","","",""
"","S2","","html-keyboard-response","447","583730","0.0-1.0-607.0","0","0","85029","","null","","","null","67","","NaN","","","","","","","","","","","","","",""
"","response","","html-keyboard-response","448","583829","0.0-1.0-608.0-0.0","0","0","85029","","98","","","75","67","","","2","67","training","adjacent","ED","5","4","R.jpg","Q.jpg","1","0","0","",""
"","feedback","","html-keyboard-response","449","584831","0.0-1.0-609.0-0.0","0","0","85029","","null","","","null","67","","","","","","","","","","","","","","","",""
"","time_out","","html-keyboard-response","450","586833","0.0-1.0-611.0-0.0","0","0","85029","","null","","","null","67","","","","","","","","","","","","","","","",""
"","ITI","","html-keyboard-response","451","587835","0.0-1.0-612.0","0","0","85029","","null","","","null","67","","","","","","","","","","","","","","","NaN",""
"","S1","","html-keyboard-response","452","588088","0.0-1.0-614.0","0","0","85029","","null","","","null","68","","","","","","","","","","","","","","","",""
"","ISI","","html-keyboard-response","453","589092","0.0-1.0-615.0","0","0","85029","","null","","","null","68","NaN","","","","","","","","","","","","","","",""
"","S2","","html-keyboard-response","454","589344","0.0-1.0-616.0","0","0","85029","","null","","","null","68","","NaN","","","","","","","","","","","","","",""
"","response","","html-keyboard-response","455","589853","0.0-1.0-617.0-0.0","0","0","85029","","508","","","68","68","","","2","68","training","adjacent","BA","2","1","M.jpg","L.jpg","0","0","1","",""
"","feedback","","html-keyboard-response","456","590855","0.0-1.0-618.0-0.0","0","0","85029","","null","","","null","68","","","","","","","","","","","","","","","",""
"","ITI","","html-keyboard-response","457","591858","0.0-1.0-621.0","0","0","85029","","null","","","null","68","","","","","","","","","","","","","","","NaN",""
"","S1","","html-keyboard-response","458","592110","0.0-1.0-623.0","0","0","85029","","null","","","null","69","","","","","","","","","","","","","","","",""
"","ISI","","html-keyboard-response","459","593113","0.0-1.0-624.0","0","0","85029","","null","","","null","69","NaN","","","","","","","","","","","","","","",""
"","S2","","html-keyboard-response","460","593365","0.0-1.0-625.0","0","0","85029","","null","","","null","69","","NaN","","","","","","","","","","","","","",""
"","response","","html-keyboard-response","461","593781","0.0-1.0-626.0-0.0","0","0","85029","","415","","","68","69","","","2","69","training","adjacent","DE","4","5","Q.jpg","R.jpg","0","1","0","",""
"","feedback","","html-keyboard-response","462","594784","0.0-1.0-627.0-0.0","0","0","85029","","null","","","null","69","","","","","","","","","","","","","","","",""
"","time_out","","html-keyboard-response","463","596785","0.0-1.0-629.0-0.0","0","0","85029","","null","","","null","69","","","","","","","","","","","","","","","",""
"","ITI","","html-keyboard-response","464","597787","0.0-1.0-630.0","0","0","85029","","null","","","null","69","","","","","","","","","","","","","","","NaN",""
"","S1","","html-keyboard-response","465","598039","0.0-1.0-632.0","0","0","85029","","null","","","null","70","","","","","","","","","","","","","","","",""
"","ISI","","html-keyboard-response","466","599043","0.0-1.0-633.0","0","0","85029","","null","","","null","70","NaN","","","","","","","","","","","","","","",""
"","S2","","html-keyboard-response","467","599295","0.0-1.0-634.0","0","0","85029","","null","","","null","70","","NaN","","","","","","","","","","","","","",""
"","response","","html-keyboard-response","468","599455","0.0-1.0-635.0-0.0","0","0","85029","","157","","","75","70","","","2","70","training","adjacent","FE","6","5","O.jpg","R.jpg","1","0","0","",""
"","feedback","","html-keyboard-response","469","600457","0.0-1.0-636.0-0.0","0","0","85029","","null","","","null","70","","","","","","","","","","","","","","","",""
"","time_out","","html-keyboard-response","470","602460","0.0-1.0-638.0-0.0","0","0","85029","","null","","","null","70","","","","","","","","","","","","","","","",""
"","ITI","","html-keyboard-response","471","603462","0.0-1.0-639.0","0","0","85029","","null","","","null","70","","","","","","","","","","","","","","","NaN",""
"","S1","","html-keyboard-response","472","603714","0.0-1.0-641.0","0","0","85029","","null","","","null","71","","","","","","","","","","","","","","","",""
"","ISI","","html-keyboard-response","473","604716","0.0-1.0-642.0","0","0","85029","","null","","","null","71","NaN","","","","","","","","","","","","","","",""
"","S2","","html-keyboard-response","474","604969","0.0-1.0-643.0","0","0","85029","","null","","","null","71","","NaN","","","","","","","","","","","","","",""
"","response","","html-keyboard-response","475","605781","0.0-1.0-644.0-0.0","0","0","85029","","811","","","68","71","","","2","71","training","adjacent","DC","4","3","Q.jpg","P.jpg","0","0","1","",""
"","feedback","","html-keyboard-response","476","606783","0.0-1.0-645.0-0.0","0","0","85029","","null","","","null","71","","","","","","","","","","","","","","","",""
"","ITI","","html-keyboard-response","477","607785","0.0-1.0-648.0","0","0","85029","","null","","","null","71","","","","","","","","","","","","","","","NaN",""
"","S1","","html-keyboard-response","478","608038","0.0-1.0-650.0","0","0","85029","","null","","","null","72","","","","","","","","","","","","","","","",""
"","ISI","","html-keyboard-response","479","609040","0.0-1.0-651.0","0","0","85029","","null","","","null","72","NaN","","","","","","","","","","","","","","",""
"","S2","","html-keyboard-response","480","609292","0.0-1.0-652.0","0","0","85029","","null","","","null","72","","NaN","","","","","","","","","","","","","",""
"","response","","html-keyboard-response","481","609494","0.0-1.0-653.0-0.0","0","0","85029","","201","","","75","72","","","2","72","training","adjacent","BC","2","3","M.jpg","P.jpg","1","1","1","",""
"","feedback","","html-keyboard-response","482","610497","0.0-1.0-654.0-0.0","0","0","85029","","null","","","null","72","","","","","","","","","","","","","","","",""
"","ITI","","html-keyboard-response","483","611500","0.0-1.0-657.0","0","0","85029","","null","","","null","72","","","","","","","","","","","","","","","NaN",""
"","S1","","html-keyboard-response","484","611753","0.0-1.0-659.0","0","0","85029","","null","","","null","73","","","","","","","","","","","","","","","",""
"","ISI","","html-keyboard-response","485","612754","0.0-1.0-660.0","0","0","85029","","null","","","null","73","NaN","","","","","","","","","","","","","","",""
"","S2","","html-keyboard-response","486","613007","0.0-1.0-661.0","0","0","85029","","null","","","null","73","","NaN","","","","","","","","","","","","","",""
"","response","","html-keyboard-response","487","613009","0.0-1.0-662.0-0.0","0","0","85029","","1","","","68","73","","","2","73","training","adjacent","BC","2","3","M.jpg","P.jpg","0","1","0","",""
"","feedback","","html-keyboard-response","488","614012","0.0-1.0-663.0-0.0","0","0","85029","","null","","","null","73","","","","","","","","","","","","","","","",""
"","time_out","","html-keyboard-response","489","616015","0.0-1.0-665.0-0.0","0","0","85029","","null","","","null","73","","","","","","","","","","","","","","","",""
"","ITI","","html-keyboard-response","490","617017","0.0-1.0-666.0","0","0","85029","","null","","","null","73","","","","","","","","","","","","","","","NaN",""
"","S1","","html-keyboard-response","491","617269","0.0-1.0-668.0","0","0","85029","","null","","","null","74","","","","","","","","","","","","","","","",""
"","ISI","","html-keyboard-response","492","618271","0.0-1.0-669.0","0","0","85029","","null","","","null","74","NaN","","","","","","","","","","","","","","",""
"","S2","","html-keyboard-response","493","618523","0.0-1.0-670.0","0","0","85029","","null","","","null","74","","NaN","","","","","","","","","","","","","",""
"","response","","html-keyboard-response","494","618665","0.0-1.0-671.0-0.0","0","0","85029","","141","","","68","74","","","2","74","training","adjacent","GF","7","6","N.jpg","O.jpg","0","0","1","",""
"","feedback","","html-keyboard-response","495","619668","0.0-1.0-672.0-0.0","0","0","85029","","null","","","null","74","","","","","","","","","","","","","","","",""
"","ITI","","html-keyboard-response","496","620671","0.0-1.0-675.0","0","0","85029","","null","","","null","74","","","","","","","","","","","","","","","NaN",""
"","S1","","html-keyboard-response","497","620923","0.0-1.0-677.0","0","0","85029","","null","","","null","75","","","","","","","","","","","","","","","",""
"","ISI","","html-keyboard-response","498","621926","0.0-1.0-678.0","0","0","85029","","null","","","null","75","NaN","","","","","","","","","","","","","","",""
"","S2","","html-keyboard-response","499","622179","0.0-1.0-679.0","0","0","85029","","null","","","null","75","","NaN","","","","","","","","","","","","","",""
"","response","","html-keyboard-response","500","622257","0.0-1.0-680.0-0.0","0","0","85029","","77","","","75","75","","","2","75","training","adjacent","DC","4","3","Q.jpg","P.jpg","1","0","0","",""
"","feedback","","html-keyboard-response","501","623259","0.0-1.0-681.0-0.0","0","0","85029","","null","","","null","75","","","","","","","","","","","","","","","",""
"","time_out","","html-keyboard-response","502","625262","0.0-1.0-683.0-0.0","0","0","85029","","null","","","null","75","","","","","","","","","","","","","","","",""
"","ITI","","html-keyboard-response","503","626264","0.0-1.0-684.0","0","0","85029","","null","","","null","75","","","","","","","","","","","","","","","NaN",""
"","S1","","html-keyboard-response","504","626517","0.0-1.0-686.0","0","0","85029","","null","","","null","76","","","","","","","","","","","","","","","",""
"","ISI","","html-keyboard-response","505","627519","0.0-1.0-687.0","0","0","85029","","null","","","null","76","NaN","","","","","","","","","","","","","","",""
"","S2","","html-keyboard-response","506","627771","0.0-1.0-688.0","0","0","85029","","null","","","null","76","","NaN","","","","","","","","","","","","","",""
"","response","","html-keyboard-response","507","627857","0.0-1.0-689.0-0.0","0","0","85029","","85","","","68","76","","","2","76","training","adjacent","DE","4","5","Q.jpg","R.jpg","0","1","0","",""
"","feedback","","html-keyboard-response","508","628859","0.0-1.0-690.0-0.0","0","0","85029","","null","","","null","76","","","","","","","","","","","","","","","",""
"","time_out","","html-keyboard-response","509","630861","0.0-1.0-692.0-0.0","0","0","85029","","null","","","null","76","","","","","","","","","","","","","","","",""
"","ITI","","html-keyboard-response","510","631863","0.0-1.0-693.0","0","0","85029","","null","","","null","76","","","","","","","","","","","","","","","NaN",""
"","S1","","html-keyboard-response","511","632115","0.0-1.0-695.0","0","0","85029","","null","","","null","77","","","","","","","","","","","","","","","",""
"","ISI","","html-keyboard-response","512","633116","0.0-1.0-696.0","0","0","85029","","null","","","null","77","NaN","","","","","","","","","","","","","","",""
"","S2","","html-keyboard-response","513","633368","0.0-1.0-697.0","0","0","85029","","null","","","null","77","","NaN","","","","","","","","","","","","","",""
"","response","","html-keyboard-response","514","633376","0.0-1.0-698.0-0.0","0","0","85029","","7","","","75","77","","","2","77","training","adjacent","FG","6","7","O.jpg","N.jpg","1","1","1","",""
"","feedback","","html-keyboard-response","515","634379","0.0-1.0-699.0-0.0","0","0","85029","","null","","","null","77","","","","","","","","","","","","","","","",""
"","ITI","","html-keyboard-response","516","635384","0.0-1.0-702.0","0","0","85029","","null","","","null","77","","","","","","","","","","","","","","","NaN",""
"","S1","","html-keyboard-response","517","635637","0.0-1.0-704.0","0","0","85029","","null","","","null","78","","","","","","","","","","","","","","","",""
"","ISI","","html-keyboard-response","518","636639","0.0-1.0-705.0","0","0","85029","","null","","","null","78","NaN","","","","","","","","","","","","","","",""
"","S2","","html-keyboard-response","519","636893","0.0-1.0-706.0","0","0","85029","","null","","","null","78","","NaN","","","","","","","","","","","","","",""
"","response","","html-keyboard-response","520","636952","0.0-1.0-707.0-0.0","0","0","85029","","57","","","68","78","","","2","78","training","adjacent","CD","3","4","P.jpg","Q.jpg","0","1","0","",""
"","feedback","","html-keyboard-response","521","637954","0.0-1.0-708.0-0.0","0","0","85029","","null","","","null","78","","","","","","","","","","","","","","","",""
"","time_out","","html-keyboard-response","522","639956","0.0-1.0-710.0-0.0","0","0","85029","","null","","","null","78","","","","","","","","","","","","","","","",""
"","ITI","","html-keyboard-response","523","640957","0.0-1.0-711.0","0","0","85029","","null","","","null","78","","","","","","","","","","","","","","","NaN",""
"","S1","","html-keyboard-response","524","641211","0.0-1.0-713.0","0","0","85029","","null","","","null","79","","","","","","","","","","","","","","","",""
"","ISI","","html-keyboard-response","525","642213","0.0-1.0-714.0","0","0","85029","","null","","","null","79","NaN","","","","","","","","","","","","","","",""
"","S2","","html-keyboard-response","526","642466","0.0-1.0-715.0","0","0","85029","","null","","","null","79","","NaN","","","","","","","","","","","","","",""
"","response","","html-keyboard-response","527","642895","0.0-1.0-716.0-0.0","0","0","85029","","427","","","75","79","","","2","79","training","adjacent","CB","3","2","P.jpg","M.jpg","1","0","0","",""
"","feedback","","html-keyboard-response","528","643900","0.0-1.0-717.0-0.0","0","0","85029","","null","","","null","79","","","","","","","","","","","","","","","",""
"","time_out","","html-keyboard-response","529","645904","0.0-1.0-719.0-0.0","0","0","85029","","null","","","null","79","","","","","","","","","","","","","","","",""
"","ITI","","html-keyboard-response","530","646906","0.0-1.0-720.0","0","0","85029","","null","","","null","79","","","","","","","","","","","","","","","NaN",""
"","S1","","html-keyboard-response","531","647159","0.0-1.0-722.0","0","0","85029","","null","","","null","80","","","","","","","","","","","","","","","",""
"","ISI","","html-keyboard-response","532","648161","0.0-1.0-723.0","0","0","85029","","null","","","null","80","NaN","","","","","","","","","","","","","","",""
"","S2","","html-keyboard-response","533","648414","0.0-1.0-724.0","0","0","85029","","null","","","null","80","","NaN","","","","","","","","","","","","","",""
"","response","","html-keyboard-response","534","648612","0.0-1.0-725.0-0.0","0","0","85029","","196","","","68","80","","","2","80","training","adjacent","DE","4","5","Q.jpg","R.jpg","0","1","0","",""
"","feedback","","html-keyboard-response","535","649615","0.0-1.0-726.0-0.0","0","0","85029","","null","","","null","80","","","","","","","","","","","","","","","",""
"","time_out","","html-keyboard-response","536","651618","0.0-1.0-728.0-0.0","0","0","85029","","null","","","null","80","","","","","","","","","","","","","","","",""
"","ITI","","html-keyboard-response","537","652620","0.0-1.0-729.0","0","0","85029","","null","","","null","80","","","","","","","","","","","","","","","NaN",""
"","S1","","html-keyboard-response","538","652872","0.0-1.0-731.0","0","0","85029","","null","","","null","81","","","","","","","","","","","","","","","",""
"","ISI","","html-keyboard-response","539","653874","0.0-1.0-732.0","0","0","85029","","null","","","null","81","NaN","","","","","","","","","","","","","","",""
"","S2","","html-keyboard-response","540","654126","0.0-1.0-733.0","0","0","85029","","null","","","null","81","","NaN","","","","","","","","","","","","","",""
"","response","","html-keyboard-response","541","654324","0.0-1.0-734.0-0.0","0","0","85029","","197","","","68","81","","","2","81","training","adjacent","AB","1","2","L.jpg","M.jpg","0","1","0","",""
"","feedback","","html-keyboard-response","542","655328","0.0-1.0-735.0-0.0","0","0","85029","","null","","","null","81","","","","","","","","","","","","","","","",""
"","time_out","","html-keyboard-response","543","657330","0.0-1.0-737.0-0.0","0","0","85029","","null","","","null","81","","","","","","","","","","","","","","","",""
"","ITI","","html-keyboard-response","544","658332","0.0-1.0-738.0","0","0","85029","","null","","","null","81","","","","","","","","","","","","","","","NaN",""
"","S1","","html-keyboard-response","545","658585","0.0-1.0-740.0","0","0","85029","","null","","","null","82","","","","","","","","","","","","","","","",""
"","ISI","","html-keyboard-response","546","659587","0.0-1.0-741.0","0","0","85029","","null","","","null","82","NaN","","","","","","","","","","","","","","",""
"","S2","","html-keyboard-response","547","659840","0.0-1.0-742.0","0","0","85029","","null","","","null","82","","NaN","","","","","","","","","","","","","",""
"","response","","html-keyboard-response","548","659988","0.0-1.0-743.0-0.0","0","0","85029","","147","","","75","82","","","2","82","training","adjacent","FE","6","5","O.jpg","R.jpg","1","0","0","",""
"","feedback","","html-keyboard-response","549","660991","0.0-1.0-744.0-0.0","0","0","85029","","null","","","null","82","","","","","","","","","","","","","","","",""
"","time_out","","html-keyboard-response","550","662995","0.0-1.0-746.0-0.0","0","0","85029","","null","","","null","82","","","","","","","","","","","","","","","",""
"","ITI","","html-keyboard-response","551","663997","0.0-1.0-747.0","0","0","85029","","null","","","null","82","","","","","","","","","","","","","","","NaN",""
"","S1","","html-keyboard-response","552","664248","0.0-1.0-749.0","0","0","85029","","null","","","null","83","","","","","","","","","","","","","","","",""
"","ISI","","html-keyboard-response","553","665250","0.0-1.0-750.0","0","0","85029","","null","","","null","83","NaN","","","","","","","","","","","","","","",""
"","S2","","html-keyboard-response","554","665502","0.0-1.0-751.0","0","0","85029","","null","","","null","83","","NaN","","","","","","","","","","","","","",""
"","response","","html-keyboard-response","555","665637","0.0-1.0-752.0-0.0","0","0","85029","","133","","","68","83","","","2","83","training","adjacent","AB","1","2","L.jpg","M.jpg","0","1","0","",""
"","feedback","","html-keyboard-response","556","666639","0.0-1.0-753.0-0.0","0","0","85029","","null","","","null","83","","","","","","","","","","","","","","","",""
"","time_out","","html-keyboard-response","557","668641","0.0-1.0-755.0-0.0","0","0","85029","","null","","","null","83","","","","","","","","","","","","","","","",""
"","ITI","","html-keyboard-response","558","669643","0.0-1.0-756.0","0","0","85029","","null","","","null","83","","","","","","","","","","","","","","","NaN",""
"","S1","","html-keyboard-response","559","669895","0.0-1.0-758.0","0","0","85029","","null","","","null","84","","","","","","","","","","","","","","","",""
"","ISI","","html-keyboard-response","560","670898","0.0-1.0-759.0","0","0","85029","","null","","","null","84","NaN","","","","","","","","","","","","","","",""
"","S2","","html-keyboard-response","561","671150","0.0-1.0-760.0","0","0","85029","","null","","","null","84","","NaN","","","","","","","","","","","","","",""
"","response","","html-keyboard-response","562","671196","0.0-1.0-761.0-0.0","0","0","85029","","46","","","75","84","","","2","84","training","adjacent","BC","2","3","M.jpg","P.jpg","1","1","1","",""
"","feedback","","html-keyboard-response","563","672199","0.0-1.0-762.0-0.0","0","0","85029","","null","","","null","84","","","","","","","","","","","","","","","",""
"","ITI","","html-keyboard-response","564","673203","0.0-1.0-765.0","0","0","85029","","null","","","null","84","","","","","","","","","","","","","","","NaN",""
"","S1","","html-keyboard-response","565","673458","0.0-1.0-767.0","0","0","85029","","null","","","null","85","","","","","","","","","","","","","","","",""
"","ISI","","html-keyboard-response","566","674460","0.0-1.0-768.0","0","0","85029","","null","","","null","85","NaN","","","","","","","","","","","","","","",""
"","S2","","html-keyboard-response","567","674713","0.0-1.0-769.0","0","0","85029","","null","","","null","85","","NaN","","","","","","","","","","","","","",""
"","response","","html-keyboard-response","568","674720","0.0-1.0-770.0-0.0","0","0","85029","","6","","","68","85","","","2","85","training","adjacent","CD","3","4","P.jpg","Q.jpg","0","1","0","",""
"","feedback","","html-keyboard-response","569","675722","0.0-1.0-771.0-0.0","0","0","85029","","null","","","null","85","","","","","","","","","","","","","","","",""
"","time_out","","html-keyboard-response","570","677725","0.0-1.0-773.0-0.0","0","0","85029","","null","","","null","85","","","","","","","","","","","","","","","",""
"","ITI","","html-keyboard-response","571","678727","0.0-1.0-774.0","0","0","85029","","null","","","null","85","","","","","","","","","","","","","","","NaN",""
"","S1","","html-keyboard-response","572","678979","0.0-1.0-776.0","0","0","85029","","null","","","null","86","","","","","","","","","","","","","","","",""
"","ISI","","html-keyboard-response","573","679982","0.0-1.0-777.0","0","0","85029","","null","","","null","86","NaN","","","","","","","","","","","","","","",""
"","S2","","html-keyboard-response","574","680233","0.0-1.0-778.0","0","0","85029","","null","","","null","86","","NaN","","","","","","","","","","","","","",""
"","response","","html-keyboard-response","575","680280","0.0-1.0-779.0-0.0","0","0","85029","","46","","","75","86","","","2","86","training","adjacent","DE","4","5","Q.jpg","R.jpg","1","1","1","",""
"","feedback","","html-keyboard-response","576","681282","0.0-1.0-780.0-0.0","0","0","85029","","null","","","null","86","","","","","","","","","","","","","","","",""
"","ITI","","html-keyboard-response","577","682284","0.0-1.0-783.0","0","0","85029","","null","","","null","86","","","","","","","","","","","","","","","NaN",""
"","S1","","html-keyboard-response","578","682538","0.0-1.0-785.0","0","0","85029","","null","","","null","87","","","","","","","","","","","","","","","",""
"","ISI","","html-keyboard-response","579","683542","0.0-1.0-786.0","0","0","85029","","null","","","null","87","NaN","","","","","","","","","","","","","","",""
